time,seconds_elapsed,z,y,x
1782829589786218500,0.076218505859375,0.33511867431700226,-0.15675810328945516,0.20316716856919229
1782829589796147500,0.0861474609375,0.35127836647927757,-0.2576044958733022,0.2939155801825225
1782829589806075600,0.09607568359375,0.38487726922035215,-0.21060367524549364,0.3379593411030248
1782829589816004600,0.106004638671875,0.3483773843407631,-0.15430603396221995,0.24482812600638715
1782829589825932500,0.1159326171875,0.4082335948884487,-0.13023381510972976,0.13946608262900262
1782829589835861500,0.125861572265625,0.4090864123255014,-0.08721738794296979,0.12133001235984266
1782829589845789400,0.13578955078125,0.4974649530023336,-0.06405000897571445,0.14049626592695713
1782829589855718400,0.145718505859375,0.6206733995199203,-0.04059329167306423,0.2526965578265488
1782829589865646300,0.155646240234375,0.7254092007577418,-0.0010635375782847404,0.3986064097674563
1782829589875575600,0.165575439453125,0.7906172937273979,0.055022068389505144,0.39325964191202073
1782829589885504500,0.17550439453125,0.8397668168216943,0.1389921449743211,0.17906499296985565
1782829589895432400,0.185432373046875,1.0587281321763993,0.25413755041509867,-0.01393025260977447
1782829589905361400,0.195361328125,1.41863579531312,0.37932255770266055,0.018619816931802778
1782829589915289300,0.205289306640625,1.5228309138029812,0.40408144364506005,0.19077976148724554
1782829589925218300,0.21521826171875,1.5211854846835136,0.32335634033083915,0.2881221462718211
1782829589935146500,0.225146484375,1.6010206534206866,0.2740267844945192,0.35423783733937886
1782829589945075500,0.235075439453125,1.6435001972317695,0.3384812826178968,0.3683938980616629
1782829589955003400,0.24500341796875,1.8155168060600757,0.38981282592639327,0.30195308495927603
1782829589964932400,0.254932373046875,2.1178046393990515,0.40797742817029353,0.23937787951016798
1782829589974861300,0.264861328125,2.3655595030397176,0.3876775674633682,0.19142627922985703
1782829589984789200,0.274789306640625,2.537279174748063,0.4334070529811084,0.21950952382199465
1782829589994718500,0.284718505859375,2.5859938135564327,0.4530323754273355,0.32066604180093855
1782829590004646700,0.294646728515625,2.557811090645194,0.45990869093760844,0.33530868046376855
1782829590014575400,0.304575439453125,2.502021398884058,0.4747239827536046,0.28785638974141325
1782829590024503600,0.314503662109375,2.4651450819075107,0.5511190940394998,0.19575115669164805
1782829590034432500,0.3244326171875,2.1012509794831273,0.6159731128744781,-0.03888498991783708
1782829590044360400,0.3343603515625,1.42911685731709,0.6075866850621998,-0.27932185869533566
1782829590054289400,0.344289306640625,0.6944616893082857,0.48366044566407795,-0.22932638629619032
1782829590064218600,0.354218505859375,-0.1821539719611406,0.2360939442023635,-0.09354326649624854
1782829590074146600,0.364146484375,-0.6465899310648441,0.17372414339855313,-0.2720981179868802
1782829590084075500,0.374075439453125,-0.6073632515698671,0.32703020653799175,-0.31192448040805754
1782829590094003500,0.38400341796875,-1.0344435857474803,0.6456191863365471,-0.1634255252894014
1782829590103932400,0.393932373046875,-1.9392332020998,0.4814575287923217,-0.28268311528936024
1782829590113860400,0.4038603515625,-3.0051427702128883,0.0867414409942925,-0.516465859939903
1782829590123789600,0.41378955078125,-4.586550376147032,-0.1573727280564606,-0.7296704383987933
1782829590133717500,0.423717529296875,-5.6548027079939835,-0.4215503187097609,-1.0990962367914616
1782829590143646500,0.433646484375,-7.340631642389297,-0.7270106446050107,-1.0815507893592118
1782829590153574400,0.443574462890625,-9.61929027608931,-1.3943449652738868,-0.6322915027298033
1782829590163503400,0.45350341796875,-11.468837362045049,-2.300915473693609,0.055531479216367
1782829590173432300,0.463432373046875,-13.203190965634583,-3.0008091249227524,0.5723541897699237
1782829590183360500,0.473360595703125,-14.111887526297568,-3.117005354590714,0.8495154728978872
1782829590193289500,0.48328955078125,-13.896451462459563,-2.5052602346748114,0.7905170482233166
1782829590203217700,0.4932177734375,-13.140545416629314,-1.7808735088326035,0.2369554564025253
1782829590213147000,0.50314697265625,-12.205216869628428,-1.4400018239468335,-0.18035386373661458
1782829590223074800,0.51307470703125,-11.543895817899703,-1.4983398850165306,-0.025966581231728195
1782829590233003800,0.523003662109375,-10.845243691164255,-1.8163281224429606,0.46002289190180595
1782829590242932000,0.532931884765625,-9.751478732398152,-2.044749632321298,0.7802883535452186
1782829590252860700,0.542860595703125,-8.104594153425097,-1.9663797138310968,0.6680209146935492
1782829590262789600,0.55278955078125,-6.280307765454054,-1.6432897693514823,0.26090945570282637
1782829590272717800,0.5627177734375,-4.357704795637726,-1.374725634177029,-0.050671106638386844
1782829590282646800,0.572646728515625,-2.5813240681797263,-1.1580644124582409,-0.10976707340329885
1782829590292575000,0.582574951171875,-1.1984019758045672,-0.9411866253793238,-0.052313467017933726
1782829590302504000,0.59250390625,0.13901391841471195,-0.5621684574507176,-0.059257842795737085
1782829590312431900,0.602431884765625,1.3331763569533823,-0.19115721649751066,0.0038093656877055764
1782829590322360800,0.61236083984375,2.3047078517138955,-0.013688333612680435,0.10509235959053038
1782829590332288800,0.622288818359375,3.267316619828343,0.011984013912826776,0.1630358683846891
1782829590342218000,0.632218017578125,4.190841916310787,-0.0526144227258861,0.11035663679428398
1782829590352147000,0.64214697265625,4.928097037684918,-0.07044774718880653,0.10036115721701644
1782829590362075000,0.652074951171875,5.764087843099236,0.0671489979043603,0.1924692489441484
1782829590372003800,0.66200390625,6.714688778033852,0.3001084434732795,0.34916316442359235
1782829590381931800,0.671931884765625,7.448860546439886,0.6775945795290171,0.6670742814932018
1782829590391860700,0.68186083984375,8.130515361145138,1.0427790140248834,0.855880185624212
1782829590401789000,0.691788818359375,8.82923763050735,1.2693250854201614,0.4706177164785564
1782829590411718000,0.7017177734375,9.098447954630851,1.7208780359447002,0.4098531589142978
1782829590421645800,0.711645751953125,8.870896505585312,2.2451241744972763,0.7678590800829231
1782829590431574800,0.72157470703125,8.016217950835824,2.542624335168302,1.0155600215792655
1782829590441502700,0.731502685546875,7.036152436485886,2.332691252660751,0.7875231271043419
1782829590451431700,0.741431640625,6.925079248920083,1.9099644375175238,0.8341261075209826
1782829590461361000,0.75136083984375,6.7160127201139925,1.4279504438862203,1.5717477971851825
1782829590471288800,0.761288818359375,6.497651708739996,1.0380872029468418,1.8064403501570223
1782829590481217800,0.7712177734375,6.675367990514635,0.858335323691368,0.6939012058813124
1782829590491145700,0.781145751953125,6.528713201957941,1.0679282144591211,-0.04034792034355923
1782829590501074700,0.79107470703125,6.5922524849325415,1.8736711811259388,-0.3451684322316199
1782829590511003000,0.8010029296875,7.1589049559295175,2.414888474354148,-0.6297529241628944
1782829590520931800,0.810931884765625,7.715925675228237,2.3877380171000957,-0.7236927522286772
1782829590530860000,0.820860107421875,8.07476775496006,2.2055665094822645,-0.39557288729045537
1782829590540789000,0.8307890625,8.19657101085484,2.115510975503921,0.04553604530487209
1782829590550718000,0.840718017578125,8.142939373910426,2.079315626528859,0.3016845336835831
1782829590560646000,0.85064599609375,7.6234619110643855,1.9126041383713484,0.6832650263808667
1782829590570574800,0.860574951171875,6.55396630115807,1.7656921601831912,1.1899731701552867
1782829590580502800,0.870502685546875,5.610406516906619,1.8436071745127438,0.9187789787381887
1782829590590432000,0.880431884765625,5.335591212382912,2.6175185403719543,0.3633475379249081
1782829590600360000,0.89035986328125,5.679505772095919,3.689348730705678,0.1606509094769135
1782829590610289000,0.900288818359375,5.96121258969903,4.440638807173073,-0.28976269828677176
1782829590620216800,0.910216796875,5.801802948987484,4.938701433807611,-0.7208727263718843
1782829590630145800,0.920145751953125,5.323941691121458,5.218269485816359,-1.0585543099794537
1782829590640074800,0.93007470703125,4.323142016300559,5.249536146217585,-1.3784936084084212
1782829590650002700,0.940002685546875,2.9360516983300444,4.65510105754286,-1.5230316970720885
1782829590659932000,0.949931884765625,1.9564163920909166,3.633970250093937,-1.4456417295299469
1782829590669859800,0.95985986328125,1.6752093407034874,2.7868942793026563,-1.1550629656199365
1782829590679788800,0.969788818359375,1.7530951289385557,2.5011972230195996,-0.6436464980240911
1782829590689716700,0.979716796875,2.3827082062393425,2.4370213957071303,-0.6188976950842887
1782829590699645700,0.989645751953125,2.4030858083575963,2.186827322220802,-0.32584808408133686
1782829590709573600,0.99957373046875,1.590331501623988,1.7921432369962333,-0.013099939265474677
1782829590719502800,1.0095029296875,0.525454199168086,1.5203224381133913,0.04854607730843127
1782829590729431800,1.019431884765625,-1.0860241353809832,1.2662456779748201,0.5474897245611995
1782829590739359700,1.02935986328125,-3.1655028435170647,0.7480190919727087,0.9823901579052209
1782829590749288700,1.039288818359375,-5.596381498685479,-0.142639415435493,0.9485084196347743
1782829590759217000,1.049216796875,-7.554606986024975,-0.7468374809727072,0.4634381071727723
1782829590769145600,1.0591455078125,-8.472081311905384,-0.390017554718256,0.05241122830398381
1782829590779073800,1.06907373046875,-8.737782751125097,0.2850017674952745,0.2119334625445306
1782829590789003000,1.0790029296875,-7.654869441241026,0.17365034750998018,0.05606295574456453
1782829590798931000,1.088930908203125,-5.528394588652253,-0.5929650161221623,-0.37081520692445336
1782829590808860000,1.09885986328125,-4.7547050488501785,-1.011879579500854,-0.32883557545952496
1782829590818787800,1.108787841796875,-5.860623386746645,-1.5202937965407968,-0.0398518256559968
1782829590828716800,1.118716796875,-7.877443101873993,-2.704940803237259,0.3486605851963162
1782829590838646000,1.12864599609375,-9.244456261977552,-3.979696535404026,1.2758727534979581
1782829590848574000,1.138573974609375,-10.22661144208312,-4.780894552117586,2.255425203759223
1782829590858503000,1.1485029296875,-10.247063863003254,-5.513004711818695,2.330142591091245
1782829590868430800,1.158430908203125,-10.050320809197425,-5.62532526909709,1.841697249238193
1782829590878359800,1.16835986328125,-10.446499224632978,-3.826500070118904,1.0354805275797843
1782829590888287700,1.178287841796875,-9.635490300261974,-2.112185192082077,0.4052852664768696
1782829590898216700,1.188216796875,-8.158437387293576,-1.80864998903051,-0.37125995501726866
1782829590908145000,1.198144775390625,-7.99444158783555,-1.8967124494954943,-0.27616642687171694
1782829590918073900,1.208073974609375,-8.971654635363816,-2.1547782792702317,0.5410236703522503
1782829590928002800,1.2180029296875,-9.471514374548196,-2.7831699980825184,1.0176768676027654
1782829590937930800,1.2279306640625,-9.492722582271695,-2.918302106627822,1.1243913485024124
1782829590947859700,1.237859619140625,-9.945431863224506,-2.562812844455242,0.9982062242615968
1782829590957787600,1.24778759765625,-9.970229619872569,-2.4361481200039385,0.8141521177675575
1782829590967716900,1.257716796875,-9.668718616124988,-2.251611490689963,0.2572378545179963
1782829590977644800,1.267644775390625,-9.312698608076571,-1.6674332998745143,-0.051839346700161694
1782829590987573800,1.27757373046875,-8.804329399222135,-1.3728950577490031,-0.22833850777000186
1782829590997502000,1.287501953125,-7.617976173129677,-1.2964530385814605,-0.28152335079498586
1782829591007431000,1.297430908203125,-6.254161516806483,-0.9972508962981402,-0.27572942369394005
1782829591017359600,1.307359619140625,-4.694905536925792,-0.4819865941677242,-0.6910874636348336
1782829591027287800,1.317287841796875,-3.1513515685677524,-0.20753822326026855,-0.9958234938435256
1782829591037217000,1.327217041015625,-1.9853578244149683,-0.2532332219865173,-0.973852046662569
1782829591047145000,1.33714501953125,-1.5407254669338464,-0.3230529734700918,-0.5746767144333571
1782829591057074000,1.347073974609375,-1.1461480569541453,-0.47406318075731396,-0.22660983908018095
1782829591067001900,1.357001953125,-0.3967611837595701,-0.7201610709711909,-0.06771349991932511
1782829591076930800,1.366930908203125,0.668226008811593,-0.8445907298468053,-0.05624013894237578
1782829591086858800,1.376858642578125,1.2015414428740738,-0.6328049321446567,0.16910782697582616
1782829591096788000,1.3867880859375,1.756356176561117,-0.5384096153963357,0.3689031262254342
1782829591106716000,1.3967158203125,2.607663793572783,-0.58023255846221,0.4474713437667116
1782829591116644900,1.406644775390625,3.4630127949297425,-0.7243113225184381,0.37164709117133166
1782829591126573800,1.41657373046875,4.382020321726799,-0.6856397926881909,0.24644096803050486
1782829591136501800,1.426501708984375,5.349646041220426,-0.435624619432725,0.18865480522252617
1782829591146430700,1.4364306640625,6.21449761493802,-0.28407990341000255,0.25154497663863
1782829591156358700,1.446358642578125,7.120372688439488,-0.14386932255662976,0.3533212339511141
1782829591166288000,1.456287841796875,7.906157739704847,0.1017588312536478,0.5223300757981837
1782829591176215800,1.4662158203125,8.484199619722366,0.2633670049227774,0.7237064154278486
1782829591186144800,1.476144775390625,8.797939990445972,0.36824236076176164,0.7639178681764751
1782829591196072700,1.48607275390625,8.813055726513266,0.4898322661668062,0.9445226379342376
1782829591206002000,1.496001953125,8.52837193892598,0.5376679301835596,0.9966885862402617
1782829591215931000,1.505930908203125,8.01200880870819,0.3914239143848419,0.7888421007484198
1782829591225858800,1.51585888671875,6.961065339058637,-0.05045461434349417,0.5073315729023888
1782829591235787800,1.525787841796875,5.472155984079837,-0.6264766789712012,0.4305556090727448
1782829591245716000,1.535716064453125,4.909301151800156,-0.8332606497980654,0.6728073452524841
1782829591255644700,1.545644775390625,6.170155199864507,-0.21869813437387345,0.6042606093794107
1782829591265573000,1.555572998046875,7.442748201039433,0.5926834227018057,0.06169560046982951
1782829591275502000,1.565502197265625,7.996264127087593,1.2115846979826688,-0.10057863589259795
1782829591285430000,1.575429931640625,8.218732573780416,1.61921681984663,0.0881675830735825
1782829591295359000,1.58535888671875,8.387950491800904,1.6975316471487283,0.5260584121389315
1782829591305288000,1.595287841796875,8.288587615773082,1.3922852562651038,0.7025177891876548
1782829591315216000,1.6052158203125,7.919931413513422,0.9729425306022167,0.5118357889864593
1782829591325145000,1.61514501953125,7.684284920817613,0.8626488029763102,0.3903133958596736
1782829591335073000,1.625072998046875,7.291182259565591,1.2534328120224176,0.6634566755179315
1782829591345002000,1.635001953125,7.111151271107793,1.75175335894078,0.8275560814809053
1782829591354930000,1.644929931640625,7.062509113013744,1.9751482728287577,0.8258067535955458
1782829591364859000,1.65485888671875,6.948465385204553,2.0362886779680847,0.7441082021392882
1782829591374786800,1.664786865234375,6.932319137045741,2.1630182843491434,0.40099377982802686
1782829591384716000,1.674716064453125,6.683540775576233,2.401435118541121,0.08801452967002987
1782829591394645000,1.68464501953125,6.111446990308165,2.7867355816096064,0.018310330857522785
1782829591404573000,1.694572998046875,5.3995829153001305,3.1372619606778023,0.38263548164293165
1782829591414502000,1.704501953125,3.4550153664350507,3.3059090930730104,0.26977533759512007
1782829591424429800,1.714429931640625,1.8950170437544582,3.171970578226447,-0.7363651137318462
1782829591434358800,1.72435888671875,2.2021219219863415,3.1342662859931587,-1.4797110262617468
1782829591444286700,1.73428662109375,3.1251725866943594,2.830461618350446,-1.4516624511241911
1782829591454216000,1.7442158203125,3.158538849723339,2.2690283433064815,-0.4736361144516617
1782829591464144000,1.754143798828125,3.0743887403964996,1.8630667850032447,0.207929999056831
1782829591474072800,1.76407275390625,1.281191902694106,1.4916364418551324,0.6146383571393788
1782829591484001800,1.774001708984375,-4.480821472218633,0.4296218353539705,1.7874878124058247
1782829591493930000,1.783929931640625,-10.973209561342001,-1.4700196533307432,2.7228128522753714
1782829591503858700,1.793858642578125,-10.523789385062456,-2.807055900582671,1.9058157934054731
1782829591513787100,1.803787109375,-8.512896721896528,-1.4605056827932594,1.0365955030843614
1782829591523716000,1.813716064453125,-7.675642764678597,0.34919396142065523,-0.07401422576503827
1782829591533644000,1.82364404296875,-5.491821638536453,1.5708340433411299,-1.2195713858876376
1782829591543573000,1.833572998046875,-2.5863924574851986,1.3062249294027686,-1.9187512628242371
1782829591553501000,1.8435009765625,-1.2403829224437475,0.2625976279854774,-2.0683634398818014
1782829591563430000,1.853429931640625,-2.226464920604229,-0.8087232976518571,-0.8021836667500436
1782829591573359000,1.863359130859375,-6.486366344615817,-2.3991926003113386,1.0912266724601387
1782829591583287000,1.873287109375,-11.47793836786747,-4.305625648832321,3.4449335328817368
1782829591593216000,1.883216064453125,-11.485668085336684,-5.386039543116093,4.615491808471083
1782829591603144000,1.89314404296875,-10.588186161649226,-4.584831005008518,2.7943372887849804
1782829591613073000,1.903072998046875,-11.147786376047133,-2.3103650006927547,1.7790256890088318
1782829591623000800,1.913000732421875,-10.297861153304575,-1.7829153899237513,0.23484482092410325
1782829591632929800,1.9229296875,-8.651950972321629,-1.8519035859540103,-1.1952584170818328
1782829591642858000,1.93285791015625,-6.75710343991518,-1.7386719051800668,-1.669232312120497
1782829591652787000,1.942786865234375,-5.653928847768903,-1.7508482267946004,-1.3501600788496433
1782829591662716000,1.9527158203125,-5.904712119320035,-2.040051829893887,-0.1956898914910853
1782829591672643800,1.962643798828125,-6.553886221659183,-2.9234686956107616,0.8938482433602213
1782829591682572800,1.97257275390625,-6.574257394036651,-3.5464681999906897,1.4865788662046193
1782829591692500700,1.982500732421875,-6.188029879251122,-2.9826398465037345,1.7463251964122055
1782829591702430000,1.992429931640625,-6.602274697253107,-1.9303538762040435,1.2951963165186344
1782829591712358000,2.00235791015625,-7.575124288874864,-1.6779997020743787,0.6143762721370906
1782829591722286800,2.012286865234375,-9.041125646474956,-1.5213234318494795,0.02121953283511102
1782829591732215000,2.022215087890625,-10.112724366140364,-1.3261165015697478,-0.6973970851730555
1782829591742143700,2.032143798828125,-10.715843404269219,-1.3059712469026445,-1.0335758630022407
1782829591752072700,2.04207275390625,-10.47643025251627,-1.4305306696377693,-0.46378180604390795
1782829591762001000,2.0520009765625,-9.924439344078301,-1.795659428423643,0.2651850141301751
1782829591771929900,2.061929931640625,-8.815134286352992,-1.6785323476463556,0.6600646219268441
1782829591781858000,2.071858154296875,-7.332617847281694,-1.2275419994406402,0.7941659261196852
1782829591791787000,2.081787109375,-5.818833578765392,-0.8958989653449505,0.7281709205560386
1782829591801715000,2.09171484375,-4.317006874546409,-0.6301753873586654,0.5277247013833374
1782829591811644000,2.101643798828125,-2.763880775722861,-0.42543811992853875,0.5095842106673866
1782829591821571800,2.11157177734375,-1.9071470420092342,-0.3358137439090758,0.5341428247973322
1782829591831501000,2.1215009765625,-1.379108671566844,-0.5996903788544238,0.4846920902667567
1782829591841430000,2.131429931640625,-0.1944499744325876,-0.6326635509125887,0.3845947990171611
1782829591851358000,2.14135791015625,0.6229717395901679,-0.3499335277415812,0.5253704298747703
1782829591861287000,2.151286865234375,1.366100136911869,-0.15092055624239145,0.34416393136419354
1782829591871214800,2.16121484375,2.2897072664588687,0.09861929111890494,0.1274425404233858
1782829591881143800,2.171143798828125,3.1874598237812517,0.31155111705102023,-0.010183357699029148
1782829591891072000,2.181072021484375,4.184090688484907,0.2824703493215143,-0.051081386206019666
1782829591901001000,2.1910009765625,4.972362880390882,-0.022120792523771523,0.04807151859924197
1782829591910929000,2.200928955078125,5.603611449939012,-0.3188813138086349,0.36090540546979755
1782829591920857900,2.21085791015625,6.1209080616146325,-0.3539069614171982,0.7403809252444654
1782829591930786800,2.220786865234375,6.685062870576977,-0.25198519468680025,0.6387088224261999
1782829591940714800,2.23071484375,7.47443980885446,-0.07108589896187185,0.5906572141038253
1782829591950644000,2.24064404296875,8.04621444517076,0.26823680291622876,0.4748238263988867
1782829591960572000,2.250572021484375,8.567568223282695,0.5898151737891137,0.1582428619544953
1782829591970500900,2.2605009765625,9.117298785573244,0.7785141834795475,0.03191719673182815
1782829591980429000,2.270428955078125,9.312263139268754,0.7727887915700674,0.05487038495913148
1782829591990357800,2.280357666015625,8.858362018182873,0.6589060995414853,0.012320552390813826
1782829592000286000,2.290285888671875,8.569675424695015,0.6873347600378096,0.057986105826869604
1782829592010215000,2.30021484375,8.564771870562433,0.8019652016937733,0.14824644166231155
1782829592020143900,2.310143798828125,8.328364914888143,0.8615162918150424,0.2905306139193475
1782829592030072000,2.320072021484375,8.007728939431905,0.8225538162142038,0.25242139414697884
1782829592040001000,2.3300009765625,7.9333841848045585,0.7597494233854114,-0.19955394650809466
1782829592049929000,2.339928955078125,7.728283052498102,0.7457989317052066,-0.682616353213787
1782829592059858000,2.34985791015625,7.575968338483571,0.7533098918572068,-1.0280288963995874
1782829592069785900,2.359785888671875,7.662471148416399,0.8457285017050802,-1.1276023464381695
1782829592079715000,2.369715087890625,7.844588880020379,1.069283574590832,-1.2019736237462608
1782829592089643000,2.37964306640625,8.158063293284178,1.3141975157171486,-1.138128928084299
1782829592099572000,2.389572021484375,8.09639915653169,1.45031732012555,-0.824598327653855
1782829592109501000,2.3995009765625,7.5303709549129,1.4888086710833013,-0.4930976977035403
1782829592119428900,2.409428955078125,7.063351993578672,1.4184468486122785,-0.07400803348626941
1782829592129357800,2.41935791015625,6.882078311583399,1.4645124342165887,-0.022765227907150982
1782829592139285800,2.42928564453125,7.181947977864742,1.740086009761691,-0.4544843278013169
1782829592149215000,2.439215087890625,7.577885570281744,2.1062936498254534,-0.8713457580424845
1782829592159143000,2.449142822265625,7.938563633269071,2.3420732673816382,-1.0747634673066437
1782829592169071900,2.45907177734375,8.177579894658923,2.4004065061457456,-1.0985300542760639
1782829592178999800,2.468999755859375,8.121767991065978,2.2187983314990998,-0.8604170253362506
1782829592188928800,2.4789287109375,7.562261884692311,2.0024103737637398,-0.4915944535337388
1782829592198858000,2.48885791015625,6.678610917958617,2.004721281054616,-0.25850787445381285
1782829592208789000,2.4987890625,5.588866300749778,2.3042463716819883,0.11564378341697155
1782829592218718000,2.508718017578125,4.35189873970747,2.642831553065777,0.5086540902104228
1782829592228646100,2.518646240234375,1.7657500278502702,2.560136610983312,0.39816104062013324
1782829592238575000,2.5285751953125,-1.0399556271672248,1.9012962701544165,0.045838279654458164
1782829592248503000,2.5385029296875,-0.599914689129591,0.9283733210355043,-0.17034275733195245
1782829592258432300,2.548432373046875,0.9252566503196954,1.07948391995728,-0.48429019493497905
1782829592268361200,2.558361328125,-0.04437865543067455,1.7017726457193494,-1.2749182292521
1782829592278289200,2.5682890625,-3.421399512559175,1.4712074018105863,-1.2223342016644776
1782829592288218000,2.578218017578125,-7.123153843590616,0.03597469196170568,0.1093063970889896
1782829592298146000,2.58814599609375,-8.752029303142427,-1.583285382504761,0.9394751452863216
1782829592308075300,2.5980751953125,-9.539586040255427,-2.2344604494027793,1.482655555281043
1782829592318003200,2.608003173828125,-10.358155755269527,-1.5950572149716318,1.008649511538446
1782829592327932200,2.61793212890625,-10.5232200607419,-0.17163023985922335,-0.501469695131667
1782829592337860000,2.627860107421875,-9.961403339338302,1.0883685065500437,-1.9231338618226348
1782829592347789000,2.6377890625,-9.844576118290425,1.0090880490861833,-2.9898662906259297
1782829592357718000,2.647718017578125,-11.066617328357696,0.05663534880504012,-2.796492420992255
1782829592367646000,2.65764599609375,-11.087868206179142,-0.8766381653621792,-1.4281636482454836
1782829592377575200,2.6675751953125,-8.63262901673615,-1.5536362403027713,-0.1667270327865146
1782829592387503000,2.677503173828125,-6.732643536919355,-1.7542611039780078,0.5433008580366149
1782829592397432000,2.68743212890625,-5.866904074451327,-1.6840841365545987,1.1110969095781444
1782829592407360000,2.697360107421875,-5.434399377137423,-1.5536166588194666,1.2642486589387059
1782829592417289000,2.7072890625,-4.925547937723994,-1.6606664360880852,1.0509469037156551
1782829592427217000,2.717216796875,-4.338101685023307,-1.9468463074520228,1.0777249474607407
1782829592437146000,2.72714599609375,-4.1141187421143055,-2.199216409803182,1.0897555039290339
1782829592447075000,2.737074951171875,-4.385696379891038,-2.357844252487272,0.8486310912787913
1782829592457003000,2.7470029296875,-4.505678265577554,-2.2477952934026715,0.6650696636725216
1782829592466932000,2.756931884765625,-4.743049097847938,-2.076856981330365,0.4307102151125669
1782829592476860200,2.766860107421875,-5.88497106153965,-1.8172981365188956,0.019605010310560465
1782829592486788900,2.776788818359375,-6.783000682237744,-1.389849261289835,-0.42680334386713803
1782829592496717000,2.786717041015625,-7.2388365707784885,-1.0093278491914273,-0.6003574644610286
1782829592506646300,2.796646240234375,-8.388956453973055,-0.8380919424120337,-0.39153080882541835
1782829592516574200,2.80657421875,-9.186956843689083,-1.092966940256208,-0.23134221963062881
1782829592526503200,2.816503173828125,-9.565393266206978,-1.2742125652007759,-0.2055334227764979
1782829592536432000,2.82643212890625,-9.785373987737298,-1.0932437113709748,-0.18217117882426828
1782829592546360000,2.836360107421875,-9.987972197312116,-1.0222172875113784,-0.008574680393375457
1782829592556289300,2.846289306640625,-10.40207322292924,-1.1090616043582557,0.38968485216517
1782829592566217200,2.85621728515625,-10.642574754440783,-1.24756757325083,0.6795758164741098
1782829592576146200,2.866146240234375,-10.35147116293907,-1.3103802955165504,0.7506310280367732
1782829592586074000,2.87607421875,-9.752155608746408,-1.2245585266504435,0.6346510714679956
1782829592596003000,2.886003173828125,-8.935649840524793,-1.0429844734691083,0.2906709357054904
1782829592605931000,2.895930908203125,-7.50138977510035,-0.7210163726262748,0.10819653615094721
1782829592615860000,2.90585986328125,-5.611085146820545,-0.5389366349451243,0.38260223696045575
1782829592625789200,2.9157890625,-3.938454132172465,-0.685200013031438,0.06674750443138182
1782829592635717000,2.925717041015625,-1.781754237189889,-0.695747929726541,-0.09934987041577696
1782829592645646000,2.93564599609375,0.19029460831880568,-0.665940016766265,-0.1242244916923344
1782829592655574000,2.945573974609375,1.8974767118662594,-0.6238023451954126,-0.006594722089916467
1782829592665503000,2.9555029296875,3.2890894756972786,-0.5494309948220849,0.21052323042042553
1782829592675431000,2.965430908203125,4.42224594913125,-0.4982737121019512,0.38284189093522725
1782829592685360000,2.975360107421875,5.427779082214832,-0.37498869321681555,0.416814814620465
1782829592695289000,2.9852890625,6.038840603780746,-0.24435418835170566,0.632554099188745
1782829592705217000,2.995217041015625,6.0497822690337895,-0.3318925518773496,0.774422384121269
1782829592715146000,3.00514599609375,5.961119066196679,-0.48600357472412287,0.7011551955975591
1782829592725074200,3.01507421875,6.365788246601819,-0.36456652179323135,0.602998151695542
1782829592735003000,3.0250029296875,6.806333627030253,-0.04125847758352756,0.4789835764268413
1782829592744931000,3.03493115234375,7.1475243147373195,0.2915484126597643,0.1904087727503851
1782829592754860300,3.0448603515625,7.431818226224183,0.5646839474029839,-0.08395853227749467
1782829592764788200,3.054788330078125,7.840343497535586,0.7581377504050731,-0.38401794897727665
1782829592774717200,3.06471728515625,8.287391683986783,1.0008775623627006,-0.5612007814623415
1782829592784646100,3.074646240234375,8.60694687846899,1.096490876598656,-0.4014091556958854
1782829592794574000,3.084573974609375,8.526651691004634,0.8835742482356727,-0.4682072212707251
1782829592804503300,3.09450341796875,8.391437749394774,0.7556419880665838,-0.5735208954617381
1782829592814431200,3.10443115234375,8.348292435151338,0.7641784918740391,-0.5099618118081242
1782829592824360200,3.114360107421875,8.205328317806124,0.8028393541797995,-0.4106446015529334
1782829592834288000,3.1242880859375,8.037917741468549,0.8131989817611872,-0.3318974472481757
1782829592844217000,3.134217041015625,8.118430371075869,0.8979431114584207,-0.18876484146825967
1782829592854146000,3.14414599609375,8.299757829084992,1.1681263722673059,-0.13210063189491628
1782829592864074000,3.154073974609375,8.350522386160492,1.4988041415274143,-0.40435909154266114
1782829592874003200,3.164003173828125,8.234774192520975,1.75060199694857,-0.6560352202802896
1782829592883931100,3.17393115234375,7.874336952552199,1.8760950472719966,-0.8608906341973692
1782829592893860000,3.183860107421875,7.879322924271225,2.0708698697447776,-1.262144380135834
1782829592903788000,3.1937880859375,8.281158342555164,2.395014437843859,-1.4522965112440287
1782829592913717000,3.203717041015625,8.51076789317429,2.6360958150699734,-1.4309680381417273
1782829592923645000,3.21364501953125,8.68279911504984,2.7538521336615083,-1.4082884426914155
1782829592933574100,3.22357421875,8.787357221633195,2.795884518226981,-1.3879977882042527
1782829592943503000,3.233503173828125,8.671237272071838,2.823268784236908,-1.2876584683597088
1782829592953431000,3.24343115234375,8.278646067473291,2.7744737736687064,-1.0707795122370123
1782829592963360000,3.253360107421875,7.465107916885614,2.6664117506176233,-0.43239685302525754
1782829592973288000,3.263287841796875,6.317617213150858,2.5305665253669023,0.07343304660990833
1782829592983217000,3.273216796875,4.906872463348508,2.7467054767772554,-1.006132414150983
1782829592993145000,3.28314501953125,3.0554122372478245,3.1967873318359254,-1.5206361802376807
1782829593003074000,3.293073974609375,1.9673995583981274,3.167914288572967,-1.9147142623931168
1782829593013002200,3.303002197265625,2.569105222597718,2.8909856451570985,-1.996640265929699
1782829593022931200,3.31293115234375,3.058643474254012,2.54643249527961,-1.1786693935915826
1782829593032860200,3.322860107421875,3.2429964175641537,2.290115554998815,-0.016719371871650218
1782829593042788000,3.3327880859375,2.716625103551149,2.212206970410049,0.413701212644577
1782829593052717000,3.342717041015625,0.9552642505705357,2.285203233037889,-0.011468173345178365
1782829593062645200,3.352645263671875,-1.3287059335410594,1.9604653752207755,-0.03785217627137899
1782829593072574200,3.36257421875,-3.3303017760515212,1.0033186719045042,0.38020503962561486
1782829593082502100,3.372502197265625,-6.253208746126294,-0.13580810811072588,1.472053935637325
1782829593092431000,3.38243115234375,-9.430990640980005,-1.2405495111823082,2.3001484348438677
1782829593102359000,3.392359130859375,-8.887989094683528,-1.3496046369239687,2.223014195628464
1782829593112288000,3.4022880859375,-8.591754570034146,-0.48515550652742384,1.7150883466273545
1782829593122217200,3.41221728515625,-8.073315802586079,0.4115549943961203,0.9381558063160628
1782829593132145200,3.422145263671875,-6.519030596855282,0.5888771622866392,-0.05053359786383808
1782829593142074000,3.43207421875,-6.050760174155235,-0.21444836797490716,-0.6499097231373191
1782829593152002000,3.442001953125,-7.599169181329011,-0.9502266947947442,-0.3917905557401478
1782829593161931000,3.451930908203125,-8.906697302284837,-1.7932658112853765,-0.3573326250169426
1782829593171859000,3.46185888671875,-8.183433296862244,-2.949765750905871,0.4847353814192116
1782829593181788000,3.471787841796875,-6.6344052810072895,-3.43326150752753,1.022851347631216
1782829593191716000,3.481716064453125,-5.496093909028172,-3.0970304880544544,1.15346437131688
1782829593201645000,3.49164501953125,-4.785565466538071,-2.5604303332328793,1.5382197677232323
1782829593211570700,3.50157080078125,-4.635964103135466,-2.706317644548416,1.3047450661085545
1782829593221498600,3.51149853515625,-4.710871167820692,-2.8535078551560638,0.6878633139565586
1782829593231427800,3.521427734375,-4.50262881487906,-2.456136430543661,0.5506592214427888
1782829593241355800,3.531355712890625,-4.026544503557682,-2.128616394662112,0.48363209635242815
1782829593251284700,3.54128466796875,-3.9633734693735834,-2.0831714251741764,0.09262187733501195
1782829593261213000,3.551212890625,-4.178995411172509,-2.2539159682400522,-0.168523798276484
1782829593271142000,3.561141845703125,-4.456996359995007,-2.4098500417955218,0.17023089445531367
1782829593281070600,3.571070556640625,-5.096431158608198,-2.4019040512271226,0.5265183212682605
1782829593290998800,3.580998779296875,-6.104250941324234,-2.309542286133021,0.5786890918798744
1782829593300928000,3.590927978515625,-7.242500353983044,-2.2333216546311974,0.3987634634926915
1782829593310856000,3.60085595703125,-8.734715180248022,-2.1832921338319777,0.19094985735714434
1782829593320785000,3.610784912109375,-10.483373203521966,-2.308438124283403,0.2505220633316785
1782829593330712800,3.620712890625,-11.238976467013359,-2.4918244145184754,0.19534831151179968
1782829593340641800,3.630641845703125,-11.622027689850329,-2.10194992153272,0.1284875559642911
1782829593350569700,3.64056982421875,-11.72730592740178,-1.2236954070150852,-0.14743147201761603
1782829593360499000,3.6504990234375,-11.358117225700616,-0.8054077433630824,-0.3683676676418632
1782829593370428000,3.660427978515625,-11.014372761857508,-1.0856353552591056,-0.18667305682078003
1782829593380355800,3.67035595703125,-10.68848193461299,-1.5220374253377318,0.10076952795535325
1782829593390284800,3.680284912109375,-10.02616018140912,-1.8908768752098082,0.5187173651937395
1782829593400212700,3.690212646484375,-9.16779329353571,-2.1955749845609067,0.8270175906900316
1782829593410141700,3.7001416015625,-8.401258301663399,-2.15966780487746,0.8889116637408733
1782829593420069600,3.710069580078125,-7.494467282360792,-1.9938316382497547,0.69037157045044
1782829593429998800,3.719998779296875,-6.062626553037762,-1.8274096345581112,0.19657485763207078
1782829593439926800,3.7299267578125,-4.352171711429953,-1.5147870158180594,-0.2735174467328936
1782829593449855700,3.739855712890625,-2.6109938147783276,-1.197099807164818,-0.4426684369970113
1782829593459784700,3.74978466796875,-0.8610632873505354,-0.9167108672272414,-0.48496655982658265
1782829593469712600,3.759712646484375,1.014897173756361,-0.5894871839437633,-0.5191123558606953
1782829593479641600,3.7696416015625,2.781250428196788,-0.25545385717805474,-0.5246974625166505
1782829593489569800,3.77956982421875,4.365219993573427,0.07146576512493193,-0.4441592600766569
1782829593499498800,3.789498779296875,4.997212074965239,0.20345555705651638,0.07884184685088694
1782829593509427000,3.799427001953125,5.049916075670719,-0.11482479518428444,0.5321380608461797
1782829593519355600,3.809355712890625,5.435618689799308,-0.6421144661512226,0.5671616626281291
1782829593529283800,3.819283935546875,6.114679396358132,-0.8567265733204782,0.21613259473480284
1782829593539212800,3.829212890625,6.533761717519163,-0.76831478796117,0.04453194629624486
1782829593549141800,3.839141845703125,6.8746367634058,-0.5876685902144759,-0.16969876033999023
1782829593559070000,3.849070068359375,7.399040576738119,-0.35594650442078707,-0.4459493583638221
1782829593568999000,3.8589990234375,7.85652481700778,0.032578692847862835,-0.4628657871775329
1782829593578926800,3.8689267578125,8.188727311617136,0.43045514437295496,-0.6373525855116545
1782829593588855800,3.878855712890625,8.509442782050371,0.7956962044268846,-0.8386503800123929
1782829593598783700,3.88878369140625,8.855538192933798,1.0975408971082419,-1.0003098454773425
1782829593608712700,3.898712646484375,9.148986886256933,1.1648076031081378,-1.0824502954822033
1782829593618642000,3.908641845703125,9.284979995545743,1.1304958759225905,-0.9446354506589472
1782829593628569900,3.91856982421875,9.151513774386048,1.199176101982221,-0.728200877302885
1782829593638498800,3.928498779296875,8.60879221407473,1.1523645933814346,-0.3278466374874115
1782829593648426800,3.9384267578125,7.876016868463158,0.7555106167718768,0.01053732223585248
1782829593658355700,3.948355712890625,7.630322444483637,0.32817601557224985,0.047094197999686
1782829593668283600,3.95828369140625,7.49581285175085,0.3346894891194999,-0.4091263059444725
1782829593678212900,3.968212890625,7.498556012979149,0.8062782425872981,-1.1557464909046888
1782829593688140800,3.978140869140625,7.714402995705604,1.1159037253379822,-1.402698805990815
1782829593698069800,3.98806982421875,7.951671536645293,1.2811300895042717,-1.3584646735973656
1782829593707998700,3.997998779296875,8.201933999192715,1.5195374252155422,-1.3916184629194437
1782829593717926700,4.0079267578125,8.555724640753864,1.8758191529400645,-1.3946904177106916
1782829593727855600,4.017855712890625,8.752018197226525,2.0554916833490133,-1.3169900690451264
1782829593737783800,4.02778369140625,8.779885278317332,2.0900141306757924,-1.2838203515015543
1782829593747712800,4.037712646484375,8.69303584690392,2.107595818465203,-1.3171090192496775
1782829593757641000,4.047640869140625,8.281660446858405,2.131307241181284,-1.2300509135216473
1782829593767569700,4.057569580078125,7.526329570567608,2.2297812055453656,-0.7839172115668654
1782829593777497900,4.067497802734375,6.411767907488346,2.4151275438070297,-0.34708705226927994
1782829593787426800,4.0774267578125,4.538765711665153,2.6815698645219204,-0.47968628133609886
1782829593797355800,4.087355712890625,1.7237480384230612,2.712091844035685,-0.7195360709406435
1782829593807284000,4.097283935546875,1.1561316908299921,2.372048865059018,-1.3420803788989781
1782829593817213000,4.107212890625,1.1453607059687376,2.0432804365515707,-1.0584843865484
1782829593827140900,4.117140869140625,1.4633365223050117,2.444762511353195,-0.2263647234790027
1782829593837069800,4.12706982421875,1.625440224406123,2.845257036422193,0.18393720211610198
1782829593846997800,4.136997802734375,2.105929492688179,2.5009040852919218,0.6175383163645863
1782829593856926700,4.1469267578125,3.1361464006513353,2.4212337517276405,0.2520158820860088
1782829593866856000,4.15685595703125,3.4209050070405005,3.137408091150224,0.30379034685641526
1782829593876783900,4.166783935546875,2.1287018809884786,3.4791622579589485,0.4956462131425738
1782829593886712800,4.176712890625,-1.150924769836664,2.6620190686166283,0.39408348898291584
1782829593896640800,4.186640869140625,-5.5577077768981455,0.9887783976376056,1.0290640116009862
1782829593906569700,4.19656982421875,-7.876331341239809,-0.6536115002647042,2.7466192597985266
1782829593916497700,4.20649755859375,-7.011161787614226,-0.710030137579143,3.181377581258118
1782829593926427000,4.216427001953125,-7.071812363409996,0.22656039218157528,2.6019512611448765
1782829593936354800,4.226354736328125,-6.266076411005854,1.3276068862579762,1.661777173808962
1782829593946283800,4.23628369140625,-3.7186885146975515,2.196828637883812,0.49536111259087917
1782829593956212700,4.246212646484375,-0.6877320887923241,2.406738924037665,-1.1211154686369
1782829593966140700,4.256140625,1.460851719751954,2.3488987294875083,-2.235942066262662
1782829593976069600,4.266069580078125,2.5290181268811223,2.0163820543624458,-2.3004019712135193
1782829593985997600,4.27599755859375,1.594604356637597,1.271298723580688,-2.0131810663640497
1782829593995926800,4.2859267578125,-2.5425427943646906,-0.35080826474949717,-1.6169313392579554
1782829594005854700,4.295854736328125,-7.642741196551919,-1.8973902026265859,-0.575305733051896
1782829594015783700,4.30578369140625,-5.75315085402131,-1.7692013373479245,1.405210788811743
1782829594025711900,4.3157119140625,-3.4166824209094044,-1.6347316382341086,3.03698430789262
1782829594035640800,4.325640869140625,-4.258520783308148,-2.290853075493127,3.255166163307428
1782829594045569800,4.33556982421875,-5.851078728809952,-2.8472423650205134,1.1917512857437134
1782829594055498000,4.345498046875,-6.432749905240535,-2.4087537709914146,-0.6211112794805318
1782829594065427000,4.355427001953125,-5.9485004076421255,-1.181920650472492,-1.3683674973219633
1782829594075355000,4.36535498046875,-5.743170727276802,-0.9131357852194457,-1.1173992245927453
1782829594085283800,4.375283935546875,-6.510230619806051,-1.670190197367221,0.04339044811092317
1782829594095211800,4.385211669921875,-7.388162624371051,-2.2219000969067215,0.8388991671416908
1782829594105140700,4.395140625,-7.131497893565893,-2.2891277130052448,0.9754933110635727
1782829594115070000,4.405070068359375,-6.445731551888585,-2.1600617726311087,0.2689457549031824
1782829594124998000,4.414997802734375,-6.485795266729593,-2.040117588606477,-0.09635419573113321
1782829594134926800,4.4249267578125,-7.0788447462648145,-1.8463272471264003,0.08592208743542433
1782829594144854800,4.434854736328125,-7.109744326919317,-1.926875824829936,0.4266488839577883
1782829594154783700,4.44478369140625,-6.877617240521311,-2.077787686309218,0.9084634094942361
1782829594164711700,4.454711669921875,-6.951367536386847,-2.018039758441597,1.097014462081343
1782829594174641000,4.464640869140625,-6.750462686726451,-1.9959987531557677,0.9313655616540462
1782829594184568800,4.47456884765625,-6.379863533705473,-2.066859172798693,0.5929968725651502
1782829594194497800,4.484497802734375,-6.083942897310853,-1.89447285387516,0.2798513989947736
1782829594204426800,4.4944267578125,-5.5055865445166825,-1.247929684561491,0.003431435753405094
1782829594214358500,4.504358642578125,-5.212424851441383,-0.6829989227905869,0.20336057224944232
1782829594224287500,4.51428759765625,-5.6412739488571875,-0.6259521436404436,0.7265975337594747
1782829594234215400,4.52421533203125,-5.680066328588127,-0.635744273532182,0.8700148747649044
1782829594244144400,4.534144287109375,-5.704321648922562,-0.324799415278621,0.6363854209799319
1782829594254072300,4.544072265625,-5.797060722896457,-0.012200067816302179,0.1570121511157602
1782829594264001300,4.554001220703125,-6.25597645727396,-0.2142636955903843,0.08215652435682713
1782829594273930500,4.563930419921875,-6.56696489894092,-0.44054004666619,0.25500505396462975
1782829594283858400,4.5738583984375,-5.797924646249413,-0.5919564601341262,0.043759427553787825
1782829594293787400,4.583787353515625,-4.596698260673881,-0.5060265547184273,-0.24998861404210326
1782829594303715600,4.593715576171875,-3.564033375036716,-0.378868018868193,-0.41918618339430536
1782829594313644300,4.603644287109375,-2.463590253680944,-0.45017786277905103,-0.5849695603888482
1782829594323572500,4.613572509765625,-1.2970587493896484,-0.5282015251148492,-0.6434929879628122
1782829594333501700,4.623501708984375,-0.15947452264130116,-0.5077663841230794,-0.4985248007861897
1782829594343429600,4.6334296875,0.9512748886734247,-0.5027821659697219,-0.3905886326044798
1782829594353358600,4.643358642578125,1.9722949292242526,-0.4112184924507513,-0.31720037498436865
1782829594363287600,4.65328759765625,2.658494986143708,-0.3348597311198711,-0.2315812890835106
1782829594373215500,4.663215576171875,2.9395360333144662,-0.30734336316287514,-0.07824899552427232
1782829594383144400,4.67314453125,3.3353415237843986,-0.37399281404726203,-0.006635419426485896
1782829594393072400,4.683072265625,3.807519475317001,-0.5761391882013529,0.07567666081823408
1782829594403001600,4.693001708984375,4.123828235223889,-0.7968814686886966,0.1966911409555003
1782829594412929500,4.702929443359375,4.418718944048881,-0.8912886220052838,0.28863932028003036
1782829594422858500,4.7128583984375,5.018099380171298,-0.938908305183798,0.19531433617696164
1782829594432787500,4.722787353515625,5.803498646989464,-0.8697995515137911,-0.11112542920969426
1782829594442715400,4.73271533203125,6.533071981689334,-0.8458739015251397,-0.2086619300605729
1782829594452644400,4.742644287109375,7.158902033320069,-0.7122557046741247,0.010468531315959989
1782829594462572500,4.752572509765625,7.629904511332511,-0.32589298266898836,0.25851872464139014
1782829594472501500,4.76250146484375,7.673791583853959,-0.036572950115799904,0.3073438746195286
1782829594482429400,4.772429443359375,7.506795433536172,0.055430941451340913,0.18738083976395428
1782829594492358400,4.7823583984375,7.567850498479604,0.0751265526548028,0.1013949663773179
1782829594502286300,4.792286376953125,7.907408032026886,0.08562500418499111,0.24201449335776268
1782829594512215300,4.80221533203125,8.107089477372169,0.11744644892476498,0.25378544904179867
1782829594522144500,4.81214453125,8.043500510036944,0.11548888511620461,0.11658975903019309
1782829594532072400,4.822072509765625,7.982924168521166,0.13592282053157687,-0.09788440097309649
1782829594542001400,4.83200146484375,7.844322338038682,0.32676497973054647,-0.30943931252881884
1782829594551929600,4.8419296875,7.591930462247133,0.4652019750401377,-0.37185616734474897
1782829594561858300,4.8518583984375,7.569960622501373,0.4893468207374215,-0.3287404445219785
1782829594571786500,4.861786376953125,7.855508917963505,0.5105440686754882,-0.4612631012212485
1782829594581715500,4.871715576171875,7.913292998412251,0.5469476535737514,-0.6610982758235185
1782829594591644400,4.88164453125,7.781816489765047,0.6992467316277324,-0.8111603886056691
1782829594601572600,4.891572509765625,7.484898659026622,0.9576340484417974,-0.7984145234748721
1782829594611501600,4.90150146484375,6.886886588647961,1.077583347032964,-0.6161250885657966
1782829594621429500,4.911429443359375,6.2724991375297305,1.1902920268461108,-0.2421766981821507
1782829594631358500,4.9213583984375,5.989144552719592,1.2935862509734928,-0.28926315126679836
1782829594641286400,4.931286376953125,5.646818723502755,1.2860209302857517,-0.6081427115097642
1782829594651215600,4.941215576171875,4.676593050643802,1.46239325010553,-0.42438466535285113
1782829594661143600,4.9511435546875,2.9244185436815022,1.8501243013218045,-0.22713351589441297
1782829594671072500,4.961072509765625,1.8938018227458,2.1129428785815834,-0.31761326663419603
1782829594681001500,4.97100146484375,2.0901263588786123,2.186102368947118,-0.23662688203528523
1782829594690929400,4.980929443359375,2.023135474145412,2.049551041253656,-0.14734247855991126
1782829594700858400,4.9908583984375,1.500119315779209,2.051824246882647,-0.16206965370103715
1782829594710786300,5.000786376953125,0.9055109163641929,2.2083776213802397,-0.08428089609965682
1782829594720715500,5.010715576171875,0.5911947915792465,2.2902235454179345,-0.24262056949213145
1782829594730643500,5.0206435546875,-0.22809797701239584,2.0756785852007567,-0.1696086709037423
1782829594740572400,5.030572509765625,-2.5315204650908707,1.3946854492746292,0.47043300756141543
1782829594750501400,5.04050146484375,-5.797536523714661,0.2078948546782136,1.3240775430880487
1782829594760429300,5.05042919921875,-8.441357672339677,-0.8431013680718838,1.8872323812276124
1782829594770358500,5.060358642578125,-9.02284355533123,-1.1747430139280854,1.9125996083267032
1782829594780286500,5.070286376953125,-8.833960567376018,-0.46716450728476044,1.4583660404160619
1782829594790215400,5.08021533203125,-8.478547293049097,0.8937875992141664,0.5463352938290685
1782829594800143400,5.090143310546875,-7.64441643628776,1.8522057837709784,-0.4086843343306333
1782829594810072300,5.100072265625,-7.240868368867039,1.736207560893148,-0.4751423542961478
1782829594820000500,5.11000048828125,-8.2862968744874,0.247625245911628,-0.1384466399207711
1782829594829929500,5.119929443359375,-8.489123632121085,-1.1684687559641898,0.060937137652188535
1782829594839858400,5.1298583984375,-7.798630261921883,-1.6199714376062153,0.2545085756845772
1782829594849786600,5.13978662109375,-7.300806412479281,-1.4571106335274875,0.7560445775181055
1782829594859715600,5.149715576171875,-6.799049899762869,-1.3249936350196598,1.2053854049511252
1782829594869643500,5.1596435546875,-6.393043917796016,-1.2758762606292962,1.2281871654763816
1782829594879572500,5.169572509765625,-6.077327863085269,-0.9359238094802945,0.7680483190447092
1782829594889500400,5.17950048828125,-5.71658024199307,-0.6857044554222375,0.3358263841949403
1782829594899429600,5.1894296875,-4.9463580860406156,-0.7732832970887422,0.04032309642955661
1782829594909358600,5.199358642578125,-3.875396495234966,-1.143319555529952,-0.016891367437690496
1782829594919286500,5.20928662109375,-2.992859042701125,-1.588434728091955,0.08083908508270979
1782829594929215500,5.219215576171875,-2.290494617444277,-1.579825889700651,0.07779051116704941
1782829594939143400,5.229143310546875,-1.808587299057841,-1.0533065455190838,-0.450334514645487
1782829594949072400,5.239072265625,-1.6138310351550578,-0.48716257203351704,-0.6097339262239635
1782829594959000300,5.249000244140625,-1.6489029330581426,-0.1287437774813734,-0.46839989429861306
1782829594968929500,5.258929443359375,-2.0900024402379986,-0.5731076384857297,-0.16432780789136886
1782829594978858500,5.2688583984375,-2.9937551147580144,-1.4879282349869607,0.2792924499377608
1782829594988786400,5.278786376953125,-3.9602129595160482,-2.2791790043123066,0.7329030636444688
1782829594998715400,5.28871533203125,-4.400719761499762,-2.6722408951625227,0.8907431169517338
1782829595008643300,5.298643310546875,-4.667767939153314,-2.777901702290773,0.06497881425842643
1782829595018572500,5.308572509765625,-5.515720985040068,-1.9232436058074234,-0.8428985389761626
1782829595028498400,5.31849853515625,-5.836179265841841,-0.15620499945133923,-1.0350815913900733
1782829595038427400,5.328427490234375,-5.240585362520814,0.32613413448110223,-1.3711768556542694
1782829595048355300,5.338355224609375,-4.773541266745329,0.301687273629941,-1.18802729678452
1782829595058284500,5.348284423828125,-4.179506867825984,-0.02007335847467184,-0.2801942210830748
1782829595068213500,5.358213623046875,-4.719544303619862,-0.6283027984198183,0.8496471364535391
1782829595078141400,5.368141357421875,-5.583900202775001,-0.6573638385355473,2.2620561662063
1782829595088070400,5.3780703125,-5.838856960618496,-0.3670740476347506,2.976797550216317
1782829595097998300,5.387998291015625,-6.483866344493627,-0.5694536460228264,2.4123221309974787
1782829595107927600,5.397927490234375,-7.415577285519242,-0.44619953373260796,1.6260016576811671
1782829595117855500,5.40785546875,-7.326625913390517,-0.20439919458217917,0.44124110760763285
1782829595127784400,5.417784423828125,-6.5335016052782535,0.0410629915440455,-0.5347903289206326
1782829595137712400,5.42771240234375,-4.644202939170599,-0.15882091757077724,-0.36628918086737394
1782829595147641300,5.437641357421875,-2.35281692584455,-0.9485958056572824,0.20338351473361252
1782829595157570300,5.4475703125,0.051858197531104086,-1.712468081126362,0.5593566514329984
1782829595167498200,5.457498291015625,2.1520377483904363,-1.9673373068168758,0.892336377492547
1782829595177427500,5.467427490234375,3.9510488253295417,-1.8882415582701562,1.017245928839594
1782829595187355400,5.47735546875,5.3188043282330035,-1.6528661376006901,0.9576257190048694
1782829595197284400,5.487284423828125,6.300965938079357,-1.4323583234563468,0.7664223252780735
1782829595207212500,5.497212646484375,7.011010980966687,-0.9914215325575322,0.5592907831225544
1782829595217141500,5.5071416015625,7.31902829786837,-0.49830944100245833,0.4909981681410223
1782829595227070200,5.5170703125,7.385727506178617,-0.40524822240211067,0.4591396427938714
1782829595236998400,5.526998291015625,7.253180153429508,-0.43539296610131856,0.6757375534854829
1782829595246927400,5.53692724609375,7.086395600035786,-0.3988105540374294,1.0049826595939695
1782829595256855300,5.546855224609375,7.069518699514865,-0.29092929438073184,0.9835236919797956
1782829595266784500,5.556784423828125,7.2941019464045755,-0.24203566400995477,0.9566079202644526
1782829595276712400,5.56671240234375,7.717419713178277,-0.044239831481873985,0.6653007690146565
1782829595286641400,5.576641357421875,8.257852285769582,0.029140644690580666,-0.06060699238236993
1782829595296570400,5.5865703125,8.667070800042152,-0.09989610612168907,-0.4155736554529518
1782829595306498300,5.596498291015625,8.76336668971479,-0.06360032897945493,-0.6067723730046302
1782829595316427300,5.60642724609375,8.650304374158383,-0.08740118354465812,-0.7704134407408535
1782829595326355200,5.616355224609375,8.531927001059055,-0.03412595882248133,-0.9777359023585915
1782829595336284400,5.626284423828125,8.37678612370789,0.08021017606202513,-1.20893871351853
1782829595346212400,5.63621240234375,8.260755021473765,0.21975853014700114,-1.3656969629384577
1782829595356141300,5.646141357421875,8.241858013302087,0.3943998614557087,-1.4203211180515587
1782829595366070300,5.6560703125,8.313141626793145,0.5644116332676261,-1.4328442072771488
1782829595375998200,5.665998291015625,8.216157754856347,0.7937152597427368,-1.2742286395527422
1782829595385927400,5.675927490234375,7.0927516910642385,1.3636369616687296,-0.6752176212646067
1782829595395855400,5.68585546875,4.417206201398373,2.632916308251023,1.1705706966795026
1782829595405784300,5.695784423828125,3.3106916511744258,3.1220839730292558,1.3615358977362513
1782829595415712300,5.705712158203125,5.079686944556236,1.7878791498109696,-1.1814109473846852
1782829595425641200,5.71564111328125,6.2550838923484084,1.0549439374625682,-1.5243493555419145
1782829595435570200,5.725570068359375,6.326392055758833,1.4355321311868727,-0.7781170008555054
1782829595445498000,5.735498046875,4.9910757641673085,1.8734484782859682,-0.4810694062575698
1782829595455427300,5.74542724609375,3.4620109244108197,2.178191741953045,-0.6244247148774564
1782829595465355500,5.75535546875,2.2897861769139767,2.476761577682197,-0.693988372708112
1782829595475284200,5.7652841796875,1.4918430703431367,2.309386218788475,-0.9164235016532242
1782829595485212400,5.77521240234375,1.776412291640043,1.8832769216001033,-1.0779505729101597
1782829595495141400,5.785141357421875,2.0743898605644704,2.021271141578257,-0.8775164095014333
1782829595505070300,5.7950703125,1.7946996434807776,2.5516420466214416,-0.40757176997885103
1782829595514998500,5.80499853515625,0.8079068667024374,2.3211245873771604,-0.10794687223881483
1782829595524927500,5.814927490234375,-1.0401520265221595,1.5189403361052274,0.5966838905148207
1782829595534855400,5.82485546875,-2.9526895293980835,0.83566259637326,1.119037785580009
1782829595544784400,5.834784423828125,-4.5515708327025175,0.26165873970016834,1.3363960496522485
1782829595554712300,5.84471240234375,-5.615601162940264,0.054620209590345616,1.649404891230911
1782829595564641300,5.854641357421875,-6.059230480858683,0.08840455190092325,1.4188446157582104
1782829595574570500,5.864570556640625,-6.243784499698877,0.4762650747157633,0.8006273772187531
1782829595584498400,5.87449853515625,-5.795716322550177,1.1046225989975034,0.00723236240632832
1782829595594427400,5.884427490234375,-5.524749510148167,1.3028995843723417,-0.670421546094492
1782829595604355300,5.894355224609375,-6.027003450992703,0.8426635611765086,-0.7001051020227372
1782829595614284300,5.9042841796875,-6.5654965799540275,-0.09503419917374849,-0.19857932932227848
1782829595624212200,5.914212158203125,-6.414419298779964,-1.0510719183348118,-0.05241466237008571
1782829595634141400,5.924141357421875,-5.652717133891582,-1.761402938556671,0.06592603198066353
1782829595644069400,5.9340693359375,-5.112358211058378,-2.097211202573031,0.3881387552343309
1782829595653998300,5.943998291015625,-4.54108334095776,-2.02859096307233,0.49681511079147456
1782829595663927300,5.95392724609375,-4.243775049597025,-1.992468971594423,0.5946902324795723
1782829595673855200,5.963855224609375,-4.360648447874188,-2.279342816571891,0.37771643768027424
1782829595683784200,5.9737841796875,-4.444121680852771,-2.427420915929973,-0.00463306662812829
1782829595693712100,5.983712158203125,-4.211387860733271,-2.2275112147867677,-0.14879881484806537
1782829595703641300,5.993641357421875,-3.8083249464809894,-1.7824165004909038,-0.27614479956179855
1782829595713569300,6.0035693359375,-3.660657766011357,-1.5230441181622445,-0.48828781320378184
1782829595723498200,6.013498291015625,-3.4603888761669395,-1.4493994746282697,-0.5611953746348619
1782829595733427200,6.02342724609375,-2.9765239939719437,-1.411662156908214,-0.38847763179987665
1782829595743355400,6.03335546875,-3.151087949195504,-1.488499459003657,0.01588774335309863
1782829595753284000,6.0432841796875,-3.9837528250575063,-1.6656353105418382,0.38195889755561946
1782829595763212500,6.053212646484375,-4.429641320079565,-1.710719630023837,0.5710220643833279
1782829595773141500,6.0631416015625,-4.827357028084993,-1.3912209880344568,0.5583103207178414
1782829595783069400,6.0730693359375,-5.432827013254165,-1.010477676813677,0.4397438547872007
1782829595792998400,6.082998291015625,-5.8842217044770715,-0.8491641752421856,0.16678776826411484
1782829595802927400,6.09292724609375,-6.4794333304822445,-0.6666955843739211,0.14652619374096393
1782829595812855300,6.102855224609375,-7.28029378580451,-0.5729213221333921,0.2268744265668094
1782829595822784500,6.112784423828125,-7.580603597068786,-0.4562489993862808,0.034970994811877605
1782829595832712400,6.12271240234375,-7.891485071229934,-0.25790815499499437,0.12854184343479572
1782829595842641400,6.132641357421875,-8.01801769373417,-0.3552825971519574,0.4191997369956225
1782829595852569300,6.1425693359375,-7.811998862060904,-0.3984751480706036,0.7169019961100072
1782829595862498300,6.152498291015625,-7.3953557507455345,-0.34785295860785986,0.8030890180919319
1782829595872427300,6.16242724609375,-6.397065428397059,-0.34731107028350233,0.6249772341936827
1782829595882355500,6.17235546875,-5.356702973994612,-0.28045181257333607,0.4889825174696743
1782829595892284400,6.182284423828125,-4.053820048496127,-0.30278639397826046,0.22470833457410333
1782829595902212400,6.19221240234375,-2.723233123514056,-0.28925361625347284,0.0665360536377877
1782829595912141300,6.202141357421875,-1.6510627414405346,-0.26002456262707707,0.24067476918660102
1782829595922069200,6.2120693359375,-1.0169885930776597,-0.34540742861926554,0.7455836815193295
1782829595931998200,6.221998291015625,-0.39888533630669115,-0.3445314129697159,0.7496909707076848
1782829595941927400,6.231927490234375,0.522604654955864,-0.06271823064899072,0.39219942880198355
1782829595951855400,6.24185546875,1.6423901901632547,0.17144690091526135,-0.16672551668286323
1782829595961784300,6.251784423828125,2.3675340179830786,0.21452336943987757,-0.5723419148102402
1782829595971712300,6.261712158203125,2.867239443388581,0.16877764517338945,-0.7381729668714105
1782829595981641200,6.27164111328125,3.399005309921503,0.07794699863670393,-0.838648334185779
1782829595991569400,6.2815693359375,3.8814229159176348,-0.07626490903496742,-0.5642863994527608
1782829596001498000,6.291498046875,4.149949349430203,-0.2449580725289881,0.1037570923987776
1782829596011427300,6.30142724609375,4.351590112149715,-0.44946763215046376,0.4786170081367716
1782829596021355300,6.311355224609375,4.592817619848251,-0.6111608537545428,0.769503194028139
1782829596031284200,6.3212841796875,4.866321841773391,-0.6701178139075636,0.8670730491593479
1782829596041212400,6.33121240234375,5.448534285473823,-0.550922658151947,0.6786559251502156
1782829596051141400,6.341141357421875,6.273406900024414,-0.33343543393779546,0.5227226553123444
1782829596061069300,6.3510693359375,6.884256240144372,-0.20084888168945908,0.4426242690617218
1782829596070998500,6.36099853515625,7.324648475837707,-0.06568177489601075,0.3887654722979292
1782829596080927500,6.370927490234375,7.811355303460359,0.07595058238878846,0.422953280842863
1782829596090855400,6.38085546875,8.05505533875227,0.07126995029188692,0.39933687946647406
1782829596100784400,6.390784423828125,8.143991513311862,0.08401092005185783,0.4407979669500142
1782829596110712300,6.40071240234375,8.235666757446527,0.1543901320490986,0.6322551162421703
1782829596120641300,6.410641357421875,8.172225089627505,0.25282712540365754,0.840565565983951
1782829596130569200,6.4205693359375,7.870282124203443,0.32136816218830644,0.865382465723902
1782829596140498400,6.43049853515625,7.882258977723121,0.5191843981835991,0.6910510040819644
1782829596150427400,6.440427490234375,7.994578950479626,0.8277793688427656,0.3750132066035643
1782829596160355300,6.450355224609375,7.479221197912096,0.8593952080078423,0.24289405267126857
1782829596170284300,6.4602841796875,7.016203288912773,0.6109095458745956,0.3727462845848873
1782829596180212200,6.470212158203125,6.8827218701839445,0.6041735156178474,0.6180616826515645
1782829596190141400,6.480141357421875,6.8739633941888805,0.8442959846839309,0.7498506913140416
1782829596200069400,6.4900693359375,6.709767688244581,1.1371741846427321,0.608680179387331
1782829596209995500,6.49999560546875,6.342521352782845,1.3078516538217664,0.32694479327686127
1782829596219924500,6.509924560546875,6.161855573552846,1.3078624674767254,0.0699195951288566
1782829596229852400,6.519852294921875,6.026743923273682,1.287494948361069,-0.11857852169461548
1782829596239781400,6.529781494140625,5.792593806615471,1.3697384934142232,-0.04566011007595807
1782829596249709300,6.539709228515625,4.981752055504918,1.5483317041538656,0.38279721154328433
1782829596259638500,6.549638427734375,3.560313477730751,1.5853974062226712,0.7121384349700063
1782829596269566500,6.55956640625,2.386390694144368,1.3434155730254946,0.4861480977613479
1782829596279495400,6.569495361328125,1.8116309045374392,0.959350496970862,-0.247224263895303
1782829596289424400,6.57942431640625,1.873625880679488,0.84568685452044,-0.21405345037318765
1782829596299352300,6.589352294921875,1.7051169877111911,0.8692742124654352,0.12540749093182385
1782829596309281300,6.59928125,0.9283528627693652,0.9970191333688795,0.6238753373663872
1782829596319209500,6.60920947265625,-0.014213818791508674,0.9230984493725001,1.213731062361598
1782829596329138400,6.619138427734375,-1.7087760947406292,0.44502910171374677,1.530122678246349
1782829596339066600,6.629066650390625,-4.240760085690021,0.1540383229367435,1.1194090300451964
1782829596348995300,6.638995361328125,-7.634976992291212,-0.21820940100885927,0.6580407879490405
1782829596358924300,6.64892431640625,-10.341039785295724,-0.6615282647386193,0.7325573189467192
1782829596368852500,6.6588525390625,-10.943755503320693,-0.650237566852197,0.7900199123561382
1782829596378781400,6.668781494140625,-9.873935483765601,0.14257687159329652,0.47842038958612826
1782829596388709600,6.678709716796875,-8.855046610024571,1.1364273848634212,-0.3038716319316998
1782829596398638600,6.688638671875,-8.51979291115105,1.3507714887462556,-0.7590468280740081
1782829596408567600,6.698567626953125,-8.640793033969402,0.2574738552309572,-0.8241268376845866
1782829596418495500,6.70849560546875,-8.460486151179671,-0.9531253388456999,-0.7244248658955097
1782829596428424400,6.718424560546875,-8.093910262325405,-1.8979631802089512,-0.341708647166565
1782829596438352400,6.728352294921875,-6.755801125144958,-2.4386603950858117,-0.00945434930473566
1782829596448281600,6.738281494140625,-4.697254145878553,-1.9988969588153063,0.28011450691036877
1782829596458209500,6.74820947265625,-3.514941719609499,-1.3164800736963749,0.12774557849057017
1782829596468138500,6.758138427734375,-2.51287129420042,-1.0860832451570779,-0.3724167238369584
1782829596478067500,6.7680673828125,-1.6425842514306306,-0.9015664895873516,-0.7266596392102539
1782829596487995400,6.777995361328125,-0.9757640177637338,-0.672350176069513,-0.7550199837107211
1782829596497924600,6.787924560546875,-0.3191401839405298,-0.645992768889293,-0.881132773367688
1782829596507852500,6.7978525390625,0.20201544125080106,-0.7420250391896813,-0.962850467915833
1782829596517781500,6.807781494140625,0.7788385931283235,-0.8016420341540128,-0.9340539239551872
1782829596527709400,6.81770947265625,1.1481687491267918,-0.9188318779692053,-0.6690878132726997
1782829596537638400,6.827638427734375,1.271223466387391,-1.039224098022282,-0.37200668173134327
1782829596547567400,6.8375673828125,1.0973679516941308,-1.0379243405353278,-0.2107316124740988
1782829596557495300,6.847495361328125,0.4468459418773651,-1.114504160738364,-0.25094788752831515
1782829596567424500,6.857424560546875,-0.584056610262394,-1.1123512204881756,-0.2710771409086883
1782829596577352400,6.8673525390625,-1.7810586561411619,-0.9427135426856577,-0.4166734333883971
1782829596587281400,6.877281494140625,-2.655091315180063,-0.5966740997731685,-0.6475568033356219
1782829596597209300,6.887209228515625,-3.801200793689489,-0.4343345430895686,-0.7711050032015889
1782829596607138300,6.89713818359375,-4.370971688967943,-0.6684710696138442,-0.6893234496369958
1782829596617067500,6.907067626953125,-4.988554136735201,-0.8757902432959527,-0.48611667970977723
1782829596626995500,6.916995361328125,-6.067645257982611,-1.3220984981000423,-0.35507483615279195
1782829596636924400,6.92692431640625,-6.875570829385518,-1.6158444208040832,-0.3251876474112272
1782829596646852600,6.9368525390625,-7.206964930221438,-1.4592080441981554,-0.23466420366019008
1782829596656781300,6.94678125,-7.463956993284821,-0.9968271179281174,-0.17742847780920565
1782829596666709500,6.95670947265625,-7.670640426346659,-0.5968627542130649,-0.09775536776594818
1782829596676638500,6.966638427734375,-7.5116206617355346,-0.29905199322290715,-0.0234343593403697
1782829596686567400,6.9765673828125,-7.457490427619218,-0.04508950711376965,0.12451032289639115
1782829596696495600,6.98649560546875,-7.765598345413804,-0.02614975577890873,0.336246655433625
1782829596706424600,6.996424560546875,-8.025928028467296,-0.23315299537964163,0.4969585378501564
1782829596716352500,7.0063525390625,-7.775543985366821,-0.25119218114558606,0.6102968208037316
1782829596726281500,7.016281494140625,-7.357091194280982,-0.15497231585122645,0.7422601631198078
1782829596736209400,7.02620947265625,-6.471432979378104,-0.22465123409200458,0.7581650037381797
1782829596746138600,7.036138671875,-4.982181679093838,-0.168768822546117,0.6574727788027376
1782829596756067600,7.046067626953125,-3.42864524590373,-0.03942545347008854,0.48347909774780273
1782829596765995500,7.05599560546875,-1.9219342767745256,0.03548307251986116,0.3498158196460455
1782829596775924500,7.065924560546875,-0.5711567966789007,0.05925068240258843,0.2594446073146537
1782829596785852400,7.075852294921875,0.655799657958746,0.0426480687784031,0.13688863335642962
1782829596795781400,7.085781494140625,1.7346768441945313,0.05161426924001425,0.02948646245356649
1782829596805709300,7.095709228515625,2.4446353778421877,-0.017125468454509973,-0.034634565931744875
1782829596815638500,7.105638427734375,3.0076117906749245,-0.15330310399737207,0.06833037144234404
1782829596825567500,7.1155673828125,3.4534921023905274,-0.2711245967796072,0.6063035864491015
1782829596835495400,7.125495361328125,3.9111715729713437,-0.3454768040610477,1.037877359588444
1782829596845424400,7.13542431640625,4.47556662043035,-0.2937891407912597,1.0704376399967819
1782829596855352300,7.145352294921875,5.202230205163359,-0.14792608713414518,1.1141177187040447
1782829596865281300,7.15528125,6.257086464342475,-0.07603007736578583,0.8421974049694836
1782829596875209500,7.16520947265625,7.259792265045642,-0.035805874733440574,0.5704643939679488
1782829596885138400,7.175138427734375,7.92155579984486,0.04630911203660071,0.48263011623565105
1782829596895067400,7.1850673828125,8.466049630525708,0.23286599513180553,0.7695578468248248
1782829596904995300,7.194995361328125,8.649834418559074,0.3908350816462189,0.9416277202103286
1782829596914924300,7.20492431640625,8.56697727165222,0.4368042942039668,1.0851110391240566
1782829596924852500,7.2148525390625,8.276037930801511,0.42872364440523086,1.3471335706353187
1782829596934781400,7.224781494140625,8.004483089378475,0.42582536568045615,1.6392460469186305
1782829596944710400,7.23471044921875,7.867555329588055,0.5143734177052974,1.7250655507624149
1782829596954638600,7.244638671875,7.820323038291931,0.6126844465926289,1.4095875425912439
1782829596964567300,7.2545673828125,7.904514648672938,0.7598777259401976,0.8531561674878001
1782829596974495500,7.26449560546875,7.838215837857127,0.9221791425704956,0.44538463715314863
1782829596984424400,7.274424560546875,7.535879489201307,1.0066448937177657,0.281842244018428
1782829596994352400,7.284352294921875,7.379711606889963,0.9169673992715776,0.186130309979897
1782829597004281600,7.294281494140625,7.411574479618668,0.9125019442953168,0.20604467850057406
1782829597014210600,7.30421044921875,7.595883583787083,1.0809878947794436,0.20611012668590992
1782829597024138500,7.314138427734375,7.7262553460627785,1.159780276465416,0.20842603894546627
1782829597034067500,7.3240673828125,7.7556497828513375,1.1598327373050152,0.3367632266536355
1782829597043995400,7.333995361328125,7.796186375901103,1.368665457355231,0.5735462125660852
1782829597053924600,7.343924560546875,7.586596115481853,1.7024863469466567,0.8163245664358139
1782829597063852500,7.3538525390625,6.887602043440937,1.9548766153030097,0.8787848220020532
1782829597073781500,7.363781494140625,5.627343038660287,2.007704680779576,0.7536210036329924
1782829597083710500,7.37371044921875,4.367914639484882,1.9381810626983642,0.22947379541024565
1782829597093638400,7.383638427734375,3.908670403805375,1.952355134001374,-0.37874760735891755
1782829597103567400,7.3935673828125,3.8130502214372157,2.1744326816804707,-0.473985914270021
1782829597113495300,7.403495361328125,3.0382337234318255,2.3676202349618074,0.05398015812113881
1782829597123424500,7.413424560546875,1.8249889832824469,2.1501452126421032,-0.11585143481828272
1782829597133352400,7.4233525390625,0.7630185081839561,1.6672874616630375,-0.4553456938710063
1782829597143281400,7.433281494140625,0.09556582183241843,1.3034376367717981,-0.5149079629734158
1782829597153210400,7.44321044921875,-0.41343174805343147,1.2488428538836538,-0.6082108083099127
1782829597163138300,7.45313818359375,-1.3904764532774685,1.7517556970283388,-0.7753929096538573
1782829597173067500,7.463067626953125,-2.5204034432709217,1.9936821467764674,-0.7307010966207832
1782829597182995500,7.472995361328125,-4.627053651449084,1.4700561859488486,-0.3572065144192427
1782829597192924400,7.48292431640625,-7.298936526954174,0.4898565238252282,0.39498540625870227
1782829597202853400,7.492853271484375,-8.514203712841867,-0.2922347874887287,1.1129396879006177
1782829597212781000,7.502781005859375,-8.867080162167548,-0.38709794094450767,0.982625866357237
1782829597222710000,7.5127099609375,-8.82490924591422,0.14154234091378748,0.18239161664191633
1782829597232638200,7.52263818359375,-7.21427145384252,0.9140885558996349,-0.814659701963514
1782829597242567200,7.532567138671875,-5.346323034277558,1.240496027429402,-1.9138928630076348
1782829597252495000,7.5424951171875,-4.403232621103525,0.8030693635433912,-2.2896922150202093
1782829597262424000,7.552424072265625,-4.8279894807696335,-0.016664207618311045,-1.653485146281868
1782829597272353000,7.56235302734375,-4.644641330587864,-0.7587235144037753,-1.0968104639418423
1782829597282281200,7.57228125,-3.8580899711251258,-1.4976362667918204,-0.3608510814666748
1782829597292210200,7.582210205078125,-3.5608231808185575,-2.078978649659455,0.22134433803372083
1782829597302138000,7.59213818359375,-3.8829806667536495,-2.542713474756479,0.8357184912789613
1782829597312067000,7.602067138671875,-4.1215415855914355,-2.6812188591271635,1.3713796847499906
1782829597321995000,7.6119951171875,-4.049237981402873,-2.2504862860523165,0.8977057225059717
1782829597331924000,7.621924072265625,-4.26321683216989,-1.91489487965703,0.35762210948280987
1782829597341853200,7.631853271484375,-3.8883126754313704,-1.761309999576211,-0.19494506447315216
1782829597351781000,7.641781005859375,-3.0117724174857137,-1.5062027273461223,-0.6552258035935461
1782829597361710000,7.6517099609375,-2.3973113166093825,-1.4274451247125863,-0.6328788010984658
1782829597371638000,7.661637939453125,-1.7747645244330166,-1.6145155102878808,-0.30711043118983505
1782829597381567000,7.67156689453125,-1.0280015700012446,-1.6997415782831609,0.031534517557173965
1782829597391495000,7.681494873046875,-0.20051029738485812,-1.6369582282423971,-0.041340237582847474
1782829597401424000,7.691423828125,0.6627110447824001,-1.6208920595824718,-0.11746193875484168
1782829597411353000,7.70135302734375,0.9476660505264997,-1.5743191089779138,0.027001696433126925
1782829597421281000,7.711281005859375,0.6911345907121896,-1.4942565612256526,0.4000608828920871
1782829597431210000,7.7212099609375,0.5396271014273166,-1.4330346152827143,0.16712350302450357
1782829597441138000,7.731137939453125,0.6158464177548885,-1.1646190947987138,-0.24349121484681963
1782829597451067000,7.74106689453125,0.03582651566267013,-0.8531818133857101,-0.18186799462661146
1782829597460995000,7.7509951171875,-1.0599439377069473,-0.9288823665361851,-0.06469729390330613
1782829597470924000,7.760924072265625,-2.096182590177655,-0.996737539948523,-0.1955859927251935
1782829597480853000,7.77085302734375,-2.8246266285866497,-0.7285707335285841,-0.6601853987623005
1782829597490781200,7.78078125,-3.7330063783854244,-0.33547691317014394,-0.8072849354118108
1782829597500710000,7.7907099609375,-5.0528445303380485,-0.3199771462213248,-0.4501397957909852
1782829597510638000,7.80063818359375,-6.371193320515752,-0.4749431784622371,0.028430487127229568
1782829597520567000,7.810567138671875,-7.403331551930308,-0.30729660141170023,0.08664609086103738
1782829597530496000,7.82049609375,-8.064085032904147,0.13147877366952598,-0.19839893125407396
1782829597540424200,7.830424072265625,-8.477093002587557,0.421031555532664,-0.31135888241454956
1782829597550353200,7.840353271484375,-8.607127495732904,0.3434961151052266,-0.12147504685372114
1782829597560281000,7.850281005859375,-8.60493378508091,0.21862784561663864,-0.018191344120353458
1782829597570210000,7.8602099609375,-8.580061209630966,0.15116305976137517,0.005179521529749036
1782829597580138000,7.870137939453125,-8.806772700721025,0.07065240291543305,0.11068287307396531
1782829597590067200,7.880067138671875,-9.117259038084745,-0.05488824940938502,0.57831258671768
1782829597599996200,7.88999609375,-8.993895693266392,-0.03341503407415002,0.8827016301196068
1782829597609924000,7.899924072265625,-8.214878820961713,0.30360066950321196,0.6443067885637282
1782829597619853000,7.90985302734375,-7.07775285937488,0.7242127575147896,0.26509251354113217
1782829597629781000,7.919781005859375,-5.539418671491742,0.8756513462819159,-0.05576218269970268
1782829597639710000,7.9297099609375,-3.9939632534265517,0.8382708791755139,-0.19353497847951948
1782829597649638000,7.939637939453125,-2.3779952062427996,0.6637943099744618,-0.2736211811020039
1782829597659567000,7.949567138671875,-0.722048199892044,0.4951345007607713,-0.1737472502795048
1782829597669496000,7.95949609375,0.6890647987008094,0.31355686738286165,-0.01907457496197894
1782829597679424000,7.969424072265625,1.9135189151287078,0.08805825921390205,0.0990945622141473
1782829597689353000,7.97935302734375,2.7985522761315105,-0.3186222975462675,0.3636374242495745
1782829597699281000,7.989281005859375,3.453802483513951,-0.8785582467045634,0.631129692408815
1782829597709210000,7.999210205078125,4.1216982374578714,-1.242525633560866,0.8814700424980372
1782829597719139000,8.00913916015625,4.754874560198187,-1.4707351081237197,1.2611634062744677
1782829597729067000,8.01906689453125,5.490000852850079,-1.6680366725951432,1.7850541555181145
1782829597738996000,8.028995849609375,6.265123640325665,-1.7440623660467565,2.204656701160967
1782829597748924000,8.038923828125,6.764157450079917,-1.4676960326887667,2.1325226083204147
1782829597758852900,8.048852783203126,7.090352813228964,-1.0826998863290995,1.9015465916536747
1782829597768781000,8.058781005859375,7.583923681402206,-0.7292296358287333,1.781977816812694
1782829597778710000,8.0687099609375,7.914981097629666,-0.36458562835250047,1.7094838046185672
1782829597788639000,8.078638916015626,8.09401138461232,-0.12499885533200576,1.467852830685675
1782829597798567200,8.088567138671875,8.370060614845157,-0.0282474039115943,1.181903699337691
1782829597808495900,8.098495849609375,8.371151332691312,0.0708539168369025,0.9969031788390129
1782829597818424000,8.108424072265626,8.113048093515633,0.0972540306476876,0.7894120095908641
1782829597828353000,8.11835302734375,7.67285810239613,-0.1301100060669705,0.44053021939191966
1782829597838281200,8.12828125,7.367019883099198,-0.38313148499894883,0.18437453408744184
1782829597848210200,8.138210205078124,7.480023746466636,-0.477182335691154,0.12548501314744354
1782829597858139100,8.14813916015625,7.710048307627439,-0.28654289599005134,-0.0065590662546455855
1782829597868067000,8.158067138671875,7.844006696218251,-0.08094992504604161,-0.17275339867025613
1782829597877996000,8.16799609375,8.043436797150969,0.05354096298627555,-0.3470571685876697
1782829597887924000,8.177924072265625,8.418969314920902,0.0886317847855389,-0.5275982985246926
1782829597897853200,8.187853271484375,8.533157419636845,0.17551921012178062,-0.7111087265960871
1782829597907782100,8.1977822265625,8.045907571178674,0.2509117202363908,-0.8717210210956633
1782829597917710000,8.2077099609375,7.586749260216951,0.25916363494880496,-0.8798000634592026
1782829597927639000,8.21763916015625,7.517199338650703,0.2595500039178878,-0.794418512641266
1782829597937567000,8.22756689453125,7.310442255830765,0.3856125977575779,-0.5114342955134809
1782829597947496000,8.237495849609376,6.980145302581787,0.8757426778271794,0.05409034049734473
1782829597957423900,8.247423828125,5.9166316896945235,1.3884794342413544,0.4580032957077026
1782829597967353000,8.25735302734375,3.77147142585814,1.6041595359683036,0.18945377358049154
1782829597977282000,8.267281982421874,2.63411633169055,1.5580682314008474,-0.9578463760182261
1782829597987210000,8.2772099609375,2.321118888288736,1.973994280488044,-1.511287921655923
1782829597997139000,8.287138916015625,2.7590327511698005,2.3665271790280937,-1.8278218686208128
1782829598007067000,8.29706689453125,2.953266452503204,2.5934216254696247,-2.1758763046175242
1782829598016996000,8.30699609375,2.448113283085823,2.385906563889235,-2.414442484152317
1782829598026924000,8.316924072265625,1.2771323981702327,1.7646362213894724,-1.7075450916409491
1782829598036853000,8.32685302734375,-0.651869917294383,1.2929339245446025,-0.7707984945356845
1782829598046782000,8.336781982421876,-2.054873259189725,1.2801745423451065,-0.5102537074267864
1782829598056710000,8.3467099609375,-3.0359657784998415,2.0040451353587208,-0.36675168381258844
1782829598066638800,8.356638916015624,-5.07175264442563,2.2251725427061317,-0.27588205697238444
1782829598076567000,8.366567138671876,-7.120026651480794,1.00578827688843,-0.11624562176764011
1782829598086496000,8.37649609375,-8.641992472887038,-0.23518968883901833,0.2062220626277849
1782829598096425000,8.386425048828125,-9.2738343321532,-0.9043117697075009,0.4289245007395744
1782829598106353200,8.396353271484376,-9.194698836117983,-1.1768949312649666,0.28325362692000344
1782829598116282000,8.4062822265625,-7.840014411711692,-0.820021813518554,-0.05974484086139127
1782829598126210000,8.4162099609375,-5.5822506820023055,-0.08362820434458554,-0.374029529328458
1782829598136139300,8.42613916015625,-3.3234792365550994,0.17377974604330956,-0.7767069879271089
1782829598146067200,8.436067138671875,-2.3242402351796625,0.009878346870467066,-0.7105327533390372
1782829598155996200,8.44599609375,-2.669302795884013,-0.3646336687453091,-0.7176650163717567
1782829598165925000,8.455925048828124,-2.6310861702144144,-0.8888708933390677,-0.5887332968365401
1782829598175853000,8.46585302734375,-2.11650174010694,-1.0390801595069468,-0.10643062245696783
1782829598185782000,8.475781982421875,-2.314458845877647,-1.1840335509732365,0.8673835764132439
1782829598195710000,8.4857099609375,-3.106342798539996,-1.6198519028797744,1.4831246340975164
1782829598205639200,8.49563916015625,-3.3148043471902606,-1.6711112577348946,1.136864680302143
1782829598215566800,8.50556689453125,-3.2376369363576174,-0.6041492579594254,0.8332241171799599
1782829598225496000,8.51549609375,-2.8529151499599217,-0.20281462880447507,0.2634362707667053
1782829598235425000,8.525425048828126,-2.0925316664546725,-0.26139599711075423,-0.4539898953478783
1782829598245353000,8.53535302734375,-1.3103168748915195,-0.26333836335018274,-0.949766383806616
1782829598255282000,8.545281982421875,-0.38320086044073104,-0.5446685296606272,-1.3330840024948118
1782829598265209900,8.5552099609375,0.2785071447789669,-0.9931372504342347,-0.9668081195004283
1782829598275138800,8.565138916015625,-0.27771102596521374,-1.2408503938250244,-0.1855237406551838
1782829598285066800,8.575066650390625,-1.513907602635026,-1.59628631837517,0.47041021120771764
1782829598294996000,8.584995849609374,-2.1890660410583016,-1.9574901588022708,0.8366630055874585
1782829598304925000,8.594925048828125,-2.4492946018248793,-1.8137290458604691,0.7876265144135802
1782829598314852900,8.604852783203125,-2.7372721702605483,-1.1532833156615494,0.28591332938224073
1782829598324781800,8.61478173828125,-2.851601144751906,-0.9150126119419932,-0.3403676808863878
1782829598334709800,8.624709716796875,-3.218996533295512,-0.856604554376006,-0.5287718723487108
1782829598344639000,8.634638916015625,-3.8056986896306273,-0.6846905291393399,-0.46583866550847886
1782829598354568000,8.64456787109375,-4.863149056956171,-0.6174230194218456,-0.3060884677309543
1782829598364496000,8.654495849609376,-6.059060969510674,-0.593068878355436,-0.22353607592433689
1782829598374424800,8.6644248046875,-7.144526301965117,-0.6027052696961909,-0.25003771388083695
1782829598384353000,8.67435302734375,-7.728486466115712,-0.35401506143417205,-0.40025063331052657
1782829598394282000,8.684281982421876,-8.163096611276268,-0.023200349655095487,-0.5110404738903045
1782829598404210000,8.6942099609375,-8.887534336653351,-0.012275051014963536,-0.2695307882495224
1782829598414139100,8.70413916015625,-9.357825451526045,-0.24587063906295223,0.04607588780261576
1782829598424068000,8.714068115234374,-9.56808031333387,-0.3709073056546971,0.2920590655956417
1782829598433996000,8.72399609375,-9.508905655309558,-0.4109769022472203,0.42357356816567476
1782829598443925000,8.733925048828125,-9.220722335168718,-0.2533358786433935,0.6844837545208633
1782829598453853000,8.74385302734375,-8.82250218477249,-0.06394171716249547,0.6791553991049528
1782829598463782100,8.7537822265625,-8.60933348134458,-0.07966372116040438,0.7029872333303093
1782829598473711000,8.763711181640625,-8.668353825590014,-0.19683352683456615,1.087367366683483
1782829598483639000,8.77363916015625,-8.50381149816513,-0.3877206394201144,1.5459060844421386
1782829598493568000,8.783568115234376,-7.687584546884894,-0.4049162139687687,1.5597475627899169
1782829598503496000,8.793495849609375,-6.374941859394312,-0.10663304969388991,1.0384870889846234
1782829598513425000,8.8034248046875,-4.981954300078749,0.09994763537952676,0.6378009138010442
1782829598523352800,8.813352783203126,-3.1838772891193625,-0.06300617161174304,0.3626989012904465
1782829598533282000,8.823281982421875,-1.0781570552676916,-0.20965622006123885,-0.006105550333485007
1782829598543211000,8.8332109375,0.936924876281619,-0.1995993200197816,-0.2298029542993754
1782829598553139000,8.843138916015626,2.778852719405293,-0.20186934731099754,-0.16780227906890213
1782829598563068000,8.85306787109375,4.1847570434391494,-0.38900359190274025,0.12200886146947741
1782829598572995800,8.862995849609375,4.958370595395564,-0.6317034737087786,0.5767489175975322
1782829598582924800,8.8729248046875,5.386635755443573,-0.7774962386086582,1.0476834449402987
1782829598592853000,8.88285302734375,5.771009751316905,-0.7886672556381672,1.2855027516305446
1782829598602782000,8.892781982421875,6.257220319855213,-0.6572893119946122,1.3627978804960845
1782829598612711000,8.9027109375,6.8842772829324,-0.6459421346805989,1.574710154122114
1782829598622638800,8.912638916015625,7.5344006488204,-0.5675408712040633,1.7143372359991074
1782829598632567800,8.92256787109375,7.950777218154072,-0.25157033027559517,1.5715039054267108
1782829598642495700,8.932495849609374,7.95678668770194,0.18848061769939958,1.2133483466543256
1782829598652425000,8.942425048828126,7.974107240337133,0.5248655125599354,0.9603495910108089
1782829598662354000,8.95235400390625,8.276414947420358,0.7559779420226812,0.8028370160922408
1782829598672281900,8.96228173828125,8.508898007649183,0.9398480702519416,0.7234370239019393
1782829598682210800,8.9722109375,8.474914489504695,1.0282834556825458,0.6830812673117965
1782829598692139000,8.982138916015625,8.157029274061323,1.0978669872574507,0.5767779975615441
1782829598702068000,8.99206787109375,8.188467199376225,1.2594437428750096,0.41869018003828823
1782829598711996000,9.001995849609376,8.487879185017944,1.394056357590854,0.24784444162026045
1782829598721925000,9.011925048828125,8.536852767023444,1.4966370266214013,-0.06663279201053082
1782829598731854000,9.02185400390625,8.487917763462661,1.515297011166811,-0.20204985497705638
1782829598741782000,9.031781982421874,8.511879069286584,1.5960570396639406,-0.30713008573837575
1782829598751711000,9.0417109375,8.563464879617095,1.760526447983086,-0.38064913013130425
1782829598761639000,9.051638916015625,8.614286719837784,1.9906832572214304,-0.4131672518983483
1782829598771568000,9.061568115234374,8.721328459930419,2.260609912920743,-0.48981779925003643
1782829598781497000,9.0714970703125,8.745150649544597,2.499305710184574,-0.6652942662086337
1782829598791425000,9.081425048828125,8.684068696594238,2.589883806732297,-0.8872256834153085
1782829598801354000,9.09135400390625,8.620830442392826,2.5549098162457344,-1.056133658703789
1782829598811282000,9.101281982421876,8.389729776433109,2.5421514569595454,-1.1107290991790593
1782829598821211000,9.1112109375,7.869706370142102,2.682755274914205,-0.8402456133145838
1782829598831138800,9.121138916015624,6.968317502143979,2.8491943758711216,-0.3891072349403053
1782829598841068000,9.131068115234376,5.669603386762738,2.7976734474703666,-0.26538236333318055
1782829598850997000,9.1409970703125,4.568526059156656,2.7042726947173477,-0.6227209066342562
1782829598860925000,9.150925048828125,3.8915918432325123,2.6186881686732173,-0.6374576533213258
1782829598870854000,9.16085400390625,2.724775676780939,2.5543518901020286,-0.3629595249880105
1782829598880781800,9.17078173828125,1.4994494536936283,2.4129110368013382,-0.10143807486668228
1782829598890711000,9.1807109375,0.858372733092308,2.3377505818769335,0.2419160744845867
1782829598900639000,9.190638916015626,0.6288163739651441,2.4759935159191486,0.11334756223857402
1782829598910568000,9.20056787109375,0.8387298749893903,2.394408580905199,-0.11078560279607773
1782829598920497000,9.210496826171875,1.7506284465640782,2.4625188250571486,-0.4350963943075388
1782829598930424800,9.2204248046875,2.0245669682532546,2.764351315844059,-0.505239021069929
1782829598940353800,9.230353759765626,0.16248948654830456,2.8222292120561003,-0.30695231801867484
1782829598950282000,9.240281982421875,-4.375018918532133,2.3758498647771775,0.27233912366852164
1782829598960211000,9.2502109375,-8.231555230474472,0.9513723576985299,0.6794882843211293
1782829598970140000,9.260139892578126,-8.131957961168885,-0.540421905066818,1.0166111380673943
1782829598980068000,9.270068115234375,-6.408620257112384,-0.15286518750414252,0.9371686219096184
1782829598989996800,9.279996826171875,-5.483049718537926,0.7935613843552768,0.2901355867197737
1782829598999925000,9.289925048828126,-4.9420145038783545,0.8291507302612066,-0.7977154352948069
1782829599009854000,9.29985400390625,-4.639861110574007,0.33274785353243347,-1.0716937044724821
1782829599019782100,9.3097822265625,-5.231631071692705,-0.4208662819683551,-1.1534246238283812
1782829599029711000,9.319711181640624,-5.356366873908042,-1.0755120937168599,-0.959596872947365
1782829599039640000,9.32964013671875,-4.423521375894547,-1.653280563620478,0.00025718963146209714
1782829599049568000,9.339568115234375,-3.6883541667103765,-1.9960507756039498,0.5617813578292727
1782829599059497000,9.3494970703125,-3.6212551454275843,-2.0424714582562444,0.6609400895871221
1782829599069425000,9.3594248046875,-4.121353954064846,-1.8720009098261594,0.7542388432703911
1782829599079354000,9.36935400390625,-4.150359099274874,-2.0119940485365686,1.0961667592108248
1782829599089283000,9.379282958984374,-4.4046074165880675,-2.0246488013178108,1.2001667935200035
1782829599099211000,9.3892109375,-4.589272494587302,-2.0012638340771196,0.9912817587606608
1782829599109140000,9.399139892578125,-4.834700961107015,-2.1453175002247096,0.7031551372431218
1782829599119068000,9.40906787109375,-5.141164618825912,-2.1775902689285576,0.48413244708999986
1782829599128996900,9.418996826171876,-5.127001653438806,-1.9813849752612411,0.21897768196761608
1782829599138925000,9.428925048828125,-4.804411036783456,-1.7527290721051394,-0.02087605315968394
1782829599148854000,9.43885400390625,-4.630792253455519,-1.5641072193041443,-0.29314189239628613
1782829599158783000,9.448782958984374,-4.713440726047754,-1.4535104170784354,-0.5056709827464073
1782829599168711000,9.4587109375,-4.857040218687057,-1.4789716060712932,-0.931592867603898
1782829599178640000,9.468639892578125,-4.998431387627124,-1.4263738422192633,-0.7960605076946318
1782829599188567800,9.47856787109375,-4.677646943610906,-1.4673594942107795,0.3500802427358925
1782829599198497000,9.4884970703125,-4.291519966590404,-1.518745105794072,0.7542234995707869
1782829599208426000,9.498426025390625,-4.112669127827883,-1.4913037027694285,0.6032872343026101
1782829599218354400,9.5083544921875,-4.03760833388567,-1.5424046521924435,0.4099485821127891
1782829599228283400,9.518283447265626,-4.076540414348244,-1.498604819563031,0.20970205023065208
1782829599238211300,9.52821142578125,-3.8376661917775867,-1.2549926086850463,-0.03864157308340072
1782829599248140300,9.538140380859375,-3.3803035320609807,-0.78984864744246,0.13329407946318386
1782829599258068200,9.548068115234376,-3.1069951249688863,-0.5250700221560896,0.24504151302874086
1782829599267997400,9.55799755859375,-3.320376594364643,-0.6570025309424847,-0.05056961902529001
1782829599277926400,9.567926513671875,-3.9152456905424593,-0.6901895649470389,-0.4126796145118773
1782829599287854300,9.577854248046876,-4.182493190160393,-0.5510884797055274,-0.4764573824174702
1782829599297783300,9.587783203125,-3.778575120383501,-0.500943260104768,-0.6152022746324539
1782829599307711500,9.59771142578125,-3.5687370226830244,-0.49666141806710506,-0.6788103850595653
1782829599317640200,9.60764013671875,-3.840080851703882,-0.46608153435364363,-0.09408099010214209
1782829599327569400,9.6175693359375,-3.9666017837703227,-0.549036296416074,0.4532867885798216
1782829599337497600,9.62749755859375,-4.231974137166143,-0.356014747351408,0.8555908472888171
1782829599347426300,9.63742626953125,-4.533893721714615,-0.1406056080529466,0.48924818266853687
1782829599357354500,9.6473544921875,-5.073135623216629,-0.0068649903986603015,0.006635273296013474
1782829599367283500,9.657283447265625,-5.969751869985461,-0.1652725048629567,0.2512619949787855
1782829599377211400,9.66721142578125,-6.725438720107078,-0.4399559997005388,0.642239042378962
1782829599387140600,9.677140625,-6.794359111598133,-0.2643271917244419,0.5230279218692332
1782829599397069600,9.687069580078125,-5.9891761169016355,-0.024058592185936867,-0.29574352626204486
1782829599406997500,9.69699755859375,-4.893232645052671,0.623904344265163,-0.10255042002275586
1782829599416926500,9.706926513671876,-3.5857600536763665,0.9878551453128457,-0.26593510184511543
1782829599426854400,9.7168544921875,-1.7988216918468474,0.2867407201170921,-0.6566057136446237
1782829599436783400,9.726783447265625,-0.5501140086501837,-0.24053861211892216,-0.8924182105571031
1782829599446711300,9.736711181640626,-0.03737316058278083,-0.13829404317494481,-0.7128777820952237
1782829599456640500,9.746640625,-0.21583996846377848,-0.16637898653382435,0.20018515708371995
1782829599466569500,9.756569580078125,-0.5736357540130614,-0.7144689968094229,0.5022678597720339
1782829599476497400,9.766497314453124,-0.687144644293189,-1.0142916821438819,0.30407307278793305
1782829599486426400,9.77642626953125,-0.5627671539962291,-0.9886736220888793,-0.3504122877018526
1782829599496354300,9.786354248046875,0.03527940317392349,-0.7993927939224987,-0.5794521852068603
1782829599506283500,9.796283447265624,0.9308107773154973,-0.45660336578190325,-0.4124467556040734
1782829599516212500,9.80621240234375,3.7419524859070776,-0.43930429432615636,0.03356797787984833
1782829599526140400,9.816140380859375,2.9711767877250908,-0.6043867199771106,0.8419758711732923
1782829599536069400,9.8260693359375,2.249426693996787,-1.3486667715519667,0.0776987046977505
1782829599545997300,9.835997314453126,3.731772452676296,-1.5646791739732027,-0.5434868455953896
1782829599555926300,9.84592626953125,4.9907700592190025,-1.1622661019317806,-0.19071783869955689
1782829599565854200,9.855854248046874,5.5561950342476365,-0.9652188044823705,0.007720766977779567
1782829599575783400,9.865783447265626,6.288458923205733,-0.7804189941875637,0.6800682761661708
1782829599585712400,9.87571240234375,6.9178621571481225,-0.49223004802353676,1.4169434583120046
