time,seconds_elapsed,z,y,x
1782829589786218500,0.076218505859375,-0.05746683105826378,-0.11586809158325195,0.025226132944226265
1782829589796147500,0.0861474609375,-0.11595465242862701,-0.09693754464387894,-0.01692398265004158
1782829589806075600,0.09607568359375,-0.16459617018699646,-0.057205431163311005,-0.04958147183060646
1782829589816004600,0.106004638671875,-0.176209956407547,0.004863530397415161,-0.08522894978523254
1782829589825932500,0.1159326171875,-0.15863527357578278,0.02528056874871254,-0.12626954913139343
1782829589835861500,0.125861572265625,-0.11888440698385239,-0.013058297336101532,-0.14664006233215332
1782829589845789400,0.13578955078125,-0.08770545572042465,-0.10631003975868225,-0.11783475428819656
1782829589855718400,0.145718505859375,-0.07986430823802948,-0.19608812034130096,-0.04534883424639702
1782829589865646300,0.155646240234375,-0.07669167220592499,-0.2500251829624176,0.04639136418700218
1782829589875575600,0.165575439453125,-0.05811052396893501,-0.2294357568025589,0.1401761770248413
1782829589885504500,0.17550439453125,-0.0247361958026886,-0.14684493839740753,0.2344788908958435
1782829589895432400,0.185432373046875,-0.0030777733772993088,-0.06047728657722473,0.32722240686416626
1782829589905361400,0.195361328125,-0.014009758830070496,-0.04463011398911476,0.403227835893631
1782829589915289300,0.205289306640625,-0.01661352999508381,-0.07191100716590881,0.45600661635398865
1782829589925218300,0.21521826171875,-0.009607505984604359,-0.08967138081789017,0.4930749237537384
1782829589935146500,0.225146484375,-0.020390111953020096,-0.05822131782770157,0.4826619625091553
1782829589945075500,0.235075439453125,-0.047760095447301865,0.05437498539686203,0.41336190700531006
1782829589955003400,0.24500341796875,-0.06821530312299728,0.21784408390522003,0.31046321988105774
1782829589964932400,0.254932373046875,-0.07337352633476257,0.35355332493782043,0.2081592082977295
1782829589974861300,0.264861328125,-0.06538404524326324,0.4347677528858185,0.12269969284534454
1782829589984789200,0.274789306640625,-0.03653876855969429,0.40528032183647156,0.06200286000967026
1782829589994718500,0.284718505859375,0.018546853214502335,0.2881734073162079,0.049890801310539246
1782829590004646700,0.294646728515625,0.07387182861566544,0.1491125375032425,0.10335835814476013
1782829590014575400,0.304575439453125,0.10267604142427444,0.0795329362154007,0.18270431458950043
1782829590024503600,0.314503662109375,0.11734185367822647,0.044780515134334564,0.22746063768863678
1782829590034432500,0.3244326171875,0.15631002187728882,-0.022782281041145325,0.17559823393821716
1782829590044360400,0.3343603515625,0.20347651839256287,-0.07564765214920044,0.0467127189040184
1782829590054289400,0.344289306640625,0.23834875226020813,-0.06892663240432739,-0.035402122884988785
1782829590064218600,0.354218505859375,0.25291329622268677,0.08112425357103348,-0.0005960487760603428
1782829590074146600,0.364146484375,0.2532999813556671,0.40145379304885864,0.14593933522701263
1782829590084075500,0.374075439453125,0.19302089512348175,0.7618762850761414,0.2376869022846222
1782829590094003500,0.38400341796875,0.14434176683425903,1.008256196975708,0.19448857009410858
1782829590103932400,0.393932373046875,0.13053350150585175,1.0501748323440552,0.07839737087488174
1782829590113860400,0.4038603515625,0.16653305292129517,1.0062211751937866,-0.04540419206023216
1782829590123789600,0.41378955078125,0.24770322442054749,1.0286760330200195,-0.11572179943323135
1782829590133717500,0.423717529296875,0.2936115860939026,1.0353057384490967,-0.1573544591665268
1782829590143646500,0.433646484375,0.2470545470714569,0.8869413137435913,-0.18862700462341309
1782829590153574400,0.443574462890625,0.1423257440328598,0.589812159538269,-0.24396322667598724
1782829590163503400,0.45350341796875,0.0816211849451065,0.16495004296302795,-0.3548400402069092
1782829590173432300,0.463432373046875,0.0786014273762703,-0.24819758534431458,-0.4857157766819
1782829590183360500,0.473360595703125,0.11125193536281586,-0.3781093955039978,-0.5697317719459534
1782829590193289500,0.48328955078125,0.1870414912700653,-0.2409731149673462,-0.5067986249923706
1782829590203217700,0.4932177734375,0.3085770010948181,-0.06018846482038498,-0.33864015340805054
1782829590213147000,0.50314697265625,0.41236865520477295,-0.046015653759241104,-0.1769537776708603
1782829590223074800,0.51307470703125,0.44333869218826294,-0.19178231060504913,-0.11777619272470474
1782829590233003800,0.523003662109375,0.37534099817276,-0.37384238839149475,-0.17812050879001617
1782829590242932000,0.532931884765625,0.2402268946170807,-0.4516374468803406,-0.3065336346626282
1782829590252860700,0.542860595703125,0.0931953638792038,-0.47189316153526306,-0.4690572917461395
1782829590262789600,0.55278955078125,-0.009956139139831066,-0.4814370572566986,-0.6048053503036499
1782829590272717800,0.5627177734375,-0.023094311356544495,-0.5386829972267151,-0.6649608612060547
1782829590282646800,0.572646728515625,0.007861119695007801,-0.6936980485916138,-0.6434875726699829
1782829590292575000,0.582574951171875,0.05441610515117645,-0.878984808921814,-0.5325855612754822
1782829590302504000,0.59250390625,0.08991001546382904,-1.0338484048843384,-0.37336739897727966
1782829590312431900,0.602431884765625,0.118996262550354,-1.1013946533203125,-0.18550056219100952
1782829590322360800,0.61236083984375,0.14382979273796082,-1.047986388206482,0.02818647399544716
1782829590332288800,0.622288818359375,0.1666562855243683,-0.911331295967102,0.2591557800769806
1782829590342218000,0.632218017578125,0.19239111244678497,-0.765969455242157,0.5041216015815735
1782829590352147000,0.64214697265625,0.18467700481414795,-0.605861246585846,0.7594233751296997
1782829590362075000,0.652074951171875,0.1339002251625061,-0.4068450331687927,1.0216165781021118
1782829590372003800,0.66200390625,-0.0052464790642261505,-0.15707089006900787,1.2320488691329956
1782829590381931800,0.671931884765625,-0.20418305695056915,0.12827032804489136,1.3953771591186523
1782829590391860700,0.68186083984375,-0.3767359256744385,0.3451747000217438,1.5285911560058594
1782829590401789000,0.691788818359375,-0.549472987651825,0.47319135069847107,1.5846030712127686
1782829590411718000,0.7017177734375,-0.7414067387580872,0.5282024145126343,1.5366086959838867
1782829590421645800,0.711645751953125,-0.9410898685455322,0.43866315484046936,1.3517022132873535
1782829590431574800,0.72157470703125,-1.0566388368606567,0.15723146498203278,1.0568516254425049
1782829590441502700,0.731502685546875,-1.0616726875305176,-0.11739859730005264,0.7395625114440918
1782829590451431700,0.741431640625,-0.9926344752311707,-0.30475541949272156,0.46872198581695557
1782829590461361000,0.75136083984375,-0.8139464259147644,-0.3017258942127228,0.2844420373439789
1782829590471288800,0.761288818359375,-0.5674658417701721,-0.22424203157424927,0.22205990552902222
1782829590481217800,0.7712177734375,-0.3117791712284088,-0.12401563674211502,0.2572987973690033
1782829590491145700,0.781145751953125,-0.11921876668930054,-0.08519047498703003,0.3509427309036255
1782829590501074700,0.79107470703125,0.002393389120697975,-0.10183890163898468,0.46967613697052
1782829590511003000,0.8010029296875,0.0808786079287529,-0.11928793787956238,0.6024738550186157
1782829590520931800,0.810931884765625,0.07155117392539978,-0.02751768007874489,0.7202717661857605
1782829590530860000,0.820860107421875,-0.04544149711728096,0.1439312994480133,0.7821804285049438
1782829590540789000,0.8307890625,-0.2066374123096466,0.31750819087028503,0.786975622177124
1782829590550718000,0.840718017578125,-0.3809666037559509,0.4767652451992035,0.7753874063491821
1782829590560646000,0.85064599609375,-0.5463215708732605,0.55952388048172,0.7688669562339783
1782829590570574800,0.860574951171875,-0.592077374458313,0.4554976522922516,0.8303542733192444
1782829590580502800,0.870502685546875,-0.5660831928253174,0.2530325651168823,0.9467945694923401
1782829590590432000,0.880431884765625,-0.5612916350364685,0.2214013934135437,1.0501649379730225
1782829590600360000,0.89035986328125,-0.5157951712608337,0.4223300814628601,1.118939757347107
1782829590610289000,0.900288818359375,-0.43846017122268677,0.6975901126861572,1.1712030172348022
1782829590620216800,0.910216796875,-0.3456636071205139,0.9125746488571167,1.199363350868225
1782829590630145800,0.920145751953125,-0.2415235936641693,0.9398550987243652,1.2053756713867188
1782829590640074800,0.93007470703125,-0.09706152230501175,0.7374197244644165,1.1711293458938599
1782829590650002700,0.940002685546875,0.07651053369045258,0.5191060304641724,1.0120002031326294
1782829590659932000,0.949931884765625,0.2622288167476654,0.4390992522239685,0.7343264222145081
1782829590669859800,0.95985986328125,0.393202543258667,0.4871397316455841,0.44656041264533997
1782829590679788800,0.969788818359375,0.45696234703063965,0.6436030268669128,0.2577458620071411
1782829590689716700,0.979716796875,0.46147215366363525,0.695223867893219,0.1545313447713852
1782829590699645700,0.989645751953125,0.4043607711791992,0.5024098753929138,0.03068641573190689
1782829590709573600,0.99957373046875,0.2985416650772095,0.006636586040258408,-0.2130921483039856
1782829590719502800,1.0095029296875,0.1261064112186432,-0.5939242839813232,-0.6368280649185181
1782829590729431800,1.019431884765625,-0.06273700296878815,-1.0890378952026367,-1.265528678894043
1782829590739359700,1.02935986328125,-0.157931387424469,-1.3431247472763062,-1.959049105644226
1782829590749288700,1.039288818359375,-0.06370102614164352,-1.2432490587234497,-2.4177234172821045
1782829590759217000,1.049216796875,0.12070462852716446,-0.8316636681556702,-2.4813811779022217
1782829590769145600,1.0591455078125,0.2318870723247528,-0.3301395773887634,-2.2179768085479736
1782829590779073800,1.06907373046875,0.3221694827079773,0.1809832751750946,-1.7593446969985962
1782829590789003000,1.0790029296875,0.4358329474925995,0.8080889582633972,-1.195477843284607
1782829590798931000,1.088930908203125,0.39112594723701477,1.442351222038269,-0.6734612584114075
1782829590808860000,1.09885986328125,0.14199204742908478,1.7805638313293457,-0.3340004086494446
1782829590818787800,1.108787841796875,-0.1805972158908844,1.5768712759017944,-0.23259355127811432
1782829590828716800,1.118716796875,-0.5197233557701111,1.0470963716506958,-0.390288382768631
1782829590838646000,1.12864599609375,-0.8620331883430481,0.42885419726371765,-0.8170544505119324
1782829590848574000,1.138573974609375,-0.9845250248908997,0.06783366948366165,-1.3431158065795898
1782829590858503000,1.1485029296875,-0.8130972981452942,0.00841287150979042,-1.7601072788238525
1782829590868430800,1.158430908203125,-0.609059751033783,-0.07835877686738968,-1.9278600215911865
1782829590878359800,1.16835986328125,-0.43457263708114624,-0.073171466588974,-1.7260619401931763
1782829590888287700,1.178287841796875,-0.1833616942167282,0.08000955730676651,-1.196100115776062
1782829590898216700,1.188216796875,0.03932241350412369,0.11972923576831818,-0.6246235966682434
1782829590908145000,1.198144775390625,0.12705598771572113,-0.20072761178016663,-0.2988388240337372
1782829590918073900,1.208073974609375,0.16138380765914917,-0.6445634961128235,-0.23085463047027588
1782829590928002800,1.2180029296875,0.1670408844947815,-0.9757760763168335,-0.333991140127182
1782829590937930800,1.2279306640625,0.12136609107255936,-1.1995034217834473,-0.5190044641494751
1782829590947859700,1.237859619140625,0.029170911759138107,-1.1747539043426514,-0.7168906331062317
1782829590957787600,1.24778759765625,-0.035429418087005615,-1.0004817247390747,-0.8714187741279602
1782829590967716900,1.257716796875,-0.0694345161318779,-0.8399423956871033,-1.0126206874847412
1782829590977644800,1.267644775390625,-0.05003387853503227,-0.773389995098114,-1.1203616857528687
1782829590987573800,1.27757373046875,0.0017094770446419716,-0.6665125489234924,-1.1306015253067017
1782829590997502000,1.287501953125,0.038958556950092316,-0.4914696216583252,-0.9919658303260803
1782829591007431000,1.297430908203125,0.09772653132677078,-0.3776639401912689,-0.7613318562507629
1782829591017359600,1.307359619140625,0.18384674191474915,-0.42950639128685,-0.5008026361465454
1782829591027287800,1.317287841796875,0.25319546461105347,-0.5913123488426208,-0.3287821412086487
1782829591037217000,1.327217041015625,0.2445288598537445,-0.8284146785736084,-0.3677109479904175
1782829591047145000,1.33714501953125,0.17552262544631958,-1.038333535194397,-0.5864872932434082
1782829591057074000,1.347073974609375,0.08643534034490585,-1.0669838190078735,-0.849262535572052
1782829591067001900,1.357001953125,0.004183606244623661,-0.8974919319152832,-1.012963056564331
1782829591076930800,1.366930908203125,-0.10650080442428589,-0.6790895462036133,-1.0586662292480469
1782829591086858800,1.376858642578125,-0.22513210773468018,-0.44661232829093933,-0.9464518427848816
1782829591096788000,1.3867880859375,-0.3089812397956848,-0.23143215477466583,-0.7163971662521362
1782829591106716000,1.3967158203125,-0.29157403111457825,-0.11434255540370941,-0.4051448106765747
1782829591116644900,1.406644775390625,-0.17715294659137726,-0.09605628997087479,-0.06748180091381073
1782829591126573800,1.41657373046875,-0.000034893862903118134,-0.1704554259777069,0.26353979110717773
1782829591136501800,1.426501708984375,0.20687440037727356,-0.297486811876297,0.5778687000274658
1782829591146430700,1.4364306640625,0.37506765127182007,-0.352925568819046,0.8411943912506104
1782829591156358700,1.446358642578125,0.47860488295555115,-0.32679247856140137,1.0395660400390625
1782829591166288000,1.456287841796875,0.47720247507095337,-0.24720335006713867,1.1850107908248901
1782829591176215800,1.4662158203125,0.3975834250450134,-0.12436538934707642,1.2549006938934326
1782829591186144800,1.476144775390625,0.2608732283115387,0.043580472469329834,1.2437835931777954
1782829591196072700,1.48607275390625,0.0849938690662384,0.2260241061449051,1.1424720287322998
1782829591206002000,1.496001953125,-0.07162769883871078,0.36147913336753845,0.9597012996673584
1782829591215931000,1.505930908203125,-0.1578177660703659,0.3499763309955597,0.6976803541183472
1782829591225858800,1.51585888671875,-0.12455595284700394,0.0948396623134613,0.3986544907093048
1782829591235787800,1.525787841796875,-0.044681333005428314,-0.25905126333236694,0.23263904452323914
1782829591245716000,1.535716064453125,-0.020242568105459213,-0.30672717094421387,0.30495452880859375
1782829591255644700,1.545644775390625,-0.019129879772663116,-0.19019342958927155,0.5538659691810608
1782829591265573000,1.555572998046875,-0.03544413670897484,-0.015910843387246132,0.821631669998169
1782829591275502000,1.565502197265625,-0.08399524539709091,0.2186751663684845,1.0177088975906372
1782829591285430000,1.575429931640625,-0.1642131209373474,0.49976274371147156,1.1493631601333618
1782829591295359000,1.58535888671875,-0.2115429937839508,0.7210856080055237,1.2603546380996704
1782829591305288000,1.595287841796875,-0.19127047061920166,0.7650845050811768,1.3609219789505005
1782829591315216000,1.6052158203125,-0.1428455412387848,0.6488933563232422,1.4396655559539795
1782829591325145000,1.61514501953125,-0.1532992422580719,0.44942501187324524,1.4551950693130493
1782829591335073000,1.625072998046875,-0.24078509211540222,0.2853456139564514,1.417479395866394
1782829591345002000,1.635001953125,-0.37092578411102295,0.1937677413225174,1.3398802280426025
1782829591354930000,1.644929931640625,-0.45976945757865906,0.2474459707736969,1.2583274841308594
1782829591364859000,1.65485888671875,-0.40832677483558655,0.4543219208717346,1.208571434020996
1782829591374786800,1.664786865234375,-0.2670838236808777,0.713283896446228,1.1414145231246948
1782829591384716000,1.674716064453125,-0.1069285124540329,0.929489016532898,0.9830160737037659
1782829591394645000,1.68464501953125,0.01685979962348938,1.075754165649414,0.7980291843414307
1782829591404573000,1.694572998046875,0.10146896541118622,0.9354175925254822,0.6125022172927856
1782829591414502000,1.704501953125,0.22980809211730957,0.49512240290641785,0.5154256224632263
1782829591424429800,1.714429931640625,0.4146445095539093,0.13132794201374054,0.5119928121566772
1782829591434358800,1.72435888671875,0.638640284538269,0.06329695135354996,0.5122043490409851
1782829591444286700,1.73428662109375,0.7172951102256775,0.26433712244033813,0.48424437642097473
1782829591454216000,1.7442158203125,0.6065685749053955,0.6056556105613708,0.38514119386672974
1782829591464144000,1.754143798828125,0.3533003330230713,0.6597670316696167,0.16499072313308716
1782829591474072800,1.76407275390625,-0.036839745938777924,-0.08912476152181625,-0.41994813084602356
1782829591484001800,1.774001708984375,-0.3913922607898712,-1.6487011909484863,-1.4493871927261353
1782829591493930000,1.783929931640625,-0.4763124883174896,-2.354156732559204,-2.2441251277923584
1782829591503858700,1.793858642578125,-0.6134471893310547,-1.8895162343978882,-2.435631275177002
1782829591513787100,1.803787109375,-0.8359476327896118,-0.8509781360626221,-2.1613080501556396
1782829591523716000,1.813716064453125,-0.9821674227714539,0.6169698238372803,-1.609212875366211
1782829591533644000,1.82364404296875,-0.8992383480072021,2.164245843887329,-0.9760499596595764
1782829591543573000,1.833572998046875,-0.5642001628875732,3.140194892883301,-0.3984507918357849
1782829591553501000,1.8435009765625,-0.21345673501491547,3.1454567909240723,0.045892711728811264
1782829591563430000,1.853429931640625,-0.054886266589164734,1.880465030670166,0.2162306159734726
1782829591573359000,1.863359130859375,-0.1643005758523941,-0.11298296600580215,-0.202047660946846
1782829591583287000,1.873287109375,-0.3081674575805664,-1.46774423122406,-0.7644121646881104
1782829591593216000,1.883216064453125,-0.2792894244194031,-1.764527678489685,-1.1655693054199219
1782829591603144000,1.89314404296875,-0.4064103364944458,-1.4593695402145386,-1.3338912725448608
1782829591613073000,1.903072998046875,-0.522222101688385,-0.6882600784301758,-1.2241830825805664
1782829591623000800,1.913000732421875,-0.5623154640197754,0.3247520625591278,-0.9222943186759949
1782829591632929800,1.9229296875,-0.5352150797843933,1.4031952619552612,-0.5592159032821655
1782829591642858000,1.93285791015625,-0.44784820079803467,2.034743070602417,-0.24250587821006775
1782829591652787000,1.942786865234375,-0.3633679151535034,1.9163964986801147,-0.07448413968086243
1782829591662716000,1.9527158203125,-0.1918528825044632,1.1260285377502441,-0.07178661972284317
1782829591672643800,1.962643798828125,0.06588223576545715,0.0564938522875309,-0.11800437420606613
1782829591682572800,1.97257275390625,0.26623794436454773,-0.8187679052352905,-0.12171335518360138
1782829591692500700,1.982500732421875,0.33323073387145996,-1.3072125911712646,-0.11200505495071411
1782829591702430000,1.992429931640625,0.3616919219493866,-1.4128658771514893,-0.1684424877166748
1782829591712358000,2.00235791015625,0.3648972809314728,-1.247249960899353,-0.3575318455696106
1782829591722286800,2.012286865234375,0.37568894028663635,-0.8511735796928406,-0.6277835369110107
1782829591732215000,2.022215087890625,0.3638436496257782,-0.37602511048316956,-0.9203054904937744
1782829591742143700,2.032143798828125,0.28543218970298767,0.07962337881326675,-1.1408450603485107
1782829591752072700,2.04207275390625,0.23433351516723633,0.3148132264614105,-1.2226580381393433
1782829591762001000,2.0520009765625,0.24626021087169647,0.28244277834892273,-1.1553045511245728
1782829591771929900,2.061929931640625,0.3323173224925995,0.09013891220092773,-0.9766745567321777
1782829591781858000,2.071858154296875,0.46013814210891724,-0.21669797599315643,-0.7295728921890259
1782829591791787000,2.081787109375,0.5966327786445618,-0.5431212782859802,-0.4576531946659088
1782829591801715000,2.09171484375,0.6904135942459106,-0.7592546343803406,-0.21873489022254944
1782829591811644000,2.101643798828125,0.6832796931266785,-0.9732503890991211,-0.05618603527545929
1782829591821571800,2.11157177734375,0.5867459774017334,-1.121714472770691,-0.000014640390872955322
1782829591831501000,2.1215009765625,0.44598400592803955,-1.0531611442565918,-0.002877867314964533
1782829591841430000,2.131429931640625,0.278886079788208,-0.8162444829940796,-0.06550103425979614
1782829591851358000,2.14135791015625,0.17207087576389313,-0.5621440410614014,-0.12352348864078522
1782829591861287000,2.151286865234375,0.15272752940654755,-0.382958322763443,-0.15352053940296173
1782829591871214800,2.16121484375,0.1850748211145401,-0.30155453085899353,-0.13750721514225006
1782829591881143800,2.171143798828125,0.23270918428897858,-0.29704341292381287,-0.07832831144332886
1782829591891072000,2.181072021484375,0.29172083735466003,-0.31583577394485474,0.020882602781057358
1782829591901001000,2.1910009765625,0.314325213432312,-0.24171389639377594,0.1384502351284027
1782829591910929000,2.200928955078125,0.2343069463968277,-0.04594753682613373,0.24707475304603577
1782829591920857900,2.21085791015625,0.08610442280769348,0.20515871047973633,0.3372083604335785
1782829591930786800,2.220786865234375,-0.07574605941772461,0.5251070261001587,0.397964745759964
1782829591940714800,2.23071484375,-0.21399234235286713,0.7867181301116943,0.46309712529182434
1782829591950644000,2.24064404296875,-0.3198757767677307,0.9184669852256775,0.5454950332641602
1782829591960572000,2.250572021484375,-0.40151578187942505,0.9724268913269043,0.6415554881095886
1782829591970500900,2.2605009765625,-0.4455815553665161,0.9790496826171875,0.7395840287208557
1782829591980429000,2.270428955078125,-0.43931594491004944,0.8297199010848999,0.7959165573120117
1782829591990357800,2.280357666015625,-0.41012316942214966,0.5913833975791931,0.8158795237541199
1782829592000286000,2.290285888671875,-0.3698146343231201,0.3489678204059601,0.8118366003036499
1782829592010215000,2.30021484375,-0.3196575343608856,0.06532810628414154,0.8000544309616089
1782829592020143900,2.310143798828125,-0.22769884765148163,-0.24309203028678894,0.7689005136489868
1782829592030072000,2.320072021484375,-0.09881012886762619,-0.41168153285980225,0.7143803238868713
1782829592040001000,2.3300009765625,-0.00138077512383461,-0.4502864480018616,0.6600555777549744
1782829592049929000,2.339928955078125,0.04996683448553085,-0.4080289900302887,0.6222195029258728
1782829592059858000,2.34985791015625,0.05287846922874451,-0.31403112411499023,0.6120875477790833
1782829592069785900,2.359785888671875,0.035315558314323425,-0.27818647027015686,0.6181813478469849
1782829592079715000,2.369715087890625,0.024968644604086876,-0.3010118901729584,0.6260305047035217
1782829592089643000,2.37964306640625,-0.02985052578151226,-0.32610994577407837,0.6130411028862
1782829592099572000,2.389572021484375,-0.13678817451000214,-0.3142428994178772,0.5600436329841614
1782829592109501000,2.3995009765625,-0.24084821343421936,-0.20736798644065857,0.5024926066398621
1782829592119428900,2.409428955078125,-0.32264187932014465,0.01781560108065605,0.46839210391044617
1782829592129357800,2.41935791015625,-0.37770482897758484,0.24378284811973572,0.511682391166687
1782829592139285800,2.42928564453125,-0.42723003029823303,0.4019003212451935,0.6037254929542542
1782829592149215000,2.439215087890625,-0.46680691838264465,0.47445717453956604,0.7059518694877625
1782829592159143000,2.449142822265625,-0.48612284660339355,0.4466918408870697,0.8088380694389343
1782829592169071900,2.45907177734375,-0.478532612323761,0.39323902130126953,0.9338169693946838
1782829592178999800,2.468999755859375,-0.47636082768440247,0.4245338439941406,1.0760819911956787
1782829592188928800,2.4789287109375,-0.4988613724708557,0.49337464570999146,1.2030212879180908
1782829592198858000,2.48885791015625,-0.5531606078147888,0.6291292905807495,1.2050474882125854
1782829592208789000,2.4987890625,-0.6275362968444824,0.6854004263877869,1.1135056018829346
1782829592218718000,2.508718017578125,-0.6549956202507019,0.39460429549217224,0.76099693775177
1782829592228646100,2.518646240234375,-0.565491259098053,-0.29464659094810486,0.10946132242679596
1782829592238575000,2.5285751953125,-0.3461464047431946,-0.6010315418243408,-0.5275060534477234
1782829592248503000,2.5385029296875,-0.18066777288913727,-0.3682345449924469,-0.9156669974327087
1782829592258432300,2.548432373046875,-0.07754617929458618,-0.32991883158683777,-1.1533777713775635
1782829592268361200,2.558361328125,-0.02339799515902996,-0.92661052942276,-1.462964653968811
1782829592278289200,2.5682890625,-0.05454313009977341,-1.9999667406082153,-1.8131040334701538
1782829592288218000,2.578218017578125,-0.10302494466304779,-2.9370625019073486,-1.9612784385681152
1782829592298146000,2.58814599609375,-0.20228523015975952,-3.28332257270813,-1.8061615228652954
1782829592308075300,2.5980751953125,-0.3763754069805145,-2.9512810707092285,-1.4199148416519165
1782829592318003200,2.608003173828125,-0.5856846570968628,-2.073234796524048,-0.9226685762405396
1782829592327932200,2.61793212890625,-0.7460566759109497,-0.7676458954811096,-0.5092815160751343
1782829592337860000,2.627860107421875,-0.7142443656921387,0.6033622026443481,-0.3013238310813904
1782829592347789000,2.6377890625,-0.5146104097366333,1.358345627784729,-0.28351908922195435
1782829592357718000,2.647718017578125,-0.3733014464378357,1.512817144393921,-0.31952768564224243
1782829592367646000,2.65764599609375,-0.3454497754573822,1.6955454349517822,-0.27402201294898987
1782829592377575200,2.6675751953125,-0.38721293210983276,1.8888312578201294,-0.18924160301685333
1782829592387503000,2.677503173828125,-0.45221713185310364,1.8823603391647339,-0.130684956908226
1782829592397432000,2.68743212890625,-0.4798647463321686,1.5701360702514648,-0.12197402864694595
1782829592407360000,2.697360107421875,-0.4162066876888275,1.0373106002807617,-0.1534917652606964
1782829592417289000,2.7072890625,-0.29982176423072815,0.5073040723800659,-0.21517857909202576
1782829592427217000,2.717216796875,-0.1617272049188614,0.06410342454910278,-0.3325178325176239
1782829592437146000,2.72714599609375,-0.05278874188661575,-0.2864072024822235,-0.49977898597717285
1782829592447075000,2.737074951171875,-0.029027137905359268,-0.4850650727748871,-0.6589117646217346
1782829592457003000,2.7470029296875,-0.07085075229406357,-0.4987452030181885,-0.7841809988021851
1782829592466932000,2.756931884765625,-0.11516735702753067,-0.5118241310119629,-0.8416434526443481
1782829592476860200,2.766860107421875,-0.11199820041656494,-0.5007757544517517,-0.7916748523712158
1782829592486788900,2.776788818359375,-0.10494658350944519,-0.4104657769203186,-0.6497474908828735
1782829592496717000,2.786717041015625,-0.16141945123672485,-0.35056862235069275,-0.5826302170753479
1782829592506646300,2.796646240234375,-0.21315094828605652,-0.26858946681022644,-0.6423258781433105
1782829592516574200,2.80657421875,-0.2522464394569397,-0.13128060102462769,-0.7604080438613892
1782829592526503200,2.816503173828125,-0.3028677999973297,0.03745435178279877,-0.888779878616333
1782829592536432000,2.82643212890625,-0.3645012378692627,0.13823144137859344,-0.9625741243362427
1782829592546360000,2.836360107421875,-0.4346587359905243,0.11992914974689484,-0.997556746006012
1782829592556289300,2.846289306640625,-0.49571728706359863,0.04154326766729355,-0.9529440402984619
1782829592566217200,2.85621728515625,-0.5243273377418518,0.020245853811502457,-0.787775993347168
1782829592576146200,2.866146240234375,-0.4980597496032715,0.07802712917327881,-0.5078508853912354
1782829592586074000,2.87607421875,-0.3892137110233307,0.13612812757492065,-0.1334545761346817
1782829592596003000,2.886003173828125,-0.21996185183525085,0.17600417137145996,0.22403910756111145
1782829592605931000,2.895930908203125,-0.03434513509273529,0.25762948393821716,0.4358878433704376
1782829592615860000,2.90585986328125,0.19217801094055176,0.2596423029899597,0.5297005772590637
1782829592625789200,2.9157890625,0.35496753454208374,0.26823747158050537,0.5677100419998169
1782829592635717000,2.925717041015625,0.4280118942260742,0.23534050583839417,0.5859889388084412
1782829592645646000,2.93564599609375,0.4233975410461426,0.1270788013935089,0.597969651222229
1782829592655574000,2.945573974609375,0.3609056770801544,-0.06281336396932602,0.6191815137863159
1782829592665503000,2.9555029296875,0.27275902032852173,-0.2824900150299072,0.6514604091644287
1782829592675431000,2.965430908203125,0.18437935411930084,-0.43984395265579224,0.6851323843002319
1782829592685360000,2.975360107421875,0.07083198428153992,-0.5131164193153381,0.7041549682617188
1782829592695289000,2.9852890625,-0.039465490728616714,-0.4985997974872589,0.6636932492256165
1782829592705217000,2.995217041015625,-0.11248111724853516,-0.4160389006137848,0.5797116160392761
1782829592715146000,3.00514599609375,-0.1455293446779251,-0.2294122874736786,0.5224744081497192
1782829592725074200,3.01507421875,-0.15616846084594727,0.05393049120903015,0.5027739405632019
1782829592735003000,3.0250029296875,-0.16850048303604126,0.33621811866760254,0.5253133177757263
1782829592744931000,3.03493115234375,-0.17968925833702087,0.5886262655258179,0.5649181604385376
1782829592754860300,3.0448603515625,-0.16345356404781342,0.783927321434021,0.6102944016456604
1782829592764788200,3.054788330078125,-0.1141057088971138,0.9466097950935364,0.6328715085983276
1782829592774717200,3.06471728515625,-0.06743752956390381,1.0841455459594727,0.6383408308029175
1782829592784646100,3.074646240234375,-0.0014184676110744476,1.0914738178253174,0.6358681321144104
1782829592794574000,3.084573974609375,0.07879647612571716,0.9628707766532898,0.6226940155029297
1782829592804503300,3.09450341796875,0.1596510261297226,0.75426185131073,0.6249234676361084
1782829592814431200,3.10443115234375,0.2473483830690384,0.48294776678085327,0.6436609625816345
1782829592824360200,3.114360107421875,0.33725741505622864,0.1801632195711136,0.6757104992866516
1782829592834288000,3.1242880859375,0.3936093747615814,-0.025685811415314674,0.724096417427063
1782829592844217000,3.134217041015625,0.3876884877681732,-0.024107428267598152,0.7635336518287659
1782829592854146000,3.14414599609375,0.3440728187561035,0.0944647565484047,0.8066891431808472
1782829592864074000,3.154073974609375,0.3089151382446289,0.24401886761188507,0.8535614609718323
1782829592874003200,3.164003173828125,0.28114795684814453,0.35005632042884827,0.9310301542282104
1782829592883931100,3.17393115234375,0.27998578548431396,0.41722506284713745,1.0111218690872192
1782829592893860000,3.183860107421875,0.28812652826309204,0.42669472098350525,1.0761868953704834
1782829592903788000,3.1937880859375,0.27324220538139343,0.33389660716056824,1.14358389377594
1782829592913717000,3.203717041015625,0.2436893731355667,0.21837827563285828,1.2034687995910645
1782829592923645000,3.21364501953125,0.21136516332626343,0.1274181604385376,1.2520897388458252
1782829592933574100,3.22357421875,0.19775773584842682,0.03559822216629982,1.3097763061523438
1782829592943503000,3.233503173828125,0.2138826847076416,-0.04645427316427231,1.381967306137085
1782829592953431000,3.24343115234375,0.20996437966823578,0.2399018555879593,1.3497190475463867
1782829592963360000,3.253360107421875,0.14528301358222961,0.7877089977264404,1.2078516483306885
1782829592973288000,3.263287841796875,0.11358873546123505,0.9532287120819092,1.000693917274475
1782829592983217000,3.273216796875,0.0791226476430893,0.7972291707992554,0.677273690700531
1782829592993145000,3.28314501953125,0.03395170718431473,0.3293527662754059,0.3688673973083496
1782829593003074000,3.293073974609375,0.0030507249757647514,-0.11601179093122482,0.2122839391231537
1782829593013002200,3.303002197265625,-0.04085228592157364,-0.3797805905342102,0.15782655775547028
1782829593022931200,3.31293115234375,-0.09197038412094116,-0.23956085741519928,0.11342603713274002
1782829593032860200,3.322860107421875,-0.17891113460063934,0.21971777081489563,0.028370536863803864
1782829593042788000,3.3327880859375,-0.3446483612060547,0.6077041625976562,-0.20579493045806885
1782829593052717000,3.342717041015625,-0.47873106598854065,0.6107630729675293,-0.5553409457206726
1782829593062645200,3.352645263671875,-0.47429242730140686,0.08867544680833817,-0.9162467122077942
1782829593072574200,3.36257421875,-0.4033500850200653,-0.8719469904899597,-1.3194385766983032
1782829593082502100,3.372502197265625,-0.2732032537460327,-2.0273711681365967,-1.7851271629333496
1782829593092431000,3.38243115234375,-0.11833750456571579,-2.364691734313965,-2.071296453475952
1782829593102359000,3.392359130859375,-0.04311167076230049,-2.076375722885132,-2.0196456909179688
1782829593112288000,3.4022880859375,-0.047165799885988235,-1.450613260269165,-1.6357918977737427
1782829593122217200,3.41221728515625,0.0009388169273734093,-0.5195943117141724,-1.0663455724716187
1782829593132145200,3.422145263671875,0.10824796557426453,0.5938056707382202,-0.548714280128479
1782829593142074000,3.43207421875,0.12257932871580124,1.3177489042282104,-0.29642677307128906
1782829593152002000,3.442001953125,0.1146545559167862,1.324357509613037,-0.35250309109687805
1782829593161931000,3.451930908203125,0.10671008378267288,1.0826092958450317,-0.5763319730758667
1782829593171859000,3.46185888671875,0.054542750120162964,0.8533293604850769,-0.7702391147613525
1782829593181788000,3.471787841796875,-0.08335669338703156,0.6219435334205627,-0.8427324295043945
1782829593191716000,3.481716064453125,-0.3827868103981018,0.46626606583595276,-0.8504811525344849
1782829593201645000,3.49164501953125,-0.5886449217796326,0.3586290776729584,-0.9003645777702332
1782829593211570700,3.50157080078125,-0.5734097361564636,0.23943662643432617,-0.988696277141571
1782829593221498600,3.51149853515625,-0.48771148920059204,0.14174625277519226,-1.0427364110946655
1782829593231427800,3.521427734375,-0.3992588520050049,0.11193482577800751,-1.0134602785110474
1782829593241355800,3.531355712890625,-0.28238391876220703,0.03097209334373474,-0.9073091149330139
1782829593251284700,3.54128466796875,-0.14471207559108734,-0.15965192019939423,-0.745319664478302
1782829593261213000,3.551212890625,-0.07588272541761398,-0.37046319246292114,-0.5404584407806396
1782829593271142000,3.561141845703125,-0.08941903710365295,-0.5696386098861694,-0.3591823875904083
1782829593281070600,3.571070556640625,-0.1190548688173294,-0.7049840688705444,-0.2578474283218384
1782829593290998800,3.580998779296875,-0.10432040691375732,-0.7598707675933838,-0.26377296447753906
1782829593300928000,3.590927978515625,-0.04491090774536133,-0.8412860035896301,-0.3823356330394745
1782829593310856000,3.60085595703125,0.007323531433939934,-0.9351374506950378,-0.5802841186523438
1782829593320785000,3.610784912109375,0.04735035076737404,-0.8344734907150269,-0.7291803956031799
1782829593330712800,3.620712890625,0.05253872275352478,-0.5674465894699097,-0.7662689089775085
1782829593340641800,3.630641845703125,0.0675363838672638,-0.18600071966648102,-0.6979945302009583
1782829593350569700,3.64056982421875,0.13310234248638153,0.21882373094558716,-0.522273063659668
1782829593360499000,3.6504990234375,0.20197485387325287,0.4638979434967041,-0.30941757559776306
1782829593370428000,3.660427978515625,0.22953882813453674,0.43914175033569336,-0.16617651283740997
1782829593380355800,3.67035595703125,0.17650415003299713,0.20489034056663513,-0.1333351731300354
1782829593390284800,3.680284912109375,0.08504880219697952,-0.13850750029087067,-0.159908726811409
1782829593400212700,3.690212646484375,-0.04031269997358322,-0.44922584295272827,-0.2537584900856018
1782829593410141700,3.7001416015625,-0.17070238292217255,-0.5665292739868164,-0.40310296416282654
1782829593420069600,3.710069580078125,-0.27358976006507874,-0.38610634207725525,-0.5113633275032043
1782829593429998800,3.719998779296875,-0.35875204205513,-0.010869346559047699,-0.5516254901885986
1782829593439926800,3.7299267578125,-0.41480714082717896,0.3931659758090973,-0.5122649073600769
1782829593449855700,3.739855712890625,-0.404301255941391,0.6649077534675598,-0.3717288672924042
1782829593459784700,3.74978466796875,-0.30700036883354187,0.7072025537490845,-0.12202256172895432
1782829593469712600,3.759712646484375,-0.13404430449008942,0.4936843812465668,0.17362241446971893
1782829593479641600,3.7696416015625,0.06795206665992737,0.15856796503067017,0.41933780908584595
1782829593489569800,3.77956982421875,0.20016470551490784,-0.26391857862472534,0.5340257287025452
1782829593499498800,3.789498779296875,0.26310649514198303,-0.6712713241577148,0.5098369717597961
1782829593509427000,3.799427001953125,0.2936404347419739,-0.9070526957511902,0.421769380569458
1782829593519355600,3.809355712890625,0.30493980646133423,-0.8958361744880676,0.3431582450866699
1782829593529283800,3.819283935546875,0.24995805323123932,-0.7133643627166748,0.2930857539176941
1782829593539212800,3.829212890625,0.14555981755256653,-0.47265779972076416,0.27689680457115173
1782829593549141800,3.839141845703125,0.04309096187353134,-0.18193432688713074,0.27629733085632324
1782829593559070000,3.849070068359375,-0.06901288777589798,0.1584240198135376,0.2885305881500244
1782829593568999000,3.8589990234375,-0.17104338109493256,0.5016937255859375,0.3188088834285736
1782829593578926800,3.8689267578125,-0.2566271722316742,0.7931496500968933,0.3415558636188507
1782829593588855800,3.878855712890625,-0.29960235953330994,0.9821826815605164,0.3542216122150421
1782829593598783700,3.88878369140625,-0.3148820698261261,1.0562336444854736,0.36926817893981934
1782829593608712700,3.898712646484375,-0.30641454458236694,1.08585524559021,0.3931348919868469
1782829593618642000,3.908641845703125,-0.29894086718559265,1.0724197626113892,0.42214280366897583
1782829593628569900,3.91856982421875,-0.29675546288490295,0.9104177951812744,0.4344300925731659
1782829593638498800,3.928498779296875,-0.2397995889186859,0.5537220239639282,0.44909098744392395
1782829593648426800,3.9384267578125,-0.10610651224851608,0.2026744931936264,0.47161146998405457
1782829593658355700,3.948355712890625,0.04981835559010506,-0.0532362200319767,0.5378156304359436
1782829593668283600,3.95828369140625,0.13993465900421143,-0.165677011013031,0.6418746113777161
1782829593678212900,3.968212890625,0.18389815092086792,-0.06614461541175842,0.7629839181900024
1782829593688140800,3.978140869140625,0.195714071393013,0.11211726814508438,0.9172168970108032
1782829593698069800,3.98806982421875,0.2035769671201706,0.2955467402935028,1.0743714570999146
1782829593707998700,3.997998779296875,0.22540290653705597,0.36892402172088623,1.202785611152649
1782829593717926700,4.0079267578125,0.25412729382514954,0.33106982707977295,1.304792046546936
1782829593727855600,4.017855712890625,0.2922179698944092,0.25200778245925903,1.3977470397949219
1782829593737783800,4.02778369140625,0.3361462950706482,0.146915003657341,1.4823026657104492
1782829593747712800,4.037712646484375,0.3998647928237915,-0.055543817579746246,1.588255763053894
1782829593757641000,4.047640869140625,0.471833199262619,-0.11774369329214096,1.7276439666748047
1782829593767569700,4.057569580078125,0.49194326996803284,-0.08215587586164474,1.9161417484283447
1782829593777497900,4.067497802734375,0.42104843258857727,-0.05251530557870865,2.011955499649048
1782829593787426800,4.0774267578125,0.2877036929130554,-0.23287522792816162,1.8127238750457764
1782829593797355800,4.087355712890625,0.3108624517917633,-0.6969173550605774,1.645220398902893
1782829593807284000,4.097283935546875,0.4734785258769989,-0.7775285840034485,1.362810492515564
1782829593817213000,4.107212890625,0.6201522946357727,-0.6246379613876343,1.2198154926300049
1782829593827140900,4.117140869140625,0.7219963669776917,-0.4286945164203644,1.2148351669311523
1782829593837069800,4.12706982421875,0.7938379049301147,-0.04337009787559509,1.2507619857788086
1782829593846997800,4.136997802734375,0.8449586033821106,0.5189422965049744,1.199659824371338
1782829593856926700,4.1469267578125,0.7661231160163879,1.0807493925094604,0.8616430163383484
1782829593866856000,4.15685595703125,0.5947234034538269,1.2493085861206055,0.13510793447494507
1782829593876783900,4.166783935546875,0.42179349064826965,0.46163639426231384,-0.895028829574585
1782829593886712800,4.176712890625,0.29718151688575745,-1.2943440675735474,-2.051713228225708
1782829593896640800,4.186640869140625,0.2273537665605545,-3.036977767944336,-2.968717098236084
1782829593906569700,4.19656982421875,0.1946253776550293,-3.7506814002990723,-3.3174192905426025
1782829593916497700,4.20649755859375,0.11421063542366028,-3.677638053894043,-3.1812491416931152
1782829593926427000,4.216427001953125,-0.023205284029245377,-2.9615097045898438,-2.7265608310699463
1782829593936354800,4.226354736328125,-0.17740562558174133,-1.593238115310669,-2.104196071624756
1782829593946283800,4.23628369140625,-0.24562782049179077,0.1231711134314537,-1.4626351594924927
1782829593956212700,4.246212646484375,-0.24071811139583588,1.7113078832626343,-0.9083460569381714
1782829593966140700,4.256140625,-0.22366321086883545,2.8737692832946777,-0.4665694534778595
1782829593976069600,4.266069580078125,-0.24270756542682648,3.3348731994628906,-0.06386677920818329
1782829593985997600,4.27599755859375,-0.2514107823371887,2.610194206237793,0.18117547035217285
1782829593995926800,4.2859267578125,-0.1710946410894394,0.47467681765556335,0.01668451726436615
1782829594005854700,4.295854736328125,-0.18376222252845764,-1.1255085468292236,-0.28279566764831543
1782829594015783700,4.30578369140625,-0.37026670575141907,-1.388777494430542,-0.6482804417610168
1782829594025711900,4.3157119140625,-0.5854567289352417,-1.023229956626892,-1.0800036191940308
1782829594035640800,4.325640869140625,-0.5972883105278015,-0.6455453634262085,-1.4385161399841309
1782829594045569800,4.33556982421875,-0.499263197183609,-0.26124829053878784,-1.6425666809082031
1782829594055498000,4.345498046875,-0.44999945163726807,0.1596955806016922,-1.654624581336975
1782829594065427000,4.355427001953125,-0.40252992510795593,0.386089026927948,-1.5215877294540405
1782829594075355000,4.36535498046875,-0.3095502555370331,0.26536673307418823,-1.3479090929031372
1782829594085283800,4.375283935546875,-0.1874144822359085,-0.10331650078296661,-1.1572320461273193
1782829594095211800,4.385211669921875,-0.07292994111776352,-0.2503862977027893,-0.8575670719146729
1782829594105140700,4.395140625,0.03949674218893051,-0.04143442213535309,-0.48657914996147156
1782829594115070000,4.405070068359375,0.13446563482284546,0.30827587842941284,-0.14094848930835724
1782829594124998000,4.414997802734375,0.17654305696487427,0.5394843220710754,-0.004196492955088615
1782829594134926800,4.4249267578125,0.19573552906513214,0.6891641616821289,-0.02902177721261978
1782829594144854800,4.434854736328125,0.16790255904197693,0.8043208718299866,-0.121945321559906
1782829594154783700,4.44478369140625,0.08620386570692062,0.7552995085716248,-0.2282203882932663
1782829594164711700,4.454711669921875,-0.016800012439489365,0.6480540037155151,-0.3161523938179016
1782829594174641000,4.464640869140625,-0.10398650914430618,0.5891134142875671,-0.3671483099460602
1782829594184568800,4.47456884765625,-0.14135251939296722,0.4998578429222107,-0.3792121708393097
1782829594194497800,4.484497802734375,-0.1506425440311432,0.370033323764801,-0.35288938879966736
1782829594204426800,4.4944267578125,-0.1511669158935547,0.1956639140844345,-0.37056079506874084
1782829594214358500,4.504358642578125,-0.13860909640789032,-0.09525575488805771,-0.45297667384147644
1782829594224287500,4.51428759765625,-0.08629502356052399,-0.3351200222969055,-0.5085552334785461
1782829594234215400,4.52421533203125,-0.010400865226984024,-0.48966509103775024,-0.5301141738891602
1782829594244144400,4.534144287109375,0.12226183712482452,-0.6041740775108337,-0.5229167342185974
1782829594254072300,4.544072265625,0.3062518835067749,-0.7850710153579712,-0.5032401084899902
1782829594264001300,4.554001220703125,0.4790971577167511,-1.0092604160308838,-0.4661681056022644
1782829594273930500,4.563930419921875,0.6283645629882812,-1.0555154085159302,-0.3712006211280823
1782829594283858400,4.5738583984375,0.7258495688438416,-0.9424366354942322,-0.2472698837518692
1782829594293787400,4.583787353515625,0.768714189529419,-0.7642529606819153,-0.16701507568359375
1782829594303715600,4.593715576171875,0.7742434144020081,-0.5672693252563477,-0.14137603342533112
1782829594313644300,4.603644287109375,0.7416043281555176,-0.36957696080207825,-0.16394469141960144
1782829594323572500,4.613572509765625,0.6527777910232544,-0.20076104998588562,-0.20752573013305664
1782829594333501700,4.623501708984375,0.5369170904159546,-0.061700496822595596,-0.2351136952638626
1782829594343429600,4.6334296875,0.4452473521232605,0.019076373428106308,-0.23431262373924255
1782829594353358600,4.643358642578125,0.40299201011657715,0.028446760028600693,-0.22952139377593994
1782829594363287600,4.65328759765625,0.42696017026901245,-0.03224401921033859,-0.23497635126113892
1782829594373215500,4.663215576171875,0.5075271129608154,-0.08243913948535919,-0.23939862847328186
1782829594383144400,4.67314453125,0.6190840005874634,-0.05961637943983078,-0.21724379062652588
1782829594393072400,4.683072265625,0.7296417951583862,-0.022728774696588516,-0.13870880007743835
1782829594403001600,4.693001708984375,0.8135238885879517,-0.005236068740487099,0.009778937324881554
1782829594412929500,4.702929443359375,0.876491367816925,0.04339499771595001,0.21687626838684082
1782829594422858500,4.7128583984375,0.9327541589736938,0.13458243012428284,0.4490719437599182
1782829594432787500,4.722787353515625,0.9765293598175049,0.25382524728775024,0.6804565787315369
1782829594442715400,4.73271533203125,0.9778044819831848,0.43554896116256714,0.8873255848884583
1782829594452644400,4.742644287109375,0.9175336360931396,0.6367517709732056,1.0505952835083008
1782829594462572500,4.752572509765625,0.7934747934341431,0.7431322932243347,1.1686627864837646
1782829594472501500,4.76250146484375,0.6226469874382019,0.71177738904953,1.218233346939087
1782829594482429400,4.772429443359375,0.40550798177719116,0.6118484139442444,1.2070577144622803
1782829594492358400,4.7823583984375,0.19664302468299866,0.5325336456298828,1.1594712734222412
1782829594502286300,4.792286376953125,0.03024446591734886,0.4684893786907196,1.0981969833374023
1782829594512215300,4.80221533203125,-0.10884929448366165,0.410299688577652,1.0324180126190186
1782829594522144500,4.81214453125,-0.15541599690914154,0.38308218121528625,0.9588783383369446
1782829594532072400,4.822072509765625,-0.14068228006362915,0.3458821475505829,0.8650428652763367
1782829594542001400,4.83200146484375,-0.11681316792964935,0.2924439609050751,0.7422050833702087
1782829594551929600,4.8419296875,-0.09651108831167221,0.28002455830574036,0.6110468506813049
1782829594561858300,4.8518583984375,-0.09983045607805252,0.2785702049732208,0.5460379719734192
1782829594571786500,4.861786376953125,-0.1225036084651947,0.25554826855659485,0.5267145037651062
1782829594581715500,4.871715576171875,-0.16099987924098969,0.17945481836795807,0.5239157676696777
1782829594591644400,4.88164453125,-0.2149118036031723,0.019432630389928818,0.5092726945877075
1782829594601572600,4.891572509765625,-0.28816869854927063,-0.16673244535923004,0.4420531690120697
1782829594611501600,4.90150146484375,-0.36824196577072144,-0.24843604862689972,0.3249189257621765
1782829594621429500,4.911429443359375,-0.4360649585723877,-0.21584081649780273,0.21975868940353394
1782829594631358500,4.9213583984375,-0.4689723551273346,-0.1017027348279953,0.16559460759162903
1782829594641286400,4.931286376953125,-0.4941195249557495,0.06216023489832878,0.15542639791965485
1782829594651215600,4.941215576171875,-0.4958497881889343,0.12542705237865448,0.1958799511194229
1782829594661143600,4.9511435546875,-0.4577021300792694,0.1360733062028885,0.30529138445854187
1782829594671072500,4.961072509765625,-0.394965261220932,0.390799880027771,0.44403037428855896
1782829594681001500,4.97100146484375,-0.3152102530002594,0.806751549243927,0.5474435687065125
1782829594690929400,4.980929443359375,-0.2764391005039215,1.0967590808868408,0.5640736818313599
1782829594700858400,4.9908583984375,-0.2952527105808258,1.2553775310516357,0.4735874831676483
1782829594710786300,5.000786376953125,-0.35034695267677307,1.3165462017059326,0.2678891718387604
1782829594720715500,5.010715576171875,-0.40500780940055847,1.160942792892456,-0.057088375091552734
1782829594730643500,5.0206435546875,-0.4651041030883789,0.5762815475463867,-0.5431619882583618
1782829594740572400,5.030572509765625,-0.46130457520484924,-0.49145272374153137,-1.1251037120819092
1782829594750501400,5.04050146484375,-0.33769750595092773,-1.6617162227630615,-1.6137962341308594
1782829594760429300,5.05042919921875,-0.13997989892959595,-2.275224447250366,-1.7421208620071411
1782829594770358500,5.060358642578125,0.011115653440356255,-2.1444435119628906,-1.5219769477844238
1782829594780286500,5.070286376953125,0.0210867952555418,-1.3240066766738892,-1.1461604833602905
1782829594790215400,5.08021533203125,-0.0790787786245346,-0.037863053381443024,-0.7491267323493958
1782829594800143400,5.090143310546875,-0.29116708040237427,1.2417123317718506,-0.43762820959091187
1782829594810072300,5.100072265625,-0.47144341468811035,1.8601000308990479,-0.307521790266037
1782829594820000500,5.11000048828125,-0.5977145433425903,1.8690634965896606,-0.3306097984313965
1782829594829929500,5.119929443359375,-0.7087087631225586,1.548439383506775,-0.4479278326034546
1782829594839858400,5.1298583984375,-0.8532078862190247,1.0937954187393188,-0.6295181512832642
1782829594849786600,5.13978662109375,-0.9660001397132874,0.6518690586090088,-0.7704019546508789
1782829594859715600,5.149715576171875,-0.9827978014945984,0.3199313282966614,-0.836741030216217
1782829594869643500,5.1596435546875,-0.9166958928108215,0.18183457851409912,-0.8710512518882751
1782829594879572500,5.169572509765625,-0.8147703409194946,0.2175547480583191,-0.8647986650466919
1782829594889500400,5.17950048828125,-0.6866675615310669,0.3714430332183838,-0.7939381003379822
1782829594899429600,5.1894296875,-0.5273296236991882,0.5352034568786621,-0.6231301426887512
1782829594909358600,5.199358642578125,-0.36472243070602417,0.5814992785453796,-0.3670089840888977
1782829594919286500,5.20928662109375,-0.26030945777893066,0.5106924772262573,-0.09074626117944717
1782829594929215500,5.219215576171875,-0.22852225601673126,0.2909678518772125,0.09826067835092545
1782829594939143400,5.229143310546875,-0.2756282389163971,-0.012803764082491398,0.15893974900245667
1782829594949072400,5.239072265625,-0.3904150724411011,-0.3353050947189331,0.12026555091142654
1782829594959000300,5.249000244140625,-0.5162323713302612,-0.6792650818824768,0.03636638820171356
1782829594968929500,5.258929443359375,-0.5989519953727722,-0.9972612857818604,-0.06378558278083801
1782829594978858500,5.2688583984375,-0.5663375854492188,-1.1761215925216675,-0.14934203028678894
1782829594988786400,5.278786376953125,-0.38676685094833374,-1.0701642036437988,-0.16733749210834503
1782829594998715400,5.28871533203125,-0.005755319260060787,-0.7573660612106323,-0.11445271968841553
1782829595008643300,5.298643310546875,0.4010530710220337,-0.5010740756988525,0.000037342309951782227
1782829595018572500,5.308572509765625,0.5281931757926941,-0.3241853415966034,0.13824421167373657
1782829595028498400,5.31849853515625,0.583310604095459,-0.04524483159184456,0.21358616650104523
1782829595038427400,5.328427490234375,0.5791294574737549,0.22106409072875977,0.24909169971942902
1782829595048355300,5.338355224609375,0.4179021120071411,0.3295503854751587,0.3592359721660614
1782829595058284500,5.348284423828125,0.14684157073497772,-0.1259622722864151,0.686412513256073
1782829595068213500,5.358213623046875,-0.23204608261585236,-0.9143780469894409,1.0331971645355225
1782829595078141400,5.368141357421875,-0.6444314122200012,-1.5352421998977661,1.1491796970367432
1782829595088070400,5.3780703125,-0.8164002299308777,-1.8813484907150269,1.056714653968811
1782829595097998300,5.387998291015625,-0.761462390422821,-1.9653995037078857,0.6661700010299683
1782829595107927600,5.397927490234375,-0.49769315123558044,-1.6996475458145142,-0.006100148428231478
1782829595117855500,5.40785546875,-0.0719439759850502,-1.2337418794631958,-0.8816732168197632
1782829595127784400,5.417784423828125,0.38571295142173767,-0.758536159992218,-1.6287251710891724
1782829595137712400,5.42771240234375,0.7683029174804688,-0.478603333234787,-1.9364542961120605
1782829595147641300,5.437641357421875,1.0185251235961914,-0.47695392370224,-1.7550491094589233
1782829595157570300,5.4475703125,1.122659683227539,-0.6043089628219604,-1.2891168594360352
1782829595167498200,5.457498291015625,1.1377702951431274,-0.6885198950767517,-0.7681335210800171
1782829595177427500,5.467427490234375,1.1049734354019165,-0.6820241808891296,-0.3220726549625397
1782829595187355400,5.47735546875,1.0356403589248657,-0.5969273447990417,-0.013943783938884735
1782829595197284400,5.487284423828125,0.9101457595825195,-0.4859049618244171,0.1593467742204666
1782829595207212500,5.497212646484375,0.7365570068359375,-0.39636102318763733,0.2679213583469391
1782829595217141500,5.5071416015625,0.5357224345207214,-0.344648540019989,0.3700226843357086
1782829595227070200,5.5170703125,0.3255428075790405,-0.25458577275276184,0.42183396220207214
1782829595236998400,5.526998291015625,0.13019701838493347,-0.05328913778066635,0.40275081992149353
1782829595246927400,5.53692724609375,-0.025792371481657028,0.2052249163389206,0.3241049647331238
1782829595256855300,5.546855224609375,-0.12655653059482574,0.5252947807312012,0.2377152442932129
1782829595266784500,5.556784423828125,-0.13696768879890442,1.0669043064117432,0.16679400205612183
1782829595276712400,5.56671240234375,-0.04726337268948555,1.5489561557769775,0.16821932792663574
1782829595286641400,5.576641357421875,0.06777159124612808,1.764275312423706,0.2816532850265503
1782829595296570400,5.5865703125,0.1740194708108902,1.9188052415847778,0.46386489272117615
1782829595306498300,5.596498291015625,0.2655348777770996,1.9621496200561523,0.6703222990036011
1782829595316427300,5.60642724609375,0.3361257016658783,1.9077833890914917,0.8862484693527222
1782829595326355200,5.616355224609375,0.37622585892677307,1.735489845275879,1.1002135276794434
1782829595336284400,5.626284423828125,0.3933694064617157,1.4836914539337158,1.292036771774292
1782829595346212400,5.63621240234375,0.3872049152851105,1.1859524250030518,1.4555907249450684
1782829595356141300,5.646141357421875,0.36705756187438965,0.9011672735214233,1.5724416971206665
1782829595366070300,5.6560703125,0.336966335773468,0.6122462749481201,1.6358673572540283
1782829595375998200,5.665998291015625,0.25918176770210266,0.16338086128234863,1.6370245218276978
1782829595385927400,5.675927490234375,-0.00614607147872448,0.08241502195596695,1.2229729890823364
1782829595395855400,5.68585546875,-0.35582152009010315,-0.3831513524055481,0.782168447971344
1782829595405784300,5.695784423828125,-0.3105596601963043,-0.6273455619812012,0.5817679762840271
1782829595415712300,5.705712158203125,-0.16496038436889648,-0.47481992840766907,0.565496563911438
1782829595425641200,5.71564111328125,-0.10495977103710175,-0.23015497624874115,0.6521317958831787
1782829595435570200,5.725570068359375,-0.12826323509216309,-0.13516561686992645,0.7192234992980957
1782829595445498000,5.735498046875,-0.17784935235977173,-0.2366742193698883,0.7034100294113159
1782829595455427300,5.74542724609375,-0.1855403035879135,-0.32010412216186523,0.5466928482055664
1782829595465355500,5.75535546875,-0.06886883825063705,-0.33545947074890137,0.34207040071487427
1782829595475284200,5.7652841796875,0.14371240139007568,-0.21621988713741302,0.2065536081790924
1782829595485212400,5.77521240234375,0.3071475625038147,0.016734182834625244,0.1349346786737442
1782829595495141400,5.785141357421875,0.25362229347229004,0.3279684782028198,-0.00660008704289794
1782829595505070300,5.7950703125,0.11206535995006561,0.5026254057884216,-0.2318170964717865
1782829595514998500,5.80499853515625,-0.059892550110816956,0.40030038356781006,-0.5240231156349182
1782829595524927500,5.814927490234375,-0.2056320160627365,-0.036005061119794846,-0.8176438808441162
1782829595534855400,5.82485546875,-0.26325666904449463,-0.7443049550056458,-1.0517140626907349
1782829595544784400,5.834784423828125,-0.26644113659858704,-1.3835246562957764,-1.2091144323349
1782829595554712300,5.84471240234375,-0.23403765261173248,-1.6857564449310303,-1.201711654663086
1782829595564641300,5.854641357421875,-0.15919466316699982,-1.533427357673645,-1.0016357898712158
1782829595574570500,5.864570556640625,-0.04238523170351982,-0.9350192546844482,-0.6448053121566772
1782829595584498400,5.87449853515625,0.11228350549936295,-0.1541762799024582,-0.23540480434894562
1782829595594427400,5.884427490234375,0.26881691813468933,0.549110472202301,0.01749137043952942
1782829595604355300,5.894355224609375,0.3812410533428192,0.9441524147987366,0.08639177680015564
1782829595614284300,5.9042841796875,0.4932493567466736,1.008450984954834,0.060131415724754333
1782829595624212200,5.914212158203125,0.5827869772911072,0.8893029689788818,0.017068229615688324
1782829595634141400,5.924141357421875,0.5770339965820312,0.6635705232620239,-0.019022131338715553
1782829595644069400,5.9340693359375,0.4488401412963867,0.3747270405292511,-0.03840804100036621
1782829595653998300,5.943998291015625,0.23585624992847443,0.11300915479660034,-0.09285557270050049
1782829595663927300,5.95392724609375,0.005759689025580883,-0.10519532114267349,-0.25764545798301697
1782829595673855200,5.963855224609375,-0.12176284939050674,-0.24376918375492096,-0.4943717122077942
1782829595683784200,5.9737841796875,-0.19608436524868011,-0.21431924402713776,-0.6927644610404968
1782829595693712100,5.983712158203125,-0.22934405505657196,-0.020141512155532837,-0.7740238904953003
1782829595703641300,5.993641357421875,-0.20188449323177338,0.2301418036222458,-0.7348164319992065
1782829595713569300,6.0035693359375,-0.14157907664775848,0.4321231245994568,-0.5987377166748047
1782829595723498200,6.013498291015625,-0.0911690816283226,0.5467806458473206,-0.3919670879840851
1782829595733427200,6.02342724609375,-0.07551927864551544,0.4919581711292267,-0.21648342907428741
1782829595743355400,6.03335546875,-0.07133497297763824,0.2206001579761505,-0.16244179010391235
1782829595753284000,6.0432841796875,-0.0485612116754055,-0.10647676885128021,-0.18426106870174408
1782829595763212500,6.053212646484375,-0.01170902419835329,-0.42435330152511597,-0.19871436059474945
1782829595773141500,6.0631416015625,0.02732572704553604,-0.6852003335952759,-0.1943584829568863
1782829595783069400,6.0730693359375,0.0647384524345398,-0.7917147278785706,-0.19083061814308167
1782829595792998400,6.082998291015625,0.0555524118244648,-0.7776731848716736,-0.22776466608047485
1782829595802927400,6.09292724609375,0.00026701297610998154,-0.6596841812133789,-0.2997741997241974
1782829595812855300,6.102855224609375,-0.051799118518829346,-0.4166014492511749,-0.3804842233657837
1782829595822784500,6.112784423828125,-0.10803629457950592,-0.23112541437149048,-0.450622022151947
1782829595832712400,6.12271240234375,-0.16236265003681183,-0.1862250566482544,-0.5258062481880188
1782829595842641400,6.132641357421875,-0.21219508349895477,-0.24938654899597168,-0.5704731345176697
1782829595852569300,6.1425693359375,-0.2687949538230896,-0.3509611189365387,-0.5481699109077454
1782829595862498300,6.152498291015625,-0.2976967394351959,-0.3587927222251892,-0.44599759578704834
1782829595872427300,6.16242724609375,-0.29878705739974976,-0.3047947287559509,-0.33562129735946655
1782829595882355500,6.17235546875,-0.25885552167892456,-0.23642747104167938,-0.2470472753047943
1782829595892284400,6.182284423828125,-0.20378482341766357,-0.22425122559070587,-0.19538567960262299
1782829595902212400,6.19221240234375,-0.15523716807365417,-0.2720760405063629,-0.21053846180438995
1782829595912141300,6.202141357421875,-0.10964412242174149,-0.4058399796485901,-0.27647140622138977
1782829595922069200,6.2120693359375,-0.023354895412921906,-0.5804639458656311,-0.35725247859954834
1782829595931998200,6.221998291015625,0.08320164680480957,-0.720483124256134,-0.3706628382205963
1782829595941927400,6.231927490234375,0.201516792178154,-0.7956380248069763,-0.2924434244632721
1782829595951855400,6.24185546875,0.3508884310722351,-0.8877341151237488,-0.15925820171833038
1782829595961784300,6.251784423828125,0.5084946155548096,-1.0300921201705933,-0.011452303268015385
1782829595971712300,6.261712158203125,0.6514666676521301,-1.1738423109054565,0.14143390953540802
1782829595981641200,6.27164111328125,0.7504904866218567,-1.2411444187164307,0.2754651606082916
1782829595991569400,6.2815693359375,0.7570482492446899,-1.1932754516601562,0.3898034691810608
1782829596001498000,6.291498046875,0.6926801204681396,-1.0585906505584717,0.47692450881004333
1782829596011427300,6.30142724609375,0.5739201903343201,-0.8283190727233887,0.5245674252510071
1782829596021355300,6.311355224609375,0.4484221637248993,-0.5614893436431885,0.558104395866394
1782829596031284200,6.3212841796875,0.3448936343193054,-0.28169605135917664,0.603381872177124
1782829596041212400,6.33121240234375,0.28033438324928284,0.015807833522558212,0.670525074005127
1782829596051141400,6.341141357421875,0.2312171459197998,0.28405633568763733,0.7347320318222046
1782829596061069300,6.3510693359375,0.17525848746299744,0.48342788219451904,0.7709265351295471
1782829596070998500,6.36099853515625,0.11306460946798325,0.62554532289505,0.7782145738601685
1782829596080927500,6.370927490234375,0.060651745647192,0.66617751121521,0.7668939232826233
1782829596090855400,6.38085546875,0.018176192417740822,0.6013076901435852,0.7290192246437073
1782829596100784400,6.390784423828125,-0.039479196071624756,0.5074552297592163,0.6812214851379395
1782829596110712300,6.40071240234375,-0.09197781980037689,0.3994069993495941,0.6170744895935059
1782829596120641300,6.410641357421875,-0.11578670144081116,0.25061315298080444,0.5469082593917847
1782829596130569200,6.4205693359375,-0.1226307600736618,0.13414514064788818,0.5179306864738464
1782829596140498400,6.43049853515625,-0.11752194166183472,0.0830451101064682,0.5097913146018982
1782829596150427400,6.440427490234375,-0.10827970504760742,-0.023110348731279373,0.4775833487510681
1782829596160355300,6.450355224609375,-0.1106368750333786,-0.13522471487522125,0.4361078143119812
1782829596170284300,6.4602841796875,-0.15469488501548767,-0.1353892982006073,0.4167999029159546
1782829596180212200,6.470212158203125,-0.22697052359580994,-0.007591563742607832,0.4112893342971802
1782829596190141400,6.480141357421875,-0.29009944200515747,0.13086538016796112,0.4232836961746216
1782829596200069400,6.4900693359375,-0.2960626482963562,0.18954601883888245,0.46839582920074463
1782829596209995500,6.49999560546875,-0.28130125999450684,0.20722195506095886,0.5591284036636353
1782829596219924500,6.509924560546875,-0.261748731136322,0.21593627333641052,0.7046518921852112
1782829596229852400,6.519852294921875,-0.26588860154151917,0.27248796820640564,0.8515534400939941
1782829596239781400,6.529781494140625,-0.3561554253101349,0.38484570384025574,0.8801270127296448
1782829596249709300,6.539709228515625,-0.5115974545478821,0.5279362797737122,0.659237265586853
1782829596259638500,6.549638427734375,-0.607388436794281,0.6028422117233276,0.2806486189365387
1782829596269566500,6.55956640625,-0.5529683232307434,0.6298980712890625,-0.09409087896347046
1782829596279495400,6.569495361328125,-0.44817519187927246,0.7172446250915527,-0.33048972487449646
1782829596289424400,6.57942431640625,-0.3444559872150421,0.7687065005302429,-0.40956005454063416
1782829596299352300,6.589352294921875,-0.32812443375587463,0.7293993234634399,-0.4087090492248535
1782829596309281300,6.59928125,-0.4664634168148041,0.659085214138031,-0.4652830958366394
1782829596319209500,6.60920947265625,-0.6298777461051941,0.46073320508003235,-0.7027972936630249
1782829596329138400,6.619138427734375,-0.7037348747253418,-0.08846358209848404,-1.0755971670150757
1782829596339066600,6.629066650390625,-0.6008390188217163,-1.0799239873886108,-1.3819643259048462
1782829596348995300,6.638995361328125,-0.356122761964798,-2.0962913036346436,-1.4425342082977295
1782829596358924300,6.64892431640625,-0.06256543844938278,-2.4990696907043457,-1.1427983045578003
1782829596368852500,6.6588525390625,0.17425216734409332,-2.069690465927124,-0.5340777635574341
1782829596378781400,6.668781494140625,0.2949196696281433,-1.099287509918213,0.11840078234672546
1782829596388709600,6.678709716796875,0.29823291301727295,0.07129210233688354,0.5331282019615173
1782829596398638600,6.688638671875,0.25986361503601074,0.9966356158256531,0.6144905090332031
1782829596408567600,6.698567626953125,0.17019283771514893,1.3627876043319702,0.4366837739944458
1782829596418495500,6.70849560546875,0.03435322269797325,1.1538920402526855,0.15274646878242493
1782829596428424400,6.718424560546875,-0.09726578742265701,0.7365571856498718,-0.07010765373706818
1782829596438352400,6.728352294921875,-0.27350032329559326,0.4804001748561859,-0.12155330181121826
1782829596448281600,6.738281494140625,-0.45629969239234924,0.335361510515213,-0.038287170231342316
1782829596458209500,6.74820947265625,-0.5370165109634399,0.388529896736145,0.061137087643146515
1782829596468138500,6.758138427734375,-0.5354703068733215,0.5975227952003479,0.1010698527097702
1782829596478067500,6.7680673828125,-0.49836546182632446,0.7902952432632446,0.07810688763856888
1782829596487995400,6.777995361328125,-0.4029150903224945,0.8301444053649902,0.0451662503182888
1782829596497924600,6.787924560546875,-0.2557666301727295,0.7166543006896973,0.008547251112759113
1782829596507852500,6.7978525390625,-0.1041393056511879,0.5209588408470154,0.009772039018571377
1782829596517781500,6.807781494140625,-0.010422769002616405,0.2542693316936493,0.05141079053282738
1782829596527709400,6.81770947265625,0.0011044573038816452,-0.018835697323083878,0.11882524192333221
1782829596537638400,6.827638427734375,-0.06626543402671814,-0.2342013120651245,0.16014158725738525
1782829596547567400,6.8375673828125,-0.16645435988903046,-0.37088537216186523,0.07884541153907776
1782829596557495300,6.847495361328125,-0.2612946331501007,-0.4018946588039398,-0.12813283503055573
1782829596567424500,6.857424560546875,-0.2598908841609955,-0.3305525779724121,-0.386353999376297
1782829596577352400,6.8673525390625,-0.1583305299282074,-0.1998303085565567,-0.5393379926681519
1782829596587281400,6.877281494140625,-0.03542111814022064,-0.11035235226154327,-0.5901540517807007
1782829596597209300,6.887209228515625,0.0267866849899292,0.05412676930427551,-0.5707038044929504
1782829596607138300,6.89713818359375,-0.03916037455201149,0.23221394419670105,-0.5464975237846375
1782829596617067500,6.907067626953125,-0.15895749628543854,0.27371230721473694,-0.5446320176124573
1782829596626995500,6.916995361328125,-0.27654698491096497,0.17544510960578918,-0.5078830718994141
1782829596636924400,6.92692431640625,-0.3741232454776764,0.023954350501298904,-0.3958355784416199
1782829596646852600,6.9368525390625,-0.4225773215293884,-0.14865870773792267,-0.23075897991657257
1782829596656781300,6.94678125,-0.4147629141807556,-0.26051434874534607,-0.1051688939332962
1782829596666709500,6.95670947265625,-0.34849175810813904,-0.2918086349964142,-0.029970549046993256
1782829596676638500,6.966638427734375,-0.28713974356651306,-0.2988331615924835,-0.045574069023132324
1782829596686567400,6.9765673828125,-0.21203568577766418,-0.31827157735824585,-0.19388896226882935
1782829596696495600,6.98649560546875,-0.09221846610307693,-0.3974636495113373,-0.37979650497436523
1782829596706424600,6.996424560546875,0.043638698756694794,-0.48301824927330017,-0.4966251254081726
1782829596716352500,7.0063525390625,0.14234977960586548,-0.588782548904419,-0.5006667375564575
1782829596726281500,7.016281494140625,0.22214047610759735,-0.6542108058929443,-0.386544406414032
1782829596736209400,7.02620947265625,0.28305014967918396,-0.6661098003387451,-0.18641334772109985
1782829596746138600,7.036138671875,0.32159727811813354,-0.6909714937210083,0.006704176776111126
1782829596756067600,7.046067626953125,0.32716336846351624,-0.7327402830123901,0.13037598133087158
1782829596765995500,7.05599560546875,0.2814858853816986,-0.7729843258857727,0.1726864129304886
1782829596775924500,7.065924560546875,0.2069203108549118,-0.7956709265708923,0.13346995413303375
1782829596785852400,7.075852294921875,0.13055256009101868,-0.7816336750984192,0.032840292900800705
1782829596795781400,7.085781494140625,0.05740217864513397,-0.7871600985527039,-0.10897429287433624
1782829596805709300,7.095709228515625,0.010915370658040047,-0.8371031284332275,-0.24884457886219025
1782829596815638500,7.105638427734375,-0.0054621463641524315,-0.8658191561698914,-0.3320029377937317
1782829596825567500,7.1155673828125,0.03828293830156326,-0.8305439949035645,-0.2895689308643341
1782829596835495400,7.125495361328125,0.11907904595136642,-0.7317214012145996,-0.1287427842617035
1782829596845424400,7.13542431640625,0.1953597068786621,-0.5338107347488403,0.10576212406158447
1782829596855352300,7.145352294921875,0.248489648103714,-0.27781736850738525,0.37064075469970703
1782829596865281300,7.15528125,0.28789427876472473,-0.03677066043019295,0.6159154772758484
1782829596875209500,7.16520947265625,0.30504247546195984,0.1353793889284134,0.814254105091095
1782829596885138400,7.175138427734375,0.28433531522750854,0.26674991846084595,0.96690434217453
1782829596895067400,7.1850673828125,0.23025725781917572,0.3564721941947937,1.0636937618255615
1782829596904995300,7.194995361328125,0.14691787958145142,0.3904602527618408,1.0933572053909302
1782829596914924300,7.20492431640625,0.045739300549030304,0.3677138686180115,1.0523849725723267
1782829596924852500,7.2148525390625,-0.08082076907157898,0.3508797585964203,0.9572077989578247
1782829596934781400,7.224781494140625,-0.19637815654277802,0.3736271858215332,0.804083526134491
1782829596944710400,7.23471044921875,-0.24209319055080414,0.40956202149391174,0.6339006423950195
1782829596954638600,7.244638671875,-0.20399059355258942,0.43846526741981506,0.48553162813186646
1782829596964567300,7.2545673828125,-0.11716674268245697,0.4305229187011719,0.36940664052963257
1782829596974495500,7.26449560546875,-0.015221278183162212,0.3526587188243866,0.28745192289352417
1782829596984424400,7.274424560546875,0.0700153186917305,0.2495342195034027,0.26577380299568176
1782829596994352400,7.284352294921875,0.11007453501224518,0.2103712409734726,0.3089942932128906
1782829597004281600,7.294281494140625,0.0923626497387886,0.2594173550605774,0.39969170093536377
1782829597014210600,7.30421044921875,0.023498252034187317,0.33099955320358276,0.5088232159614563
1782829597024138500,7.314138427734375,-0.07671543955802917,0.38866257667541504,0.635413646697998
1782829597034067500,7.3240673828125,-0.2165410965681076,0.4698037803173065,0.7593069076538086
1782829597043995400,7.333995361328125,-0.37369582056999207,0.5371058583259583,0.847221314907074
1782829597053924600,7.343924560546875,-0.4899975061416626,0.5124140977859497,0.8684239387512207
1782829597063852500,7.3538525390625,-0.5494682788848877,0.35605430603027344,0.8190606832504272
1782829597073781500,7.363781494140625,-0.5430707931518555,0.17674647271633148,0.6738163232803345
1782829597083710500,7.37371044921875,-0.4841078817844391,0.007382471114397049,0.5544606447219849
1782829597093638400,7.383638427734375,-0.429849773645401,0.013753894716501236,0.45022135972976685
1782829597103567400,7.3935673828125,-0.4566528797149658,0.21626251935958862,0.2881661355495453
1782829597113495300,7.403495361328125,-0.45962217450141907,0.412278950214386,0.08117851614952087
1782829597123424500,7.413424560546875,-0.41571277379989624,0.5327998399734497,-0.06647193431854248
1782829597133352400,7.4233525390625,-0.39665302634239197,0.6166797876358032,-0.11425024271011353
1782829597143281400,7.433281494140625,-0.40323159098625183,0.7634111642837524,-0.14912939071655273
1782829597153210400,7.44321044921875,-0.44238436222076416,0.8089434504508972,-0.3134317994117737
1782829597163138300,7.45313818359375,-0.46277618408203125,0.630908191204071,-0.6524050235748291
1782829597173067500,7.463067626953125,-0.42845505475997925,0.025927018374204636,-1.1387442350387573
1782829597182995500,7.472995361328125,-0.3649330735206604,-0.9741451144218445,-1.6539430618286133
1782829597192924400,7.48292431640625,-0.28575989603996277,-1.7909371852874756,-1.9790230989456177
1782829597202853400,7.492853271484375,-0.17300619184970856,-2.0854570865631104,-1.9482955932617188
1782829597212781000,7.502781005859375,-0.09445346891880035,-1.8387269973754883,-1.558665156364441
1782829597222710000,7.5127099609375,-0.10698390752077103,-1.027748942375183,-0.9361789226531982
1782829597232638200,7.52263818359375,-0.13010425865650177,0.06498567014932632,-0.29104965925216675
1782829597242567200,7.532567138671875,-0.09212546050548553,1.1219875812530518,0.1662297546863556
1782829597252495000,7.5424951171875,-0.09399334341287613,1.7036991119384766,0.3172168731689453
1782829597262424000,7.552424072265625,-0.13595756888389587,1.7522979974746704,0.21519222855567932
1782829597272353000,7.56235302734375,-0.19185194373130798,1.5566163063049316,-0.04718662053346634
1782829597282281200,7.57228125,-0.23795819282531738,1.1049140691757202,-0.3806349039077759
1782829597292210200,7.582210205078125,-0.2602793872356415,0.38015812635421753,-0.680664598941803
1782829597302138000,7.59213818359375,-0.27251556515693665,-0.36499887704849243,-0.8653130531311035
1782829597312067000,7.602067138671875,-0.23775804042816162,-0.8637131452560425,-0.8763907551765442
1782829597321995000,7.6119951171875,-0.1916978657245636,-1.0249425172805786,-0.8031365275382996
1782829597331924000,7.621924072265625,-0.13795919716358185,-0.8517096042633057,-0.6343245506286621
1782829597341853200,7.631853271484375,-0.0827646479010582,-0.4326359033584595,-0.38974303007125854
1782829597351781000,7.641781005859375,-0.05216336250305176,0.04629296436905861,-0.13062070310115814
1782829597361710000,7.6517099609375,-0.05507685989141464,0.42137283086776733,0.07826407998800278
1782829597371638000,7.661637939453125,-0.07856497913599014,0.6213991045951843,0.23707392811775208
1782829597381567000,7.67156689453125,-0.0883912444114685,0.6338051557540894,0.3721467852592468
1782829597391495000,7.681494873046875,-0.06275085359811783,0.5198901295661926,0.47174951434135437
1782829597401424000,7.691423828125,-0.023811446502804756,0.27312934398651123,0.5119595527648926
1782829597411353000,7.70135302734375,-0.0019315863028168678,0.003902740776538849,0.4711848199367523
1782829597421281000,7.711281005859375,0.03943076729774475,-0.15471434593200684,0.3822789192199707
1782829597431210000,7.7212099609375,0.10444099456071854,-0.18500015139579773,0.31573712825775146
1782829597441138000,7.731137939453125,0.10835210978984833,-0.1877373456954956,0.22734761238098145
1782829597451067000,7.74106689453125,0.06430669128894806,-0.25661128759384155,0.11444787681102753
1782829597460995000,7.7509951171875,-0.004964526742696762,-0.3214608430862427,-0.011090338230133057
1782829597470924000,7.760924072265625,-0.0801267996430397,-0.28619256615638733,-0.10171779990196228
1782829597480853000,7.77085302734375,-0.16013561189174652,-0.23934993147850037,-0.16149485111236572
1782829597490781200,7.78078125,-0.2615547776222229,-0.2629612684249878,-0.22704942524433136
1782829597500710000,7.7907099609375,-0.34921538829803467,-0.2512705326080322,-0.31220772862434387
1782829597510638000,7.80063818359375,-0.37715160846710205,-0.15190882980823517,-0.3819617033004761
1782829597520567000,7.810567138671875,-0.32846182584762573,-0.0020085489377379417,-0.4012294113636017
1782829597530496000,7.82049609375,-0.23277387022972107,0.10605158656835556,-0.3617735803127289
1782829597540424200,7.830424072265625,-0.15377280116081238,0.15190403163433075,-0.30413612723350525
1782829597550353200,7.840353271484375,-0.10158395767211914,0.1275945007801056,-0.25270748138427734
1782829597560281000,7.850281005859375,-0.06904039531946182,0.0466594398021698,-0.23721908032894135
1782829597570210000,7.8602099609375,-0.0401943065226078,-0.15048092603683472,-0.29984813928604126
1782829597580138000,7.870137939453125,-0.02706971764564514,-0.42381712794303894,-0.42305606603622437
1782829597590067200,7.880067138671875,-0.014774740673601627,-0.6814014911651611,-0.5457773208618164
1782829597599996200,7.88999609375,0.062171973288059235,-0.7944614291191101,-0.5876057147979736
1782829597609924000,7.899924072265625,0.19915565848350525,-0.7889175415039062,-0.512562096118927
1782829597619853000,7.90985302734375,0.41269880533218384,-0.697035551071167,-0.3578100800514221
1782829597629781000,7.919781005859375,0.6922605037689209,-0.6466562747955322,-0.18394389748573303
1782829597639710000,7.9297099609375,0.9977748990058899,-0.6704980134963989,-0.02365037426352501
1782829597649638000,7.939637939453125,1.261306643486023,-0.688764750957489,0.09138817340135574
1782829597659567000,7.949567138671875,1.441214680671692,-0.696607768535614,0.1211085096001625
1782829597669496000,7.95949609375,1.5074175596237183,-0.6736732721328735,0.055464647710323334
1782829597679424000,7.969424072265625,1.419704794883728,-0.6450320482254028,-0.11089316755533218
1782829597689353000,7.97935302734375,1.2284646034240723,-0.6072520613670349,-0.3160178065299988
1782829597699281000,7.989281005859375,0.9759761691093445,-0.5448392629623413,-0.486280620098114
1782829597709210000,7.999210205078125,0.6953883767127991,-0.4714929461479187,-0.5654477477073669
1782829597719139000,8.00913916015625,0.42665335536003113,-0.32745134830474854,-0.5450354218482971
1782829597729067000,8.01906689453125,0.16984979808330536,-0.12577998638153076,-0.4354073405265808
1782829597738996000,8.028995849609375,-0.022790491580963135,0.01726238615810871,-0.2785780429840088
1782829597748924000,8.038923828125,-0.14824993908405304,0.04702834412455559,-0.09635888785123825
1782829597758852900,8.048852783203126,-0.23319493234157562,0.1164548248052597,0.09133324772119522
1782829597768781000,8.058781005859375,-0.28839346766471863,0.25128960609436035,0.28186219930648804
1782829597778710000,8.0687099609375,-0.3182307183742523,0.4510224461555481,0.4721037745475769
1782829597788639000,8.078638916015626,-0.30952131748199463,0.7300530076026917,0.6254821419715881
1782829597798567200,8.088567138671875,-0.28434911370277405,1.005651593208313,0.7060038447380066
1782829597808495900,8.098495849609375,-0.2563844323158264,1.1949180364608765,0.6898380517959595
1782829597818424000,8.108424072265626,-0.19736452400684357,1.2159335613250732,0.580114483833313
1782829597828353000,8.11835302734375,-0.09465788304805756,1.0997885465621948,0.44167426228523254
1782829597838281200,8.12828125,0.03602369874715805,0.9493423700332642,0.3600910007953644
1782829597848210200,8.138210205078124,0.1379021555185318,0.7842865586280823,0.38179320096969604
1782829597858139100,8.14813916015625,0.20456479489803314,0.6183247566223145,0.46744605898857117
1782829597868067000,8.158067138671875,0.2520090341567993,0.49585554003715515,0.5895234942436218
1782829597877996000,8.16799609375,0.2857262194156647,0.4932728111743927,0.7204654812812805
1782829597887924000,8.177924072265625,0.30430787801742554,0.5288176536560059,0.8454487919807434
1782829597897853200,8.187853271484375,0.30121514201164246,0.483911395072937,0.9583244919776917
1782829597907782100,8.1977822265625,0.27066537737846375,0.36605414748191833,1.0742253065109253
1782829597917710000,8.2077099609375,0.21672198176383972,0.28880301117897034,1.1912782192230225
1782829597927639000,8.21763916015625,0.112148717045784,0.30215540528297424,1.3039922714233398
1782829597937567000,8.22756689453125,-0.07283179461956024,0.4441298544406891,1.3629069328308105
1782829597947496000,8.237495849609376,-0.30201107263565063,0.6854597926139832,1.2910053730010986
1782829597957423900,8.247423828125,-0.48687970638275146,0.8517845869064331,0.9744375348091125
1782829597967353000,8.25735302734375,-0.5120381116867065,0.7587596774101257,0.7091703414916992
1782829597977282000,8.267281982421874,-0.47635146975517273,0.6773529648780823,0.5643292665481567
1782829597987210000,8.2772099609375,-0.4041479527950287,0.6373440027236938,0.5800030827522278
1782829597997139000,8.287138916015625,-0.30107083916664124,0.5071359872817993,0.7254772186279297
1782829598007067000,8.29706689453125,-0.16099005937576294,0.23875047266483307,0.9016201496124268
1782829598016996000,8.30699609375,-0.03494850546121597,-0.030063413083553314,0.969153642654419
1782829598026924000,8.316924072265625,0.034684352576732635,-0.37241610884666443,0.8327966928482056
1782829598036853000,8.32685302734375,0.07773701846599579,-0.8229449391365051,0.5394508242607117
1782829598046782000,8.336781982421876,0.03039400279521942,-1.2033264636993408,0.09392127394676208
1782829598056710000,8.3467099609375,-0.06663054972887039,-1.6429767608642578,-0.4694022834300995
1782829598066638800,8.356638916015624,-0.11866432428359985,-2.0581045150756836,-1.0569119453430176
1782829598076567000,8.366567138671876,-0.15444496273994446,-2.2476208209991455,-1.6212220191955566
1782829598086496000,8.37649609375,-0.21372409164905548,-2.0528106689453125,-2.0046799182891846
1782829598096425000,8.386425048828125,-0.25307202339172363,-1.5139951705932617,-2.024629831314087
1782829598106353200,8.396353271484376,-0.309122234582901,-0.6764348745346069,-1.6280970573425293
1782829598116282000,8.4062822265625,-0.41668573021888733,0.35907459259033203,-0.9667984247207642
1782829598126210000,8.4162099609375,-0.5170792937278748,1.3957189321517944,-0.26319393515586853
1782829598136139300,8.42613916015625,-0.6443464756011963,2.198693037033081,0.25211361050605774
1782829598146067200,8.436067138671875,-0.7897415161132812,2.3596134185791016,0.49867305159568787
1782829598155996200,8.44599609375,-0.9131388068199158,1.9924571514129639,0.4715135991573334
1782829598165925000,8.455925048828124,-1.0439693927764893,1.3731001615524292,0.22662469744682312
1782829598175853000,8.46585302734375,-1.1735585927963257,0.5896572470664978,-0.16943342983722687
1782829598185782000,8.475781982421875,-1.169115424156189,-0.26885759830474854,-0.6425795555114746
1782829598195710000,8.4857099609375,-0.9516076445579529,-0.9288669228553772,-1.0404772758483887
1782829598205639200,8.49563916015625,-0.77839595079422,-1.2414630651474,-1.2701976299285889
1782829598215566800,8.50556689453125,-0.6121057271957397,-1.1792598962783813,-1.305057406425476
1782829598225496000,8.51549609375,-0.4384021759033203,-0.7792941927909851,-1.148253321647644
1782829598235425000,8.525425048828126,-0.291461706161499,-0.25516942143440247,-0.8457762002944946
1782829598245353000,8.53535302734375,-0.1630019247531891,0.24238595366477966,-0.43554896116256714
1782829598255282000,8.545281982421875,-0.11186817288398743,0.6453696489334106,-0.026221659034490585
1782829598265209900,8.5552099609375,-0.1658446490764618,0.6751293540000916,0.2513633668422699
1782829598275138800,8.565138916015625,-0.24087867140769958,0.3719884157180786,0.30712541937828064
1782829598285066800,8.575066650390625,-0.261559396982193,0.013650155626237392,0.1733579784631729
1782829598294996000,8.584995849609374,-0.21895731985569,-0.18222320079803467,-0.04154074564576149
1782829598304925000,8.594925048828125,-0.17095616459846497,-0.19309666752815247,-0.23709046840667725
1782829598314852900,8.604852783203125,-0.10121195763349533,-0.06700052320957184,-0.33091846108436584
1782829598324781800,8.61478173828125,-0.04581208527088165,0.08304916322231293,-0.34958934783935547
1782829598334709800,8.624709716796875,-0.03242011368274689,0.13330593705177307,-0.33903229236602783
1782829598344639000,8.634638916015625,-0.05253129452466965,0.015713203698396683,-0.35091346502304077
1782829598354568000,8.64456787109375,-0.13389353454113007,-0.22562271356582642,-0.3955818712711334
1782829598364496000,8.654495849609376,-0.22606876492500305,-0.4432305693626404,-0.42090535163879395
1782829598374424800,8.6644248046875,-0.30748242139816284,-0.4342639744281769,-0.3619520664215088
1782829598384353000,8.67435302734375,-0.3699182868003845,-0.16814330220222473,-0.22935165464878082
1782829598394282000,8.684281982421876,-0.43050894141197205,0.15184536576271057,-0.10363873839378357
1782829598404210000,8.6942099609375,-0.4593791365623474,0.4289182126522064,-0.07138329744338989
1782829598414139100,8.70413916015625,-0.4687286913394928,0.6139644980430603,-0.17968899011611938
1782829598424068000,8.714068115234374,-0.4472939074039459,0.6996743083000183,-0.3518809378147125
1782829598433996000,8.72399609375,-0.4070066809654236,0.7219492197036743,-0.4861082434654236
1782829598443925000,8.733925048828125,-0.3239927291870117,0.6716234683990479,-0.5732247829437256
1782829598453853000,8.74385302734375,-0.19857463240623474,0.4731932580471039,-0.6155238151550293
1782829598463782100,8.7537822265625,-0.07997697591781616,0.06956397742033005,-0.59784996509552
1782829598473711000,8.763711181640625,-0.005831645801663399,-0.38390204310417175,-0.5062095522880554
1782829598483639000,8.77363916015625,0.07085078954696655,-0.6764563918113708,-0.33227163553237915
1782829598493568000,8.783568115234376,0.1810329556465149,-0.6802971959114075,-0.11939986050128937
1782829598503496000,8.793495849609375,0.2985329031944275,-0.4834837019443512,0.0706038698554039
1782829598513425000,8.8034248046875,0.40843385457992554,-0.2567504346370697,0.26208195090293884
1782829598523352800,8.813352783203126,0.547426164150238,-0.12134359031915665,0.46470844745635986
1782829598533282000,8.823281982421875,0.6778387427330017,-0.1504300981760025,0.6655063033103943
1782829598543211000,8.8332109375,0.781084418296814,-0.30739548802375793,0.8564195036888123
1782829598553139000,8.843138916015626,0.8588263988494873,-0.486040323972702,0.9877519607543945
1782829598563068000,8.85306787109375,0.9158299565315247,-0.6830790638923645,1.0472694635391235
1782829598572995800,8.862995849609375,0.9174987077713013,-0.8180100321769714,1.0337706804275513
1782829598582924800,8.8729248046875,0.8606237769126892,-0.8730212450027466,0.9693918824195862
1782829598592853000,8.88285302734375,0.7471182346343994,-0.8555386662483215,0.9090794920921326
1782829598602782000,8.892781982421875,0.6011372804641724,-0.686440110206604,0.8780487775802612
1782829598612711000,8.9027109375,0.4678654968738556,-0.3801579475402832,0.8906546235084534
1782829598622638800,8.912638916015625,0.3570515811443329,-0.0681600272655487,0.9381582736968994
1782829598632567800,8.92256787109375,0.28450947999954224,0.11613418161869049,0.9668607115745544
1782829598642495700,8.932495849609374,0.23753207921981812,0.1880672723054886,0.9690004587173462
1782829598652425000,8.942425048828126,0.19703605771064758,0.2663370668888092,0.9566194415092468
1782829598662354000,8.95235400390625,0.16437751054763794,0.38171523809432983,0.9319360852241516
1782829598672281900,8.96228173828125,0.1497626155614853,0.4915147125720978,0.8744514584541321
1782829598682210800,8.9722109375,0.14396914839744568,0.5215281248092651,0.8056624531745911
1782829598692139000,8.982138916015625,0.14211425185203552,0.5322598814964294,0.7547561526298523
1782829598702068000,8.99206787109375,0.14218929409980774,0.5713208913803101,0.7403106689453125
1782829598711996000,9.001995849609376,0.15190237760543823,0.5459521412849426,0.754315972328186
1782829598721925000,9.011925048828125,0.17226026952266693,0.42497822642326355,0.8002046346664429
1782829598731854000,9.02185400390625,0.2021356076002121,0.2553183436393738,0.8656771183013916
1782829598741782000,9.031781982421874,0.22613278031349182,0.11797168850898743,0.9297332763671875
1782829598751711000,9.0417109375,0.23929785192012787,0.0600665807723999,0.9901132583618164
1782829598761639000,9.051638916015625,0.2338377684354782,0.13749371469020844,1.024789810180664
1782829598771568000,9.061568115234374,0.2196500450372696,0.2599125802516937,1.0327204465866089
1782829598781497000,9.0714970703125,0.19528228044509888,0.3602573275566101,1.0217809677124023
1782829598791425000,9.081425048828125,0.17383797466754913,0.43037036061286926,1.0041944980621338
1782829598801354000,9.09135400390625,0.1582021266222,0.43293556571006775,0.9678229689598083
1782829598811282000,9.101281982421876,0.09859659522771835,0.3847275674343109,0.9217790365219116
1782829598821211000,9.1112109375,0.009434233419597149,0.26187628507614136,0.8567762970924377
1782829598831138800,9.121138916015624,-0.04123373702168465,0.07121125608682632,0.73316890001297
1782829598841068000,9.131068115234376,-0.015912558883428574,-0.11334136873483658,0.473391592502594
1782829598850997000,9.1409970703125,0.05771665647625923,-0.1984245777130127,0.11318894475698471
1782829598860925000,9.150925048828125,0.13422098755836487,-0.26935869455337524,-0.27610087394714355
1782829598870854000,9.16085400390625,0.2180679440498352,-0.40678098797798157,-0.5827769637107849
1782829598880781800,9.17078173828125,0.2872883975505829,-0.5343695878982544,-0.7002871632575989
1782829598890711000,9.1807109375,0.3339563012123108,-0.666947603225708,-0.6653597950935364
1782829598900639000,9.190638916015626,0.37585848569869995,-0.7076185345649719,-0.4972594976425171
1782829598910568000,9.20056787109375,0.3632132411003113,-0.4571852385997772,-0.3406163454055786
1782829598920497000,9.210496826171875,0.22798676788806915,0.07935354858636856,-0.3875332474708557
1782829598930424800,9.2204248046875,-0.04867546260356903,0.4798349142074585,-0.6463842391967773
1782829598940353800,9.230353759765626,-0.4297376275062561,0.16408950090408325,-1.0923646688461304
1782829598950282000,9.240281982421875,-0.6669188141822815,-0.8071408271789551,-1.5504324436187744
1782829598960211000,9.2502109375,-0.6336852312088013,-1.435233473777771,-1.7933789491653442
1782829598970140000,9.260139892578126,-0.5469029545783997,-1.3041948080062866,-1.7232853174209595
1782829598980068000,9.270068115234375,-0.5696667432785034,-0.6890453100204468,-1.4464616775512695
1782829598989996800,9.279996826171875,-0.6096889972686768,0.2063184678554535,-1.2146520614624023
1782829598999925000,9.289925048828126,-0.6165180206298828,1.1199421882629395,-1.1796202659606934
1782829599009854000,9.29985400390625,-0.5441615581512451,1.538472294807434,-1.2945021390914917
1782829599019782100,9.3097822265625,-0.4113405644893646,1.4133758544921875,-1.3779422044754028
1782829599029711000,9.319711181640624,-0.3560165762901306,1.2034566402435303,-1.3567553758621216
1782829599039640000,9.32964013671875,-0.38242653012275696,1.0629795789718628,-1.2544666528701782
1782829599049568000,9.339568115234375,-0.430428147315979,0.8483123183250427,-1.1121208667755127
1782829599059497000,9.3494970703125,-0.467610239982605,0.5626685619354248,-1.0661474466323853
1782829599069425000,9.3594248046875,-0.5065703988075256,0.34415435791015625,-1.037943720817566
1782829599079354000,9.36935400390625,-0.568182647228241,0.12156450748443604,-0.9740917682647705
1782829599089283000,9.379282958984374,-0.6134028434753418,-0.11879110336303711,-0.8418546319007874
1782829599099211000,9.3892109375,-0.6315445303916931,-0.38749000430107117,-0.6457947492599487
1782829599109140000,9.399139892578125,-0.6496875882148743,-0.5981500148773193,-0.41525107622146606
1782829599119068000,9.40906787109375,-0.663013756275177,-0.5684229135513306,-0.19000282883644104
1782829599128996900,9.418996826171876,-0.6912387013435364,-0.32934507727622986,0.03289470076560974
1782829599138925000,9.428925048828125,-0.67049640417099,0.02181883342564106,0.19188635051250458
1782829599148854000,9.43885400390625,-0.5814501643180847,0.3377898335456848,0.2505480647087097
1782829599158783000,9.448782958984374,-0.3678075075149536,0.46619173884391785,0.2330118864774704
1782829599168711000,9.4587109375,-0.088299959897995,0.3508688807487488,0.1612894982099533
1782829599178640000,9.468639892578125,0.0776934027671814,0.22031207382678986,0.08667265623807907
1782829599188567800,9.47856787109375,0.14878195524215698,0.12875711917877197,0.04180425405502319
1782829599198497000,9.4884970703125,0.14463339745998383,0.023058755323290825,0.050382811576128006
1782829599208426000,9.498426025390625,0.07543621212244034,-0.037044260650873184,0.08379003405570984
1782829599218354400,9.5083544921875,0.001215783879160881,-0.04415428638458252,0.11003439873456955
1782829599228283400,9.518283447265626,-0.01961120031774044,0.0055011482909321785,0.13090239465236664
1782829599238211300,9.52821142578125,-0.06747139245271683,0.08501869440078735,0.15153920650482178
1782829599248140300,9.538140380859375,-0.13938526809215546,0.09801624715328217,0.16111034154891968
1782829599258068200,9.548068115234376,-0.13857051730155945,0.10473362356424332,0.1766529530286789
1782829599267997400,9.55799755859375,-0.09686142951250076,0.1566183865070343,0.1804218590259552
1782829599277926400,9.567926513671875,-0.08889728784561157,0.2404169738292694,0.18865759670734406
1782829599287854300,9.577854248046876,-0.054797373712062836,0.2977795898914337,0.20598866045475006
1782829599297783300,9.587783203125,0.03191971406340599,0.16555482149124146,0.21812905371189117
1782829599307711500,9.59771142578125,0.09677167981863022,-0.12928614020347595,0.15363234281539917
1782829599317640200,9.60764013671875,0.10894021391868591,-0.43941643834114075,0.06258039176464081
1782829599327569400,9.6175693359375,0.07757855951786041,-0.6434289813041687,-0.009947337210178375
1782829599337497600,9.62749755859375,0.0602266825735569,-0.7136820554733276,-0.08364475518465042
1782829599347426300,9.63742626953125,0.04922303557395935,-0.7569022178649902,-0.19762006402015686
1782829599357354500,9.6473544921875,0.013932157307863235,-0.9365558624267578,-0.2909492254257202
1782829599367283500,9.657283447265625,-0.00022573955357074738,-1.1543041467666626,-0.35821640491485596
1782829599377211400,9.66721142578125,0.015297681093215942,-1.2274764776229858,-0.3592628240585327
1782829599387140600,9.677140625,0.11729755252599716,-0.9655758142471313,-0.30791574716567993
1782829599397069600,9.687069580078125,0.1317584216594696,-0.5140770077705383,-0.2722187936306
1782829599406997500,9.69699755859375,0.09199263155460358,-0.1951824128627777,-0.21861869096755981
1782829599416926500,9.706926513671876,0.18170258402824402,0.06146791949868202,-0.1179862916469574
1782829599426854400,9.7168544921875,0.3703017830848694,0.12106572836637497,-0.0263567753136158
1782829599436783400,9.726783447265625,0.5163848400115967,-0.034286025911569595,-0.035304661840200424
1782829599446711300,9.736711181640626,0.4948875308036804,-0.3260853886604309,-0.22638460993766785
1782829599456640500,9.746640625,0.41571325063705444,-0.6410496830940247,-0.537226140499115
1782829599466569500,9.756569580078125,0.3507949709892273,-0.8656795620918274,-0.8169166445732117
1782829599476497400,9.766497314453124,0.3276882469654083,-0.9726250171661377,-0.9233484268188477
1782829599486426400,9.77642626953125,0.3354471027851105,-0.8967217206954956,-0.8354039192199707
1782829599496354300,9.786354248046875,0.3354239761829376,-0.765997052192688,-0.5954116582870483
1782829599506283500,9.796283447265624,0.2881981432437897,-0.3070923089981079,-0.019306005910038948
1782829599516212500,9.80621240234375,0.08700160682201385,0.00007949303835630417,0.3906233608722687
1782829599526140400,9.816140380859375,0.02143564075231552,0.13390545547008514,0.5236157774925232
1782829599536069400,9.8260693359375,0.060394346714019775,0.36739224195480347,0.5160093903541565
1782829599545997300,9.835997314453126,0.05534658953547478,0.6010230779647827,0.4385106563568115
1782829599555926300,9.84592626953125,0.02858891710639,0.6827896237373352,0.32214057445526123
1782829599565854200,9.855854248046874,-0.037611138075590134,0.6456044316291809,0.29831939935684204
1782829599575783400,9.865783447265626,-0.11345236003398895,0.5186312794685364,0.45474857091903687
1782829599585712400,9.87571240234375,-0.1334196776151657,0.25217747688293457,0.7407127022743225
