time,seconds_elapsed,z,y,x
1782836737761633300,0.01763330078125,0.22412907338142393,-0.2681009015768766,0.10180095336232334
1782836737771562200,0.027562255859375,0.17019406957626343,-0.1797767945010215,0.1083369310023263
1782836737781492200,0.0374921875,0.04928513217270374,-0.2209484705839306,0.1747954989571124
1782836737791421200,0.047421142578125,-0.020973229923844337,-0.275425472311303,0.242066588871181
1782836737801350400,0.057350341796875,-0.023175708404183388,-0.2181631507143378,0.22295593794882296
1782836737811279400,0.067279296875,-0.14227379699349402,-0.11495667793564497,0.20591062205843627
1782836737821208300,0.077208251953125,-0.12436170820593834,-0.05929002803228795,0.1861186378084123
1782836737831138300,0.08713818359375,-0.08092588658332825,-0.0825451583482325,0.2015032904775813
1782836737841067300,0.0970673828125,0.019580898782610892,-0.1136727756049484,0.19726309562455863
1782836737850996200,0.106996337890625,0.050344285836815834,-0.16834698040485382,0.24256438232548533
1782836737860925200,0.11692529296875,-0.03831657891273498,-0.2847255078371614,0.2260110512031242
1782836737870854400,0.1268544921875,-0.09143149850666522,-0.35122758614011107,0.14754446740541607
1782836737880784400,0.136784423828125,-0.1144768585294485,-0.33259931190721687,0.15050857790801672
1782836737890713000,0.146713134765625,-0.13584230264127253,-0.3380219214778393,0.2076181931613013
1782836737900642300,0.156642333984375,-0.07854103727340697,-0.3687354780409485,0.21658117875251917
1782836737910571300,0.1665712890625,-0.01691489444375038,-0.3089274174839258,0.24259682329036295
1782836737920501200,0.176501220703125,-0.03304068433642387,-0.19005276238694785,0.2618600344259292
1782836737930430500,0.186430419921875,-0.039085225197672845,-0.11357749853692949,0.219849971290119
1782836737940359400,0.196359375,-0.05623334387540817,-0.10519757353067398,0.2078273789325729
1782836737950288400,0.206288330078125,-0.10118424623608589,-0.1558982715897262,0.1437629395727068
1782836737960217300,0.21621728515625,-0.20998948886990546,-0.24711050132252274,0.09691734603922814
1782836737970147300,0.226147216796875,-0.20666998905837536,-0.37615788312666115,0.10358148010354488
1782836737980076300,0.236076171875,-0.059278702920675275,-0.35522578893080353,0.13466503902282564
1782836737990005200,0.246005126953125,-0.01860416270494461,-0.22717596679665147,0.20622750598788261
1782836737999934200,0.255934326171875,0.010741758766770363,-0.1814104601174593,0.20981796822790055
1782836738009863400,0.265863525390625,-0.054847442474961275,-0.20786292516998944,0.13724972175378353
1782836738019793200,0.275793212890625,-0.1952174516737461,-0.27112551009505986,0.14107508872821925
1782836738029722000,0.28572216796875,-0.1360620828717947,-0.37559330804646013,0.16472418679781256
1782836738039651300,0.2956513671875,-0.003471475502848625,-0.36544505819343026,0.18236220788434146
1782836738049580300,0.305580322265625,0.07272562899291515,-0.29142558999769386,0.1929586398962885
1782836738059509200,0.31550927734375,0.11408873599469661,-0.22769407238662243,0.17526779264397918
1782836738069439500,0.325439453125,0.21796002935767173,-0.18914755717553197,0.08882036616019905
1782836738079368400,0.335368408203125,0.3431681252598762,-0.08952588408105075,-0.04376096192374825
1782836738089297400,0.34529736328125,0.18760113145112992,-0.10089863422773777,-0.042679742558300496
1782836738099226000,0.35522607421875,0.1583171692997217,-0.29863873624689874,0.015137509507685899
1782836738109155000,0.365155029296875,0.26577801158726216,-0.44265360475406046,0.08156688790060579
1782836738119085300,0.375085205078125,0.22974515969753265,-0.44031149860732255,0.1430721077643335
1782836738129014300,0.38501416015625,0.1949029788970947,-0.3900690657097846,0.1745049915779382
1782836738138943200,0.394943115234375,0.10679331828951835,-0.3225960234828293,0.1905634883880615
1782836738148872400,0.40487255859375,-0.04090425731837749,-0.29373620502762493,0.11659575037956237
1782836738158802200,0.41480224609375,-0.005911269870400428,-0.2709246537607163,0.03434906352125108
1782836738168731100,0.424731201171875,0.10599719947576522,-0.18961670905724168,-0.019478388256207107
1782836738178660400,0.434660400390625,0.12072773561775683,-0.1683239648554474,-0.08662687470391392
1782836738188589300,0.44458935546875,0.1594856285572052,-0.23682079717218874,-0.1829707682367414
1782836738198518300,0.454518310546875,0.17974398820996285,-0.27183373142965134,-0.1806254472196102
1782836738208448500,0.464448486328125,0.23276304621398447,-0.22788616089262068,-0.1333881874874234
1782836738218377500,0.47437744140625,0.23454700702130793,-0.14502572605013847,-0.056321679745987056
1782836738228306200,0.48430615234375,0.277414088845253,-0.13107633034847677,0.014475319271907209
1782836738238235100,0.494235107421875,0.2672264568299055,-0.12835574627816676,0.10459164352677762
1782836738248164000,0.5041640625,0.19991350053548812,-0.16613975268416106,0.14442542206943035
1782836738258094300,0.51409423828125,0.23206220446825027,-0.12175488670840859,0.18665435212031006
1782836738268023300,0.524023193359375,0.1035883847683668,-0.008040098592638968,0.06916442937999963
1782836738277952300,0.5339521484375,0.004675006073713303,0.026143472168594598,-0.16967245685495436
1782836738287881500,0.543881591796875,-0.10314239456653594,-0.019399770062044262,-0.21262889746278524
1782836738297810400,0.553810546875,-0.06856967835724354,-0.04695164772383868,-0.11653539849445223
1782836738307740200,0.563740234375,-0.07932137399613856,0.0291105052806437,0.09761413266435265
1782836738317669400,0.57366943359375,-0.27796295489966866,0.16917495566159485,0.2377805090498179
1782836738327598300,0.583598388671875,-0.4750000232160091,0.16163170067518948,0.14619732711277902
1782836738337527300,0.59352734375,-0.6302560513794422,0.08654876796640455,0.027293811247497794
1782836738347457500,0.60345751953125,-0.9489642736434936,0.08415544308908283,-0.07561177888847886
1782836738357386200,0.61338623046875,-1.2108300802230834,-0.017421528791636227,-0.07500256094895302
1782836738367315200,0.623315185546875,-1.3057529279768467,-0.199946379891783,0.038931057549268004
1782836738377244200,0.633244140625,-1.3894804279774426,-0.26452866911329326,0.17322620381377637
1782836738387173000,0.643173095703125,-1.3098229538947344,-0.21668884037807581,0.16153605828098952
1782836738397103400,0.653103271484375,-1.126301200711727,-0.08595409000888467,0.04416873900704085
1782836738407032300,0.6630322265625,-0.9643196636855602,0.037848230748623604,-0.038215383560582995
1782836738416961300,0.672961181640625,-0.574483310753107,0.02051452637091279,-0.11240925847515464
1782836738426890500,0.682890380859375,-0.16684709723591803,-0.03948898369297385,-0.17440876466184854
1782836738436819200,0.692819091796875,0.32566052561998365,-0.058663493631780146,-0.21916721319034693
1782836738446749200,0.702749267578125,0.8535223704516887,-0.07514087344110011,-0.1626796022929251
1782836738456678400,0.712678466796875,1.3257067517250776,-0.041067704251781106,-0.1078806020695716
1782836738466607400,0.722607421875,1.5285668271064758,0.058679494918510315,-0.015765651343390346
1782836738476536300,0.732536376953125,1.6671967146396636,0.057499783614650364,-0.0012410861022770403
1782836738486466300,0.74246630859375,1.9229694650411604,0.008925503125041723,-0.08471168873235582
1782836738496395300,0.752395263671875,2.1268910321742296,0.04636500694230199,-0.23607692000232636
1782836738506324200,0.76232421875,2.350819614547491,0.07528466582596302,-0.38131891915164884
1782836738516253200,0.772253173828125,2.6158546988129614,0.11013795254230499,-0.43687458296120163
1782836738526182100,0.78218212890625,2.7412013264030217,0.16382117354348302,-0.47564233970753844
1782836738536112400,0.7921123046875,2.9498025757849216,0.11975450667142867,-0.4876148093130439
1782836738546041300,0.802041259765625,3.1291783152043817,0.08865911118388176,-0.4613660501390695
1782836738555970300,0.81197021484375,3.313717136475444,0.20292977961674333,-0.4519220760978758
1782836738565899300,0.821899169921875,3.3651562318116426,0.3790120304487645,-0.3297450184546411
1782836738575828200,0.831828125,3.058565148320794,0.4349449300728738,-0.21817169934697447
1782836738585758200,0.84175830078125,2.7994945254176855,0.26605076411403716,-0.43184258014336224
1782836738595687400,0.8516875,2.5410025791853665,0.2030930073544383,-0.7133538751743733
1782836738605621200,0.861621337890625,2.178733447614312,0.3010699089165777,-0.7361465025451034
1782836738615550500,0.871550537109375,1.1614777280330657,0.29096104122586547,-0.5403006898399442
1782836738625480400,0.88148046875,-0.36235213367938995,-0.008354059912636876,-0.2867636626012623
1782836738635409400,0.891409423828125,-2.465868135485053,-0.24697774178832768,-0.016667641684412954
1782836738645338600,0.901338623046875,-5.229927190384268,-0.2670889480553567,0.1280395199358463
1782836738655267600,0.911267578125,-7.632199344271421,-0.12251695712208747,0.30392376397773624
1782836738665196500,0.921196533203125,-9.864379719913005,0.14272362312022596,0.3452567681021988
1782836738675126300,0.931126220703125,-11.823311309695244,0.39031935067642476,0.27298049031198024
1782836738685055500,0.941055419921875,-12.876741335463523,0.5559149500139058,-0.010854863752424716
1782836738694984400,0.950984375,-13.540612071675062,0.7087982576966285,0.010551496891677378
1782836738704913400,0.960913330078125,-13.341810331773758,0.4794768763691187,0.1367547413110733
1782836738714842400,0.97084228515625,-12.476228105694055,-0.11355908609740435,0.594790624114126
1782836738724772400,0.9807724609375,-11.288483132982254,-0.7722804036565124,1.1918684823825956
1782836738734701300,0.990701416015625,-10.006499203127621,-1.2298371246404944,1.6111792054720222
1782836738744630300,1.00063037109375,-8.907999032533167,-1.6071205777309834,1.8622165979146956
1782836738754559500,1.0105595703125,-7.7879896254420276,-2.004996883125603,1.8976175816416738
1782836738764489500,1.020489501953125,-6.374886914336681,-2.236512121235579,1.664128705371171
1782836738774418400,1.03041845703125,-4.317455202835798,-2.2069472963161765,1.2919564578145741
1782836738784347600,1.04034765625,-1.7868401621520518,-1.964166567826271,0.6456557189546525
1782836738794276400,1.0502763671875,0.7202659926503896,-1.538518020017445,0.046781332658231256
1782836738804205300,1.060205322265625,2.6968834612488743,-1.0660708230894058,-0.20624387260079383
1782836738814135300,1.07013525390625,3.747978906589746,-0.8284164246372878,-0.1716575662575662
1782836738824064500,1.080064453125,4.502506065282225,-0.6308025793462991,-0.10752835456579923
1782836738833993500,1.089993408203125,5.414906156638264,-0.24659582979865372,-0.32172347843199967
1782836738843922400,1.09992236328125,5.484915512409806,0.29821532320305705,-0.3172727095682174
1782836738853851400,1.109851318359375,5.000480721372366,0.6117397861536592,-0.1599793303582817
1782836738863781400,1.119781494140625,4.87331681522727,0.45070605137161907,-0.22568813939169047
1782836738873710300,1.12971044921875,4.920776485538482,0.2557704123139381,-0.34275187260918316
1782836738883639300,1.139639404296875,5.220398314538598,0.17380458822362124,-0.45590449679754674
1782836738893568500,1.149568603515625,5.772649919739365,0.15541801379211245,-0.4134931959170848
1782836738903498500,1.15949853515625,6.39725130635798,0.2115315306801349,-0.3359627969909459
1782836738913427500,1.169427490234375,6.922436625456809,0.3549053248047829,-0.28319457194283604
1782836738923356400,1.1793564453125,7.363681678587198,0.4189434972122311,-0.2585819626033306
1782836738933285400,1.189285400390625,7.650738040524721,0.38055692180320616,-0.32141514313519
1782836738943214300,1.19921435546875,7.444471371570229,0.2927671407997608,-0.38983386871442194
1782836738953144300,1.209144287109375,7.119746665495634,0.1921499538619071,-0.36056758835017677
1782836738963073500,1.219073486328125,6.907947496855258,0.14643676189184188,-0.05638268921822309
1782836738973002500,1.22900244140625,6.859132320281863,0.13368994691297412,-0.188129685369879
1782836738982931500,1.238931396484375,6.981205625289678,0.3356607453044504,-0.6841879864446818
1782836738992860400,1.2488603515625,7.20740858233571,0.6711717068746685,-1.0535751333273946
1782836739002790400,1.258790283203125,7.641610146695375,0.9358059552542864,-1.322012865643203
1782836739012719400,1.26871923828125,8.212465330079198,1.0663009785834698,-1.5342762907944618
1782836739022648300,1.2786484375,8.327672840970754,0.9755807701513171,-1.4438339494556187
1782836739032577500,1.28857763671875,8.035064105603098,0.658745209891349,-1.194933715172112
1782836739042507500,1.298507568359375,8.134303062990307,0.38012276816964147,-1.0583958314821122
1782836739052436200,1.308436279296875,8.038017694711685,0.7056070604398846,-1.178000262158364
1782836739062365400,1.318365478515625,7.121123799067735,1.4339577214770018,-0.9862779591239988
1782836739072294400,1.32829443359375,6.187109257274866,1.7757656642995774,-0.8526165076531469
1782836739082223400,1.338223388671875,5.924963464710116,1.5215665929555893,-0.8363445872880518
1782836739092153300,1.3481533203125,5.150133522701263,1.2440487514749168,-1.1008232067145407
1782836739102082600,1.35808251953125,3.6969466384887695,1.4278281326808036,-1.5534280043795703
1782836739112011500,1.368011474609375,2.1358669503122565,1.7986226621434092,-1.6490568084456025
1782836739121940500,1.3779404296875,0.11381985592544078,1.9556331327587364,-1.428117032624781
1782836739131870500,1.387870361328125,-1.9879577777802944,1.7577235193915663,-1.2256706526108085
1782836739141799400,1.39779931640625,-4.041473192620277,1.2276213482871652,-0.38732100911065936
1782836739151728400,1.407728271484375,-5.822118007263541,0.8165916929394006,0.6295007029674947
1782836739161657300,1.4176572265625,-7.772553571379184,0.8204708724603056,1.3232117200389504
1782836739171586600,1.427586669921875,-10.298960054457186,0.5589215844839811,2.2809793317325413
1782836739181516300,1.437516357421875,-13.952678961116074,-0.6404851844489574,3.289379983076453
1782836739191445200,1.4474453125,-17.280108396601676,-1.930899527388066,3.472257008615136
1782836739201374500,1.45737451171875,-19.543589919435977,-2.21596281581223,3.2590798296198247
1782836739211303400,1.467303466796875,-19.56930186831951,-1.6593062536507843,2.7023031482100484
1782836739221232400,1.477232421875,-18.852105200111865,-0.9013149259790778,2.2589628763660787
1782836739231162400,1.487162353515625,-17.52171701257229,-0.6368925667844713,2.1563315000616012
1782836739241091600,1.497091552734375,-15.658686760187148,-0.7869894586190581,2.5430092428326607
1782836739251020500,1.5070205078125,-13.579285208940505,-1.0688935523599385,3.1055826278224585
1782836739260949200,1.51694921875,-11.033739141106604,-1.331872727008909,3.0449457882910966
1782836739270879500,1.52687939453125,-8.186832291650772,-1.1998248482145368,2.435885961936414
1782836739280808400,1.536808349609375,-5.161718746554851,-0.7201490882724523,1.6189568537361918
1782836739290737400,1.5467373046875,-2.3979513680785893,-0.09553060438856482,0.8888292461544275
1782836739300666400,1.556666259765625,-0.5936579668223858,0.5047640239693224,0.47901890346854925
1782836739310595600,1.566595703125,-0.098076927870512,0.8103620047695934,0.5299534102834761
1782836739320525300,1.576525390625,-0.2539461194962263,0.5780469945840537,0.6106561556354164
1782836739330454300,1.586454345703125,-0.1542874753922224,0.08633256793245672,0.6860464737929404
1782836739340383500,1.596383544921875,0.183270408770442,-0.28445845439881084,0.5727426045656204
1782836739350312400,1.6063125,1.0824790101200341,-0.3145888042464852,0.4904515671089291
1782836739360242400,1.616242431640625,2.1199293764680625,-0.23830723633766174,0.4400668031312525
1782836739370171400,1.62617138671875,3.1658442043006416,-0.2853143405757844,0.40234475604556497
1782836739380100600,1.6361005859375,4.46641008502841,-0.43646286035515364,0.20343093407191334
1782836739390029300,1.646029296875,6.064333941477537,-0.5122572292689234,-0.03143595255352556
1782836739399958300,1.655958251953125,7.677505051419138,-0.4203980799347162,-0.295036547036469
1782836739409888500,1.665888427734375,8.752588690590859,-0.05732881096191704,-0.2639031576260924
1782836739419817500,1.6758173828125,8.878034102380274,0.23988588383123277,0.05412606939785182
1782836739429746400,1.685746337890625,8.662734232142567,0.22844459849298,0.06626688130758702
1782836739439675400,1.69567529296875,8.476980774384737,0.15329685691967607,0.04089234768487513
1782836739449605400,1.70560546875,8.148250924322008,0.04995207164883613,0.12878705036751925
1782836739459534300,1.715534423828125,7.528872825309634,-0.007946721220761538,0.11216397847719489
1782836739469463300,1.72546337890625,7.123179562553763,-0.11186565311774611,0.27068996822200714
1782836739479392500,1.735392578125,7.034711005505919,-0.06047806877307593,0.14055764072537422
1782836739489321500,1.745321533203125,7.244286068356037,-0.1618330684661865,-0.44441528066433966
1782836739499251500,1.75525146484375,7.276839261436462,0.043594300119951364,-0.5884169974289835
1782836739509180400,1.765180419921875,7.635721088656783,0.38619178588502107,-0.22118118336126208
1782836739519109400,1.775109375,7.3948478012233965,0.37087307459153235,-0.16125599923059344
1782836739529038300,1.785038330078125,7.121048980265855,0.16143245177604257,-0.15028993018865586
1782836739538968300,1.79496826171875,7.46185154543817,-0.03702215518802404,-0.3299455094628036
1782836739548897500,1.8048974609375,7.988107708638906,-0.06370521412603557,-0.757946757877618
1782836739558826500,1.814826416015625,7.712539539921283,0.10977934836298227,-0.8927116405457257
1782836739568755500,1.82475537109375,6.69124886573553,0.22685038810409605,-0.5467980159699917
1782836739578684400,1.834684326171875,5.85048719265759,-0.019423224002867934,-0.08637246155142783
1782836739588614400,1.844614501953125,6.072799572005867,-0.3153124423459172,-0.028096359802037476
1782836739598543400,1.85454345703125,7.006461647099256,-0.134041682960093,-0.39441169802397485
1782836739608471000,1.864470947265625,5.946764962151646,0.46233562582358717,-0.5061544554144144
1782836739618399700,1.874399658203125,3.956816887336969,0.4630279920019209,-0.4321406863071024
1782836739628330000,1.884330078125,3.1705648030817506,-0.07664090274050832,-0.1278922204196453
1782836739638259000,1.894259033203125,2.9428701461732385,-0.18562610505111515,0.4574517993047833
1782836739648188000,1.90418798828125,1.6133149023264646,0.26415260234251614,0.560413868868351
1782836739658116900,1.914116943359375,-0.9626151978552341,0.5932283432334661,-0.12038637483417987
1782836739668045800,1.9240458984375,-3.555040505763888,0.4205804507642984,-0.7732172461152076
1782836739677975800,1.933975830078125,-4.970891054272651,0.11161562387943268,-0.3798486274033785
1782836739687904800,1.94390478515625,-7.029923771229386,-0.2549896371997893,1.7134112071953713
1782836739697833700,1.953833740234375,-10.47085274464488,-1.165912934001535,3.9285540849268434
1782836739707763000,1.963762939453125,-14.888791936492918,-1.9829625998415052,4.102911703923344
1782836739717693000,1.97369287109375,-18.412600853168964,-1.5499334402620792,2.339896361733973
1782836739727622000,1.983621826171875,-19.818904405653477,-0.11531659728921949,0.5113122765690088
1782836739737550800,1.99355078125,-20.108530325818062,1.089387547399476,-0.37968379223048687
1782836739747479800,2.003479736328125,-19.013299970674513,1.4488573305755852,0.013914689714461564
1782836739757408800,2.01340869140625,-17.51072566295862,0.8745911697044968,1.0071148493170738
1782836739767339000,2.023339111328125,-15.786795253705977,-0.07212832068689166,1.445918646775186
1782836739777268000,2.03326806640625,-13.551700451922416,-0.4892133305508643,1.3791583559274672
1782836739787197000,2.043197021484375,-10.73888993333578,-0.2373956744506955,1.2096218734771012
1782836739797126000,2.0531259765625,-7.144711010882258,0.30088344643376763,0.7602642410397529
1782836739807056000,2.063055908203125,-4.800159224557876,0.8434908788461237,0.48483124300912017
1782836739816984800,2.07298486328125,-3.555658345401287,0.9428189027562737,0.8017683639474212
1782836739826913800,2.082913818359375,-2.5427158128440377,0.6580311433378606,0.8417502457238734
1782836739836842800,2.0928427734375,-2.1708792269825934,0.41838863980844615,0.31959187323078514
1782836739846772000,2.10277197265625,-1.9887170717149971,0.17196425758656114,-0.31752032765373583
1782836739856702000,2.112701904296875,-1.194488017231226,-0.39676173174884166,-0.8002909848712384
1782836739866631000,2.122630859375,0.5094792159229516,-1.0609880399323999,-0.4576071359969675
1782836739876560000,2.132559814453125,1.990927148979902,-1.2568328297242521,0.47901108548827465
1782836739886488800,2.14248876953125,3.2378193071871992,-1.1884727755296975,0.7430849235061555
1782836739896418800,2.152418701171875,4.582340064975619,-0.9870410524509846,0.486872831839323
1782836739906348000,2.16234814453125,5.692337196618318,-0.6213549520432948,0.17186185665801165
1782836739916277000,2.172277099609375,6.6186442327737804,-0.17814696480948478,-0.14846446832716464
1782836739926206000,2.1822060546875,7.2582052881151435,0.07965203072261065,-0.21350392673164606
1782836739936135700,2.1921357421875,7.981059543693065,0.02892546756993979,-0.28553309789299963
1782836739946065000,2.20206494140625,8.351623040878772,-0.037620048015937206,-0.2610129891425371
1782836739955993900,2.211993896484375,8.21451349478066,-0.1347512194689363,-0.2658158593796193
1782836739965922800,2.2219228515625,8.075908157166838,-0.33862887439504263,-0.2555987090088427
1782836739975851800,2.231851806640625,7.803329817914962,0.05007467511519789,-0.30456264640316366
1782836739985782000,2.241781982421875,7.237817749124765,0.7192980244010686,0.13728636396974325
1782836739995711000,2.2517109375,6.846717659866809,0.6991222284652292,0.14045264598093926
1782836740005639700,2.2616396484375,7.055332353252172,0.3168699009209871,-0.08457067282646893
1782836740015569000,2.27156884765625,7.560486107191443,0.3193142983984202,-0.36567221801280975
1782836740025499000,2.281498779296875,7.2892960074275726,0.7194526304408907,-0.5997226006235927
1782836740035427800,2.291427734375,7.216218496257066,0.9740770145248621,-0.6865466784000396
1782836740045357000,2.301357177734375,7.863930124828219,0.8698946093861013,-0.7872812811724841
1782836740055286000,2.3112861328125,8.391467560011147,0.666108797461912,-0.8933338640972971
1782836740065215700,2.3212158203125,8.24515413223803,0.5024116156242787,-0.7745474718056619
1782836740075144700,2.331144775390625,7.868249741593003,0.32345570905208587,-0.6112412620469927
1782836740085074000,2.341073974609375,7.064158633786439,0.24156390004605052,-0.13509396849200128
1782836740095003000,2.3510029296875,6.365718103975057,0.2381558451682329,0.15331117770597338
1782836740104931800,2.360931884765625,6.338554787239432,0.2985499619849026,-0.18998773432672023
1782836740114862000,2.370862060546875,5.942399168157577,0.6321667073063552,-0.7479296601235866
1782836740124790800,2.380790771484375,5.063346050608158,1.0707703060172498,-1.1628497470386325
1782836740134719700,2.3907197265625,3.850914380407333,1.2838770501248538,-1.3731848344758153
1782836740144648700,2.400648681640625,2.34468564183712,1.122169361604005,-1.0954770233809947
1782836740154579000,2.410578857421875,0.550281181910634,0.714105131933093,-0.748647891395539
1782836740164508000,2.4205078125,-1.8498913693487644,0.48918271621689197,0.11009878957569598
1782836740174436900,2.430436767578125,-3.6676153300642964,0.3859520588450134,0.5555950704097747
1782836740184366000,2.440365966796875,-5.197669765380025,0.3591761339917779,0.9235062995210289
1782836740194295000,2.450294921875,-7.317730074751377,-0.019940672005712985,1.7415012833870946
1782836740204224800,2.460224853515625,-10.282238052237034,-1.6671882390722632,2.6199486901283264
1782836740214153700,2.47015380859375,-13.05707335269451,-3.738213883900642,3.0252175899922844
1782836740224083000,2.4800830078125,-15.49644686448574,-4.128979626637697,2.72986569339633
1782836740234012000,2.490011962890625,-16.430196033340692,-2.723352365979552,2.064805016747862
1782836740243942000,2.49994189453125,-16.513690309107304,-1.2369726756088435,1.571489438509941
1782836740253870800,2.509870849609375,-16.378136175757646,-0.6889101926609873,1.055432159370929
1782836740263799800,2.5197998046875,-15.912243003582953,-0.9262140241097658,1.234632103832066
1782836740273728800,2.529728759765625,-15.049053810119627,-1.5669120475918055,2.1417180144280192
1782836740283659000,2.539658935546875,-13.95138249156475,-1.9323130474478005,2.835583491408825
1782836740293588000,2.549587890625,-11.580645878148077,-1.7140541812740264,2.3539449069611726
1782836740303517000,2.559516845703125,-7.937471161857247,-0.8391488310538232,1.2464926374956964
1782836740313446000,2.56944580078125,-5.063246097365021,0.08996259499788284,0.7047505166757851
1782836740323375000,2.579375,-2.7321920905172825,0.30641032009646296,0.513806285341829
1782836740333304800,2.589304931640625,-1.2766986829280853,0.03552095684483647,0.5761673183172941
1782836740343233800,2.59923388671875,-0.9461731816202401,-0.38189679210484023,0.8139057417910546
1782836740353162800,2.609162841796875,-0.8468067984610795,-1.059330774244666,0.8727279331158846
1782836740363092000,2.619092041015625,-0.3888216229319572,-1.631979270786047,0.6048368748974055
1782836740373022000,2.62902197265625,0.6054875208258629,-1.6933312728494405,0.3711936848480254
1782836740382950700,2.63895068359375,1.9049217671751975,-1.4537456871390342,0.233414788120985
1782836740392879900,2.6488798828125,3.370673533928394,-1.212735037061572,0.33521051731891927
1782836740402808800,2.658808837890625,4.960053433915973,-1.0308546213448047,0.6702920744959264
1782836740412738800,2.66873876953125,6.076427699375152,-0.8779334658697246,0.9628167117767036
1782836740422668000,2.67866796875,6.937180605602264,-0.6703228349603713,0.9259544233255088
1782836740432597000,2.688596923828125,7.64564802390933,-0.3402286377418786,0.5393734919924289
1782836740442526000,2.69852587890625,8.056204508787394,-0.06488572914749384,0.18785444862507283
1782836740452455000,2.708454833984375,8.225803535079956,0.12539952682107686,0.07801430998556315
1782836740462385000,2.718385009765625,8.171666871222854,0.14530980368852614,0.2555777392860502
1782836740472313900,2.72831396484375,8.132213397234677,-0.018779592337086797,0.17982421383932232
1782836740482242800,2.738242919921875,7.994463799667358,-0.06449234591573476,-0.014762319519743322
1782836740492171800,2.748171875,7.6503949261754745,-0.05803220999091863,-0.07192234978601336
1782836740502102000,2.75810205078125,7.411057762268185,-0.16047836592160164,-0.12773052705191076
1782836740512030700,2.76803076171875,7.593040469315648,-0.31128859365731476,-0.07578150943219661
1782836740521959700,2.777959716796875,7.775456307083368,-0.403091263563931,-0.12515709636732936
1782836740531889000,2.787888916015625,7.697449522817134,-0.3905140329983085,-0.23963147067874668
1782836740541819000,2.79781884765625,7.322036247512698,-0.2642040402688086,-0.2308824200991541
1782836740551747800,2.807747802734375,7.468810863056778,-0.19457586583457886,-0.36179128492623563
1782836740561677000,2.817677001953125,7.743452564579248,0.033028701637685294,-0.3666818334467709
1782836740571606000,2.82760595703125,8.057690363430977,0.3798657246686518,-0.41673531964346766
1782836740581535000,2.837534912109375,8.302121635606884,0.7153183071151376,-0.49003977143764493
1782836740591464700,2.847464599609375,7.786033815199136,0.7526056891106069,-0.4096335248142481
1782836740601394000,2.857393798828125,7.283880996641516,0.415671124478057,-0.7042018698170781
1782836740611323100,2.8673232421875,7.228941199707984,0.2766130015954375,-0.8274950720086693
1782836740621252000,2.877252197265625,7.25852969776392,0.48375411529690027,-1.031328814727813
1782836740631182000,2.88718212890625,6.646588470754027,0.7731127628274261,-0.9552367780417204
1782836740641111000,2.897111083984375,5.2373319136828185,0.7119251575455069,-0.4764169042766094
1782836740651040000,2.9070400390625,3.103661012110114,0.23647899799719452,-0.3384877123586833
1782836740660969000,2.916968994140625,0.6145739136010409,-0.23223683038279413,-0.7037155476048589
1782836740670899200,2.926899169921875,-1.8081173434585331,-0.3289076908476651,-0.7013549559533596
1782836740680828200,2.936828125,-5.362347117361426,-0.5384339461199938,-0.10798866555392742
1782836740690757000,2.946757080078125,-8.683032923805714,-1.005905765788257,0.5241201740853488
1782836740700686300,2.956686279296875,-12.047204236233235,-1.4777014400050044,1.5855429521732032
1782836740710616000,2.966615966796875,-15.86245576710701,-1.8303784212358294,2.327048278337717
1782836740720545000,2.976544921875,-19.464349793982503,-1.5212749165326356,2.2496211936555803
1782836740730474200,2.98647412109375,-21.90837142384052,-0.4767219516377896,2.037460790487379
1782836740740403200,2.9964033203125,-22.591181838321685,0.44587139775678514,1.4472558867283165
1782836740750332200,3.006332275390625,-22.28531556197405,0.7632115465380251,1.1178273868769406
1782836740760262000,3.016261962890625,-20.73884599843025,0.21832009484171866,1.0684387943297624
1782836740770191000,3.026191162109375,-18.4333817753911,-0.5600549724280834,1.159135694951564
1782836740780120000,3.0361201171875,-15.863587401485443,-0.9470604858487844,1.7016234465070068
1782836740790049000,3.046049072265625,-12.78647946525812,-1.0681398113831877,1.8643096246711908
1782836740799979300,3.055979248046875,-9.760220257258414,-0.7413149181589483,1.347614778281003
1782836740809908200,3.065908203125,-6.880055281323194,-0.1569717460401356,0.7536584130339324
1782836740819837200,3.075837158203125,-4.392847420689463,0.1019734969176352,0.41763256074413657
1782836740829766100,3.08576611328125,-2.329571659335494,-0.03430105966106057,0.18073650637865066
1782836740839696100,3.095696044921875,-0.4436164584368467,-0.16584946450069546,-0.13697963610813021
1782836740849625000,3.105625,0.9497890340298414,-0.1432192611500621,-0.04008431923761964
1782836740859554000,3.115553955078125,2.21831200928688,-0.1850162295244634,0.18575725715011357
1782836740869483300,3.125483154296875,3.5207033518761395,-0.2091033536851406,0.31458953489884733
1782836740879413200,3.135413330078125,4.61883644272387,-0.12708338825479149,0.42054070327579973
1782836740889342000,3.145342041015625,5.64540885670483,-0.07619549706056714,0.41142983364649116
1782836740899271000,3.15527099609375,6.622056087043881,-0.07747077769339084,0.24979265307858584
1782836740909200100,3.1652001953125,7.454726223602891,0.04094152058884501,0.09616093818135558
1782836740919129000,3.175129150390625,8.127280032485723,0.1993808549635112,-0.012309884866327047
1782836740929059000,3.18505908203125,8.721007557412982,0.17327815319672227,-0.19872297557666896
1782836740938988300,3.19498828125,8.902180117121338,0.009930734644830226,-0.3502753269165754
1782836740948917200,3.204917236328125,8.907553626853227,-0.08174260979369283,-0.33261209832355376
1782836740958846200,3.21484619140625,8.916080632179975,-0.036463060000538824,-0.18101451960243284
1782836740968776200,3.224776123046875,8.717194136604666,0.08682568521164358,-0.026238749236613512
1782836740978705200,3.234705078125,8.738339800485969,0.19517339333631098,-0.2910448470517993
1782836740988634000,3.244634033203125,8.6668866756469,0.4028017060328275,-0.5656028158135712
1782836740998563000,3.25456298828125,8.26357943124473,0.4749547227695584,-0.648561888724938
1782836741008493300,3.264493408203125,8.047820126801728,0.37264066878594454,-0.712244014236331
1782836741018422000,3.274422119140625,8.467771047490835,0.3498682074204087,-0.8211357661098241
1782836741028351000,3.28435107421875,8.892818414536118,0.5354229277357458,-0.7403129745747894
1782836741038280000,3.294280029296875,8.464159871256351,0.5524214088097215,-0.3377404741879552
1782836741048210200,3.304210205078125,8.08558433252871,0.2465675535522401,0.148019939430058
1782836741058139100,3.31413916015625,8.220655066275596,-0.033347996719926595,0.26463512516245247
1782836741068068000,3.324068115234375,8.458171444496513,0.10217734892666339,0.003147796506434679
1782836741077997300,3.333997314453125,8.352145018926262,0.5482626816950739,-0.2967914278797805
1782836741087927000,3.343927001953125,7.923080817455053,0.8454349255859851,-0.523347728408128
1782836741097856000,3.35385595703125,7.7774635552525515,0.8579733585111796,-0.7045527290813625
1782836741107785200,3.36378515625,7.718894461905956,0.7642834135532379,-0.7720034864112735
1782836741117714200,3.373714111328125,7.460665550523996,0.6398835652939975,-0.7449249253496527
1782836741127643100,3.38364306640625,7.612243766957521,0.5891833056263626,-0.9312062063738703
1782836741137573000,3.393572998046875,7.712525511395931,0.70840852772668,-1.0473257175438107
1782836741147502000,3.403502197265625,6.453835363367199,0.8752186539530754,-0.7992557966046034
1782836741157431000,3.41343115234375,3.897478563183546,0.8022652075536548,-0.86310619135499
1782836741167360000,3.423360107421875,0.7425269242972136,0.46698155193328855,-0.8696347163408994
1782836741177290200,3.433290283203125,-2.75278596573472,-0.10734949086755513,-0.565351471401006
1782836741187219200,3.44321923828125,-5.653873902711272,-0.5791086324661969,-0.720274760478735
1782836741197148200,3.453148193359375,-8.066452346557378,-0.6390636272132396,-0.6116309920169413
1782836741207077000,3.4630771484375,-10.194815789371729,-0.6089423374548554,0.15601313014104962
1782836741217007000,3.473007080078125,-12.817412363660335,-1.1816038396082817,1.4760658016271888
1782836741226936000,3.48293603515625,-16.771050620961187,-2.5701874648764726,2.609044434276223
1782836741236865000,3.492864990234375,-19.611455248916148,-3.787250886531174,2.733654564285278
1782836741246794200,3.502794189453125,-21.153243961167334,-3.7914579828321933,3.2563316999554632
1782836741256724200,3.51272412109375,-21.349753206217287,-3.3036393945753573,3.8863662175387144
1782836741266653200,3.522653076171875,-20.662930633485317,-3.212514185538888,4.4144937275692815
1782836741276582100,3.53258203125,-19.667061985325812,-3.5735692651450632,4.574717022751272
1782836741286511000,3.542510986328125,-18.54218935611248,-3.838849848604202,4.36428125141859
1782836741296441000,3.552441162109375,-17.19194379093647,-3.7948686680585144,3.8247435818403956
1782836741306370000,3.5623701171875,-15.082708242440223,-3.660225219812989,3.2387139179393647
1782836741316299300,3.57229931640625,-11.971235095274448,-3.151218297576904,2.816740843772888
1782836741326228200,3.582228271484375,-8.514225340151786,-2.148211906491965,2.0289825927384197
1782836741336157200,3.5921572265625,-5.289748914140462,-1.053103862553835,0.9725900639027356
1782836741346087200,3.602087158203125,-2.6963369332820175,-0.1810465952411294,0.34411680428683755
1782836741356016000,3.61201611328125,-0.7847352499514818,0.3312497239291668,0.04327259388491511
1782836741365945000,3.621945068359375,0.9343477192699908,0.7155293195173144,-0.3123891022451222
1782836741375874000,3.6318740234375,2.54433435395658,1.1486251145921647,-0.7526998702000827
1782836741385804300,3.64180419921875,3.355570657342672,1.4171892497666179,-0.759568733056262
1782836741395733000,3.65173291015625,3.653194006001949,1.3418611831903458,-0.42477644114941354
1782836741405662000,3.661661865234375,4.262412530049682,1.0348425219371915,0.2454866264477372
1782836741415591200,3.671591064453125,5.116883579528332,0.6399750429697334,0.8535378602817654
1782836741425521200,3.681521240234375,5.864684644836187,0.3941882645316422,0.7372942843407392
1782836741435450000,3.6914501953125,6.467515513673424,0.47608577262610197,0.4205824235256761
1782836741445379000,3.701379150390625,7.26682698598802,0.7844302756555378,0.3713589584123343
1782836741455308300,3.711308349609375,8.494835580027102,1.0709149751849472,0.20849420881085096
1782836741465238000,3.721238037109375,9.414883555787801,1.300826577490568,-0.17809410211108623
1782836741475167000,3.7311669921875,9.378451475447417,1.5230236598961053,-0.4032557334106415
1782836741485096200,3.74109619140625,9.331330243310331,1.5559695055559277,-0.6220136351477354
1782836741495025200,3.751025146484375,9.382470063439012,1.5347170202992855,-0.5179929233767092
1782836741504955100,3.760955078125,9.273843099981546,1.7572088478676973,-0.712179570697993
1782836741514884400,3.77088427734375,8.59413240508139,2.1768371124736965,-0.710034959884733
1782836741524813000,3.78081298828125,7.938810886028408,2.191560634353012,-0.9659026950933038
1782836741534742000,3.790741943359375,7.64777334550023,2.0422624916806815,-1.0764674947455524
1782836741544672000,3.800672119140625,7.508180750414729,1.8781199772283435,-0.7248805007085204
1782836741554601200,3.810601318359375,7.39249100896418,1.5531399812184272,-0.5559076434902847
1782836741564530200,3.8205302734375,7.408555424058437,1.2143171916864812,-0.8316374325104058
1782836741574459100,3.830459228515625,7.510562092593312,1.1677565160416066,-1.0445026229470968
1782836741584389000,3.84038916015625,7.181769698688387,1.2796560714289544,-1.0099008267737923
1782836741594318000,3.850318115234375,6.974926106628775,1.3075884728409348,-0.8035900264166295
1782836741604243000,3.860242919921875,7.201886604043841,1.3931161541312933,-0.7351791918829083
1782836741614172000,3.870171875,7.707930584821105,1.613588166309893,-1.0973781808272003
1782836741624102100,3.88010205078125,7.586808881449699,1.7908140342190861,-1.2457815666168928
1782836741634031000,3.890031005859375,7.336573891431093,1.8381464248888193,-1.051235584463924
1782836741643960000,3.8999599609375,7.52703391944468,1.8252974647097289,-1.0609840944096445
1782836741653889000,3.909888916015625,7.745618218180537,1.8304509019501507,-1.2289938056841492
1782836741663819000,3.919819091796875,7.551814140436053,1.85838987923339,-1.220071955820918
1782836741673748000,3.929748046875,6.843199422612786,1.757944176404923,-1.2167730604059994
1782836741683677000,3.939677001953125,5.597300951617956,1.6143804857313633,-1.258464814840257
1782836741693606000,3.94960595703125,3.553093463349342,1.4159120694376528,-0.9503089662507176
1782836741703536000,3.9595361328125,0.25482290233075616,0.9218502028770744,-0.38446430450528857
1782836741713465000,3.969465087890625,-3.2347230947375296,0.13960267808809876,0.01654211560860276
1782836741723393800,3.979393798828125,-7.042227957007288,-0.425126277500391,0.6674127927325666
1782836741733323000,3.989322998046875,-12.119428929966688,-0.5603586315497756,0.7638298245668411
1782836741743253000,3.9992529296875,-14.854870962190628,-0.8783359091907739,0.6125865391761064
1782836741753182000,4.009181884765625,-15.450215859186649,-1.3426342133894562,0.8686950974032283
1782836741763111200,4.019111083984375,-17.29557718389034,-1.223038623606786,1.7082698987841605
1782836741773040000,4.0290400390625,-18.19305560044646,-0.7066366226833314,2.2303210115104912
1782836741782969000,4.038968994140625,-17.202789010077716,-0.2725150647573173,1.9376431564293801
1782836741792898800,4.04889892578125,-15.708249540257453,-0.34020123827829957,1.536494697496295
1782836741802828000,4.058828125,-13.578801224815845,-1.0157591974131763,1.8460861318469046
1782836741812757000,4.068757080078125,-12.076593996846675,-1.8586755643069743,2.907893233077228
1782836741822686000,4.07868603515625,-11.420486880373954,-2.7421733863055704,3.539254030828178
1782836741832616200,4.0886162109375,-10.713633911526202,-3.2037530791953204,3.5250898963972923
1782836741842545200,4.098545166015625,-9.140204444864391,-2.5990289439573884,3.142734839130938
1782836741852473900,4.108473876953125,-7.609412342923879,-1.082427279932797,2.4367275273270903
1782836741862402800,4.11840283203125,-6.143287066683173,0.01813464549705386,1.4447827746130526
1782836741872333000,4.1283330078125,-4.639586385285854,0.5424483693931251,0.5588570678804069
1782836741882262000,4.138261962890625,-3.4235809482514856,0.8352395486555994,0.009954261650890112
1782836741892191000,4.14819091796875,-2.377315991806984,0.7478386208392679,-0.4413554547023028
1782836741902120200,4.1581201171875,-1.9732588058203457,0.23207924693459644,-0.6471919886112213
1782836741912050000,4.1680498046875,-1.4041215322703122,-0.5400741510750725,-0.4431676186908036
1782836741921979000,4.177978759765625,-0.28004735995829105,-1.2579894524134694,-0.11843114911317824
1782836741931907800,4.187907958984375,0.9386492158561944,-1.9367603822454809,0.2324015194252133
1782836741941837000,4.197837158203125,2.5492174498230216,-2.519723644313216,0.6387956969920545
1782836741951767000,4.20776708984375,3.7362697640955447,-2.7129806095689535,1.5114257226914167
1782836741961696000,4.217696044921875,4.496559139576554,-2.6580992648243904,2.4999820020109413
1782836741971625200,4.227625244140625,5.542212101602554,-2.5073899401798845,2.3366779842093583
1782836741981554000,4.237553955078125,6.379501714655756,-2.065820769661665,1.247431671911478
1782836741991484000,4.24748388671875,6.800803465431928,-1.5657292675480246,0.4586803181864321
1782836742001413000,4.2574130859375,7.577676895967126,-1.3335887371465562,0.12789024765826762
1782836742011342000,4.267342041015625,8.29536163995266,-1.1882160973548888,0.1258461746100336
1782836742021271000,4.27727099609375,8.637555367222427,-1.0123986349388956,0.17351963380239904
1782836742031200800,4.28720068359375,8.575537594726681,-0.8898274634115397,0.38029819780178364
1782836742041130000,4.2971298828125,8.125628173625469,-0.8472212244808673,0.48022900991067285
1782836742051059000,4.307058837890625,7.827213382327556,-0.7931747231252491,0.3545152295086533
1782836742060988000,4.31698779296875,7.428437351614236,-0.6906696035489439,0.32791553800515827
1782836742070918100,4.326918212890625,7.12135760782361,-0.5832821187585592,0.38924700873717666
1782836742080847000,4.33684716796875,7.427295195841789,-0.5168883962009102,0.21741759304404257
1782836742090776000,4.346776123046875,7.746312045663594,-0.3780049722980708,-0.06462744353748857
1782836742100705000,4.356705078125,7.566195717009902,-0.1314619686651975,-0.13465470029190182
1782836742110635000,4.366635009765625,7.5068164763242,0.013235329148173332,-0.3555693416714668
1782836742120564000,4.37656396484375,7.774242839640379,0.12195932323932647,-0.6846535581298172
1782836742130493000,4.386492919921875,7.865152944621443,0.2613310421157628,-0.8327005316972732
1782836742140422100,4.396422119140625,7.557254870185256,0.27750447054244576,-0.6245405963420868
1782836742150352100,4.40635205078125,7.134709256827831,0.16013839337751268,-0.37644948648437854
1782836742160280800,4.41628076171875,7.027422017541527,0.15028598466590046,-0.3936918593168258
1782836742170209800,4.426209716796875,6.7562465308249,0.4849911097459495,-0.45348508763089773
1782836742180139000,4.436138916015625,5.544731390947103,0.9566336392275988,-0.36695612034350633
1782836742190069000,4.446069091796875,4.602599593672156,1.1194753002144395,-0.7899164519816636
1782836742199998000,4.455998046875,3.2606764511615034,1.1343636572666465,-1.4516392163790761
1782836742209927200,4.46592724609375,1.0374690710484982,1.080660124129802,-1.9314777656674385
1782836742219856100,4.475856201171875,-0.9856073663860558,0.9362263726234435,-2.029428729070723
1782836742229785900,4.485785888671875,-3.140180770733952,0.7273758246555924,-1.8295893166847526
1782836742239715000,4.495715087890625,-5.068137376537919,0.49027811023816464,-0.9073905926309526
1782836742249644000,4.50564404296875,-6.389031175023317,0.22667978077754378,0.027370237484574317
1782836742259573000,4.515572998046875,-8.447752926334738,-0.09004428193196654,0.9918658422589302
1782836742269503200,4.525503173828125,-11.473748514962196,-0.9781830616042018,2.0412579908132553
1782836742279432000,4.535431884765625,-14.520404029780625,-1.7081668768011034,2.157052653943002
1782836742289361000,4.54536083984375,-17.112390361750126,-1.2443699462532996,1.5491044420920312
1782836742299289900,4.555289794921875,-18.05079466293454,-0.3725010411195457,1.167367808984965
1782836742309220000,4.56522021484375,-17.55671818332672,0.004506956030428409,0.9688175596266985
1782836742319149000,4.575149169921875,-17.1885699305892,-0.20324922082945704,1.2869649331375956
1782836742329078000,4.585078125,-16.746070493483543,-0.7447653508737683,1.852389031383395
1782836742339007000,4.595007080078125,-15.763622467911242,-1.289373747844994,2.332112429859489
1782836742348937000,4.60493701171875,-14.229205745732784,-1.3124172081716359,2.7073423114210367
1782836742358866000,4.614865966796875,-12.19023791168332,-0.8427696518994867,2.095812003299594
1782836742368795000,4.624794921875,-9.092525578844548,-0.14663886033520102,0.8312656765885651
1782836742378724000,4.63472412109375,-5.99474427242279,0.4649308299485594,-0.38502456873655316
1782836742388654000,4.644654052734375,-3.3457062659323213,0.7413630681496113,-0.759274791610986
1782836742398583000,4.6545830078125,-1.3584493298977613,0.6299952815514057,-0.4767701016284525
1782836742408512000,4.664511962890625,-0.5052554607480764,0.17430625413544476,-0.12174633807577193
1782836742418441000,4.67444091796875,-0.5303630139976739,-0.44383477736264465,0.2272112573057413
1782836742428371000,4.684370849609375,-0.31122108137905596,-1.0874455464862287,0.5312264258939773
1782836742438300000,4.6942998046875,0.7129279048472642,-1.4563035549283028,0.6738488171294331
1782836742448229000,4.70422900390625,2.1769290285408496,-1.3685796787679194,0.7106458583246916
1782836742458158000,4.714157958984375,3.624605040377378,-1.1063505918338894,0.6126403151899575
1782836742468087800,4.724087890625,5.048910698020458,-0.8596366155482829,0.6024575785454362
1782836742478017000,4.73401708984375,6.402085302385688,-0.7058466413494199,0.6675229751087725
1782836742487946000,4.743946044921875,7.1873787707418195,-0.6389848628886043,0.5800679790176451
1782836742497875000,4.753875,7.682432570949197,-0.5553950177930295,0.3555591856036335
1782836742507805200,4.76380517578125,8.071466375327109,-0.39864290585294365,0.22802257368862627
1782836742517734100,4.773734130859375,7.996708363723754,-0.2529890379671007,0.35906609774604437
1782836742527663000,4.7836630859375,7.611482134935259,-0.27132527045086025,0.43830994952656327
1782836742537591800,4.793591796875,6.835853151503205,-0.4207951164282858,0.3555246257469058
1782836742547522000,4.80352197265625,6.124188982981443,-0.5968304593786596,0.10857705990113317
1782836742557451000,4.813450927734375,6.338569400286674,-0.517947476799786,0.03909757322259247
1782836742567380000,4.8233798828125,6.950334101685881,-0.1195825111053884,0.2011029295157641
1782836742577309000,4.833308837890625,7.432592133206128,0.5653460645735263,0.32559381705932317
1782836742587239000,4.843239013671875,7.874398327350616,1.2430267149507999,0.17465872083492576
1782836742597167900,4.85316796875,8.19955616414547,1.6076203439466654,-0.06828633137121796
1782836742607096300,4.863096435546875,8.306001691910623,1.7877637067377565,0.01762852260582149
1782836742617025500,4.873025634765625,8.287170150190592,1.7133843191884457,0.19401976632177828
1782836742626955500,4.88295556640625,8.477973877075314,1.3992539262339472,0.008398118250072003
1782836742636884500,4.892884521484375,8.583169697040319,1.057031265130639,-0.5609308784797787
1782836742646813400,4.9028134765625,8.355044247499109,0.9219218068085611,-1.1163453316256404
1782836742656742700,4.91274267578125,8.147052654448151,1.3097912435822188,-0.8601337514154612
1782836742666672400,4.92267236328125,7.550489613834023,1.4372656769812107,-0.8547869835600257
1782836742676601300,4.932601318359375,6.8113540855407715,1.1374058014415205,-1.023201768504083
1782836742686530600,4.942530517578125,6.5052762122690675,0.8407261633731424,-0.9425579137325286
1782836742696459500,4.95245947265625,6.12441870008409,0.7143887711800635,-1.0638576040193437
1782836742706389500,4.962389404296875,4.9544379321217535,0.7261153032004832,-1.1521917210325598
1782836742716318700,4.972318603515625,3.023308541500568,0.515220974445343,-1.0641598018363116
1782836742726247400,4.982247314453125,0.8651081788271665,-0.06513064381927251,-1.021947530659288
1782836742736176400,4.99217626953125,-0.8961866231799125,-0.7122491288028657,-0.5916448734343052
1782836742746106400,5.0021064453125,-2.808327820214629,-1.06100192232728,0.05256371545195579
1782836742756035600,5.01203564453125,-5.845855441203713,-0.8531682963170111,0.3431463518194854
1782836742765964500,5.021964599609375,-9.272776932054757,-0.7425549813479184,0.26706235230937597
1782836742775894500,5.03189453125,-12.258978854954242,-1.4942843260154126,0.5174254987522959
1782836742785823500,5.041823486328125,-14.465139823198317,-2.131641441571712,0.7879955669216812
1782836742795752400,5.05175244140625,-16.08776908183694,-1.6877105103582142,0.9203950356326996
1782836742805681400,5.061681396484375,-16.513774480259418,-0.7355367731489241,0.8598410520792007
1782836742815611600,5.071611572265625,-16.038950982654093,-0.21410050438530742,0.5812405299283564
1782836742825540600,5.08154052734375,-15.697309628570078,-0.4001042836423963,0.5556352562896907
1782836742835469600,5.091469482421875,-15.167852038979529,-1.0710333408676087,1.0865551735177637
1782836742845398500,5.1013984375,-13.93590435192585,-1.6199989101350307,1.9274740829840302
1782836742855328500,5.11132861328125,-11.386603315472602,-1.414261818012595,1.8773731043837965
1782836742865257500,5.121257568359375,-8.78777866191566,-0.33938583024218677,1.1789409040093421
1782836742875186400,5.1311865234375,-6.5816206162810325,0.6356679203603416,0.6625966246224939
1782836742885115400,5.141115478515625,-4.475633840447664,1.0640461123287677,0.23052257381081578
1782836742895045600,5.151045654296875,-3.444315693244338,1.2055236443780362,0.19447744696140287
1782836742904974300,5.160974365234375,-3.39723830024898,0.8954569937311112,0.511498446790874
1782836742914903300,5.1709033203125,-3.0583097122550007,0.03414703814312815,0.6225061679050325
1782836742924832500,5.18083251953125,-2.1759312496751546,-0.8524149206664413,0.39382834517806764
1782836742934762500,5.190762451171875,-0.9609773675203322,-1.340432027170062,0.2428032325826585
1782836742944691500,5.20069140625,0.10092121138572692,-1.5720499950021505,0.48992578966915606
1782836742954620700,5.21062060546875,1.3217413552254438,-1.863773179706931,0.9039126873873173
1782836742964549600,5.220549560546875,2.7606799338549375,-2.1012181001268324,1.1131506272375582
1782836742974479400,5.230479248046875,4.421666103416681,-2.009380212776363,1.1238188823767006
1782836742984408600,5.24040869140625,5.705861864101887,-1.597248733666539,1.264666299828887
1782836742994337500,5.250337646484375,6.802808375513553,-1.2525462384462356,1.2599389790460467
1782836743004266500,5.2602666015625,7.44657740393877,-1.0460326089933514,1.2386872244417666
1782836743014196500,5.270196533203125,7.482028072026371,-1.0138132509771733,0.9765914084985852
1782836743024125700,5.280125732421875,7.464196647259593,-0.9856552971810102,0.8068912599191069
1782836743034054400,5.290054443359375,7.372264213493466,-0.974649845976755,0.8469391926690936
1782836743043983400,5.2999833984375,7.284595282390713,-1.1178838663045316,0.4483150645818561
1782836743053910500,5.30991064453125,7.342177118265629,-1.344735715713352,-0.29607926102243365
1782836743063840500,5.319840576171875,7.470576119163632,-1.4887280070625244,-0.7582784009847789
1782836743073769500,5.32976953125,7.654632125353813,-1.4772026967026293,-0.8062282659657299
1782836743083698400,5.339698486328125,7.523264922299981,-1.4031974031627177,-0.6646198740784078
1782836743093627400,5.34962744140625,7.108887417829036,-1.3863390612117945,-0.669232117114216
1782836743103557600,5.3595576171875,6.872575154700875,-1.2293363355115055,-0.5628168383568525
1782836743113486600,5.369486572265625,7.455471489012241,-0.9196928787127137,-0.5568704971730709
1782836743123415600,5.37941552734375,7.968966954839229,-0.5285609330117702,-0.7866035280413926
1782836743133344500,5.389344482421875,7.845368047699332,-0.04087032764931209,-0.9055946491248905
1782836743143274500,5.3992744140625,7.443344413366914,0.3605725567862391,-0.9020128451153635
1782836743153203500,5.409203369140625,7.221124388477206,0.3149066745566204,-0.9237754718512297
1782836743163132400,5.41913232421875,6.930685982885956,-0.00688212419655174,-1.061676752848923
1782836743173061600,5.4290615234375,6.439353249028325,-0.29392849446302277,-1.2433059702835976
1782836743182991600,5.43899169921875,6.0201090153038495,-0.46075993747208266,-1.1781880398154259
1782836743192920300,5.44892041015625,5.428896688067913,-0.5406976532682776,-1.027365756315738
1782836743202849300,5.458849365234375,4.802463409847021,-0.571286524005793,-0.9093635001391172
1782836743212779500,5.468779541015625,3.9030274294823406,-0.4217300591908395,-0.7150979423627257
1782836743222708500,5.47870849609375,2.6867794158637524,-0.06159008513558656,-0.2983218523174524
1782836743232637400,5.488637451171875,0.4702554590374231,0.34586123680137093,-0.32955957888513804
1782836743242566700,5.498566650390625,-2.430397593653202,0.6741027918905019,-1.180330312541127
1782836743252496400,5.508496337890625,-5.017625332918763,0.9983939288534224,-1.4329656416997312
1782836743262425300,5.51842529296875,-7.099575984126329,1.0820324353963136,-0.6606365765959024
1782836743272354600,5.5283544921875,-9.306518458136916,0.6765183285996318,0.9712599843427538
1782836743282283500,5.538283447265625,-12.112239310723542,-0.1860170588637702,2.956554972654581
1782836743292213500,5.548213623046875,-14.69787072070837,-1.1682423998624085,3.9334816044569014
1782836743302142700,5.558142822265625,-16.560255660927293,-1.25760147600919,4.151277967685461
1782836743312071700,5.56807177734375,-16.713295182085037,-0.2656011754493229,4.187416618037224
1782836743322000400,5.57800048828125,-16.264109983605145,0.8931119649749248,3.9482536416530607
1782836743331930400,5.587930419921875,-15.891708749598264,1.3895378572531043,3.7769738226667045
1782836743341859600,5.597859619140625,-15.32301921981573,1.2306629079401492,3.6505037440046664
1782836743351788500,5.60778857421875,-14.372621698498724,1.069571597751975,3.721614046755433
1782836743361717500,5.617717529296875,-13.358354639339446,1.2794377525031566,3.8766736755639313
1782836743371647500,5.6276474609375,-11.577120042109488,1.4636645852155983,3.1290447519525886
1782836743381576400,5.637576416015625,-8.560615919926763,1.5398312945730983,1.3977439600624144
1782836743391505400,5.64750537109375,-5.627728238585591,1.5947813206396997,-0.03659910747036338
1782836743401434400,5.657434326171875,-3.139435505324602,1.363590930569917,-0.7397736800663173
1782836743411364600,5.667364501953125,-0.7866910601943731,0.9112851158514619,-0.7570292046412825
1782836743421293600,5.67729345703125,0.5340291352897882,0.45328616752531375,-0.23411796795427797
1782836743431222500,5.687222412109375,0.7596154217422008,-0.07795298998607322,0.45334728659540413
1782836743441151700,5.69715185546875,0.5867863274872303,-0.672775781070441,0.8506865625038742
1782836743451081500,5.70708154296875,0.9391822998195886,-1.1918055001489818,0.9164849495168774
1782836743461010400,5.717010498046875,1.7576549842000007,-1.2962278515234589,0.9701873866751789
1782836743470939400,5.726939453125,2.5369647019714114,-0.9148980456516146,1.147539438247308
1782836743480869600,5.73686962890625,3.822396726453304,-0.43030466651897875,1.0265407036684453
1782836743490798600,5.746798583984375,5.134695715072751,-0.15091250080009921,0.810476936386153
1782836743500727300,5.756727294921875,6.069916125524044,-0.15182331376839428,0.6525300617035478
1782836743510656500,5.766656494140625,7.019002564242482,-0.21095658033639192,0.5890381250020116
1782836743520586500,5.77658642578125,7.741085250926018,-0.19942270307755097,0.5477005177676677
1782836743530515500,5.786515380859375,7.8977219197928905,-0.24783132641036063,0.42438977991938587
1782836743540444700,5.796444580078125,7.73943806824088,-0.3137762457545846,0.3381007588677108
1782836743550373600,5.80637353515625,7.598871659687161,-0.34213253513444214,0.22779884793534874
1782836743560303400,5.816303466796875,7.556502590513229,-0.2945185875769704,0.13007540967762468
1782836743570232300,5.826232421875,7.447187644791603,-0.08185710301883518,0.07303747142106294
1782836743580161500,5.83616162109375,7.284747258082032,0.18935279742404817,-0.10274755003005266
1782836743590090500,5.846090576171875,7.007026295244693,0.39950229916125535,-0.23285306258499622
1782836743600020500,5.8560205078125,7.067642968770861,0.5125076238334179,-0.4352370448872447
1782836743609950000,5.865949951171875,7.599722139036655,0.5653496447701006,-0.803311209475249
1782836743619878700,5.875878662109375,8.011025642889738,0.6133404262833297,-1.1853799971461296
1782836743629809000,5.885808837890625,7.82465259192884,0.5970938595551997,-1.1792150447756051
1782836743639737900,5.89573779296875,7.717929416266084,0.44735484124757346,-0.907466288215667
1782836743649666800,5.905666748046875,7.576583255511522,0.263136045711115,-0.7076816747568547
1782836743659595800,5.915595703125,7.208681671011448,0.15848273512497543,-0.6734525112882256
1782836743669525800,5.92552587890625,7.035647994095086,0.21197262551113963,-0.7542888198919594
1782836743679454700,5.935454833984375,6.861685511896014,0.38966435736641286,-0.8861977286070585
1782836743689383700,5.9453837890625,6.76808894430995,0.5785518753662705,-1.0942077340975402
1782836743699312600,5.955312744140625,6.722089409679174,0.7867932053945959,-1.4546800453796982
1782836743709243000,5.965242919921875,6.344293038630485,1.017680520864576,-1.7989020636066793
1782836743719171800,5.975171875,5.318813680583238,1.1579957311362028,-1.8511792172022163
1782836743729100800,5.985100830078125,3.8946348641902206,1.1145758377350865,-1.6706190903037785
1782836743739029800,5.99502978515625,2.178185166081786,0.9875757438495755,-1.220771628522873
1782836743748959700,6.004959716796875,-0.47864919337332246,0.6985428211420774,-0.7837054685123265
1782836743758888700,6.014888671875,-2.7009043873280287,0.2362532994825393,-0.51091830881536
1782836743768818000,6.02481787109375,-4.831714638772606,-0.032347587505728005,0.08413695758432149
1782836743778748000,6.034747802734375,-6.919485958957671,-0.35825375844985247,1.2785706142798066
1782836743788676900,6.0446767578125,-9.40386356460154,-1.0869597357306628,3.190508689957857
1782836743798605600,6.05460546875,-12.484794858509302,-2.096407777235657,4.5889726348578925
1782836743808534800,6.06453466796875,-14.723707757276296,-2.1953277318015694,4.26940867254734
1782836743818464800,6.07446484375,-16.18405971081257,-0.9745459472108632,2.867847346153855
1782836743828393700,6.084393798828125,-16.789259646868704,0.15577150340490042,1.494943958967924
1782836743838323000,6.094322998046875,-16.567804176610707,0.34291378517262633,0.9447799736961722
1782836743848252000,6.104251953125,-15.831138253301381,-0.00916588775217533,1.722978223094344
1782836743858181600,6.114181640625,-15.0463463047266,-0.5153795625405386,2.8571640395760536
1782836743868110800,6.12411083984375,-13.616435082161425,-0.8087865721464157,3.0726953804820774
1782836743878039800,6.134039794921875,-11.205347753655909,-0.2159257835837081,1.9420617035239933
1782836743887968800,6.14396875,-8.195103276389837,0.8060694221422076,0.7438475053764879
1782836743897898800,6.153898681640625,-5.567497349506616,1.2689824094623328,0.17382307372838257
1782836743907828000,6.163827880859375,-4.257896513929963,1.0894666039850562,0.628372721850872
1782836743917756700,6.173756591796875,-3.539984390929341,0.39154322991557416,1.224615882860869
1782836743927685600,6.183685546875,-2.495828973984718,-0.5333139727577567,1.010713750591874
1782836743937616000,6.193615966796875,-1.761315260273218,-1.0706631923809646,0.4815374621607363
1782836743947544800,6.203544921875,-0.9920207405596971,-1.2407336355775593,-0.1097984914548695
1782836743957473800,6.213473876953125,0.08971534223854541,-1.308185708081722,-0.42675066383183
1782836743967403800,6.22340380859375,1.2391817299604415,-1.3931684688404202,-0.43231721191778777
1782836743977332700,6.233332763671875,2.6512323016643524,-1.483840819542855,-0.5659376007258892
1782836743987261700,6.24326171875,4.241961278173327,-1.5376450365751981,-0.9323460240587591
1782836743997190700,6.253190673828125,5.2944338570863,-1.583177538216114,-1.1724283072449266
1782836744007121000,6.263120849609375,6.107754565531015,-1.6131123654916881,-1.2681018272355198
1782836744017049900,6.2730498046875,6.738954035240411,-1.5632681381314992,-1.0804308454185723
1782836744026978800,6.282978759765625,7.096843344292044,-1.4475876029007135,-0.5817397116221488
1782836744036908000,6.292907958984375,7.4338897718012324,-1.3011091938242316,-0.30913638405948873
1782836744046837800,6.302837646484375,7.476820566511154,-1.1261182453602552,-0.1498724354289472
1782836744056766700,6.3127666015625,7.1452055164009325,-0.9652779142584651,-0.05913593344911933
1782836744066695700,6.32269580078125,6.791499045991897,-0.8505519763387739,-0.19895590754970907
1782836744076625000,6.332625,6.726142484462261,-0.8342604744903743,-0.5896099335405975
1782836744086555000,6.342554931640625,7.021419562256336,-0.9301702874548733,-1.0858151688054203
1782836744096483600,6.352483642578125,7.15880734077394,-0.9907708866290748,-1.2864622443124651
1782836744106412800,6.362412841796875,7.292409755533933,-0.9947508961759507,-1.4790364880010485
1782836744116342800,6.3723427734375,7.751613659203052,-0.9028421355463564,-1.544190658826381
1782836744126271700,6.382271728515625,8.191483916848897,-0.7663172574684023,-1.242542292434722
1782836744136201000,6.392200927734375,8.399196108436584,-0.7273992055311799,-0.7312756085731089
1782836744146130000,6.4021298828125,8.329399518632888,-0.8005489051550626,-0.4269022011317313
1782836744156059600,6.4120595703125,8.400514205297828,-0.6903586379036307,-0.37902152892947194
1782836744165988600,6.421988525390625,8.570310799989104,-0.36992592993453144,-0.5034375976711511
1782836744175917800,6.431917724609375,8.359183831521868,-0.03849982652515173,-0.7106687277436256
1782836744185846800,6.4418466796875,7.689059295612573,0.17395941345915197,-0.9271658449418843
1782836744195776800,6.45177685546875,6.923523251649737,0.1506865282908082,-0.9619429976820946
1782836744205706000,6.4617060546875,6.442190518280864,-0.12926643138229846,-1.302183398927003
1782836744215635000,6.471635009765625,6.213339092552662,-0.305538359567523,-1.8085966514080762
1782836744225564700,6.481564697265625,5.388423807904124,-0.029602891907468436,-1.4225170206606388
1782836744235494000,6.491493896484375,3.476633908525109,0.3056783525601029,-0.5571143889315426
1782836744245422800,6.5014228515625,0.7599608741790056,0.2216572764404118,-0.09371157226786017
1782836744255351800,6.511351806640625,-2.946563739994168,0.051020504597947,0.1675118447549641
1782836744265281800,6.52128173828125,-6.401237161123753,-0.07185534896440804,-0.24981939495503902
1782836744275210800,6.531210693359375,-7.8434315266788,0.01678783399797976,-0.7904075964994728
1782836744285139700,6.5411396484375,-8.898910301670432,0.5423023485185579,0.3163639972254634
1782836744295068700,6.551068603515625,-10.646530798590183,0.6678887396812438,1.6424804987952113
1782836744304999000,6.5609990234375,-12.687619278055429,-0.3806429195862263,2.5779350102633236
1782836744314927900,6.570927978515625,-14.580495218127965,-1.341628397347778,3.524294654366374
1782836744324856800,6.58085693359375,-15.23766031922102,-0.9941288187548517,3.330675285539031
1782836744334785800,6.590785888671875,-15.515649577605723,0.20558358206115662,2.4377025098390877
1782836744344715800,6.6007158203125,-16.012313151097295,0.6416715446893125,1.9586546725369989
1782836744354644700,6.610644775390625,-16.000995638269185,-0.0015342238299548626,1.6802911740124225
1782836744364573700,6.62057373046875,-15.835808583199977,-0.6949186392955482,1.547514980943501
1782836744374504000,6.63050390625,-15.362498997288942,-0.8478437402933835,1.857268035596609
1782836744384433000,6.640432861328125,-13.81644912046194,-0.5711950828626752,1.8440999264657496
1782836744394361900,6.65036181640625,-10.908901632082461,0.08487477033957838,0.8786115843269974
1782836744404290600,6.66029052734375,-7.861327248853445,0.8108877822093665,0.19344949215315282
1782836744414220800,6.670220703125,-5.136403103512525,1.0453151814389974,0.27848931686133144
1782836744424149800,6.680149658203125,-3.037913405436277,0.7481663184236734,0.5418495997823775
1782836744434078700,6.69007861328125,-1.4250778110593556,0.4133521800111979,0.6765889096178114
1782836744444008000,6.700008056640625,-0.11597323456704615,0.1639027874123305,0.5672551130652428
1782836744453937700,6.709937744140625,0.8060562703996896,-0.043963864084705706,0.6465557365342974
1782836744463866600,6.71986669921875,1.5623030924916266,-0.2972496199760586,0.8449364014793187
1782836744473795800,6.7297958984375,2.4286294149369,-0.37193982704021034,0.9965651790563017
1782836744483725800,6.739725830078125,3.722937988835573,-0.1970111301574856,0.8540983437087386
1782836744493654800,6.74965478515625,4.6443525767743585,-0.02275865203589201,0.4552263783402741
1782836744503584000,6.759583984375,5.29747570900023,0.0488197066180408,0.22265096365287898
1782836744513513000,6.769512939453125,6.171289756852388,0.16707929855659603,0.1234210663549602
1782836744523442700,6.779442626953125,6.9791814259856935,0.24825923296622932,-0.07530446650497614
1782836744533371600,6.78937158203125,7.552371189796924,0.33900654860101637,-0.26455146546699104
1782836744543300900,6.79930078125,7.933371909844875,0.35501601863764226,-0.21544819266721604
1782836744553229800,6.809229736328125,8.031161252945662,0.3351189665779471,0.1865116557139903
1782836744563159800,6.819159912109375,7.8997186465680596,0.3191532626178115,0.27758601134605704
1782836744573088800,6.8290888671875,7.733426845127344,0.3786141171723604,-0.12200287012010812
1782836744583017700,6.839017822265625,7.667473486748337,0.5575741153977811,-0.3738119775876403
1782836744592946700,6.84894677734375,7.714284337761998,0.6987924119889736,-0.5004707106895745
1782836744602877000,6.858876953125,7.956212102684378,0.764560403863713,-0.5799482981607318
1782836744612809500,6.8688095703125,7.894239338374137,0.7578399365022778,-0.43593218754455443
1782836744622738700,6.87873876953125,7.833644876679777,0.6694009708750993,-0.2581622758865356
1782836744632668400,6.88866845703125,7.965788324803113,0.5529253397438675,-0.26087423825897277
1782836744642597400,6.898597412109375,7.822520840597153,0.5480784842345863,-0.18094496149756012
1782836744652526600,6.908526611328125,7.653360790243744,0.524331990205124,-0.37455768138840795
1782836744662455600,6.91845556640625,7.8630936740040775,0.5787702673573046,-0.62761649665609
1782836744672385500,6.928385498046875,8.086602569660544,0.7884029786787927,-0.6631010670132934
1782836744682314500,6.938314453125,8.250959603646397,1.0488448168698699,-0.6188290868274867
1782836744692243500,6.948243408203125,8.124183820036054,1.220868366895616,-0.5508392541848123
1782836744702172400,6.95817236328125,7.81974611518681,1.183432808601111,-0.6513717585138976
1782836744712102400,6.968102294921875,7.471166486272216,1.0989549286246298,-0.7906370213411748
1782836744722031600,6.978031494140625,6.583563567042351,1.1366907850399612,-0.6682128570690751
1782836744731960600,6.987960693359375,4.989924256044626,1.1750056103870272,-0.7572928240135312
1782836744741890300,6.997890380859375,3.3908746104359624,1.0989905844599008,-0.8023445564001798
1782836744751819500,7.007819580078125,1.0148404751330613,0.964169879951328,-0.7368629071861506
1782836744761748500,7.01774853515625,-2.2239023766398427,0.4125226703844964,-0.8422764615550636
1782836744771677400,7.027677490234375,-5.2927323138654225,-0.2677018192566931,-0.6931631739303469
1782836744781607400,7.037607421875,-7.287066640940308,-0.32985432404801246,-0.4724123448103666
1782836744791536600,7.04753662109375,-9.57257119501233,-0.0864512258760631,0.4900767424471676
1782836744801465600,7.057465576171875,-12.263659706246852,-0.5247410824626684,1.635840183997899
1782836744811394600,7.06739453125,-14.324944586044548,-1.1554070298172532,1.7802222053170202
1782836744821324500,7.077324462890625,-16.811263388884065,-0.9501382858589291,1.4156276995383201
1782836744831253500,7.08725341796875,-18.046831604522467,-0.531295618672669,1.103372014414519
1782836744841182500,7.097182373046875,-17.83100391101837,-0.8043785464458167,1.3218567982986569
1782836744851112700,7.10711279296875,-17.298135051679612,-1.64234284389019,2.0264948675759134
1782836744861041700,7.117041748046875,-16.657493215364216,-2.2050487692184744,2.286276707488298
1782836744870970400,7.126970458984375,-16.60655213267803,-2.2279560359448194,2.3137546431310474
1782836744880899300,7.1368994140625,-15.200534995919465,-1.9250811964981256,1.9194925827108322
1782836744890829600,7.14682958984375,-12.748934455239771,-1.1465843294795601,1.4922693329311907
1782836744900758500,7.156758544921875,-10.284323626339434,-0.3397533483803272,0.9342719506200402
1782836744910687500,7.1666875,-7.50825323112905,0.0018496464546769857,0.29007739025913176
1782836744920616400,7.176616455078125,-4.338393945968151,-0.031014366140589115,-0.165168642629683
1782836744930546400,7.18654638671875,-1.6384949362903833,-0.08865377742163837,-0.32010427973233163
1782836744940475400,7.196475341796875,0.2727846754789352,-0.16768895488753913,-0.2766358710143715
1782836744950404400,7.206404296875,1.6423422593683004,-0.4993929984554648,-0.16518120985031126
1782836744960334600,7.21633447265625,2.8478169500380752,-0.9670549338683485,-0.006608896745741367
1782836744970263600,7.226263671875,4.052162928938865,-1.381679252707213,0.26601488908305765
1782836744980192500,7.236192626953125,5.0521097863227125,-1.578890800807625,0.5649344880979508
1782836744990121700,7.246121826171875,5.903328556007146,-1.487619899690151,0.604748685157299
1782836745000051500,7.256051513671875,6.502751662227511,-1.2590104660242796,0.492439452990517
1782836745009980400,7.26598046875,6.917499169054627,-1.1523064334534108,0.34543460888713595
1782836745019909600,7.27590966796875,7.42029905334413,-1.1585124484866858,0.17864377188310027
1782836745029838600,7.285838623046875,7.80697022024393,-1.1371616174221038,0.05337357053011656
1782836745039768600,7.2957685546875,7.867503891661762,-1.0971088623665273,-0.031403365458175535
1782836745049697300,7.305697265625,7.80260617981553,-0.9988093047212808,-0.13408026140481233
1782836745059626500,7.31562646484375,7.925479695290327,-0.9375725265353918,-0.31348047767840326
1782836745069556500,7.325556396484375,8.13666570046842,-0.8992761866930872,-0.456388407856971
1782836745079485400,7.3354853515625,8.303986260434984,-0.8308886599697172,-0.5222132444854826
1782836745089414700,7.34541455078125,8.457284724789858,-0.7120776446934789,-0.4725251575350761
1782836745099343600,7.355343505859375,8.477620825853943,-0.5928107754085212,-0.3499016712985933
1782836745109273300,7.3652734375,8.556380474314093,-0.5450863166812807,-0.4882673549376428
1782836745119202600,7.37520263671875,8.940596649277209,-0.3915322701301425,-0.6253180104553699
1782836745129131500,7.385131591796875,8.935926319378614,-0.1725358834620565,-0.47576516236960886
1782836745139060500,7.395060546875,8.792990259084105,-0.12130955409370361,-0.49381344475746153
1782836745148990500,7.404990478515625,8.874267443323134,-0.22330701640881598,-0.9377793011538684
1782836745158919700,7.414919677734375,8.763374288499355,-0.18848259046077728,-1.3231269643649457
1782836745168848600,7.4248486328125,8.511194009631872,0.013266674134507774,-1.4637638078063726
1782836745178778400,7.4347783203125,8.221931662082671,0.21395546989142894,-1.4086859175764024
1782836745188707600,7.44470751953125,7.758162057933211,0.37269722127877175,-1.2485446015894412
1782836745198636500,7.454636474609375,7.343700966832041,0.4711635137930512,-0.9857213481545448
1782836745208565500,7.4645654296875,7.067807803943753,0.5731579804334789,-0.7874484544329344
1782836745218495500,7.47449560546875,6.542416733139753,0.8534013744205236,-0.7150614097446203
1782836745228424400,7.484424560546875,4.958149061599373,1.1229836005963385,-0.6559374589942395
1782836745238353400,7.494353515625,1.9695149431169032,1.0209919835001229,-0.4824205286055803
1782836745248283400,7.504283447265625,-1.83798232036829,0.3494333231344819,-0.24463176318407057
1782836745258212600,7.514212646484375,-4.71342962013185,-0.5053123055018485,0.08651347745731472
1782836745268141600,7.5241416015625,-7.167185877540708,-0.7663539362169802,0.24816768222525715
1782836745278070500,7.534070556640625,-9.157162593927978,-0.1925204676747322,0.6531074962653219
1782836745288000500,7.54400048828125,-10.835146660041808,0.5203995461270213,1.0930040573962032
1782836745297929500,7.553929443359375,-13.22901046654582,0.355519511180371,1.6690737605579196
1782836745307858400,7.5638583984375,-15.504481702381371,-0.5431364247225224,1.9838493195481597
1782836745317787400,7.573787353515625,-17.27277147784233,-1.0983344586387276,2.013387402591109
1782836745327717600,7.583717529296875,-18.1170057954669,-1.1220317066989838,2.0606293384984133
1782836745337646600,7.593646484375,-18.724703978079557,-0.8674453896030783,1.9247107557505367
1782836745347575600,7.603575439453125,-19.22566144937277,-0.7758926028043032,1.7373716362364588
1782836745357505500,7.613505615234375,-18.495770134764907,-0.9747491416327655,1.6353123607315123
1782836745367434500,7.6234345703125,-16.907091076523063,-0.9953656670734286,1.8110706403061747
1782836745377363500,7.633363525390625,-15.024758742296696,-0.7603050845067948,1.801573328642547
1782836745387292400,7.64329248046875,-11.83612870569229,-0.36256701853908596,1.1039559517823159
1782836745397222400,7.653222412109375,-8.221074168470501,0.025604981377720833,0.35553770442418753
1782836745407151400,7.6631513671875,-5.047217922627926,0.30244141646549105,0.10715447975210844
1782836745417080300,7.673080322265625,-2.2648639171034097,0.3298608999192714,-0.0531510868858546
1782836745427010600,7.683010498046875,-0.0813373899936676,0.23743878294005988,-0.14771942211352287
1782836745436939500,7.692939453125,0.8617302268266678,0.12772906574718654,0.2191345530297607
1782836745446868500,7.702868408203125,1.4864292286008596,-0.20536847800575195,0.5298321950566023
1782836745456797700,7.712797607421875,2.351803949409723,-0.5167641122341156,0.46485637647286054
1782836745466727400,7.7227275390625,3.3279005601286884,-0.5142542483050376,0.043004517533257604
1782836745476656400,7.732656494140625,4.431228881531953,-0.22709552197158336,-0.21340674996748565
1782836745486585600,7.742585693359375,5.718970936521887,0.013815174862742424,-0.42164128492884334
1782836745496514600,7.7525146484375,6.74697659817636,0.030572832918167113,-0.3441618124723434
1782836745506444500,7.762444580078125,7.198463059335946,-0.2934291849050671,0.023409444094821808
1782836745516373500,7.77237353515625,7.315846745222807,-0.8632862240970134,0.227452372585237
1782836745526302500,7.782302490234375,7.6145274939805265,-1.2641684333093464,0.17067651933096348
1782836745536232400,7.792232421875,8.135273953849076,-1.242412674705684,-0.03515307338051498
1782836745546161400,7.802161376953125,8.345388530403374,-0.9949876275412738,-0.17702910322807727
1782836745556090600,7.812090576171875,8.329231176328658,-0.7431964210566133,0.014684578108415006
1782836745566019600,7.82201953125,8.423829614433645,-0.6890498933926225,0.0388236516520381
1782836745575949300,7.83194921875,8.55776637571454,-0.6736345167916268,-0.195792036691308
1782836745585878500,7.84187841796875,8.347245556446909,-0.5406132629204541,-0.19879436031244693
1782836745595807500,7.851807373046875,7.910137164729833,-0.4513678032159805,-0.33171997178941964
1782836745605737500,7.861737548828125,7.787134469917416,-0.5210683122340589,-0.6625405835863203
1782836745615662600,7.87166259765625,8.112099414488673,-0.4521086847111582,-0.8269785738538951
1782836745625591600,7.881591552734375,8.129695276933909,-0.24201544320583343,-0.4683490408942103
1782836745635520500,7.8915205078125,7.887382312086224,-0.23237959985435008,-0.2285829109851271
1782836745645450500,7.901450439453125,7.598148606109619,-0.3783463330816477,-0.19104849542602895
1782836745655379500,7.91137939453125,7.715144169461727,-0.46651627250909805,-0.6482078876554965
1782836745665308400,7.921308349609375,7.994626881274581,-0.37439920289106665,-1.1467808018997312
1782836745675237400,7.9312373046875,7.469962371179461,-0.14204524893462658,-0.9258199832908809
1782836745685167600,7.941167724609375,6.619125294288993,-0.13447517900653183,-0.6599000059496611
1782836745695096600,7.9510966796875,5.977968494188786,-0.2657252584867179,-0.5203256771732121
1782836745705025500,7.961025634765625,5.48970157764256,-0.22309023185297847,-0.5960771567933261
1782836745714955500,7.97095556640625,4.132389727342129,0.10623159275352954,-0.6870720174483954
1782836745724884500,7.980884521484375,1.6826596567094325,0.2036958686184138,-1.1728485784836113
1782836745734813400,7.9908134765625,-0.696769966250658,-0.24484635578282177,-1.7325876168303191
1782836745744742400,8.000742431640624,-2.349084753578901,-0.7093060610882937,-1.6365607533574102
1782836745754672600,8.010672607421874,-3.336361514481902,-0.740093486605212,-1.0546939082242548
1782836745764601300,8.020601318359375,-4.480515182748436,-0.3270467923466116,-0.19902751148119568
1782836745774530300,8.0305302734375,-5.544827837058901,0.36198366569317875,0.33698651401549573
1782836745784460500,8.04046044921875,-7.113685758021473,0.9321286549810319,0.5919244210280478
1782836745794389500,8.050389404296874,-9.653804540109634,0.8273245377473533,1.0716666703350841
1782836745804318500,8.060318359375,-12.323769599294662,0.09200206493623554,1.5548792261011897
1782836745814247700,8.07024755859375,-14.438501991641521,-0.4589138346813619,1.769728283831477
1782836745824177400,8.080177490234375,-15.889716698998212,-0.4298830435734242,1.803663140528649
1782836745834106400,8.0901064453125,-16.651173364692927,-0.13692644461616874,2.047557821609825
1782836745844035300,8.100035400390626,-16.77656149333715,0.029097645799070596,2.3612106601804492
1782836745853965600,8.109965576171875,-16.411408330762384,0.0714669341687113,2.4262223537951706
1782836745863894500,8.11989453125,-15.938165380346774,0.052557870233058926,2.6864208116844295
1782836745873823500,8.129823486328124,-15.46972018560171,-0.21574907530993223,3.163991269910335
1782836745883752700,8.139752685546876,-14.085560660386085,-0.4679757506024092,3.4725621290415525
1782836745893682400,8.149682373046875,-12.01300853664279,-0.19769721272550522,2.9093782109379767
1782836745903611400,8.159611328125,-9.231512609252333,0.5183952205672859,2.0896863600261506
1782836745913540600,8.16954052734375,-6.259339796227216,1.012833665355295,1.4875588171526788
1782836745923469600,8.179469482421876,-3.1329139946013687,1.0201046062063426,1.0734743042789399
1782836745933399600,8.189399658203126,-0.13489245457053184,0.8127122211575508,0.7995092599090188
1782836745943328500,8.19932861328125,2.065761148428917,0.6524751166459173,0.8231940868791192
1782836745953257500,8.209257568359375,3.365382441782951,0.2653054987046867,0.7708679065100849
1782836745963187500,8.2191875,4.062200338828563,-0.380225205630809,0.5408998978421091
1782836745973116400,8.229116455078126,4.824232174062729,-0.9251880420628934,0.32273543195351956
1782836745983045600,8.239045654296875,5.759964625689387,-1.0322425685718655,0.3395123792313039
1782836745992974600,8.248974609375,6.34269904743731,-0.7562192034326494,0.5858860907118767
1782836746002904300,8.258904296875,6.741052468824386,-0.38711796081922945,0.8968849807076156
1782836746012833500,8.26883349609375,7.24910954298973,-0.2033914788443595,0.9016046296406537
1782836746022762500,8.278762451171875,7.641738156989216,-0.11920439850799738,0.6296006562106311
1782836746032692500,8.2886923828125,7.870704149007797,-0.002752148252353072,0.23762371105290947
1782836746042621700,8.29862158203125,7.934155753698945,0.10869856738895177,-0.1438053904749453
1782836746052550700,8.308550537109374,7.991284585109352,0.11548559718057512,-0.41634719710871576
1782836746062479600,8.318479736328126,8.071151902550458,0.08091763021163642,-0.43328642227612435
1782836746072409300,8.328409423828125,8.111670375421642,0.06316833077035844,-0.3166808811549097
1782836746082338600,8.338338623046875,8.341174712100624,0.10767287760302424,-0.41390009621754287
1782836746092267500,8.348267578125,8.392319792926312,0.2256909889359027,-0.482861258110404
1782836746102197500,8.358197509765626,8.23381733018756,0.2764637293178588,-0.509457150221616
1782836746112126500,8.36812646484375,8.192930024003982,0.30578948478437956,-0.617365590146184
1782836746122055400,8.378055419921875,8.309275014492869,0.38640016793869436,-0.7702262476056814
1782836746131984400,8.387984375,8.310920443612337,0.4332741473164409,-0.8831386332973837
1782836746141914600,8.39791455078125,8.23006703774333,0.41688985261805356,-0.960083779681474
1782836746151843600,8.407843505859375,8.393964637523888,0.33625315823964774,-1.0495337489821017
1782836746161772500,8.4177724609375,8.417273616918921,0.24762911836914717,-1.052338723400235
1782836746171701500,8.427701416015625,8.34858995679319,0.14238492921777068,-1.0331114603608846
1782836746181631500,8.437631591796874,8.378402326732873,0.1100941864658147,-1.0057914917588233
1782836746191560400,8.447560546875,8.410850305873154,0.251356103003025,-0.9130002492062746
1782836746201489400,8.457489501953125,8.205695397552848,0.5937155422285199,-0.8640094238050281
1782836746211419600,8.467419677734375,7.735171058446168,1.0956427353367209,-0.8253321948863566
1782836746221348600,8.4773486328125,7.006133730319142,1.5117641608655452,-0.7317084470324218
1782836746231277600,8.487277587890626,5.561845022833347,1.6583792019337416,-0.9539823940664529
1782836746241206500,8.49720654296875,3.306844328096509,1.418372468201816,-1.4830800643034279
1782836746251136500,8.507136474609375,0.9958727398127317,1.0638564349755644,-1.7262087294481694
1782836746261065500,8.5170654296875,-1.341849492752552,0.7044502916201949,-1.589641473533213
1782836746270994400,8.526994384765626,-4.55714132631123,0.3573503798693418,-0.8205347314767539
1782836746280924700,8.536924560546876,-6.678372433027625,0.1461431857727468,-0.0017050503522157668
1782836746290853400,8.546853271484375,-8.09753838969469,0.09007190059125422,1.0617258526876567
1782836746300782300,8.5567822265625,-10.874052437019348,-0.383661463689804,2.5284926417022944
1782836746310711300,8.566711181640626,-13.96824244095087,-1.0408313870884478,3.0341444082915783
1782836746320641500,8.5766416015625,-17.205864764261246,-0.7866263974603265,2.4486000436894595
1782836746330570500,8.586570556640625,-19.15991208913326,-0.07202639468237758,1.4241983978763222
1782836746340499500,8.59649951171875,-19.532168361711502,0.15150179019644855,0.928890330646932
1782836746350429400,8.606429443359374,-19.590234766232967,0.09139350458383559,1.417155639757961
1782836746360358400,8.6163583984375,-19.591694901913403,-0.10790580957606434,2.245212437302619
1782836746370287400,8.626287353515625,-19.142386953836677,-0.3344674438666552,2.548836926072836
1782836746380216600,8.636216552734375,-17.35777498912811,-0.15202259920015931,2.0278934823274612
1782836746390146600,8.646146484375,-14.55193314051032,0.5467225395809858,1.135042067984864
1782836746400075500,8.656075439453126,-11.03156705776453,1.0545443436857311,0.4121747337296605
1782836746410004700,8.666004638671875,-7.264969375422597,1.067188575072959,0.1050303272049874
1782836746419934500,8.6759345703125,-3.928028599748015,0.9482079023182391,0.30504706891924144
1782836746429863400,8.685863525390625,-1.8188889128416776,0.8244225326955318,0.7301092682074755
1782836746439792400,8.69579248046875,-0.7495061156600713,0.38312699148692186,0.7571603567402809
1782836746449721600,8.7057216796875,0.02702420052587986,-0.27611970165316013,0.21620368720963595
1782836746459651600,8.715651611328125,0.36285540702641006,-0.8879357313808053,-0.20696312678605316
1782836746469580300,8.725580322265625,0.972757237163186,-1.5423624204859137,-0.07905790075436234
1782836746479509500,8.735509521484374,1.7394114715009927,-2.049423177090287,0.7637607779186218
1782836746489439500,8.745439453125,2.77458804769814,-2.264295031174272,1.4645114113032818
1782836746499368400,8.755368408203125,3.9071208362758156,-2.162146908342093,1.5484733045816421
1782836746509297700,8.765297607421875,5.0405152101188895,-2.0059508228495715,0.8897019373357296
1782836746519226600,8.7752265625,6.0601440885722635,-1.8895507411725818,0.18004158291704953
1782836746529156400,8.78515625,6.842645295861363,-1.744159250549972,-0.15986319316532463
1782836746539085300,8.795085205078125,7.3544380494236945,-1.6979530874311923,-0.24895547160208223
1782836746549014500,8.8050146484375,8.167669326019286,-1.7417486822769044,-0.2890517370058223
1782836746558944500,8.814944580078125,8.826745229169726,-1.829429011556506,-0.1008886242903769
1782836746568873500,8.82487353515625,8.829214249631763,-1.8786926625497637,0.22617110060304402
1782836746578802700,8.834802734375,8.461758655333519,-1.912615828809142,0.3715454208951443
1782836746588731600,8.844731689453125,7.7902640001147985,-1.9580805259108542,0.49025860182009634
1782836746598661400,8.854661376953125,7.234894555154442,-2.0176555814296004,0.3417326490966603
1782836746608590600,8.864590576171874,7.387178874030709,-1.9736884294092654,-0.009462897937372327
1782836746618519300,8.874519287109376,7.567406261843442,-1.7063680106855927,-0.2918476513346657
1782836746628449500,8.884449462890625,7.490044205221533,-1.352920337343216,-0.43154345106631514
1782836746638378500,8.89437841796875,7.426057763001323,-1.101004919956997,-0.599552175960131
1782836746648307200,8.90430712890625,7.529004927256703,-0.9997622215319424,-0.6918877471670508
1782836746658236400,8.914236328125,7.9075319506675,-1.0051562625952064,-0.5846613712225109
1782836746668166400,8.92416650390625,8.249974099740385,-1.0517847427792846,-0.2324460161540657
1782836746678095400,8.934095458984375,8.44987590983808,-1.0601017586171626,0.07385751909967511
1782836746688024600,8.944024658203125,8.490901747709513,-0.9056558777928352,0.08067399418149143
1782836746697953500,8.95395361328125,7.735393761286139,-0.5979592076802626,0.08912581538017839
1782836746707883300,8.96388330078125,6.820624018189311,-0.4448580194631591,-0.26357392567172644
1782836746717812200,8.973812255859375,6.511784278988838,-0.44313473933450875,-0.5080123582407832
1782836746727741400,8.983741455078125,6.017511984547973,-0.2946999354932457,-0.37086649872027333
1782836746737671400,8.99367138671875,5.19818063751161,-0.17273644753545522,-0.0905044467896223
1782836746747600400,9.003600341796876,3.6818390857279297,-0.2879450544055551,0.10066124527528882
1782836746757529600,9.013529541015625,1.5328928736120462,-0.5654517899703234,-0.1740736874885857
1782836746767458600,9.02345849609375,-0.38934418550133704,-0.8632288678865879,-1.0296102473068982
1782836746777388300,9.03338818359375,-1.9395622879236936,-0.9689976654339582,-1.553277782253921
1782836746787317500,9.0433173828125,-2.447891164767742,-0.5415324966572225,-1.2189599029257894
1782836746797246500,9.05324658203125,-2.514108142518997,0.01733838055282831,-0.43217115451060234
1782836746807176400,9.063176513671875,-3.3685365218997,0.3509443852845579,0.7203904958128928
1782836746817105400,9.07310546875,-5.583601512089372,0.16846264267377553,1.4490964000284672
1782836746827034400,9.083034423828124,-8.596776782110332,-0.5989497165549547,1.0972503166638314
1782836746836963300,9.09296337890625,-11.92283200663328,-1.3291685826167463,1.0555105583693831
1782836746846893300,9.102893310546875,-15.125368988037108,-1.5813392168730496,1.2803671423077583
1782836746856822500,9.112822509765625,-17.49004527850151,-1.4972066432029008,1.3450754690617321
1782836746866751500,9.12275146484375,-19.017732984685896,-1.0720621724586934,0.9676234544713049
1782836746876681200,9.13268115234375,-19.868123486852646,-0.4824028468184173,0.5148314636711031
1782836746886610400,9.1426103515625,-20.913774695312977,0.16427826966121792,0.49998175812885165
1782836746896539400,9.152539306640625,-21.179428203737736,0.4264650518234819,0.4839174160998314
1782836746906469400,9.162469482421875,-20.17496474571228,0.43426520418040454,0.647119800157845
1782836746916398600,9.172398681640624,-18.28278438668847,0.6333410117827355,0.8494988870892674
1782836746926327600,9.18232763671875,-15.660662444174289,0.7668582324773072,0.6283746946122497
1782836746936256500,9.192256591796875,-12.332348042547702,0.669591817272082,0.1739259495809674
1782836746946186200,9.202186279296875,-8.744787076929212,0.5138546545282006,0.00036408407203853126
1782836746956115500,9.212115478515624,-4.9520413923740385,0.13974573982059954,0.01834229689836502
1782836746966044400,9.22204443359375,-1.5968600266098976,-0.2796850294519216,0.2577650932624936
1782836746975974400,9.231974365234375,0.4742348840624094,-0.5677941883780062,0.6287990575041622
1782836746985903600,9.241903564453125,1.3002660209983588,-0.7690441251490264,0.8014158241827041
1782836746995832300,9.251832275390624,1.710827766573429,-1.1196543100431562,0.6075100396294146
1782836747005761300,9.26176123046875,2.3077684083282946,-1.5334852865472435,0.15725363172143697
1782836747015691500,9.27169140625,3.335249753847718,-1.6339939716093241,-0.1127222699470818
1782836747025620500,9.281620361328125,4.302197427949309,-1.3810811406835912,-0.16692841884382068
1782836747035549400,9.291549560546875,5.021171627223492,-1.0711298600446433,-0.037787659667804833
1782836747045479400,9.3014794921875,6.27762890163362,-0.9102345108199864,-0.2810235845793038
1782836747055408400,9.311408447265626,7.507049700558185,-0.6122156965697184,-0.12446969862505793
1782836747065337300,9.32133740234375,8.044401258268952,-0.312548457525298,0.18375300465561448
1782836747075266300,9.331266357421875,8.756521353864668,-0.6233266174424439,-0.27952757386788724
1782836747085196500,9.341196533203124,9.379434641265869,-1.0616044182650743,-0.2506920861363411
1782836747095125500,9.35112548828125,9.820848036700486,-1.2938381799079477,-0.17910773613303899
1782836747105054500,9.361054443359375,9.688570148542523,-1.2381548711307346,0.05261603016108274
1782836747114984400,9.370984375,8.816940458992123,-0.910248247084394,0.21856325594782827
1782836747124913400,9.380913330078124,7.615675494971871,-0.6916075419861822,-0.16903262458145618
1782836747134842400,9.39084228515625,6.569169715508818,-0.7606808590166271,-0.8520924837790429
1782836747144771300,9.400771240234375,5.89979745927155,-0.8677320975899696,-1.4776076242417095
1782836747154701600,9.41070166015625,6.24379735918045,-0.9654718293953687,-1.833736207231134
1782836747164630500,9.420630615234375,6.772145526224374,-0.9466988129295408,-1.727777878461033
1782836747174559200,9.430559326171876,7.096839837160706,-0.8736228361289947,-1.3170910452015696
1782836747184489500,9.440489501953126,7.382861595353484,-0.856279414074868,-1.0131124822966753
1782836747194418400,9.45041845703125,7.57255823777914,-1.0354816966235636,-0.9995182567082345
1782836747204347400,9.460347412109375,7.794224135917425,-1.2830347540818154,-1.122959927459806
1782836747214276400,9.4702763671875,8.137382908827066,-1.3341145145863293,-0.9707374217733741
1782836747224206300,9.480206298828126,8.351255961132049,-1.285188571114838,-1.0497481223851441
1782836747234135300,9.49013525390625,8.258838374197483,-1.1832614706221967,-1.3383484988942742
1782836747244064300,9.500064208984375,7.683830747309327,-0.905156769164279,-1.560349181944877
1782836747253994500,9.509994384765625,6.546230738469958,-0.521625617323257,-1.5176425513796508
1782836747263923500,9.51992333984375,5.540061061048507,-0.31938962865695353,-1.7034112067066132
1782836747273852400,9.529852294921875,5.630948954197764,-0.40990733678694813,-2.55072230142802
1782836747283781600,9.53978173828125,8.317111699467898,-0.49086745443344115,-3.0500118395090103
1782836747293711400,9.54971142578125,7.433156781351566,-0.4015765481520444,-1.562229734994471
1782836747303640300,9.559640380859374,1.9310025493711231,-0.5791784097667784,-0.3312538155823946
1782836747313569300,9.5695693359375,-0.07513210561275482,-1.3693622074477374,-0.28537206211239097
1782836747323499500,9.57949951171875,0.21087913118600843,-1.8411983598053454,-0.44905280427187677
1782836747333428500,9.589428466796875,-1.3174141396760939,-1.3264923491448164,0.12693740391284228
1782836747343357400,9.599357421875,-1.3643594307243823,-0.40700018063597376,0.20462562374919652
1782836747353286400,9.609286376953126,-1.6963912449419498,1.0469881561525165,-0.027492402559518812
