time,seconds_elapsed,z,y,x
1782836737761633300,0.01763330078125,-0.14361120760440826,-0.017809860408306122,0.12705159187316895
1782836737771562200,0.027562255859375,-0.1623644083738327,-0.03853284567594528,0.16516725718975067
1782836737781492200,0.0374921875,-0.15511129796504974,-0.05977155268192291,0.16693559288978577
1782836737791421200,0.047421142578125,-0.12379518896341324,-0.04646240547299385,0.14654695987701416
1782836737801350400,0.057350341796875,-0.07836192846298218,-0.017832625657320023,0.12682944536209106
1782836737811279400,0.067279296875,-0.022846950218081474,0.027730653062462807,0.11522379517555237
1782836737821208300,0.077208251953125,0.026302218437194824,0.05449675768613815,0.10412321239709854
1782836737831138300,0.08713818359375,0.058923158794641495,0.08703263103961945,0.09494512528181076
1782836737841067300,0.0970673828125,0.07295136153697968,0.09733958542346954,0.07025416195392609
1782836737850996200,0.106996337890625,0.08085189014673233,0.09085212647914886,0.019074328243732452
1782836737860925200,0.11692529296875,0.08694200962781906,0.0774226039648056,-0.02401188760995865
1782836737870854400,0.1268544921875,0.06925760209560394,0.057954952120780945,-0.06608809530735016
1782836737880784400,0.136784423828125,0.03330972418189049,0.03405814617872238,-0.1102270632982254
1782836737890713000,0.146713134765625,0.00009209010750055313,0.04463043436408043,-0.11942972987890244
1782836737900642300,0.156642333984375,-0.01584240235388279,0.07253556698560715,-0.09677421301603317
1782836737910571300,0.1665712890625,-0.009545502252876759,0.07745533436536789,-0.05689512938261032
1782836737920501200,0.176501220703125,0.026753917336463928,0.06659069657325745,-0.020071066915988922
1782836737930430500,0.186430419921875,0.08128567039966583,0.047802142798900604,-0.0019559026695787907
1782836737940359400,0.196359375,0.1235463097691536,0.054127417504787445,-0.009044971317052841
1782836737950288400,0.206288330078125,0.14802932739257812,0.0651530921459198,-0.04558730870485306
1782836737960217300,0.21621728515625,0.15249331295490265,0.07426882535219193,-0.04486745595932007
1782836737970147300,0.226147216796875,0.14246320724487305,0.09518458694219589,-0.018348976969718933
1782836737980076300,0.236076171875,0.11876639723777771,0.11101069301366806,0.01904047280550003
1782836737990005200,0.246005126953125,0.09695413708686829,0.13183453679084778,0.04484482854604721
1782836737999934200,0.255934326171875,0.08852576464414597,0.1536032110452652,0.04040001332759857
1782836738009863400,0.265863525390625,0.07080531120300293,0.1510021686553955,0.01973791792988777
1782836738019793200,0.275793212890625,0.04232306778430939,0.1625317931175232,0.0013320129364728928
1782836738029722000,0.28572216796875,0.01490972563624382,0.2028689980506897,-0.003245172556489706
1782836738039651300,0.2956513671875,0.003491422161459923,0.21715259552001953,-0.007050030864775181
1782836738049580300,0.305580322265625,0.024024732410907745,0.19767121970653534,-0.009954312816262245
1782836738059509200,0.31550927734375,0.07199119031429291,0.18404647707939148,0.011070811189711094
1782836738069439500,0.325439453125,0.11450552940368652,0.20215719938278198,0.03189299255609512
1782836738079368400,0.335368408203125,0.14104525744915009,0.15775617957115173,0.027615956962108612
1782836738089297400,0.34529736328125,0.1501072496175766,0.10413774847984314,0.008291930891573429
1782836738099226000,0.35522607421875,0.1439225971698761,0.09498445689678192,-0.015045348554849625
1782836738109155000,0.365155029296875,0.11298467218875885,0.10108429193496704,-0.042555246502161026
1782836738119085300,0.375085205078125,0.06726884841918945,0.1272866129875183,-0.06317903101444244
1782836738129014300,0.38501416015625,0.025327380746603012,0.16917762160301208,-0.07319293171167374
1782836738138943200,0.394943115234375,0.013807345181703568,0.18698431551456451,-0.0792526826262474
1782836738148872400,0.40487255859375,0.031180670484900475,0.19921064376831055,-0.06831000745296478
1782836738158802200,0.41480224609375,0.060069844126701355,0.22745533287525177,-0.06713209301233292
1782836738168731100,0.424731201171875,0.09194901585578918,0.21106675267219543,-0.08432867377996445
1782836738178660400,0.434660400390625,0.12130291014909744,0.1554248034954071,-0.12074366956949234
1782836738188589300,0.44458935546875,0.14350496232509613,0.10019920766353607,-0.15086501836776733
1782836738198518300,0.454518310546875,0.15746046602725983,0.07748296856880188,-0.15770667791366577
1782836738208448500,0.464448486328125,0.1643863022327423,0.08926919102668762,-0.1388823539018631
1782836738218377500,0.47437744140625,0.16179850697517395,0.11333830654621124,-0.10232541710138321
1782836738228306200,0.48430615234375,0.1542593389749527,0.11579913645982742,-0.06965573132038116
1782836738238235100,0.494235107421875,0.14218856394290924,0.09743424504995346,-0.030624978244304657
1782836738248164000,0.5041640625,0.1288837045431137,0.09988541156053543,0.022603558376431465
1782836738258094300,0.51409423828125,0.13056761026382446,0.10486099869012833,0.0576678030192852
1782836738268023300,0.524023193359375,0.13651293516159058,0.10257772356271744,0.09104500710964203
1782836738277952300,0.5339521484375,0.14294153451919556,0.07891154289245605,0.12595771253108978
1782836738287881500,0.543881591796875,0.14750444889068604,0.06628859043121338,0.16525474190711975
1782836738297810400,0.553810546875,0.13952748477458954,0.054045770317316055,0.17742910981178284
1782836738307740200,0.563740234375,0.12279965728521347,0.054195839911699295,0.13496503233909607
1782836738317669400,0.57366943359375,0.1341138333082199,0.06267347931861877,0.05391518026590347
1782836738327598300,0.583598388671875,0.16840526461601257,0.06095791980624199,-0.04440272971987724
1782836738337527300,0.59352734375,0.19437561929225922,0.007300021126866341,-0.15341788530349731
1782836738347457500,0.60345751953125,0.19560079276561737,-0.08817572891712189,-0.256491094827652
1782836738357386200,0.61338623046875,0.17878186702728271,-0.18170088529586792,-0.3231737017631531
1782836738367315200,0.623315185546875,0.14478012919425964,-0.25824183225631714,-0.33832016587257385
1782836738377244200,0.633244140625,0.10186941176652908,-0.2615334987640381,-0.26538950204849243
1782836738387173000,0.643173095703125,0.06768960505723953,-0.22731508314609528,-0.12718050181865692
1782836738397103400,0.653103271484375,0.04818880558013916,-0.19491736590862274,0.028481636196374893
1782836738407032300,0.6630322265625,0.05534285306930542,-0.15101350843906403,0.17229509353637695
1782836738416961300,0.672961181640625,0.07507660984992981,-0.1306893229484558,0.27844202518463135
1782836738426890500,0.682890380859375,0.09802165627479553,-0.1296328604221344,0.3523242771625519
1782836738436819200,0.692819091796875,0.12387987971305847,-0.14818310737609863,0.4119449853897095
1782836738446749200,0.702749267578125,0.15080182254314423,-0.19295212626457214,0.4425959885120392
1782836738456678400,0.712678466796875,0.1552266627550125,-0.27634289860725403,0.43157824873924255
1782836738466607400,0.722607421875,0.1543174684047699,-0.3404768705368042,0.38161760568618774
1782836738476536300,0.732536376953125,0.1536327600479126,-0.2983938753604889,0.30417874455451965
1782836738486466300,0.74246630859375,0.13856662809848785,-0.18739567697048187,0.21433477103710175
1782836738496395300,0.752395263671875,0.1003316342830658,-0.09821627289056778,0.13785864412784576
1782836738506324200,0.76232421875,0.03905629366636276,-0.05549517273902893,0.0737941712141037
1782836738516253200,0.772253173828125,-0.032415226101875305,-0.07006613165140152,0.01094996277242899
1782836738526182100,0.78218212890625,-0.0889565646648407,-0.08777447789907455,-0.037221673876047134
1782836738536112400,0.7921123046875,-0.13233892619609833,-0.0750349834561348,-0.06468392163515091
1782836738546041300,0.802041259765625,-0.15304036438465118,0.019558414816856384,-0.06575220078229904
1782836738555970300,0.81197021484375,-0.190615713596344,0.1417546272277832,-0.07530096173286438
1782836738565899300,0.821899169921875,-0.23243595659732819,0.27592962980270386,-0.11779411137104034
1782836738575828200,0.831828125,-0.2563977539539337,0.4376213252544403,-0.1661965250968933
1782836738585758200,0.84175830078125,-0.2570207715034485,0.6794152855873108,-0.23632067441940308
1782836738595687400,0.8516875,-0.25609850883483887,0.8971548080444336,-0.3246598541736603
1782836738605621200,0.861621337890625,-0.24780620634555817,0.9394992589950562,-0.43699100613594055
1782836738615550500,0.871550537109375,-0.24461917579174042,0.8159831762313843,-0.5589344501495361
1782836738625480400,0.88148046875,-0.269651859998703,0.6000998616218567,-0.7101325988769531
1782836738635409400,0.891409423828125,-0.3098277747631073,0.3231468200683594,-0.8823459148406982
1782836738645338600,0.901338623046875,-0.317128986120224,0.25220125913619995,-1.0619810819625854
1782836738655267600,0.911267578125,-0.2707364559173584,0.35338062047958374,-1.26127290725708
1782836738665196500,0.921196533203125,-0.053308356553316116,0.5852590799331665,-1.3321632146835327
1782836738675126300,0.931126220703125,0.3086858093738556,0.7989798784255981,-1.2231661081314087
1782836738685055500,0.941055419921875,0.7132914066314697,0.8208314776420593,-0.9833816289901733
1782836738694984400,0.950984375,1.0642142295837402,0.6532903909683228,-0.6048609614372253
1782836738704913400,0.960913330078125,1.2589792013168335,0.42274218797683716,-0.15609370172023773
1782836738714842400,0.97084228515625,1.2892718315124512,0.24057479202747345,0.30026423931121826
1782836738724772400,0.9807724609375,1.2010650634765625,0.11892612278461456,0.6521973013877869
1782836738734701300,0.990701416015625,1.0552412271499634,0.03748399391770363,0.7910113334655762
1782836738744630300,1.00063037109375,0.8978895545005798,-0.04940619692206383,0.7299264073371887
1782836738754559500,1.0105595703125,0.7702000141143799,-0.12695638835430145,0.5454615354537964
1782836738764489500,1.020489501953125,0.6844243407249451,-0.10784736275672913,0.334058940410614
1782836738774418400,1.03041845703125,0.6417831182479858,-0.006682668346911669,0.1627732366323471
1782836738784347600,1.04034765625,0.6013413071632385,0.06458001583814621,0.06287430971860886
1782836738794276400,1.0502763671875,0.49641939997673035,0.025299718603491783,0.01384710893034935
1782836738804205300,1.060205322265625,0.3256772458553314,-0.24771323800086975,0.0020673731341958046
1782836738814135300,1.07013525390625,0.1764100193977356,-0.5852654576301575,0.040910907089710236
1782836738824064500,1.080064453125,0.07428477704524994,-0.8078730702400208,0.10874568670988083
1782836738833993500,1.089993408203125,-0.008025539107620716,-0.939049482345581,0.1387573778629303
1782836738843922400,1.09992236328125,-0.09131166338920593,-0.9746667146682739,0.09713748097419739
1782836738853851400,1.109851318359375,-0.16132882237434387,-0.8310360908508301,0.011660659685730934
1782836738863781400,1.119781494140625,-0.2330779731273651,-0.5108183026313782,-0.10288690030574799
1782836738873710300,1.12971044921875,-0.3201007544994354,-0.11354389786720276,-0.22135868668556213
1782836738883639300,1.139639404296875,-0.40923890471458435,0.2818429172039032,-0.30204832553863525
1782836738893568500,1.149568603515625,-0.49892136454582214,0.5929192900657654,-0.29764875769615173
1782836738903498500,1.15949853515625,-0.5754662752151489,0.7546181678771973,-0.19624145328998566
1782836738913427500,1.169427490234375,-0.627101480960846,0.8044965267181396,-0.019900519400835037
1782836738923356400,1.1793564453125,-0.6498759984970093,0.7646270394325256,0.17598165571689606
1782836738933285400,1.189285400390625,-0.6408231258392334,0.6407746076583862,0.3327989876270294
1782836738943214300,1.19921435546875,-0.5883761644363403,0.5416923761367798,0.4125842750072479
1782836738953144300,1.209144287109375,-0.48688840866088867,0.5033037066459656,0.4543306529521942
1782836738963073500,1.219073486328125,-0.3389027714729309,0.467712938785553,0.5145367383956909
1782836738973002500,1.22900244140625,-0.18318983912467957,0.4223819375038147,0.6078568696975708
1782836738982931500,1.238931396484375,-0.05796315148472786,0.40511608123779297,0.7367487549781799
1782836738992860400,1.2488603515625,0.03854234889149666,0.45459896326065063,0.876176118850708
1782836739002790400,1.258790283203125,0.12678617238998413,0.5464980602264404,0.9837594628334045
1782836739012719400,1.26871923828125,0.1699160635471344,0.5265099406242371,1.0355780124664307
1782836739022648300,1.2786484375,0.18040312826633453,0.3375498056411743,1.0526114702224731
1782836739032577500,1.28857763671875,0.16847562789916992,0.12493715435266495,1.0718687772750854
1782836739042507500,1.298507568359375,0.0917205661535263,-0.07014322280883789,1.0330555438995361
1782836739052436200,1.308436279296875,-0.07781733572483063,-0.27831825613975525,0.8678431510925293
1782836739062365400,1.318365478515625,-0.2469489723443985,-0.33152636885643005,0.5991653800010681
1782836739072294400,1.32829443359375,-0.3232339024543762,0.013629408553242683,0.30047163367271423
1782836739082223400,1.338223388671875,-0.2522444427013397,0.5218062996864319,0.035045161843299866
1782836739092153300,1.3481533203125,-0.0890885591506958,0.8433651924133301,-0.1411980390548706
1782836739102082600,1.35808251953125,0.006676732562482357,0.8856837153434753,-0.2299686074256897
1782836739112011500,1.368011474609375,0.007455707062035799,0.7849615812301636,-0.2801753282546997
1782836739121940500,1.3779404296875,-0.035012632608413696,0.7007330656051636,-0.2851230204105377
1782836739131870500,1.387870361328125,0.013912033289670944,0.6844832301139832,-0.15218839049339294
1782836739141799400,1.39779931640625,0.2096499502658844,0.5663211941719055,0.14150306582450867
1782836739151728400,1.407728271484375,0.5016123056411743,0.2690027356147766,0.49290579557418823
1782836739161657300,1.4176572265625,0.6838216185569763,0.05526499077677727,0.6361247897148132
1782836739171586600,1.427586669921875,0.7038930654525757,-0.06074469909071922,0.4375493824481964
1782836739181516300,1.437516357421875,0.6432831287384033,-0.02890019118785858,-0.04384386166930199
1782836739191445200,1.4474453125,0.5750939846038818,0.03170376643538475,-0.6370619535446167
1782836739201374500,1.45737451171875,0.5738428831100464,0.13799697160720825,-1.0072880983352661
1782836739211303400,1.467303466796875,0.6107889413833618,0.12095619738101959,-1.028507113456726
1782836739221232400,1.477232421875,0.6464553475379944,0.03965127468109131,-0.7522899508476257
1782836739231162400,1.487162353515625,0.6214509606361389,-0.025129320099949837,-0.35377001762390137
1782836739241091600,1.497091552734375,0.5239388346672058,-0.003173188306391239,-0.054687146097421646
1782836739251020500,1.5070205078125,0.43605589866638184,0.06594809889793396,0.06753117591142654
1782836739260949200,1.51694921875,0.36948662996292114,0.036392681300640106,0.02805311046540737
1782836739270879500,1.52687939453125,0.3375614583492279,-0.15295566618442535,-0.08091118931770325
1782836739280808400,1.536808349609375,0.3543255031108856,-0.5184841156005859,-0.17781247198581696
1782836739290737400,1.5467373046875,0.38506796956062317,-1.0484267473220825,-0.3028351366519928
1782836739300666400,1.556666259765625,0.45493239164352417,-1.725821614265442,-0.4952148199081421
1782836739310595600,1.566595703125,0.5683116316795349,-2.2922866344451904,-0.7323288321495056
1782836739320525300,1.576525390625,0.6536934971809387,-2.493112802505493,-0.9496373534202576
1782836739330454300,1.586454345703125,0.6419582962989807,-2.3338794708251953,-1.0381728410720825
1782836739340383500,1.596383544921875,0.5135621428489685,-1.8523340225219727,-0.9564887285232544
1782836739350312400,1.6063125,0.2744094729423523,-1.214078426361084,-0.7456409335136414
1782836739360242400,1.616242431640625,-0.005781534127891064,-0.5823739767074585,-0.4827984571456909
1782836739370171400,1.62617138671875,-0.24214641749858856,-0.10298105329275131,-0.18520008027553558
1782836739380100600,1.6361005859375,-0.43202391266822815,0.19095057249069214,0.14724740386009216
1782836739390029300,1.646029296875,-0.5845963954925537,0.336698442697525,0.4951089918613434
1782836739399958300,1.655958251953125,-0.7716644406318665,0.4259856343269348,0.7496352195739746
1782836739409888500,1.665888427734375,-0.9911837577819824,0.4113936424255371,0.8365399837493896
1782836739419817500,1.6758173828125,-1.1491901874542236,0.3669085204601288,0.7626507878303528
1782836739429746400,1.685746337890625,-1.205641746520996,0.37787380814552307,0.5526871681213379
1782836739439675400,1.69567529296875,-1.1735899448394775,0.37070465087890625,0.27251502871513367
1782836739449605400,1.70560546875,-1.0841116905212402,0.23620329797267914,-0.034567691385746
1782836739459534300,1.715534423828125,-0.9675719141960144,0.047925010323524475,-0.31584417819976807
1782836739469463300,1.72546337890625,-0.7873417139053345,-0.030952759087085724,-0.502950131893158
1782836739479392500,1.735392578125,-0.5776599645614624,-0.005284835118800402,-0.5591469407081604
1782836739489321500,1.745321533203125,-0.4405982792377472,0.19412334263324738,-0.5310588479042053
1782836739499251500,1.75525146484375,-0.3708270192146301,0.45879754424095154,-0.4277023375034332
1782836739509180400,1.765180419921875,-0.3245207667350769,0.5247890949249268,-0.2582421898841858
1782836739519109400,1.775109375,-0.27743127942085266,0.454390287399292,-0.08340086042881012
1782836739529038300,1.785038330078125,-0.1933467537164688,0.3673110604286194,0.10349099338054657
1782836739538968300,1.79496826171875,-0.07259686291217804,0.20989912748336792,0.31399086117744446
1782836739548897500,1.8048974609375,0.0017543388530611992,-0.07843999564647675,0.4615808427333832
1782836739558826500,1.814826416015625,-0.04657474905252457,-0.39132896065711975,0.4752386808395386
1782836739568755500,1.82475537109375,-0.1825525462627411,-0.44525980949401855,0.36123326420783997
1782836739578684400,1.834684326171875,-0.2417585551738739,-0.053247127681970596,0.27664852142333984
1782836739588614400,1.844614501953125,-0.2057795226573944,0.6927106380462646,0.23248426616191864
1782836739598543400,1.85454345703125,-0.21581141650676727,1.1462209224700928,0.11988478899002075
1782836739608471000,1.864470947265625,-0.2731980085372925,1.0911465883255005,0.018671348690986633
1782836739618399700,1.874399658203125,-0.37956416606903076,1.0641493797302246,0.02139890566468239
1782836739628330000,1.884330078125,-0.5163342952728271,1.30514657497406,0.12155506759881973
1782836739638259000,1.894259033203125,-0.6085959672927856,1.552078366279602,0.20766466856002808
1782836739648188000,1.90418798828125,-0.5536813139915466,1.4068373441696167,0.22104544937610626
1782836739658116900,1.914116943359375,-0.2753433585166931,0.7917826771736145,0.25164076685905457
1782836739668045800,1.9240458984375,0.05648837238550186,0.10215902328491211,0.3428553640842438
1782836739677975800,1.933975830078125,0.19592279195785522,-0.5631319284439087,0.36672085523605347
1782836739687904800,1.94390478515625,0.07056140899658203,-1.0224699974060059,0.11825724691152573
1782836739697833700,1.953833740234375,-0.13857993483543396,-1.1005587577819824,-0.43346863985061646
1782836739707763000,1.963762939453125,-0.21088822185993195,-0.7621706128120422,-1.0128257274627686
1782836739717693000,1.97369287109375,-0.0749821811914444,-0.21018359065055847,-1.2902534008026123
1782836739727622000,1.983621826171875,0.1790362447500229,0.1448754370212555,-1.143507957458496
1782836739737550800,1.99355078125,0.3250914216041565,0.27319014072418213,-0.730690598487854
1782836739747479800,2.003479736328125,0.33320075273513794,0.240122988820076,-0.30902615189552307
1782836739757408800,2.01340869140625,0.37189269065856934,0.07668110728263855,-0.01855331100523472
1782836739767339000,2.023339111328125,0.4953746795654297,-0.18098531663417816,0.07345037907361984
1782836739777268000,2.03326806640625,0.6579709053039551,-0.45314380526542664,0.017641659826040268
1782836739787197000,2.043197021484375,0.8386309742927551,-0.635696291923523,-0.05808718875050545
1782836739797126000,2.0531259765625,0.9133986234664917,-0.9193974733352661,-0.2189793437719345
1782836739807056000,2.063055908203125,0.824835479259491,-1.0728602409362793,-0.5348499417304993
1782836739816984800,2.07298486328125,0.6696052551269531,-0.9173468947410583,-0.9366595149040222
1782836739826913800,2.082913818359375,0.5552565455436707,-0.6162736415863037,-1.3206743001937866
1782836739836842800,2.0928427734375,0.4828394055366516,-0.4641871154308319,-1.564724326133728
1782836739846772000,2.10277197265625,0.41147199273109436,-0.46044644713401794,-1.5474462509155273
1782836739856702000,2.112701904296875,0.269799143075943,-0.5364603996276855,-1.2177648544311523
1782836739866631000,2.122630859375,0.09425047039985657,-0.62235027551651,-0.6941796541213989
1782836739876560000,2.132559814453125,-0.02524317055940628,-0.6827863454818726,-0.10282837599515915
1782836739886488800,2.14248876953125,-0.08711878210306168,-0.5656855702400208,0.39486929774284363
1782836739896418800,2.152418701171875,-0.12735795974731445,-0.29898345470428467,0.7269150614738464
1782836739906348000,2.16234814453125,-0.178780660033226,0.04091605171561241,0.8633368015289307
1782836739916277000,2.172277099609375,-0.28252261877059937,0.36274054646492004,0.8340079188346863
1782836739926206000,2.1822060546875,-0.3985898196697235,0.5817365050315857,0.7471880316734314
1782836739936135700,2.1921357421875,-0.4818382263183594,0.6369577646255493,0.656199038028717
1782836739946065000,2.20206494140625,-0.5088908672332764,0.4401821792125702,0.5918828845024109
1782836739955993900,2.211993896484375,-0.5222593545913696,0.08791996538639069,0.5705390572547913
1782836739965922800,2.2219228515625,-0.5480307936668396,-0.29458025097846985,0.5274152755737305
1782836739975851800,2.231851806640625,-0.6422442197799683,-0.5644329190254211,0.40720292925834656
1782836739985782000,2.241781982421875,-0.6959447264671326,-0.6145403385162354,0.2897191643714905
1782836739995711000,2.2517109375,-0.6520549058914185,-0.33967524766921997,0.2878456711769104
1782836740005639700,2.2616396484375,-0.5397928357124329,0.04766795039176941,0.4157263934612274
1782836740015569000,2.27156884765625,-0.44552087783813477,0.2758360207080841,0.5872777104377747
1782836740025499000,2.281498779296875,-0.3997699022293091,0.36410969495773315,0.7715798616409302
1782836740035427800,2.291427734375,-0.39638736844062805,0.42263007164001465,0.9694356918334961
1782836740045357000,2.301357177734375,-0.4276622235774994,0.41266053915023804,1.1087504625320435
1782836740055286000,2.3112861328125,-0.5040404200553894,0.2530229091644287,1.1366392374038696
1782836740065215700,2.3212158203125,-0.6059678196907043,-0.015513208694756031,1.0633213520050049
1782836740075144700,2.331144775390625,-0.7772075533866882,-0.2982628643512726,0.8575119376182556
1782836740085074000,2.341073974609375,-0.9592410326004028,-0.334283709526062,0.5352686047554016
1782836740095003000,2.3510029296875,-1.0213488340377808,0.037573110312223434,0.22588695585727692
1782836740104931800,2.360931884765625,-0.9498501420021057,0.5698343515396118,0.01769060455262661
1782836740114862000,2.370862060546875,-0.80464106798172,0.9336966276168823,-0.04668266326189041
1782836740124790800,2.380790771484375,-0.6524414420127869,0.9446192979812622,0.05031631886959076
1782836740134719700,2.3907197265625,-0.546079158782959,0.7536770105361938,0.23335322737693787
1782836740144648700,2.400648681640625,-0.4322393834590912,0.5241207480430603,0.40968966484069824
1782836740154579000,2.410578857421875,-0.2699759602546692,0.23571760952472687,0.5782626271247864
1782836740164508000,2.4205078125,-0.04696659743785858,0.016737591475248337,0.7808234691619873
1782836740174436900,2.430436767578125,0.13417182862758636,-0.07864079624414444,0.921172022819519
1782836740184366000,2.440365966796875,0.15013135969638824,-0.03734954446554184,0.7832024097442627
1782836740194295000,2.450294921875,0.029482563957571983,0.05619214475154877,0.2572871148586273
1782836740204224800,2.460224853515625,-0.1184762716293335,0.09090644866228104,-0.4817754924297333
1782836740214153700,2.47015380859375,-0.17763429880142212,0.0036950986832380295,-1.135276198387146
1782836740224083000,2.4800830078125,-0.1278398483991623,0.07837440073490143,-1.4404523372650146
1782836740234012000,2.490011962890625,0.038578759878873825,0.20425879955291748,-1.3676954507827759
1782836740243942000,2.49994189453125,0.2838801443576813,0.1490730345249176,-1.0438050031661987
1782836740253870800,2.509870849609375,0.5051626563072205,-0.18660509586334229,-0.6500363945960999
1782836740263799800,2.5197998046875,0.6575618386268616,-0.6374567151069641,-0.32423830032348633
1782836740273728800,2.529728759765625,0.7447927594184875,-1.0105139017105103,-0.13774389028549194
1782836740283659000,2.539658935546875,0.8941255211830139,-1.1292091608047485,0.044945769011974335
1782836740293588000,2.549587890625,1.091493844985962,-1.0887224674224854,0.26763609051704407
1782836740303517000,2.559516845703125,1.188927173614502,-1.128862738609314,0.3818870484828949
1782836740313446000,2.56944580078125,1.1306297779083252,-1.161115050315857,0.30939212441444397
1782836740323375000,2.579375,0.8627534508705139,-1.0218727588653564,-0.012356093153357506
1782836740333304800,2.589304931640625,0.45555439591407776,-0.7727041840553284,-0.5727661848068237
1782836740343233800,2.59923388671875,0.06517253071069717,-0.4614033102989197,-1.1962151527404785
1782836740353162800,2.609162841796875,-0.20116651058197021,-0.14497675001621246,-1.6529242992401123
1782836740363092000,2.619092041015625,-0.33247578144073486,0.11886660754680634,-1.7921037673950195
1782836740373022000,2.62902197265625,-0.4058956801891327,0.17927582561969757,-1.577263355255127
1782836740382950700,2.63895068359375,-0.46165376901626587,0.10872656106948853,-1.0908007621765137
1782836740392879900,2.6488798828125,-0.5273296236991882,0.09574070572853088,-0.4629806876182556
1782836740402808800,2.658808837890625,-0.5822701454162598,0.14004585146903992,0.1481838822364807
1782836740412738800,2.66873876953125,-0.578932523727417,0.2051047384738922,0.673102617263794
1782836740422668000,2.67866796875,-0.5401398539543152,0.24896833300590515,1.0562283992767334
1782836740432597000,2.688596923828125,-0.5120369791984558,0.24067847430706024,1.2616238594055176
1782836740442526000,2.69852587890625,-0.5081644654273987,0.22358152270317078,1.263094425201416
1782836740452455000,2.708454833984375,-0.513006329536438,0.2274157702922821,1.0954785346984863
1782836740462385000,2.718385009765625,-0.47020721435546875,0.2615492343902588,0.8502206206321716
1782836740472313900,2.72831396484375,-0.40355566143989563,0.2583778202533722,0.5586761832237244
1782836740482242800,2.738242919921875,-0.3697609603404999,0.15578725934028625,0.2507673501968384
1782836740492171800,2.748171875,-0.3807770013809204,-0.01030335295945406,-0.01811044104397297
1782836740502102000,2.75810205078125,-0.43982967734336853,-0.07907123118638992,-0.2390529364347458
1782836740512030700,2.76803076171875,-0.5149577260017395,-0.010662935674190521,-0.38797006011009216
1782836740521959700,2.777959716796875,-0.586054801940918,0.04286287724971771,-0.4414452910423279
1782836740531889000,2.787888916015625,-0.6394538879394531,0.02212471514940262,-0.41309869289398193
1782836740541819000,2.79781884765625,-0.6464457511901855,0.018018651753664017,-0.2664647698402405
1782836740551747800,2.807747802734375,-0.6497030258178711,0.10092198848724365,-0.03332124277949333
1782836740561677000,2.817677001953125,-0.6153271794319153,0.338195264339447,0.24123094975948334
1782836740571606000,2.82760595703125,-0.5649381279945374,0.6067918539047241,0.48588934540748596
1782836740581535000,2.837534912109375,-0.5200185775756836,0.7311233878135681,0.6253476142883301
1782836740591464700,2.847464599609375,-0.41681772470474243,0.7094487547874451,0.7315657138824463
1782836740601394000,2.857393798828125,-0.3018719553947449,0.7140847444534302,0.8515834808349609
1782836740611323100,2.8673232421875,-0.24718207120895386,0.6909458041191101,0.975300133228302
1782836740621252000,2.877252197265625,-0.30756258964538574,0.6005117297172546,0.9923744797706604
1782836740631182000,2.88718212890625,-0.4338896572589874,0.5459156632423401,0.7914312481880188
1782836740641111000,2.897111083984375,-0.4939572811126709,0.541451096534729,0.39271339774131775
1782836740651040000,2.9070400390625,-0.38409560918807983,0.6444089412689209,-0.054033584892749786
1782836740660969000,2.916968994140625,-0.17008958756923676,0.8215722441673279,-0.42553338408470154
1782836740670899200,2.926899169921875,0.06742294132709503,0.747313380241394,-0.7091867923736572
1782836740680828200,2.936828125,0.25758010149002075,0.5072382092475891,-0.8560010194778442
1782836740690757000,2.946757080078125,0.3246801197528839,0.2971670925617218,-0.8161395788192749
1782836740700686300,2.956686279296875,0.3591773509979248,0.05298426002264023,-0.6425899267196655
1782836740710616000,2.966615966796875,0.4350739121437073,-0.23248721659183502,-0.4187566936016083
1782836740720545000,2.976544921875,0.5683286190032959,-0.3004971742630005,-0.1924029290676117
1782836740730474200,2.98647412109375,0.7733798027038574,-0.14284896850585938,0.06640886515378952
1782836740740403200,2.9964033203125,0.9564425349235535,0.07143962383270264,0.25371724367141724
1782836740750332200,3.006332275390625,1.1192454099655151,0.18745094537734985,0.36979490518569946
1782836740760262000,3.016261962890625,1.2796849012374878,0.008001022972166538,0.43511879444122314
1782836740770191000,3.026191162109375,1.3891245126724243,-0.33565035462379456,0.41998645663261414
1782836740780120000,3.0361201171875,1.486741304397583,-0.602101743221283,0.34526240825653076
1782836740790049000,3.046049072265625,1.5386159420013428,-0.7664589285850525,0.21754740178585052
1782836740799979300,3.055979248046875,1.4846779108047485,-0.824408769607544,0.029910393059253693
1782836740809908200,3.065908203125,1.3069173097610474,-0.814595639705658,-0.19710151851177216
1782836740819837200,3.075837158203125,1.0708047151565552,-0.7923654317855835,-0.3949088454246521
1782836740829766100,3.08576611328125,0.8523661494255066,-0.7573265433311462,-0.513517439365387
1782836740839696100,3.095696044921875,0.6274502277374268,-0.7271580100059509,-0.5713109374046326
1782836740849625000,3.105625,0.4276505410671234,-0.6863207817077637,-0.5654056668281555
1782836740859554000,3.115553955078125,0.2880401909351349,-0.5897953510284424,-0.48882195353507996
1782836740869483300,3.125483154296875,0.21573583781719208,-0.4388357698917389,-0.3887374699115753
1782836740879413200,3.135413330078125,0.20700040459632874,-0.25791606307029724,-0.27847516536712646
1782836740889342000,3.145342041015625,0.23048149049282074,-0.0796065479516983,-0.17769458889961243
1782836740899271000,3.15527099609375,0.2272673100233078,0.10129639506340027,-0.10449067503213882
1782836740909200100,3.1652001953125,0.1813763678073883,0.2560490369796753,-0.05512365326285362
1782836740919129000,3.175129150390625,0.10260991007089615,0.3203739821910858,-0.02670905739068985
1782836740929059000,3.18505908203125,-0.009871892631053925,0.25106626749038696,-0.019023973494768143
1782836740938988300,3.19498828125,-0.12076938897371292,0.10348507016897202,-0.01985407993197441
1782836740948917200,3.204917236328125,-0.2327575385570526,-0.0611683651804924,-0.016258465126156807
1782836740958846200,3.21484619140625,-0.34907135367393494,-0.19568036496639252,-0.023278824985027313
1782836740968776200,3.224776123046875,-0.4200741648674011,-0.20743556320667267,-0.015322097577154636
1782836740978705200,3.234705078125,-0.4496515095233917,-0.1134110689163208,-0.005465472117066383
1782836740988634000,3.244634033203125,-0.4426459074020386,-0.0038423994556069374,-0.0017798668704926968
1782836740998563000,3.25456298828125,-0.428191602230072,0.08333031833171844,0.038285527378320694
1782836741008493300,3.264493408203125,-0.4037344753742218,0.1848965287208557,0.16986946761608124
1782836741018422000,3.274422119140625,-0.4229787290096283,0.210654616355896,0.38127201795578003
1782836741028351000,3.28435107421875,-0.5182203650474548,0.03963346779346466,0.5922225117683411
1782836741038280000,3.294280029296875,-0.6549782156944275,-0.1655638962984085,0.7642771005630493
1782836741048210200,3.304210205078125,-0.7830110788345337,-0.1708316206932068,0.8610163927078247
1782836741058139100,3.31413916015625,-0.867037296295166,0.002832050435245037,0.8708136081695557
1782836741068068000,3.324068115234375,-0.9257773160934448,0.1799248903989792,0.7836498022079468
1782836741077997300,3.333997314453125,-0.9624235033988953,0.27870047092437744,0.5911626815795898
1782836741087927000,3.343927001953125,-0.9489034414291382,0.39972883462905884,0.35530394315719604
1782836741097856000,3.35385595703125,-0.8945299386978149,0.547886073589325,0.16642217338085175
1782836741107785200,3.36378515625,-0.832259476184845,0.6378200650215149,0.06714703887701035
1782836741117714200,3.373714111328125,-0.7865764498710632,0.7142626643180847,0.09660186618566513
1782836741127643100,3.38364306640625,-0.7915835976600647,0.7009882926940918,0.21777400374412537
1782836741137573000,3.393572998046875,-0.8540880084037781,0.49021533131599426,0.2719051241874695
1782836741147502000,3.403502197265625,-0.889992356300354,0.17693394422531128,0.1473238617181778
1782836741157431000,3.41343115234375,-0.8327881693840027,0.019731003791093826,-0.1471751481294632
1782836741167360000,3.423360107421875,-0.6377245187759399,0.07565343379974365,-0.428579181432724
1782836741177290200,3.433290283203125,-0.3153257369995117,0.23761889338493347,-0.5117488503456116
1782836741187219200,3.44321923828125,-0.013719035312533379,0.3929794728755951,-0.3494874835014343
1782836741197148200,3.453148193359375,0.12227874249219894,0.5793538689613342,-0.025077980011701584
1782836741207077000,3.4630771484375,0.08417630940675735,0.9013111591339111,0.26540642976760864
1782836741217007000,3.473007080078125,0.0856381207704544,1.15214204788208,0.4571646749973297
1782836741226936000,3.48293603515625,0.20112144947052002,1.2969317436218262,0.6422809362411499
1782836741236865000,3.492864990234375,0.322989284992218,1.1752431392669678,0.8169220089912415
1782836741246794200,3.502794189453125,0.4355461597442627,0.9493212103843689,0.970110297203064
1782836741256724200,3.51272412109375,0.5673856735229492,0.6541993021965027,1.0145989656448364
1782836741266653200,3.522653076171875,0.7358090281486511,0.28820523619651794,0.9079498648643494
1782836741276582100,3.53258203125,0.9215117692947388,-0.23823432624340057,0.7112676501274109
1782836741286511000,3.542510986328125,1.072011113166809,-0.8752257823944092,0.4854493737220764
1782836741296441000,3.552441162109375,1.191043734550476,-1.418915033340454,0.31940045952796936
1782836741306370000,3.5623701171875,1.2471545934677124,-1.6839370727539062,0.2891197204589844
1782836741316299300,3.57229931640625,1.1810266971588135,-1.7339539527893066,0.34903472661972046
1782836741326228200,3.582228271484375,0.9382744431495667,-1.6269649267196655,0.3805808126926422
1782836741336157200,3.5921572265625,0.5170809030532837,-1.4195842742919922,0.2878495454788208
1782836741346087200,3.602087158203125,0.004161088261753321,-1.1544986963272095,0.05504065752029419
1782836741356016000,3.61201611328125,-0.4547630846500397,-0.8291793465614319,-0.24883559346199036
1782836741365945000,3.621945068359375,-0.7381269931793213,-0.5342442393302917,-0.5093355178833008
1782836741375874000,3.6318740234375,-0.8477312922477722,-0.43647804856300354,-0.7306878566741943
1782836741385804300,3.64180419921875,-0.8398215770721436,-0.4686035215854645,-0.9167903661727905
1782836741395733000,3.65173291015625,-0.7441920042037964,-0.4210298955440521,-1.0184082984924316
1782836741405662000,3.661661865234375,-0.5826265215873718,-0.275274395942688,-1.0067322254180908
1782836741415591200,3.671591064453125,-0.38044652342796326,-0.18495489656925201,-0.8491756319999695
1782836741425521200,3.681521240234375,-0.19894081354141235,-0.2490164041519165,-0.5363296270370483
1782836741435450000,3.6914501953125,-0.14893117547035217,-0.30032697319984436,-0.11950390040874481
1782836741445379000,3.701379150390625,-0.2385675013065338,-0.14277473092079163,0.34189876914024353
1782836741455308300,3.711308349609375,-0.384807288646698,0.10282251238822937,0.7396804690361023
1782836741465238000,3.721238037109375,-0.5530834794044495,0.27039477229118347,0.9575664401054382
1782836741475167000,3.7311669921875,-0.6723747253417969,0.3816227614879608,1.0147647857666016
1782836741485096200,3.74109619140625,-0.7514685988426208,0.5693669319152832,0.9537355303764343
1782836741495025200,3.751025146484375,-0.7782357931137085,0.7672771215438843,0.8051338195800781
1782836741504955100,3.760955078125,-0.7858880162239075,0.8285343647003174,0.5615538358688354
1782836741514884400,3.77088427734375,-0.723608672618866,0.7302243113517761,0.27480408549308777
1782836741524813000,3.78081298828125,-0.6397402286529541,0.5538064241409302,-0.02926141582429409
1782836741534742000,3.790741943359375,-0.5806617140769958,0.3627784550189972,-0.31676241755485535
1782836741544672000,3.800672119140625,-0.5164088606834412,0.14632950723171234,-0.5278757214546204
1782836741554601200,3.810601318359375,-0.4202461242675781,-0.11750028282403946,-0.5909422636032104
1782836741564530200,3.8205302734375,-0.3281949758529663,-0.408575177192688,-0.5364753603935242
1782836741574459100,3.830459228515625,-0.250320702791214,-0.7348920106887817,-0.4068097472190857
1782836741584389000,3.84038916015625,-0.1845376193523407,-0.9218117594718933,-0.23537331819534302
1782836741594318000,3.850318115234375,-0.11363042145967484,-0.8295281529426575,-0.04697970300912857
1782836741604243000,3.860242919921875,-0.03104567527770996,-0.5669171214103699,0.15479446947574615
1782836741614172000,3.870171875,0.012842421419918537,-0.27018582820892334,0.33297404646873474
1782836741624102100,3.88010205078125,-0.04813903942704201,0.04064713791012764,0.45838940143585205
1782836741634031000,3.890031005859375,-0.1860865205526352,0.3938824236392975,0.5411607027053833
1782836741643960000,3.8999599609375,-0.3507194519042969,0.7701244950294495,0.5718642473220825
1782836741653889000,3.909888916015625,-0.5103211402893066,1.03463613986969,0.5176755785942078
1782836741663819000,3.919819091796875,-0.6335119605064392,1.0459879636764526,0.37486279010772705
1782836741673748000,3.929748046875,-0.6899858713150024,0.7736116647720337,0.13288530707359314
1782836741683677000,3.939677001953125,-0.6671730279922485,0.2397136241197586,-0.21960140764713287
1782836741693606000,3.94960595703125,-0.5920903086662292,-0.44312697649002075,-0.6701291799545288
1782836741703536000,3.9595361328125,-0.4721597731113434,-0.7441709041595459,-1.1847422122955322
1782836741713465000,3.969465087890625,-0.3973499834537506,-0.5486445426940918,-1.7045656442642212
1782836741723393800,3.979393798828125,-0.3503202199935913,-0.42209193110466003,-2.1036994457244873
1782836741733323000,3.989322998046875,-0.23312383890151978,-0.10000896453857422,-2.1113381385803223
1782836741743253000,3.9992529296875,-0.059613313525915146,0.30593395233154297,-1.6600168943405151
1782836741753182000,4.009181884765625,0.039552953094244,0.41992977261543274,-1.0062453746795654
1782836741763111200,4.019111083984375,0.08369304984807968,0.6066028475761414,-0.370107501745224
1782836741773040000,4.0290400390625,0.17183037102222443,1.0015405416488647,0.07992970943450928
1782836741782969000,4.038968994140625,0.3307872414588928,1.3290587663650513,0.27186381816864014
1782836741792898800,4.04889892578125,0.4966276288032532,1.3914121389389038,0.23063169419765472
1782836741802828000,4.058828125,0.5725441575050354,0.9001418948173523,-0.033269889652729034
1782836741812757000,4.068757080078125,0.5731063485145569,-0.1969590187072754,-0.436064749956131
1782836741822686000,4.07868603515625,0.5979769229888916,-1.4236797094345093,-0.8796373605728149
1782836741832616200,4.0886162109375,0.6701049208641052,-2.166259527206421,-1.188801884651184
1782836741842545200,4.098545166015625,0.6624007225036621,-2.4873926639556885,-1.3250329494476318
1782836741852473900,4.108473876953125,0.5859664082527161,-2.511932373046875,-1.3316006660461426
1782836741862402800,4.11840283203125,0.4509444534778595,-2.2682583332061768,-1.2608338594436646
1782836741872333000,4.1283330078125,0.2820291817188263,-1.8126754760742188,-1.1837092638015747
1782836741882262000,4.138261962890625,0.11477992683649063,-1.2209678888320923,-1.1318905353546143
1782836741892191000,4.14819091796875,-0.05469539016485214,-0.6461232304573059,-1.1459720134735107
1782836741902120200,4.1581201171875,-0.23946642875671387,-0.09355860203504562,-1.2011971473693848
1782836741912050000,4.1680498046875,-0.430290162563324,0.3248511850833893,-1.2240960597991943
1782836741921979000,4.177978759765625,-0.5226408243179321,0.43893441557884216,-1.1285293102264404
1782836741931907800,4.187907958984375,-0.49068978428840637,0.33775585889816284,-0.9016779661178589
1782836741941837000,4.197837158203125,-0.4323219060897827,0.15622620284557343,-0.6245563626289368
1782836741951767000,4.20776708984375,-0.4066290557384491,0.05870604142546654,-0.3193730115890503
1782836741961696000,4.217696044921875,-0.34761562943458557,0.18749286234378815,0.008273398503661156
1782836741971625200,4.227625244140625,-0.24745891988277435,0.3626292645931244,0.3198208808898926
1782836741981554000,4.237553955078125,-0.19504110515117645,0.4143967032432556,0.6149770021438599
1782836741991484000,4.24748388671875,-0.19795885682106018,0.4142400920391083,0.896730899810791
1782836742001413000,4.2574130859375,-0.24499979615211487,0.36531850695610046,1.1836272478103638
1782836742011342000,4.267342041015625,-0.3233835697174072,0.2877885699272156,1.4064925909042358
1782836742021271000,4.27727099609375,-0.42827939987182617,0.19437913596630096,1.48124098777771
1782836742031200800,4.28720068359375,-0.5087420344352722,0.0881512463092804,1.400549054145813
1782836742041130000,4.2971298828125,-0.5153499245643616,0.017173107713460922,1.1891441345214844
1782836742051059000,4.307058837890625,-0.48050111532211304,-0.07602634280920029,0.9009465575218201
1782836742060988000,4.31698779296875,-0.4500528573989868,-0.08942124992609024,0.591746985912323
1782836742070918100,4.326918212890625,-0.4495551288127899,0.08690904080867767,0.3208733797073364
1782836742080847000,4.33684716796875,-0.46703091263771057,0.3123277425765991,0.17123493552207947
1782836742090776000,4.346776123046875,-0.484599232673645,0.44591856002807617,0.1419137865304947
1782836742100705000,4.356705078125,-0.4464259147644043,0.5051113367080688,0.21749746799468994
1782836742110635000,4.366635009765625,-0.33812418580055237,0.5338577628135681,0.39411911368370056
1782836742120564000,4.37656396484375,-0.2231912761926651,0.4840787351131439,0.601951003074646
1782836742130493000,4.386492919921875,-0.1488850861787796,0.3113389313220978,0.8047986626625061
1782836742140422100,4.396422119140625,-0.10720384120941162,0.07550936937332153,0.988126814365387
1782836742150352100,4.40635205078125,-0.05030354484915733,-0.05862099677324295,1.1727222204208374
1782836742160280800,4.41628076171875,-0.03887953236699104,-0.08250456303358078,1.297778606414795
1782836742170209800,4.426209716796875,-0.11984602361917496,-0.02364524081349373,1.2389177083969116
1782836742180139000,4.436138916015625,-0.18441304564476013,0.24764929711818695,0.9771645069122314
1782836742190069000,4.446069091796875,-0.17033451795578003,0.6141644716262817,0.5283486247062683
1782836742199998000,4.455998046875,-0.0631769672036171,0.9427760243415833,-0.019524943083524704
1782836742209927200,4.46592724609375,0.07907285541296005,1.1407098770141602,-0.4850788116455078
1782836742219856100,4.475856201171875,0.19837018847465515,1.0677411556243896,-0.7432750463485718
1782836742229785900,4.485785888671875,0.24653105437755585,0.7687502503395081,-0.7026767730712891
1782836742239715000,4.495715087890625,0.2588443458080292,0.4619593322277069,-0.4080141484737396
1782836742249644000,4.50564404296875,0.19629789888858795,0.295331209897995,-0.10485877841711044
1782836742259573000,4.515572998046875,0.09826633334159851,0.3118261992931366,0.06716243922710419
1782836742269503200,4.525503173828125,0.036138247698545456,0.4034922122955322,0.09796908497810364
1782836742279432000,4.535431884765625,0.007379274815320969,0.44003963470458984,-0.0020865164697170258
1782836742289361000,4.54536083984375,0.05304396525025368,0.46669307351112366,-0.10897141695022583
1782836742299289900,4.555289794921875,0.20544151961803436,0.3306613266468048,-0.1454162299633026
1782836742309220000,4.56522021484375,0.4033697545528412,-0.14156079292297363,-0.17134901881217957
1782836742319149000,4.575149169921875,0.5777232050895691,-0.7256302237510681,-0.21982571482658386
1782836742329078000,4.585078125,0.6929526329040527,-1.1236920356750488,-0.31821301579475403
1782836742339007000,4.595007080078125,0.7230827808380127,-1.267669677734375,-0.4647788405418396
1782836742348937000,4.60493701171875,0.746604323387146,-1.2331290245056152,-0.6044328808784485
1782836742358866000,4.614865966796875,0.7970992922782898,-1.0783334970474243,-0.5943424105644226
1782836742368795000,4.624794921875,0.7840292453765869,-1.0357924699783325,-0.47805923223495483
1782836742378724000,4.63472412109375,0.6302367448806763,-1.0361340045928955,-0.33780717849731445
1782836742388654000,4.644654052734375,0.3106645941734314,-0.941646933555603,-0.29662296175956726
1782836742398583000,4.6545830078125,-0.11608440428972244,-0.7323021292686462,-0.4250141382217407
1782836742408512000,4.664511962890625,-0.5187870860099792,-0.4851040542125702,-0.7122858762741089
1782836742418441000,4.67444091796875,-0.7509506344795227,-0.20470719039440155,-0.999684751033783
1782836742428371000,4.684370849609375,-0.7198097705841064,0.0055946605280041695,-1.0999631881713867
1782836742438300000,4.6942998046875,-0.5212172269821167,0.03714964538812637,-0.9621647000312805
1782836742448229000,4.70422900390625,-0.2452402114868164,-0.15284505486488342,-0.6215269565582275
1782836742458158000,4.714157958984375,-0.021278413012623787,-0.32450374960899353,-0.1609734147787094
1782836742468087800,4.724087890625,0.0846613347530365,-0.34332433342933655,0.3161660134792328
1782836742478017000,4.73401708984375,0.10587309300899506,-0.2991201877593994,0.7294406890869141
1782836742487946000,4.743946044921875,0.09653738141059875,-0.26881343126296997,1.0385053157806396
1782836742497875000,4.753875,0.04680797830224037,-0.26564833521842957,1.2385953664779663
1782836742507805200,4.76380517578125,-0.07789400219917297,-0.2854017913341522,1.2855911254882812
1782836742517734100,4.773734130859375,-0.27886947989463806,-0.28671732544898987,1.1613473892211914
1782836742527663000,4.7836630859375,-0.5176035165786743,-0.28252869844436646,0.8416383862495422
1782836742537591800,4.793591796875,-0.694707989692688,-0.26171430945396423,0.41428738832473755
1782836742547522000,4.80352197265625,-0.7686671614646912,-0.09344568103551865,0.05961823835968971
1782836742557451000,4.813450927734375,-0.7750941514968872,0.20264752209186554,-0.11317792534828186
1782836742567380000,4.8233798828125,-0.7277578115463257,0.5233485698699951,-0.09359756857156754
1782836742577309000,4.833308837890625,-0.6425086855888367,0.7777256965637207,0.07131089270114899
1782836742587239000,4.843239013671875,-0.5367881059646606,0.8936624526977539,0.3138183653354645
1782836742597167900,4.85316796875,-0.4687933921813965,0.869028627872467,0.5521085262298584
1782836742607096300,4.863096435546875,-0.43916064500808716,0.7202679514884949,0.7314162254333496
1782836742617025500,4.873025634765625,-0.383976012468338,0.5249283909797668,0.9022059440612793
1782836742626955500,4.88295556640625,-0.2650144696235657,0.35215553641319275,1.0214157104492188
1782836742636884500,4.892884521484375,-0.12163048982620239,0.22340890765190125,1.0732141733169556
1782836742646813400,4.9028134765625,-0.12149520218372345,0.27774831652641296,0.9640480279922485
1782836742656742700,4.91274267578125,-0.23306694626808167,0.39998018741607666,0.6946016550064087
1782836742666672400,4.92267236328125,-0.34826037287712097,0.5149134993553162,0.3591456711292267
1782836742676601300,4.932601318359375,-0.3748495280742645,0.7047721147537231,0.04401659965515137
1782836742686530600,4.942530517578125,-0.29589584469795227,0.8757297396659851,-0.20721830427646637
1782836742696459500,4.95245947265625,-0.21045231819152832,0.884494960308075,-0.4206501245498657
1782836742706389500,4.962389404296875,-0.17577902972698212,0.6920347213745117,-0.6151980757713318
1782836742716318700,4.972318603515625,-0.13981905579566956,0.4320392608642578,-0.7816249132156372
1782836742726247400,4.982247314453125,-0.06488088518381119,0.33989763259887695,-0.8675811290740967
1782836742736176400,4.99217626953125,0.03503714129328728,0.27093881368637085,-0.8452678322792053
1782836742746106400,5.0021064453125,0.1394016295671463,0.07575652003288269,-0.7808323502540588
1782836742756035600,5.01203564453125,0.20946134626865387,-0.0717281848192215,-0.7598358988761902
1782836742765964500,5.021964599609375,0.17108997702598572,-0.013435585424304008,-0.7839607000350952
1782836742775894500,5.03189453125,0.04899582639336586,0.2355826199054718,-0.7838841676712036
1782836742785823500,5.041823486328125,-0.07456792145967484,0.49544641375541687,-0.7815480828285217
1782836742795752400,5.05175244140625,-0.09315106272697449,0.7492291331291199,-0.796890139579773
1782836742805681400,5.061681396484375,0.03283216804265976,0.8775173425674438,-0.8269662857055664
1782836742815611600,5.071611572265625,0.18253301084041595,0.7032002806663513,-0.8827597498893738
1782836742825540600,5.08154052734375,0.25570201873779297,0.34600886702537537,-0.9542168974876404
1782836742835469600,5.091469482421875,0.22093704342842102,0.00013357587158679962,-0.9784595966339111
1782836742845398500,5.1013984375,0.2177034318447113,-0.3130333721637726,-0.8539317846298218
1782836742855328500,5.11132861328125,0.3181353807449341,-0.7797042727470398,-0.6602827310562134
1782836742865257500,5.121257568359375,0.5259674191474915,-1.3433791399002075,-0.4521447718143463
1782836742875186400,5.1311865234375,0.7608659863471985,-1.7040554285049438,-0.2684815526008606
1782836742885115400,5.141115478515625,0.8453257083892822,-1.7631994485855103,-0.28169748187065125
1782836742895045600,5.151045654296875,0.6878605484962463,-1.5590183734893799,-0.5738042593002319
1782836742904974300,5.160974365234375,0.37006714940071106,-1.1133921146392822,-1.0572046041488647
1782836742914903300,5.1709033203125,0.06129474937915802,-0.5078688859939575,-1.5541716814041138
1782836742924832500,5.18083251953125,-0.16268029808998108,0.025318335741758347,-1.8707916736602783
1782836742934762500,5.190762451171875,-0.3148272931575775,0.2165704071521759,-1.9203215837478638
1782836742944691500,5.20069140625,-0.39537087082862854,0.07864529639482498,-1.6843849420547485
1782836742954620700,5.21062060546875,-0.37644335627555847,-0.19753779470920563,-1.221396803855896
1782836742964549600,5.220549560546875,-0.27503737807273865,-0.45672276616096497,-0.591906726360321
1782836742974479400,5.230479248046875,-0.14832521975040436,-0.654800534248352,0.06866778433322906
1782836742984408600,5.24040869140625,-0.00231182761490345,-0.7386184334754944,0.6833288669586182
1782836742994337500,5.250337646484375,0.1539459228515625,-0.733162522315979,1.1522210836410522
1782836743004266500,5.2602666015625,0.3044302463531494,-0.7170498371124268,1.4243488311767578
1782836743014196500,5.270196533203125,0.35786572098731995,-0.5932224988937378,1.4424153566360474
1782836743024125700,5.280125732421875,0.23936331272125244,-0.3371356129646301,1.2216345071792603
1782836743034054400,5.290054443359375,0.031855300068855286,-0.00952313095331192,0.8211732506752014
1782836743043983400,5.2999833984375,-0.14544332027435303,0.2838656008243561,0.36036089062690735
1782836743053910500,5.30991064453125,-0.27543404698371887,0.46799033880233765,-0.0635811910033226
1782836743063840500,5.319840576171875,-0.3735007047653198,0.5604853630065918,-0.3965245485305786
1782836743073769500,5.32976953125,-0.45029136538505554,0.5066973567008972,-0.6222707033157349
1782836743083698400,5.339698486328125,-0.48362162709236145,0.24504365026950836,-0.7061011791229248
1782836743093627400,5.34962744140625,-0.4858522117137909,-0.07537756115198135,-0.6106212139129639
1782836743103557600,5.3595576171875,-0.47871309518814087,-0.13404114544391632,-0.3398536443710327
1782836743113486600,5.369486572265625,-0.4664328992366791,0.024386227130889893,0.03923150151968002
1782836743123415600,5.37941552734375,-0.4733472466468811,0.26231783628463745,0.42822426557540894
1782836743133344500,5.389344482421875,-0.4946991801261902,0.5534720420837402,0.7294113039970398
1782836743143274500,5.3992744140625,-0.49491381645202637,0.8775614500045776,0.8840277791023254
1782836743153203500,5.409203369140625,-0.4635568857192993,1.1328541040420532,0.8716198801994324
1782836743163132400,5.41913232421875,-0.409303218126297,1.2043565511703491,0.7350345849990845
1782836743173061600,5.4290615234375,-0.3747842609882355,1.0904524326324463,0.520963191986084
1782836743182991600,5.43899169921875,-0.37741705775260925,0.8566808104515076,0.26940980553627014
1782836743192920300,5.44892041015625,-0.4051431119441986,0.6196984052658081,0.0695534199476242
1782836743202849300,5.458849365234375,-0.46484559774398804,0.46578556299209595,-0.043098825961351395
1782836743212779500,5.468779541015625,-0.5504363179206848,0.5037492513656616,-0.08853183686733246
1782836743222708500,5.47870849609375,-0.5514011979103088,0.5708034038543701,-0.10008329898118973
1782836743232637400,5.488637451171875,-0.340462863445282,0.5914292931556702,-0.12299127876758575
1782836743242566700,5.498566650390625,-0.021728292107582092,0.6752640008926392,-0.15316303074359894
1782836743252496400,5.508496337890625,0.27081722021102905,0.917762815952301,-0.20768599212169647
1782836743262425300,5.51842529296875,0.43072593212127686,1.2836710214614868,-0.38856470584869385
1782836743272354600,5.5283544921875,0.49204960465431213,1.5731228590011597,-0.7153958082199097
1782836743282283500,5.538283447265625,0.5757055878639221,1.4837242364883423,-0.9913253784179688
1782836743292213500,5.548213623046875,0.6659280061721802,1.072601318359375,-1.103838324546814
1782836743302142700,5.558142822265625,0.7018596529960632,0.6276499629020691,-0.9650940299034119
1782836743312071700,5.56807177734375,0.6663892269134521,0.18102483451366425,-0.6464195251464844
1782836743322000400,5.57800048828125,0.5827745199203491,-0.31378355622291565,-0.2934633791446686
1782836743331930400,5.587930419921875,0.4992985725402832,-0.9054118394851685,0.08613254874944687
1782836743341859600,5.597859619140625,0.4000590741634369,-1.4329310655593872,0.40107929706573486
1782836743351788500,5.60778857421875,0.2946179509162903,-1.751618504524231,0.5442914962768555
1782836743361717500,5.617717529296875,0.3015379011631012,-1.8132978677749634,0.5923564434051514
1782836743371647500,5.6276474609375,0.4460373520851135,-1.6380411386489868,0.6480880975723267
1782836743381576400,5.637576416015625,0.575798511505127,-1.359066128730774,0.6316395998001099
1782836743391505400,5.64750537109375,0.5885964632034302,-1.1372337341308594,0.5263662934303284
1782836743401434400,5.657434326171875,0.47054919600486755,-0.9812852144241333,0.35555484890937805
1782836743411364600,5.667364501953125,0.2468278706073761,-0.9503018856048584,0.08000673353672028
1782836743421293600,5.67729345703125,-0.010305121541023254,-1.068664312362671,-0.2604144811630249
1782836743431222500,5.687222412109375,-0.20589148998260498,-1.2495027780532837,-0.5816619396209717
1782836743441151700,5.69715185546875,-0.2685016095638275,-1.2844480276107788,-0.7699573040008545
1782836743451081500,5.70708154296875,-0.2649414539337158,-1.101154088973999,-0.7686706781387329
1782836743461010400,5.717010498046875,-0.25221583247184753,-0.774767279624939,-0.5974217057228088
1782836743470939400,5.726939453125,-0.20537643134593964,-0.3681643307209015,-0.2694326639175415
1782836743480869600,5.73686962890625,-0.13359704613685608,-0.019177405163645744,0.16476094722747803
1782836743490798600,5.746798583984375,-0.07428044080734253,0.19101618230342865,0.6280362010002136
1782836743500727300,5.756727294921875,-0.07491879910230637,0.3806239366531372,1.016533613204956
1782836743510656500,5.766656494140625,-0.15878523886203766,0.5264858603477478,1.2795573472976685
1782836743520586500,5.77658642578125,-0.3208844065666199,0.5744373798370361,1.364773154258728
1782836743530515500,5.786515380859375,-0.5038949847221375,0.5779150128364563,1.2729518413543701
1782836743540444700,5.796444580078125,-0.6367683410644531,0.5487443804740906,1.0728660821914673
1782836743550373600,5.80637353515625,-0.7097216248512268,0.5115617513656616,0.8316197395324707
1782836743560303400,5.816303466796875,-0.7335715293884277,0.5253705382347107,0.5716102719306946
1782836743570232300,5.826232421875,-0.7078139781951904,0.5642474293708801,0.33292001485824585
1782836743580161500,5.83616162109375,-0.6382948160171509,0.5711330771446228,0.16348624229431152
1782836743590090500,5.846090576171875,-0.528843879699707,0.580245852470398,0.12301449477672577
1782836743600020500,5.8560205078125,-0.39645442366600037,0.6060732007026672,0.22142629325389862
1782836743609950000,5.865949951171875,-0.23885074257850647,0.49435606598854065,0.4482360780239105
1782836743619878700,5.875878662109375,-0.09657908976078033,0.17353412508964539,0.7293777465820312
1782836743629809000,5.885808837890625,-0.004172550514340401,-0.1615631878376007,0.9833463430404663
1782836743639737900,5.89573779296875,0.03302515298128128,-0.3881782293319702,1.1362758874893188
1782836743649666800,5.905666748046875,0.0003885645419359207,-0.4463602602481842,1.1377747058868408
1782836743659595800,5.915595703125,-0.08281631022691727,-0.3136456310749054,1.0103983879089355
1782836743669525800,5.92552587890625,-0.20834098756313324,-0.016397152096033096,0.7879163026809692
1782836743679454700,5.935454833984375,-0.34837374091148376,0.37587156891822815,0.5277212262153625
1782836743689383700,5.9453837890625,-0.45478466153144836,0.8149728178977966,0.27738940715789795
1782836743699312600,5.955312744140625,-0.4805299937725067,1.169058918952942,0.041386716067790985
1782836743709243000,5.965242919921875,-0.42661252617836,1.2294996976852417,-0.16053073108196259
1782836743719171800,5.975171875,-0.3245173394680023,0.9760661125183105,-0.30906131863594055
1782836743729100800,5.985100830078125,-0.20599696040153503,0.6541396379470825,-0.47261208295822144
1782836743739029800,5.99502978515625,-0.0833330973982811,0.3793586790561676,-0.626480221748352
1782836743748959700,6.004959716796875,0.032751694321632385,0.3088272511959076,-0.6673439145088196
1782836743758888700,6.014888671875,0.10931465029716492,0.3617280423641205,-0.5728200674057007
1782836743768818000,6.02481787109375,0.12654054164886475,0.4646407663822174,-0.37965822219848633
1782836743778748000,6.034747802734375,0.10366691648960114,0.3565012216567993,-0.23108819127082825
1782836743788676900,6.0446767578125,0.11031784117221832,0.00907082948833704,-0.22901363670825958
1782836743798605600,6.05460546875,0.21220213174819946,-0.19033415615558624,-0.430325448513031
1782836743808534800,6.06453466796875,0.3858143389225006,-0.1313665360212326,-0.7518389821052551
1782836743818464800,6.07446484375,0.5618239641189575,-0.03603202849626541,-1.0369222164154053
1782836743828393700,6.084393798828125,0.6392298936843872,-0.05759696662425995,-1.1138542890548706
1782836743838323000,6.094322998046875,0.5037855505943298,-0.1476925164461136,-1.0144331455230713
1782836743848252000,6.104251953125,0.2515987157821655,-0.2161140888929367,-0.8422014713287354
1782836743858181600,6.114181640625,0.053858205676078796,-0.18434125185012817,-0.6339273452758789
1782836743868110800,6.12411083984375,0.00484898965805769,-0.03881280869245529,-0.4521215260028839
1782836743878039800,6.134039794921875,0.07966863363981247,0.06292207539081573,-0.31995388865470886
1782836743887968800,6.14396875,0.21340641379356384,-0.07880713790655136,-0.25339415669441223
1782836743897898800,6.153898681640625,0.2858545184135437,-0.4779913127422333,-0.33342960476875305
1782836743907828000,6.163827880859375,0.2928530275821686,-0.9262891411781311,-0.5389180779457092
1782836743917756700,6.173756591796875,0.31112417578697205,-1.250622034072876,-0.7386205196380615
1782836743927685600,6.183685546875,0.33818650245666504,-1.4398105144500732,-0.8948341608047485
1782836743937616000,6.193615966796875,0.3620487153530121,-1.4706509113311768,-0.9601109027862549
1782836743947544800,6.203544921875,0.3572593629360199,-1.3053767681121826,-0.8853819966316223
1782836743957473800,6.213473876953125,0.2734648883342743,-0.9619390368461609,-0.6752351522445679
1782836743967403800,6.22340380859375,0.13126470148563385,-0.5181443095207214,-0.3448028564453125
1782836743977332700,6.233332763671875,-0.037601009011268616,-0.09994625300168991,0.047121234238147736
1782836743987261700,6.24326171875,-0.19837301969528198,0.1425478309392929,0.38191092014312744
1782836743997190700,6.253190673828125,-0.3079935312271118,0.14941586554050446,0.635826051235199
1782836744007121000,6.263120849609375,-0.3747028708457947,-0.018080012872815132,0.7882882356643677
1782836744017049900,6.2730498046875,-0.38994014263153076,-0.22785349190235138,0.8278881311416626
1782836744026978800,6.282978759765625,-0.33290788531303406,-0.4080963432788849,0.7848294973373413
1782836744036908000,6.292907958984375,-0.24200966954231262,-0.5392128825187683,0.6524605751037598
1782836744046837800,6.302837646484375,-0.16003812849521637,-0.6047413945198059,0.43492013216018677
1782836744056766700,6.3127666015625,-0.1181572675704956,-0.48053425550460815,0.1476483792066574
1782836744066695700,6.32269580078125,-0.11572340130805969,-0.12518738210201263,-0.16967719793319702
1782836744076625000,6.332625,-0.13159051537513733,0.3833240270614624,-0.44203999638557434
1782836744086555000,6.342554931640625,-0.19241148233413696,0.7615134716033936,-0.6039673686027527
1782836744096483600,6.352483642578125,-0.2744874358177185,0.806759774684906,-0.569871187210083
1782836744106412800,6.362412841796875,-0.36611366271972656,0.6210693717002869,-0.35179129242897034
1782836744116342800,6.3723427734375,-0.4676504135131836,0.3519052267074585,-0.039343640208244324
1782836744126271700,6.382271728515625,-0.5454677939414978,0.06492321193218231,0.30867379903793335
1782836744136201000,6.392200927734375,-0.5623141527175903,-0.1966700404882431,0.6405750513076782
1782836744146130000,6.4021298828125,-0.520920991897583,-0.2832658290863037,0.8997238278388977
1782836744156059600,6.4120595703125,-0.47271624207496643,-0.2207837998867035,1.0672180652618408
1782836744165988600,6.421988525390625,-0.4464755356311798,-0.09832491725683212,1.0985088348388672
1782836744175917800,6.431917724609375,-0.41324302554130554,0.03263282775878906,0.9658596515655518
1782836744185846800,6.4418466796875,-0.37285032868385315,0.1238374412059784,0.7400265336036682
1782836744195776800,6.45177685546875,-0.32619521021842957,0.11636726558208466,0.5550316572189331
1782836744205706000,6.4617060546875,-0.33604875206947327,0.06026654690504074,0.46628081798553467
1782836744215635000,6.471635009765625,-0.5266900658607483,0.026928825303912163,0.42294371128082275
1782836744225564700,6.481564697265625,-0.8561462163925171,0.038793791085481644,0.3397834300994873
1782836744235494000,6.491493896484375,-1.054230809211731,0.08014442771673203,0.17149454355239868
1782836744245422800,6.5014228515625,-0.8966506123542786,0.17330193519592285,-0.16836167871952057
1782836744255351800,6.511351806640625,-0.40475067496299744,0.3564014434814453,-0.5388233661651611
1782836744265281800,6.52128173828125,0.11558316648006439,0.8137773871421814,-0.7037888765335083
1782836744275210800,6.531210693359375,0.29508739709854126,1.4172861576080322,-0.6514601707458496
1782836744285139700,6.5411396484375,0.288533091545105,1.613377571105957,-0.37280234694480896
1782836744295068700,6.551068603515625,0.29209771752357483,1.10642671585083,0.06453876942396164
1782836744304999000,6.5609990234375,0.3428054451942444,0.18177726864814758,0.5495112538337708
1782836744314927900,6.570927978515625,0.4616556763648987,-0.5317429900169373,0.985912024974823
1782836744324856800,6.58085693359375,0.5974035859107971,-0.8677020072937012,1.237732172012329
1782836744334785800,6.590785888671875,0.669356107711792,-0.9862398505210876,1.2309805154800415
1782836744344715800,6.6007158203125,0.6720976829528809,-1.0643160343170166,1.0339040756225586
1782836744354644700,6.610644775390625,0.6026392579078674,-1.2385408878326416,0.7408317923545837
1782836744364573700,6.62057373046875,0.453490287065506,-1.2957408428192139,0.3900109827518463
1782836744374504000,6.63050390625,0.3204811215400696,-1.0018510818481445,0.10115840286016464
1782836744384433000,6.640432861328125,0.26322364807128906,-0.47874248027801514,-0.030529338866472244
1782836744394361900,6.65036181640625,0.16423875093460083,0.022480417042970657,-0.07200940698385239
1782836744404290600,6.66029052734375,-0.048592228442430496,0.33318519592285156,-0.11350688338279724
1782836744414220800,6.670220703125,-0.3006202280521393,0.3987455666065216,-0.19572027027606964
1782836744424149800,6.680149658203125,-0.517835259437561,0.30298522114753723,-0.3348380923271179
1782836744434078700,6.69007861328125,-0.6432687640190125,0.12621310353279114,-0.5153192281723022
1782836744444008000,6.700008056640625,-0.660099983215332,-0.14171193540096283,-0.6878955364227295
1782836744453937700,6.709937744140625,-0.5671719312667847,-0.4959419369697571,-0.785955548286438
1782836744463866600,6.71986669921875,-0.3930925130844116,-0.7888326048851013,-0.7600013017654419
1782836744473795800,6.7297958984375,-0.23510552942752838,-0.8586910367012024,-0.6767524480819702
1782836744483725800,6.739725830078125,-0.12508445978164673,-0.8390635848045349,-0.5517655611038208
1782836744493654800,6.74965478515625,-0.0744609534740448,-0.7528030276298523,-0.4042818248271942
1782836744503584000,6.759583984375,-0.09235405176877975,-0.5393438935279846,-0.2259325385093689
1782836744513513000,6.769512939453125,-0.13727810978889465,-0.2707068622112274,-0.02202495187520981
1782836744523442700,6.779442626953125,-0.19037531316280365,-0.01772075518965721,0.19373497366905212
1782836744533371600,6.78937158203125,-0.26252806186676025,0.16878467798233032,0.3937671482563019
1782836744543300900,6.79930078125,-0.36541247367858887,0.28177428245544434,0.5484976768493652
1782836744553229800,6.809229736328125,-0.41341033577919006,0.3188084661960602,0.6321752667427063
1782836744563159800,6.819159912109375,-0.36702960729599,0.3190286457538605,0.6194981336593628
1782836744573088800,6.8290888671875,-0.27311375737190247,0.2677507996559143,0.551121711730957
1782836744583017700,6.839017822265625,-0.17188997566699982,0.20745208859443665,0.4634667634963989
1782836744592946700,6.84894677734375,-0.08431936800479889,0.19582392275333405,0.3393493592739105
1782836744602877000,6.858876953125,-0.016457989811897278,0.20948994159698486,0.1940065622329712
1782836744612809500,6.8688095703125,0.04266178607940674,0.22334663569927216,0.06961910426616669
1782836744622738700,6.87873876953125,0.09648356586694717,0.24254190921783447,-0.004034268669784069
1782836744632668400,6.88866845703125,0.12750087678432465,0.24580508470535278,-0.030812885612249374
1782836744642597400,6.898597412109375,0.13801482319831848,0.2031591534614563,0.03564973920583725
1782836744652526600,6.908526611328125,0.13430237770080566,0.214110866189003,0.1944468468427658
1782836744662455600,6.91845556640625,0.11335048079490662,0.29790377616882324,0.40959271788597107
1782836744672385500,6.928385498046875,0.09096342325210571,0.4007127285003662,0.6226953864097595
1782836744682314500,6.938314453125,0.06700067222118378,0.4660377502441406,0.7905459403991699
1782836744692243500,6.948243408203125,0.0779515951871872,0.4532867968082428,0.8686889410018921
1782836744702172400,6.95817236328125,0.09832940250635147,0.35995450615882874,0.8413624167442322
1782836744712102400,6.968102294921875,0.08832869678735733,0.19993846118450165,0.7046090960502625
1782836744722031600,6.978031494140625,0.10675974190235138,0.05328604578971863,0.44013574719429016
1782836744731960600,6.987960693359375,0.17629967629909515,0.09417222440242767,0.09062168747186661
1782836744741890300,6.997890380859375,0.2896300256252289,0.3065889775753021,-0.31279078125953674
1782836744751819500,7.007819580078125,0.4089771807193756,0.37901735305786133,-0.6402296423912048
1782836744761748500,7.01774853515625,0.50093674659729,0.24336206912994385,-0.7411791086196899
1782836744771677400,7.027677490234375,0.5001404881477356,0.046441808342933655,-0.5405461192131042
1782836744781607400,7.037607421875,0.35045722126960754,-0.17415788769721985,-0.13564781844615936
1782836744791536600,7.04753662109375,0.18587838113307953,-0.21136412024497986,0.3567197918891907
1782836744801465600,7.057465576171875,0.16327142715454102,-0.05167987197637558,0.7439446449279785
1782836744811394600,7.06739453125,0.21111617982387543,0.014599813148379326,0.7975402474403381
1782836744821324500,7.077324462890625,0.2763849198818207,0.11745623499155045,0.5104769468307495
1782836744831253500,7.08725341796875,0.32967475056648254,0.21713010966777802,0.018274962902069092
1782836744841182500,7.097182373046875,0.4050320088863373,0.14613963663578033,-0.4647512435913086
1782836744851112700,7.10711279296875,0.5146933197975159,-0.16897650063037872,-0.7994176745414734
1782836744861041700,7.117041748046875,0.5732855200767517,-0.6676313877105713,-0.9929693937301636
1782836744870970400,7.126970458984375,0.6076619029045105,-0.8985085487365723,-1.0129427909851074
1782836744880899300,7.1368994140625,0.6140543222427368,-0.8175210356712341,-0.9020724296569824
1782836744890829600,7.14682958984375,0.574069619178772,-0.6311002969741821,-0.7698310613632202
1782836744900758500,7.156758544921875,0.46797651052474976,-0.37990570068359375,-0.6124868392944336
1782836744910687500,7.1666875,0.290057897567749,-0.055813368409872055,-0.42674359679222107
1782836744920616400,7.176616455078125,0.028258059173822403,0.23154716193675995,-0.28472357988357544
1782836744930546400,7.18654638671875,-0.2548641860485077,0.37511390447616577,-0.23981334269046783
1782836744940475400,7.196475341796875,-0.4349699914455414,0.39683759212493896,-0.31030264496803284
1782836744950404400,7.206404296875,-0.48137450218200684,0.30771756172180176,-0.44561251997947693
1782836744960334600,7.21633447265625,-0.42129048705101013,0.11020378023386002,-0.5602172613143921
1782836744970263600,7.226263671875,-0.2864072322845459,-0.13989819586277008,-0.608481764793396
1782836744980192500,7.236192626953125,-0.1130017340183258,-0.36509257555007935,-0.5800966024398804
1782836744990121700,7.246121826171875,0.028233688324689865,-0.5008479952812195,-0.5035576224327087
1782836745000051500,7.256051513671875,0.09932942688465118,-0.5564333200454712,-0.3770824372768402
1782836745009980400,7.26598046875,0.09863513708114624,-0.43909549713134766,-0.22593523561954498
1782836745019909600,7.27590966796875,0.034730467945337296,-0.20066286623477936,-0.08519390225410461
1782836745029838600,7.285838623046875,-0.0710098147392273,0.04228266328573227,0.02519359067082405
1782836745039768600,7.2957685546875,-0.19765792787075043,0.23352009057998657,0.07006359845399857
1782836745049697300,7.305697265625,-0.284162700176239,0.3772170841693878,0.06825052201747894
1782836745059626500,7.31562646484375,-0.30891522765159607,0.46098223328590393,0.05307147651910782
1782836745069556500,7.325556396484375,-0.28849223256111145,0.47785282135009766,0.02354048378765583
1782836745079485400,7.3354853515625,-0.2400147020816803,0.4501285254955292,0.005827534943819046
1782836745089414700,7.34541455078125,-0.1987365186214447,0.3679409623146057,0.012611404061317444
1782836745099343600,7.355343505859375,-0.1394338309764862,0.2756802439689636,0.06284008175134659
1782836745109273300,7.3652734375,-0.07860696315765381,0.3004721403121948,0.1373092532157898
1782836745119202600,7.37520263671875,-0.072598397731781,0.365928590297699,0.18578344583511353
1782836745129131500,7.385131591796875,-0.11174366623163223,0.4126819670200348,0.21331733465194702
1782836745139060500,7.395060546875,-0.13105624914169312,0.41601890325546265,0.25021466612815857
1782836745148990500,7.404990478515625,-0.11681420356035233,0.3735736906528473,0.2805382311344147
1782836745158919700,7.414919677734375,-0.10080586373806,0.27009913325309753,0.299713134765625
1782836745168848600,7.4248486328125,-0.07874077558517456,0.10781808197498322,0.30784884095191956
1782836745178778400,7.4347783203125,-0.025014376267790794,-0.1175478845834732,0.3760879635810852
1782836745188707600,7.44470751953125,0.03724686801433563,-0.29207146167755127,0.5495755672454834
1782836745198636500,7.454636474609375,0.0764310210943222,-0.21231061220169067,0.7738816142082214
1782836745208565500,7.4645654296875,0.07579293102025986,0.059554196894168854,0.9620395302772522
1782836745218495500,7.47449560546875,0.08062689006328583,0.22647057473659515,0.9853006601333618
1782836745228424400,7.484424560546875,0.14031179249286652,0.04043731838464737,0.7791091203689575
1782836745238353400,7.494353515625,0.3075081408023834,-0.4334169924259186,0.3882082998752594
1782836745248283400,7.504283447265625,0.5527900457382202,-0.7020593285560608,-0.02068946696817875
1782836745258212600,7.514212646484375,0.73398357629776,-0.5490704774856567,-0.289985716342926
1782836745268141600,7.5241416015625,0.737125039100647,-0.00696518225595355,-0.31924161314964294
1782836745278070500,7.534070556640625,0.5664085149765015,0.6133363246917725,-0.1564248949289322
1782836745288000500,7.54400048828125,0.3705782890319824,0.893634557723999,0.05900406464934349
1782836745297929500,7.553929443359375,0.2799602150917053,0.7199501991271973,0.1779407262802124
1782836745307858400,7.5638583984375,0.2864125072956085,0.30999913811683655,0.08584967255592346
1782836745317787400,7.573787353515625,0.3418267071247101,-0.08459996432065964,-0.15373128652572632
1782836745327717600,7.583717529296875,0.40015366673469543,-0.42684200406074524,-0.47752854228019714
1782836745337646600,7.593646484375,0.4187135398387909,-0.7089701890945435,-0.7584969997406006
1782836745347575600,7.603575439453125,0.390912264585495,-0.7383403182029724,-0.8559849262237549
1782836745357505500,7.613505615234375,0.32196301221847534,-0.5436326861381531,-0.8351337909698486
1782836745367434500,7.6234345703125,0.28632593154907227,-0.35684892535209656,-0.797512948513031
1782836745377363500,7.633363525390625,0.35572686791419983,-0.2393186241388321,-0.6706485152244568
1782836745387292400,7.64329248046875,0.470925897359848,-0.2352578341960907,-0.4695199131965637
1782836745397222400,7.653222412109375,0.5196375250816345,-0.36793068051338196,-0.2382822185754776
1782836745407151400,7.6631513671875,0.4500347673892975,-0.5436024069786072,-0.010961970314383507
1782836745417080300,7.673080322265625,0.26051050424575806,-0.6373307704925537,0.14440687000751495
1782836745427010600,7.683010498046875,0.010067105293273926,-0.7031739950180054,0.17011277377605438
1782836745436939500,7.692939453125,-0.16183288395404816,-0.7176311612129211,0.09140194952487946
1782836745446868500,7.702868408203125,-0.1786733865737915,-0.5938815474510193,-0.05543090030550957
1782836745456797700,7.712797607421875,-0.05675757676362991,-0.4108296036720276,-0.20539116859436035
1782836745466727400,7.7227275390625,0.07960638403892517,-0.22662460803985596,-0.3156798779964447
1782836745476656400,7.732656494140625,0.18326213955879211,-0.03635866940021515,-0.3519330322742462
1782836745486585600,7.742585693359375,0.22249849140644073,0.12552504241466522,-0.33907341957092285
1782836745496514600,7.7525146484375,0.17650918662548065,0.20873244106769562,-0.3069825768470764
1782836745506444500,7.762444580078125,0.09870120882987976,0.21792328357696533,-0.2500697374343872
1782836745516373500,7.77237353515625,0.028594303876161575,0.23828187584877014,-0.15969395637512207
1782836745526302500,7.782302490234375,-0.02535654976963997,0.2760521471500397,-0.029434744268655777
1782836745536232400,7.792232421875,-0.08376368880271912,0.2570352256298065,0.09957525134086609
1782836745546161400,7.802161376953125,-0.1709049791097641,0.22309242188930511,0.1945563554763794
1782836745556090600,7.812090576171875,-0.251649409532547,0.2324686348438263,0.25259724259376526
1782836745566019600,7.82201953125,-0.2849157452583313,0.2984532415866852,0.27333155274391174
1782836745575949300,7.83194921875,-0.3091159164905548,0.38379138708114624,0.22874212265014648
1782836745585878500,7.84187841796875,-0.28702524304389954,0.4484263062477112,0.11531355232000351
1782836745595807500,7.851807373046875,-0.18287914991378784,0.4865119457244873,0.028566254302859306
1782836745605737500,7.861737548828125,-0.04039763659238815,0.527095377445221,0.021800227463245392
1782836745615662600,7.87166259765625,0.042149920016527176,0.4720940887928009,0.06506659835577011
1782836745625591600,7.881591552734375,0.06889205425977707,0.3256623148918152,0.1502685844898224
1782836745635520500,7.8915205078125,0.05464760214090347,0.15322044491767883,0.2752929627895355
1782836745645450500,7.901450439453125,0.03380730003118515,0.10264436155557632,0.44199246168136597
1782836745655379500,7.91137939453125,-0.025006182491779327,0.1422007828950882,0.6017549633979797
1782836745665308400,7.921308349609375,-0.15886013209819794,0.08896765112876892,0.6941458582878113
1782836745675237400,7.9312373046875,-0.3020908832550049,-0.053006354719400406,0.706645131111145
1782836745685167600,7.941167724609375,-0.3958227038383484,-0.0981898084282875,0.649265468120575
1782836745695096600,7.9510966796875,-0.41405701637268066,0.09218914061784744,0.5606184005737305
1782836745705025500,7.961025634765625,-0.41059625148773193,0.43534916639328003,0.36694931983947754
1782836745714955500,7.97095556640625,-0.3806072473526001,0.7741159200668335,0.028650663793087006
1782836745724884500,7.980884521484375,-0.31471824645996094,0.9400745630264282,-0.31200864911079407
1782836745734813400,7.9908134765625,-0.2488236278295517,0.9327329993247986,-0.5107129216194153
1782836745744742400,8.000742431640624,-0.22295020520687103,0.7741873264312744,-0.4704704284667969
1782836745754672600,8.010672607421874,-0.26098740100860596,0.5720393657684326,-0.2132018655538559
1782836745764601300,8.020601318359375,-0.29240790009498596,0.49943193793296814,0.14695045351982117
1782836745774530300,8.0305302734375,-0.27815037965774536,0.39551082253456116,0.45887333154678345
1782836745784460500,8.04046044921875,-0.1942424327135086,0.13498547673225403,0.5800508856773376
1782836745794389500,8.050389404296874,-0.08467217534780502,-0.1764429807662964,0.5070337653160095
1782836745804318500,8.060318359375,-0.017827365547418594,-0.39017418026924133,0.3233243525028229
1782836745814247700,8.07024755859375,-0.020025677978992462,-0.4049403667449951,0.09642999619245529
1782836745824177400,8.080177490234375,-0.05532721057534218,-0.25663188099861145,-0.12218037247657776
1782836745834106400,8.0901064453125,-0.06405241787433624,-0.1317814141511917,-0.2706964910030365
1782836745844035300,8.100035400390626,-0.01733764261007309,-0.22258694469928741,-0.34551721811294556
1782836745853965600,8.109965576171875,0.0402376726269722,-0.554178774356842,-0.42121854424476624
1782836745863894500,8.11989453125,0.09523168206214905,-0.9473990201950073,-0.5025328397750854
1782836745873823500,8.129823486328124,0.15653008222579956,-1.0675586462020874,-0.545019805431366
1782836745883752700,8.139752685546876,0.26867178082466125,-0.928931474685669,-0.5098665952682495
1782836745893682400,8.149682373046875,0.3797391355037689,-0.632079005241394,-0.36835622787475586
1782836745903611400,8.159611328125,0.4596827030181885,-0.32641443610191345,-0.16509684920310974
1782836745913540600,8.16954052734375,0.5075521469116211,-0.0590948723256588,0.0418628491461277
1782836745923469600,8.179469482421876,0.5029779076576233,0.15649573504924774,0.19325371086597443
1782836745933399600,8.189399658203126,0.37319085001945496,0.30899128317832947,0.19983379542827606
1782836745943328500,8.19932861328125,0.149038165807724,0.3374199867248535,0.05143606662750244
1782836745953257500,8.209257568359375,-0.08363258838653564,0.22195543348789215,-0.1929459273815155
1782836745963187500,8.2191875,-0.23257358372211456,0.05141112953424454,-0.4173752963542938
1782836745973116400,8.229116455078126,-0.3123251795768738,-0.11111670732498169,-0.5427591800689697
1782836745983045600,8.239045654296875,-0.38173142075538635,-0.2630002498626709,-0.5717804431915283
1782836745992974600,8.248974609375,-0.4514102041721344,-0.3066520392894745,-0.5402834415435791
1782836746002904300,8.258904296875,-0.45629099011421204,-0.23419487476348877,-0.4416833817958832
1782836746012833500,8.26883349609375,-0.39958456158638,-0.11497846990823746,-0.2884245812892914
1782836746022762500,8.278762451171875,-0.3052491545677185,-0.015431815758347511,-0.11042793095111847
1782836746032692500,8.2886923828125,-0.21670740842819214,0.02977503463625908,0.0664055123925209
1782836746042621700,8.29862158203125,-0.1516256183385849,0.04008492827415466,0.24509695172309875
1782836746052550700,8.308550537109374,-0.1307363361120224,0.043233804404735565,0.4001016318798065
1782836746062479600,8.318479736328126,-0.1508898138999939,0.05525318533182144,0.528150200843811
1782836746072409300,8.328409423828125,-0.16853073239326477,0.09764525294303894,0.6372935175895691
1782836746082338600,8.338338623046875,-0.199054554104805,0.15672267973423004,0.6934939026832581
1782836746092267500,8.348267578125,-0.24645063281059265,0.19895824790000916,0.6922237277030945
1782836746102197500,8.358197509765626,-0.2951880693435669,0.24501042068004608,0.6538350582122803
1782836746112126500,8.36812646484375,-0.332541286945343,0.3146408498287201,0.5694340467453003
1782836746122055400,8.378055419921875,-0.34794101119041443,0.33987241983413696,0.4600444734096527
1782836746131984400,8.387984375,-0.3406335115432739,0.31590303778648376,0.3438640236854553
1782836746141914600,8.39791455078125,-0.31742939352989197,0.25972577929496765,0.2687833905220032
1782836746151843600,8.407843505859375,-0.322108656167984,0.19158697128295898,0.21784591674804688
1782836746161772500,8.4177724609375,-0.3730754256248474,0.12043342739343643,0.18821319937705994
1782836746171701500,8.427701416015625,-0.4566747546195984,0.07631030678749084,0.22116605937480927
1782836746181631500,8.437631591796874,-0.5466762781143188,0.12052837014198303,0.30049389600753784
1782836746191560400,8.447560546875,-0.6082358360290527,0.20226642489433289,0.41738033294677734
1782836746201489400,8.457489501953125,-0.6038288474082947,0.29674577713012695,0.5581616759300232
1782836746211419600,8.467419677734375,-0.525477409362793,0.470978319644928,0.6600573658943176
1782836746221348600,8.4773486328125,-0.3804408013820648,0.6682292819023132,0.6272671818733215
1782836746231277600,8.487277587890626,-0.17780056595802307,0.715746283531189,0.40736398100852966
1782836746241206500,8.49720654296875,0.043530747294425964,0.6330860257148743,0.08696628361940384
1782836746251136500,8.507136474609375,0.2654082477092743,0.5274500250816345,-0.26987218856811523
1782836746261065500,8.5170654296875,0.45406392216682434,0.24591879546642303,-0.5749844312667847
1782836746270994400,8.526994384765626,0.5949713587760925,0.0006698789075016975,-0.6958780288696289
1782836746280924700,8.536924560546876,0.6236479878425598,-0.14562901854515076,-0.6316418051719666
1782836746290853400,8.546853271484375,0.483369916677475,-0.21163435280323029,-0.4990580976009369
1782836746300782300,8.5567822265625,0.24465829133987427,-0.20496766269207,-0.39171966910362244
1782836746310711300,8.566711181640626,-0.008831292390823364,-0.22099259495735168,-0.4206971526145935
1782836746320641500,8.5766416015625,-0.030910762026906013,-0.16145551204681396,-0.5646266341209412
1782836746330570500,8.586570556640625,0.21511034667491913,-0.2740468680858612,-0.6642613410949707
1782836746340499500,8.59649951171875,0.5234266519546509,-0.5935398936271667,-0.7249995470046997
1782836746350429400,8.606429443359374,0.709537923336029,-0.9076791405677795,-0.7748860716819763
1782836746360358400,8.6163583984375,0.8076386451721191,-1.0840895175933838,-0.8084482550621033
1782836746370287400,8.626287353515625,0.8981884717941284,-0.9902051687240601,-0.8024449944496155
1782836746380216600,8.636216552734375,0.9899638891220093,-0.8007883429527283,-0.7352798581123352
1782836746390146600,8.646146484375,1.0434982776641846,-0.6528810262680054,-0.6024788618087769
1782836746400075500,8.656075439453126,1.0364936590194702,-0.5429118871688843,-0.4608633518218994
1782836746410004700,8.666004638671875,0.8855556845664978,-0.44690367579460144,-0.37538936734199524
1782836746419934500,8.6759345703125,0.5516831874847412,-0.3673452138900757,-0.451058030128479
1782836746429863400,8.685863525390625,0.15401127934455872,-0.3342999815940857,-0.7039657831192017
1782836746439792400,8.69579248046875,-0.15811891853809357,-0.3099682927131653,-1.080089807510376
1782836746449721600,8.7057216796875,-0.32435011863708496,-0.46248599886894226,-1.4713993072509766
1782836746459651600,8.715651611328125,-0.345676451921463,-0.7826430201530457,-1.7358081340789795
1782836746469580300,8.725580322265625,-0.2932514548301697,-1.120828628540039,-1.7975375652313232
1782836746479509500,8.735509521484374,-0.18360914289951324,-1.255707025527954,-1.6274009943008423
1782836746489439500,8.745439453125,-0.058957576751708984,-1.0623102188110352,-1.2825665473937988
1782836746499368400,8.755368408203125,0.0482461079955101,-0.6398734450340271,-0.842251718044281
1782836746509297700,8.765297607421875,0.11935137212276459,-0.22396846115589142,-0.3866058886051178
1782836746519226600,8.7752265625,0.12812383472919464,0.027563899755477905,0.01739298552274704
1782836746529156400,8.78515625,0.10650165379047394,0.07100236415863037,0.37885943055152893
1782836746539085300,8.795085205078125,0.08252096176147461,0.04660594463348389,0.7005828619003296
1782836746549014500,8.8050146484375,0.0500238835811615,-0.008960024453699589,0.9549792408943176
1782836746558944500,8.814944580078125,-0.04516734927892685,-0.12104582041501999,1.0643408298492432
1782836746568873500,8.82487353515625,-0.18050017952919006,-0.2562648355960846,0.9943892955780029
1782836746578802700,8.834802734375,-0.3273572325706482,-0.3433811068534851,0.7264966368675232
1782836746588731600,8.844731689453125,-0.40823572874069214,-0.30039578676223755,0.31483951210975647
1782836746598661400,8.854661376953125,-0.38331225514411926,-0.077585868537426,-0.1028141975402832
1782836746608590600,8.864590576171874,-0.2732733190059662,0.22264494001865387,-0.4202360212802887
1782836746618519300,8.874519287109376,-0.1390705108642578,0.4758385717868805,-0.5746056437492371
1782836746628449500,8.884449462890625,0.0029233666136860847,0.5926220417022705,-0.5402956008911133
1782836746638378500,8.89437841796875,0.11912347376346588,0.5425082445144653,-0.29775938391685486
1782836746648307200,8.90430712890625,0.18530870974063873,0.37323808670043945,0.12038342654705048
1782836746658236400,8.914236328125,0.1759365200996399,0.20353318750858307,0.6343945264816284
1782836746668166400,8.92416650390625,0.10893234610557556,0.09882108122110367,1.1440646648406982
1782836746678095400,8.934095458984375,0.015864185988903046,0.07833205163478851,1.5890032052993774
1782836746688024600,8.944024658203125,-0.11663977801799774,0.0671948492527008,1.8055049180984497
1782836746697953500,8.95395361328125,-0.20383858680725098,0.03232181444764137,1.7547634840011597
1782836746707883300,8.96388330078125,-0.2051147073507309,0.07733917981386185,1.5035797357559204
1782836746717812200,8.973812255859375,-0.18547017872333527,0.2808891236782074,1.084627389907837
1782836746727741400,8.983741455078125,-0.21594281494617462,0.59239661693573,0.5520132184028625
1782836746737671400,8.99367138671875,-0.2256452441215515,0.7646399736404419,0.05157223343849182
1782836746747600400,9.003600341796876,-0.12018928676843643,0.7202103734016418,-0.27190548181533813
1782836746757529600,9.013529541015625,0.08976128697395325,0.5560643076896667,-0.34911078214645386
1782836746767458600,9.02345849609375,0.273223340511322,0.34916016459465027,-0.11759988218545914
1782836746777388300,9.03338818359375,0.24902214109897614,0.36998316645622253,0.3010333180427551
1782836746787317500,9.0433173828125,0.0024478211998939514,0.6268945932388306,0.7390967607498169
1782836746797246500,9.05324658203125,-0.3199211657047272,0.7652652859687805,1.030271053314209
1782836746807176400,9.063176513671875,-0.48237454891204834,0.5298479199409485,1.0704528093338013
1782836746817105400,9.07310546875,-0.3979659080505371,0.09290783852338791,0.825405478477478
1782836746827034400,9.083034423828124,-0.23454546928405762,-0.32488828897476196,0.37241867184638977
1782836746836963300,9.09296337890625,-0.18139784038066864,-0.5237710475921631,-0.1596931368112564
1782836746846893300,9.102893310546875,-0.289862722158432,-0.40347376465797424,-0.6641432046890259
1782836746856822500,9.112822509765625,-0.4416027069091797,-0.07826479524374008,-1.0364803075790405
1782836746866751500,9.12275146484375,-0.4922648072242737,0.1289009004831314,-1.2217416763305664
1782836746876681200,9.13268115234375,-0.44833409786224365,-0.11319614201784134,-1.2669190168380737
1782836746886610400,9.1426103515625,-0.32458817958831787,-0.4498595893383026,-1.135994791984558
1782836746896539400,9.152539306640625,-0.1962752342224121,-0.511798620223999,-0.8266451954841614
1782836746906469400,9.162469482421875,-0.11810938268899918,-0.30811426043510437,-0.43160879611968994
1782836746916398600,9.172398681640624,-0.04140980914235115,0.005818656645715237,-0.0842079445719719
1782836746926327600,9.18232763671875,0.05165639519691467,0.20077793300151825,0.15097258985042572
1782836746936256500,9.192256591796875,0.12091934680938721,0.08699224889278412,0.31522783637046814
1782836746946186200,9.202186279296875,0.18495163321495056,-0.22558508813381195,0.4735349714756012
1782836746956115500,9.212115478515624,0.19074907898902893,-0.5500752925872803,0.5836345553398132
1782836746966044400,9.22204443359375,0.06893093883991241,-0.7392550110816956,0.4761795103549957
1782836746975974400,9.231974365234375,-0.15158358216285706,-0.7504887580871582,0.07266479730606079
1782836746985903600,9.241903564453125,-0.3549736440181732,-0.5573675036430359,-0.543483555316925
1782836746995832300,9.251832275390624,-0.43242260813713074,-0.23242004215717316,-1.1487395763397217
1782836747005761300,9.26176123046875,-0.38859355449676514,0.22811266779899597,-1.5582082271575928
1782836747015691500,9.27169140625,-0.3183457553386688,0.6436291337013245,-1.6972953081130981
1782836747025620500,9.281620361328125,-0.28066709637641907,0.8517444133758545,-1.56847083568573
1782836747035549400,9.291549560546875,-0.2227337807416916,0.9206662178039551,-1.2015793323516846
1782836747045479400,9.3014794921875,-0.23832286894321442,0.8593823313713074,-0.7133055925369263
1782836747055408400,9.311408447265626,-0.31761953234672546,0.7551701664924622,-0.31151503324508667
1782836747065337300,9.32133740234375,-0.3214837610721588,0.7107985019683838,-0.0022598477080464363
1782836747075266300,9.331266357421875,-0.28522321581840515,0.7891311049461365,0.22872702777385712
1782836747085196500,9.341196533203124,-0.2101140320301056,0.8823797106742859,0.4212750196456909
1782836747095125500,9.35112548828125,-0.16391432285308838,0.9309602975845337,0.534904956817627
1782836747105054500,9.361054443359375,-0.16404877603054047,0.8356748223304749,0.5265042185783386
1782836747114984400,9.370984375,-0.14454405009746552,0.6194617748260498,0.36002999544143677
1782836747124913400,9.380913330078124,-0.07241000235080719,0.4045754671096802,-0.0006339880637824535
1782836747134842400,9.39084228515625,0.08373965322971344,0.2710877060890198,-0.4474860429763794
1782836747144771300,9.400771240234375,0.2747538089752197,0.43050751090049744,-0.8492517471313477
1782836747154701600,9.41070166015625,0.4043557643890381,0.6899797916412354,-1.08120858669281
1782836747164630500,9.420630615234375,0.43720337748527527,0.8470214009284973,-1.0574414730072021
1782836747174559200,9.430559326171876,0.4085720181465149,0.8631817102432251,-0.80790114402771
1782836747184489500,9.440489501953126,0.37421533465385437,0.7135806083679199,-0.3766760528087616
1782836747194418400,9.45041845703125,0.3407660126686096,0.4720982015132904,0.15887922048568726
1782836747204347400,9.460347412109375,0.29232513904571533,0.3220588266849518,0.6951714158058167
1782836747214276400,9.4702763671875,0.2570941746234894,0.29505038261413574,1.1564702987670898
1782836747224206300,9.480206298828126,0.2524182200431824,0.33932629227638245,1.5204718112945557
1782836747234135300,9.49013525390625,0.2530858516693115,0.42668142914772034,1.724623680114746
1782836747244064300,9.500064208984375,0.19730205833911896,0.5655962228775024,1.6686513423919678
1782836747253994500,9.509994384765625,0.1502019166946411,0.8271654844284058,1.3349934816360474
1782836747263923500,9.51992333984375,0.23105357587337494,1.1605942249298096,0.876897394657135
1782836747273852400,9.529852294921875,0.3423774540424347,1.643368124961853,0.8267796039581299
1782836747283781600,9.53978173828125,0.21368452906608582,1.6094574928283691,0.8350908160209656
1782836747293711400,9.54971142578125,0.002116619609296322,0.7110068202018738,0.44757080078125
1782836747303640300,9.559640380859374,-0.06122051924467087,-0.19475248456001282,-0.06286607682704926
1782836747313569300,9.5695693359375,0.04002168029546738,-0.5364083051681519,-0.3971220850944519
1782836747323499500,9.57949951171875,0.13618841767311096,-0.5519684553146362,-0.512971043586731
1782836747333428500,9.589428466796875,0.2130933254957199,-0.3818625211715698,-0.18080586194992065
1782836747343357400,9.599357421875,0.22686134278774261,-0.3219502866268158,0.5490425229072571
1782836747353286400,9.609286376953126,0.24462063610553741,-0.589678943157196,1.5457262992858887
