time,seconds_elapsed,z,y,x
1782829704296243200,0.0782431640625,0.83298636290133,0.11511311060637235,-0.04361231070067733
1782829704306172200,0.088172119140625,0.9678022451043128,0.215292563714087,-0.03484121268605813
1782829704316098800,0.098098876953125,1.0552946505963803,0.2258887765303254,0.00048086058581247926
1782829704326027800,0.10802783203125,1.251415188589692,0.20599691210240123,-0.030895945659000425
1782829704335956000,0.1179560546875,1.4535212307333945,0.17813991401419044,-0.1114908649886027
1782829704345885000,0.127885009765625,1.4609195242911577,0.0711712391577661,-0.15919778805915266
1782829704355813000,0.137813232421875,1.5333727660834788,-0.19684505287557838,-0.13676181037267668
1782829704365742000,0.1477421875,1.936523358619213,-0.41341728113666176,-0.07127809706572442
1782829704375670000,0.157669921875,2.4511031125515697,-0.41199776972755786,-0.1503494600898586
1782829704385599000,0.167598876953125,2.8762556935369967,-0.23120661055222153,-0.22309183928817508
1782829704395527000,0.17752685546875,3.387283307945728,-0.022550854504108427,-0.40927433611303565
1782829704405456000,0.187455810546875,3.984309874418378,0.2559448920980096,-0.5649778157830238
1782829704415383800,0.1973837890625,4.08926896301806,0.5603510327652096,-0.6844426918581128
1782829704425313000,0.20731298828125,3.7919273539096117,0.8826818294405937,-0.6805180657602846
1782829704435241000,0.217240966796875,3.033465778377652,1.1079659180760384,-0.30156386644598093
1782829704445170000,0.227169921875,2.177877707567811,1.133878650228679,0.01991626821681857
1782829704455097900,0.237097900390625,1.9918296507775783,1.2385618444964288,-0.07377507411376573
1782829704465026800,0.24702685546875,1.889944562795758,1.5658637075826525,-0.49446573465373367
1782829704474954800,0.256954833984375,1.5000398208022117,2.0271333116099237,-0.8327664365403353
1782829704484884000,0.266884033203125,0.907058730328083,2.255989121252298,-0.7233167585231364
1782829704494812000,0.27681201171875,0.21479016714990137,1.7868837090328336,-0.5731159313900396
1782829704504740900,0.286740966796875,-0.24558745647370814,0.8689791750416159,-0.5846994382105767
1782829704514669000,0.2966689453125,-0.41817222057878967,0.14873247161358594,-0.2929959811195731
1782829704524597800,0.30659765625,-1.0483289032369851,-0.13495178354233503,0.4917194316202774
1782829704534526000,0.31652587890625,-2.458568626126647,-0.07786269962042569,1.2679217944934964
1782829704544455000,0.326454833984375,-3.562528815692663,-0.21287176630795002,1.6139664981029926
1782829704554383000,0.336383056640625,-4.300582393968105,-0.7658844190090894,1.1932517534345388
1782829704564312000,0.34631201171875,-4.894276601147651,-1.1568643890187145,0.44713728950675574
1782829704574240000,0.356239990234375,-5.085243409639596,-0.9375063294313848,0.016899477678909897
1782829704584168000,0.36616796875,-4.848503861010074,-0.4044545147411525,-0.20891000480381772
1782829704594097000,0.376096923828125,-4.431936153018475,-0.23142566013038157,-0.2216130902388133
1782829704604024800,0.38602490234375,-4.224381782341003,-0.6232914730638265,-0.03296430376511998
1782829704613953800,0.395953857421875,-3.705354985871911,-0.983866952459514,0.2110916414255276
1782829704623881700,0.4058818359375,-3.108196317452192,-1.0246975600197912,0.47846941635962575
1782829704633811000,0.41581103515625,-2.4794442408949133,-1.1547880211360753,0.5486708606371655
1782829704643739000,0.42573876953125,-1.7255489503651857,-1.209745207595825,0.4082043322613463
1782829704653667800,0.435667724609375,-1.394099319949746,-1.0988283796355127,0.30647070851419117
1782829704663596000,0.445595947265625,-1.2874737594425678,-1.1512174691729247,0.4153956320049241
1782829704673524700,0.455524658203125,-0.9240373376578092,-1.253513622173667,0.4611786378081888
1782829704683453000,0.465452880859375,-0.5489946492314338,-1.1580388396255672,0.3820314878677949
1782829704693382100,0.475382080078125,-0.297908595341444,-1.061264957177639,0.25254127593329173
1782829704703310000,0.48531005859375,-0.1504185250043869,-1.0864663261905312,0.11468040914437733
1782829704713239000,0.495239013671875,-0.05467968469262123,-1.1948591886311768,0.035193798116547985
1782829704723167000,0.5051669921875,0.0017383680999279022,-1.2743382374070584,0.04171327214632183
1782829704733096000,0.515095947265625,-0.13258300858438013,-1.3558479152277112,0.0400428912486881
1782829704743023900,0.52502392578125,0.023341712620854375,-1.3924134126894174,-0.025258734356472266
1782829704752952800,0.534952880859375,0.19205285016298293,-1.3019538279548286,-0.08546126499064266
1782829704762881000,0.544881103515625,0.2176899802446365,-1.250385553281009,-0.13868187344875185
1782829704772810000,0.55481005859375,0.36322599390447136,-1.2998060022711753,-0.21857458105944097
1782829704782738000,0.564738037109375,0.30944179674685,-1.3130493685953317,-0.17898341563362627
1782829704792667000,0.5746669921875,0.08609598269760609,-1.3632899017967284,-0.08016251926170662
1782829704802594800,0.5845947265625,0.01998188079893589,-1.5147566206797956,0.04901568584786728
1782829704812523800,0.594523681640625,0.16560148108899592,-1.4409218614012003,-0.04510267712259665
1782829704822451700,0.60445166015625,0.15386720415353775,-1.2399848630368708,-0.21064453697884455
1782829704832381000,0.614380859375,0.11499182231426239,-1.2869938669711352,-0.2940170495293103
1782829704842309000,0.62430908203125,0.11766776352524756,-1.396659818087518,-0.3818905084945261
1782829704852237800,0.63423779296875,0.22054186254441738,-1.3635633119106292,-0.3914372487904504
1782829704862166000,0.644166015625,0.4107452854484319,-1.350335289286077,-0.33825770299509167
1782829704872095000,0.654094970703125,0.40274493434429165,-1.4038798324689268,-0.26530140705145894
1782829704882023000,0.66402294921875,0.5049661224126816,-1.3887684803158045,-0.32308453765213485
1782829704891952000,0.6739521484375,0.605863952922821,-1.2438792401269076,-0.39503019524849947
1782829704901880000,0.683880126953125,0.46037470101416106,-1.1928523057881741,-0.36348749438486994
1782829704911808000,0.69380810546875,0.32734277961850167,-1.2298103827640414,-0.23745429103644564
1782829704921737000,0.703737060546875,0.2643903566211462,-1.211572349957749,-0.32951453416701404
1782829704931665000,0.713664794921875,0.07711188125312328,-1.173520851721987,-0.495989035230875
1782829704941593900,0.72359375,-0.014736965882778168,-1.1600111626118421,-0.5802124289896339
1782829704951521800,0.733521728515625,-0.06327975525557994,-1.1013485457628964,-0.5129303062248974
1782829704961450800,0.74345068359375,-0.026331542086601257,-0.9993674500606954,-0.3881000306591391
1782829704971379000,0.75337890625,-0.0061859951585531234,-0.9110052759967744,-0.27133973736763
1782829704981308000,0.763307861328125,-0.16498539501726625,-0.8585669404901564,-0.15581811902560294
1782829704991236000,0.773236083984375,-0.37156712127029895,-0.8495042208515107,-0.07806735534705221
1782829705001164800,0.783164794921875,-0.5762281085938215,-0.8406190497368574,-0.02643876532074064
1782829705011093000,0.793093017578125,-0.7498316943526268,-0.8542851715177298,0.026495354346185922
1782829705021022000,0.80302197265625,-0.9206576320916414,-0.7967179486900567,-0.0119757392748259
1782829705030950000,0.812949951171875,-1.0945207455694674,-0.7509254809387028,-0.15708751790691167
1782829705040879000,0.822879150390625,-1.3729583322435617,-0.7231827568799257,-0.2652504075165838
1782829705050807000,0.83280712890625,-1.6376368581563234,-0.7715291468977927,-0.19453929668385533
1782829705060736000,0.842736083984375,-1.7765905708163976,-0.7850662354715168,-0.04963712394814938
1782829705070664000,0.852663818359375,-2.0124428152173754,-0.6746946203038096,0.08510529115982353
1782829705080593000,0.862593017578125,-2.266532142576575,-0.6455293160960078,0.16500808177310972
1782829705090520800,0.872520751953125,-2.4881448492228984,-0.6160781806841492,0.24119280171133575
1782829705100450000,0.882449951171875,-2.548795425018668,-0.5355788489498198,0.2751410841456614
1782829705110378000,0.8923779296875,-2.3813655594587324,-0.33792671747505665,0.2942302356222644
1782829705120307000,0.902306884765625,-2.0107365958213803,-0.1410828336432576,0.2567486827615648
1782829705130235000,0.91223486328125,-1.4523451726913452,0.04156549770608544,0.25454182036705314
1782829705140163800,0.922163818359375,-0.8903747220307588,0.16141045913994312,0.3636880949908867
1782829705150091800,0.932091796875,-0.3460632621794939,0.1609986634686589,0.2771551821807399
1782829705160020700,0.942020751953125,0.21841128025650977,0.23916619125455615,0.31913433872163294
1782829705169949000,0.951948974609375,0.661435618019104,0.3139376468613744,0.4590703038847074
1782829705179878000,0.9618779296875,0.8963783463597297,0.2606220901288092,0.6139170571275055
1782829705189806000,0.97180615234375,0.9453238713145256,0.13555837113335728,0.7486535904839634
1782829705199735000,0.981735107421875,0.9057049776315689,0.13311565415635704,0.7600289709791541
1782829705209663000,0.9916630859375,1.0678419974803923,0.32177856962010265,0.6554661151554435
1782829705219592000,1.001592041015625,1.079618359991908,0.535791030395776,0.5281534847220406
1782829705229520000,1.011519775390625,1.0675281092256308,0.604089490596205,0.49810376236252485
1782829705239449000,1.021448974609375,1.0921581080913543,0.6292549115128815,0.42386093373969197
1782829705249377000,1.031376953125,1.1315542989343403,0.6975611166283487,0.3977996964944526
1782829705259306000,1.041305908203125,1.1534773769289255,0.6746300306349993,0.4326921096447855
1782829705269234000,1.05123388671875,1.2386416317343711,0.6665434625521302,0.5054730855541304
1782829705279163000,1.061162841796875,1.2456675848484038,0.771379509294033,0.6078084015214815
1782829705289090800,1.0710908203125,1.1710942821621895,0.7818259383760392,0.6874189311899245
1782829705299018800,1.081018798828125,1.0020955598503352,0.7054531850524246,0.6709731155626475
1782829705308948000,1.090947998046875,0.8116191652238368,0.6245610546082258,0.5826611007833853
1782829705318877400,1.10087744140625,0.6278104117929935,0.5643628987550735,0.5508645712891593
1782829705328806400,1.110806396484375,0.5227215593338013,0.5536785692639649,0.5513774892473593
1782829705338734300,1.120734375,0.3753957396477461,0.6067215926654637,0.5247296477532014
1782829705348663300,1.130663330078125,0.3164607355982065,0.6438903167173265,0.4929857982942834
1782829705358591200,1.14059130859375,0.3041343379884958,0.6529135811284184,0.4929445529684424
1782829705368520400,1.1505205078125,0.30954350355565546,0.6110434013873338,0.5305046144254505
1782829705378448400,1.160448486328125,0.23031974471509456,0.4902687578879297,0.5453170201646164
1782829705388377300,1.17037744140625,0.256951146531105,0.41040640888288615,0.5378865048376843
1782829705398305500,1.180305419921875,0.29688802012205123,0.39261107834279535,0.5099908917721361
1782829705408234200,1.190234130859375,0.37809389269053933,0.35310017507895824,0.42999271449297666
1782829705418162400,1.200162353515625,0.46657998539507384,0.27196590644195673,0.43579573821593076
1782829705428091600,1.210091552734375,0.5251321276068687,0.16273586252480746,0.46972051191050557
1782829705438019600,1.22001953125,0.5498047965705395,0.03898351838886738,0.4690682585468515
1782829705447948500,1.229948486328125,0.5417699586749076,-0.024011720836907623,0.47915681410189714
1782829705457876500,1.23987646484375,0.5073614931166172,-0.03458192242905497,0.46380120486412196
1782829705467805400,1.249805419921875,0.5239058006823063,-0.0867509394749999,0.43673546675145625
1782829705477733400,1.2597333984375,0.4489882146030664,-0.11077858853340149,0.46638548573628064
1782829705487662300,1.269662353515625,0.49076282501518725,-0.12744579182639718,0.45457394231352954
1782829705497590500,1.279590576171875,0.5999550211399793,-0.12234627673029899,0.4279029026068747
1782829705507519500,1.28951953125,0.6791355253607034,-0.13599880837723613,0.5167720763448626
1782829705517447400,1.299447509765625,0.7560691274374723,-0.2721652284063399,0.6610466187015176
1782829705527376400,1.30937646484375,0.5997849252700805,-0.3916480785295367,0.7276042996492237
1782829705537304300,1.31930419921875,0.5042535902291536,-0.5604352039173245,0.7224414369933306
1782829705547233300,1.3292333984375,0.46235856830775734,-0.5678500102184713,0.6544453938055783
1782829705557161200,1.3391611328125,0.332146380507946,-0.5104740721791983,0.5985424143956973
1782829705567090400,1.34909033203125,0.2838438296318054,-0.5547584734551608,0.6275267725460231
1782829705577018600,1.3590185546875,0.20135434699356555,-0.6031830432757735,0.6778985309116542
1782829705586947300,1.368947265625,0.05371230096518993,-0.6038603580154478,0.7355855807267129
1782829705596875500,1.37887548828125,-0.1796843669772148,-0.6376935079038143,0.7716384524911641
1782829705606804500,1.388804443359375,-0.2992781301289797,-0.6384716526694595,0.7392556475415826
1782829705616732400,1.398732421875,-0.358735696747899,-0.5555449476577341,0.6827467015951871
1782829705626661600,1.40866162109375,-0.4243190527707338,-0.5406061755925416,0.7112856905981898
1782829705636589600,1.418589599609375,-0.40287586724758145,-0.5927861524239182,0.8349282907493412
1782829705646518500,1.4285185546875,-0.34472178444266316,-0.6248866333007812,0.9477722873799502
1782829705656446500,1.438446533203125,-0.3341805166840553,-0.6332490957155823,1.019778954448551
1782829705666374400,1.44837451171875,-0.40758243750333784,-0.6558687776722013,1.0306621675126253
1782829705676303400,1.458303466796875,-0.4053583317130804,-0.7144215044058859,0.9991880018405616
1782829705686231300,1.468231201171875,-0.40986908713579173,-0.686256024890393,0.9417121105581522
1782829705696160300,1.47816015625,-0.39468554652929305,-0.6691898854076862,0.8818640833169221
1782829705706088400,1.48808837890625,-0.4036287314414978,-0.6372299820452928,0.8730566536135971
1782829705716017400,1.498017333984375,-0.5918278287857771,-0.624239859829843,0.9006861265562475
1782829705725945600,1.507945556640625,-0.741671768772602,-0.619341420263797,0.9587934476099907
1782829705735874300,1.517874267578125,-0.9802256733477115,-0.6129128485210239,0.9430535882949829
1782829705745802500,1.527802490234375,-0.9773018948554992,-0.5649310540318488,0.9224987299136816
1782829705755731500,1.5377314453125,-0.9466998358428478,-0.5153090911202133,0.8885987253341824
1782829705765659400,1.547659423828125,-0.8447972122043371,-0.5235279072806239,0.9068129388734698
1782829705775588600,1.557588623046875,-0.7772147913187741,-0.5722675343997776,0.955681306938827
1782829705785516500,1.5675166015625,-0.7258347326934337,-0.5604116769112646,0.9370224183719604
1782829705795445500,1.577445556640625,-0.6846709476560354,-0.49685354310572144,0.9200022369228303
1782829705805373400,1.58737353515625,-0.6881640504688024,-0.4449740105256438,0.8963733779236673
1782829705815302400,1.597302490234375,-0.7191010405242443,-0.39261984617114065,0.8662292187463492
1782829705825230300,1.607230224609375,-0.9364116660624742,-0.35425942811667915,0.8426622460022568
1782829705835159600,1.61715966796875,-1.167473169055581,-0.37830548961460586,0.8365875291984528
1782829705845087500,1.62708740234375,-1.3497411227852105,-0.38180911382138727,0.8467693890601397
1782829705855016400,1.637016357421875,-1.4586843125849962,-0.2181536522336304,0.7649608744233847
1782829705864944400,1.6469443359375,-1.3683704199314117,0.00427621601447463,0.623622970040515
1782829705874873300,1.656873291015625,-1.2203788298130034,0.20709026029706,0.4634755531063303
1782829705884801300,1.66680126953125,-1.0302917267650364,0.30574586483836175,0.39058929019160565
1782829705894730200,1.676730224609375,-0.526979801300168,0.36093262227028605,0.3580956452786922
1782829705904658400,1.686658447265625,-0.0879991859704256,0.4665177338138222,0.3543433435404673
1782829705914587400,1.69658740234375,0.16041794097125528,0.5323864826492964,0.43938795402161773
1782829705924515600,1.706515625,0.338513577452302,0.5135528951026499,0.43615299068838354
1782829705934444500,1.716444580078125,0.49389410877823825,0.45244624610245227,0.43614166557677086
1782829705944372500,1.72637255859375,0.529767970713973,0.38538828748241066,0.5074832928653806
1782829705954301400,1.736301513671875,0.5148503875672817,0.3265532366760075,0.5856995916964486
1782829705964229400,1.7462294921875,0.5987988368421793,0.3489095915213227,0.5698868132757022
1782829705974158600,1.75615869140625,0.5190291345566511,0.4534796808034181,0.46854982416331764
1782829705984086500,1.76608642578125,0.3841869488686323,0.4836513855747878,0.2599219059702009
1782829705994015500,1.776015380859375,0.3518488598436117,0.5422777620665729,0.057859337642043825
1782829706003943400,1.785943359375,0.20402795011699199,0.626682138415426,-0.06397581122834235
1782829706013872400,1.795872314453125,0.12022680035829543,0.5942744912855327,-0.14752338808476925
1782829706023800300,1.80580029296875,0.21439970652759074,0.5663812528401613,-0.23008228269740938
1782829706033729300,1.815729248046875,0.17699731985032557,0.6248254046328365,-0.3085353494264185
1782829706043657500,1.825657470703125,0.16049042168557642,0.5919543777748942,-0.3767509901816025
1782829706053586400,1.83558642578125,0.11307166790664196,0.5655772429808974,-0.4529333354996517
1782829706063514400,1.845514404296875,0.036084289816021915,0.587238162907958,-0.45522484397031365
1782829706073443300,1.855443359375,-0.1218798282623291,0.529386716311425,-0.3269157498454675
1782829706083371500,1.86537158203125,-0.15623159519731997,0.44145401970595116,-0.2757468132201582
1782829706093299500,1.875299560546875,-0.14978782588541506,0.49199075937494635,-0.3634907823204994
1782829706103228400,1.885228515625,-0.08409984044432639,0.4890443306595087,-0.39223413478918373
1782829706113156400,1.89515625,0.04549333867430687,0.3910419293299317,-0.34012342380173505
1782829706123085600,1.90508544921875,0.19991525410115718,0.26886662525236604,-0.2570972404709086
1782829706133013500,1.915013427734375,0.3676239366024732,0.10505772666856646,-0.19703505902234464
1782829706142942500,1.9249423828125,0.5415162761747837,-0.043641573327779765,-0.11859740905817598
1782829706152870400,1.934870361328125,0.6312649361610412,-0.07782251374050975,-0.06713599229231476
1782829706162799400,1.94479931640625,0.6187789640754461,-0.09634367433711886,-0.083382303292118
1782829706172727300,1.954727294921875,0.855700299012661,-0.08102320947796106,-0.10242752429544925
1782829706182656500,1.964656494140625,0.9565443535089492,0.022887392982095477,-0.11484287883024662
1782829706192584400,1.97458447265625,0.9274228884428739,-0.008478197748959065,-0.09918971141800284
1782829706202513400,1.984513427734375,0.8936404458284377,-0.15902984761372208,-0.1380888394590467
1782829706212441300,1.99444140625,0.8453589377403259,-0.21786709037721155,-0.15084866004996
1782829706222370300,2.004370361328125,0.8329887009888887,-0.30928952879458665,-0.20591610195115206
1782829706232298500,2.014298583984375,0.8195522963106632,-0.3865459330849349,-0.23289715745504944
1782829706242227200,2.024227294921875,0.7850619976878166,-0.4212785160310566,-0.22210246292464433
1782829706252155600,2.03415576171875,0.7067448322981595,-0.47502121213451026,-0.26207115642596035
1782829706262084600,2.044084716796875,0.5700029504686593,-0.4882125560104847,-0.30774430864658203
1782829706272012500,2.054012451171875,0.4478688551843166,-0.5142021527916193,-0.36434297870304433
1782829706281941500,2.06394140625,0.32841420824229717,-0.5725377296432852,-0.31077001314330843
1782829706291869400,2.073869384765625,0.19075813417732715,-0.6144592011801898,-0.22354444189388303
1782829706301798400,2.08379833984375,0.010049684849381447,-0.5752249229006469,-0.18762374514173716
1782829706311726300,2.093726318359375,-0.09648527476489543,-0.5567969935454428,-0.23356829818226396
1782829706321654800,2.10365478515625,-0.11465922935903072,-0.5556285342879593,-0.3272129792263731
1782829706331582700,2.113582763671875,-0.16324351978600024,-0.5422032355256379,-0.3773029980411753
1782829706341511700,2.12351171875,-0.18593115241229533,-0.6533185086674987,-0.3872610956169665
1782829706351439600,2.133439697265625,-0.16156126578748226,-0.7609038541175425,-0.3754195589147508
1782829706361368800,2.143368896484375,-0.14068214388787745,-0.7988951465986669,-0.3411844771619886
1782829706371296800,2.153296875,-0.05406009148955345,-0.8231107194446027,-0.37276794842742383
1782829706381225700,2.163225830078125,0.07603110027909278,-0.8065126358650624,-0.3804193764960393
1782829706391154000,2.17315380859375,0.14234218605458734,-0.757922500219196,-0.36588640875276174
1782829706401083000,2.183082763671875,0.14878653988838195,-0.7815427375204861,-0.35202750434614716
1782829706411010800,2.1930107421875,0.017132921108603476,-0.8080544584795832,-0.3311035934567451
1782829706420939800,2.202939697265625,-0.038812253475189205,-0.8336265605010091,-0.35505569306090473
1782829706430868000,2.212867919921875,-0.11034896494448185,-0.7904154875449836,-0.4345069770470261
1782829706440797000,2.222796875,-0.2607943779557943,-0.7429882581986487,-0.4609250649059191
1782829706450724900,2.232724853515625,-0.32371289868354797,-0.743857588379085,-0.395956406715326
1782829706460653800,2.24265380859375,-0.432149892526865,-0.7199775310978292,-0.36521855596117675
1782829706470581800,2.252581787109375,-0.5416425329029559,-0.7202602935619652,-0.40655959726162255
1782829706480510700,2.2625107421875,-0.5545435155302286,-0.690714319473505,-0.43991325653735547
1782829706490438700,2.272438720703125,-0.6206400817722082,-0.6271519478842615,-0.3906144611654803
1782829706500368000,2.282367919921875,-0.6625169835150242,-0.6131447575807571,-0.3070161039698869
1782829706510295800,2.2922958984375,-0.5978998421758412,-0.5270739093244076,-0.18874259310383348
1782829706520224800,2.302224853515625,-0.5239806194841862,-0.4038173858813941,0.019150946400128304
1782829706530152700,2.312152587890625,-0.6208581084370612,-0.26225290620103475,0.13184358839392663
1782829706540081700,2.32208154296875,-0.9170102154999971,-0.17972192250862717,0.11535488347299397
1782829706550009600,2.332009521484375,-1.0732944176673889,-0.24746874017566442,0.034162783701531585
1782829706559938800,2.341938720703125,-1.1497323451817034,-0.15416940197050572,-0.05707417861372232
1782829706569867000,2.351866943359375,-1.313965460526943,-0.08992533172741532,-0.09210428320169449
1782829706579795000,2.361794921875,-1.3646966998547314,-0.11885171261280775,-0.004237016515247523
1782829706589724000,2.371723876953125,-1.5254220993399619,-0.075589640121907,0.1210758184030652
1782829706599651800,2.38165185546875,-1.4959335545271635,-0.020716040292382238,0.1360709968306124
1782829706609580800,2.391580810546875,-1.3840771076291798,0.08219386069253086,0.0848424755051732
1782829706619508700,2.4015087890625,-1.3048884201020001,0.12429492658004164,0.11883366549946367
1782829706629437700,2.411437744140625,-1.2696744833797216,0.05380012537911534,0.2239978116845712
1782829706639366000,2.421365966796875,-1.1873808155745267,0.05954159164056182,0.37250294081568713
1782829706649294800,2.431294921875,-0.9570441197246312,0.1345763743586838,0.3900351999728009
1782829706659222800,2.441222900390625,-0.621516864606738,0.24151596925109622,0.31639614592939613
1782829706669151700,2.45115185546875,-0.32266718902289865,0.35194647499918935,0.24620880324244498
1782829706679079700,2.46107958984375,-0.11467267336249351,0.38379853407293557,0.29442612352054565
1782829706689008600,2.471008544921875,0.09825988322198391,0.35639454044923186,0.3996494525469839
1782829706698936600,2.4809365234375,0.3242845610916614,0.41111134228184815,0.47143915239665657
1782829706708865800,2.49086572265625,0.5374228693813086,0.5163666373491287,0.4403512095632031
1782829706718794000,2.5007939453125,0.741720284089446,0.6131009184390306,0.4224460985057056
1782829706728722700,2.51072265625,0.92853055742383,0.6916219358377158,0.4725371767664328
1782829706738651000,2.52065087890625,1.064308562657237,0.7433424784637988,0.5170722648678348
1782829706748579800,2.530579833984375,1.0981915430366993,0.7321402625784278,0.5294903228163719
1782829706758507800,2.5405078125,1.1487211223125458,0.6957225030243397,0.5681232742018998
1782829706768437000,2.55043701171875,1.2254828749537467,0.6819480985634029,0.6032024055633693
1782829706778365000,2.560364990234375,1.2328338222384452,0.7173777238629758,0.6282419350780546
1782829706788294000,2.5702939453125,1.0942536190658807,0.6949915584012866,0.6491621196404099
1782829706798221800,2.580221923828125,0.9080348818838596,0.6100301326915621,0.5895861142735928
1782829706808150800,2.59015087890625,0.6729319945454597,0.5670107829153538,0.5207987745776772
1782829706818078700,2.60007861328125,0.4111223020672798,0.546319146411866,0.5191300376478583
1782829706828007700,2.610007568359375,0.09513912085294723,0.49395796779468654,0.48127333133183414
1782829706837935600,2.619935546875,-0.14306933128535745,0.44372254915982484,0.42834279186148194
1782829706847864800,2.62986474609375,-0.33697511583864687,0.4545362041190266,0.3915292744554579
1782829706857792800,2.639792724609375,-0.6068494568288326,0.4436866010636091,0.40940943373478944
1782829706867721700,2.6497216796875,-0.7681003414928913,0.3344252852253616,0.47146169302202756
1782829706877649700,2.659649658203125,-0.8099445100098848,0.276871360270679,0.48627201640196144
1782829706887578600,2.66957861328125,-0.6918138051480054,0.33479528758153315,0.44764487370271233
1782829706897506800,2.6795068359375,-0.488661468821764,0.3937294148482382,0.40764673491120335
1782829706907435800,2.689435791015625,-0.2973258270174265,0.3764176300413906,0.4463591082084924
1782829706917364000,2.699364013671875,-0.04806348142325878,0.30133301683217284,0.48632944567762315
1782829706927293000,2.70929296875,0.30542087066769597,0.27041049369350073,0.5228359429610893
1782829706937220900,2.719220947265625,0.5711491978943347,0.24979279920905828,0.5200874114379287
1782829706947149800,2.72914990234375,0.7698807951688766,0.1656891593724489,0.5207374728444963
1782829706957077800,2.739077880859375,0.904164177930355,0.10390300367549062,0.5471967694966122
1782829706967006700,2.7490068359375,0.9173732035934925,0.05956336508095264,0.5938721940949558
1782829706976935000,2.758934814453125,0.772817433142662,-0.06041998191028833,0.5822962129937485
1782829706986863900,2.76886376953125,0.7249275547206402,-0.12392390131056308,0.5246197211053222
1782829706996791800,2.778791748046875,0.7010515890926122,-0.0592079757720232,0.5086479527305812
1782829707006720800,2.788720703125,0.5423059652477502,-0.06574278436824679,0.5282993959987535
1782829707016648700,2.798648681640625,0.4039110555142164,-0.16157617109566927,0.5480618984259664
1782829707026577700,2.80857763671875,0.2368266423910856,-0.20234335803091524,0.51891230324395
1782829707036505600,2.818505615234375,0.18777941062748432,-0.24169834008067845,0.4804535028489306
1782829707046434800,2.828434814453125,0.18978665879666803,-0.2815060343340039,0.48419100887682287
1782829707056362800,2.83836279296875,0.22317513365745542,-0.27870193669870497,0.48584480396583674
1782829707066291700,2.848291748046875,0.24207974061369894,-0.3189868930749595,0.5105888941979035
1782829707076220000,2.858219970703125,0.23991642509996888,-0.39979412171468137,0.5148438116960227
1782829707086148900,2.86814892578125,0.2317038925498724,-0.4602402609795332,0.3733536758935079
1782829707096076800,2.878076904296875,0.3130634943753481,-0.4782438274428248,0.4529940161783248
1782829707106006000,2.888006103515625,0.2886947767943144,-0.5419062984056771,0.495975518162176
1782829707115934000,2.897933837890625,0.3037602439790964,-0.5590417037323117,0.5631821645379066
1782829707125863000,2.90786279296875,0.2276736141204834,-0.530832969596982,0.5365011148938909
1782829707135790800,2.917790771484375,0.1536515155762434,-0.4827366088174283,0.49502409918885676
1782829707145719800,2.9277197265625,0.030241993528604506,-0.5080684723421931,0.510752633392252
1782829707155647700,2.937647705078125,-0.0709498514920473,-0.5209035501264035,0.49580114797595887
1782829707165576700,2.94757666015625,-0.254230197134614,-0.4678440139815211,0.49902379981689154
1782829707175504600,2.957504638671875,-0.4595335740149021,-0.48739539440870283,0.4462128316055983
1782829707185433900,2.967433837890625,-0.7082786177366972,-0.4745503797523677,0.39057686910144984
1782829707195361800,2.97736181640625,-0.8808306486159563,-0.4311879156269133,0.37870599670689553
1782829707205290800,2.987290771484375,-0.9447820195227861,-0.37594445957168937,0.44621432944294065
1782829707215218700,2.99721875,-1.027584805893898,-0.26915479454398156,0.4355708434188738
1782829707225147600,3.007147705078125,-0.9675076460719108,-0.21595438862368463,0.47697771649714554
1782829707235075800,3.017075927734375,-0.8823276091754436,-0.21349720472991465,0.5322479144288227
1782829707245004800,3.0270048828125,-0.9059346947342157,-0.23178820983245968,0.6231558639854192
1782829707254933000,3.03693310546875,-0.8912643643468617,-0.2123484730862081,0.6487718782138079
1782829707264861700,3.04686181640625,-0.8869827415049075,-0.12769669784754514,0.6490298715628683
1782829707274790000,3.056789794921875,-1.115829491057992,-0.14251491227298974,0.6244267607040703
1782829707284718800,3.06671875,-1.314853349277377,-0.2688594648592174,0.5941892606874928
1782829707294646800,3.076646728515625,-1.4580056826710701,-0.26752251716703174,0.5629380170511081
1782829707304575700,3.08657568359375,-1.5786895791471003,-0.15977029071748255,0.6070902798473835
1782829707314504000,3.09650390625,-1.5569973872989415,-0.0717936088398099,0.5401241642292589
1782829707324433200,3.10643310546875,-1.4744816011756658,0.1179278757661581,0.40988866861909623
1782829707334361000,3.116361083984375,-1.4610294144064186,0.2287161089107394,0.277348257067427
1782829707344290000,3.1262900390625,-1.271013038507104,0.27414661148190494,0.22004865393368525
1782829707354218000,3.136218017578125,-0.9764233584553003,0.35377383655682204,0.24452022910099475
1782829707364147000,3.14614697265625,-0.7050064641982317,0.3430402610965073,0.2903944020527415
1782829707374075000,3.156074951171875,-0.4435942466050386,0.23963512394055722,0.3520971355162561
1782829707384004000,3.166004150390625,-0.12312252179980278,0.20827873942926525,0.3748343429053202
1782829707393932000,3.17593212890625,0.2017962455421686,0.21173428671061992,0.4006118678383529
1782829707403860000,3.18585986328125,0.43107144964039323,0.2183892145551741,0.4359194741934538
1782829707413789000,3.195788818359375,0.5754524480462074,0.23004706525355575,0.46785175889655944
1782829707423717000,3.205717041015625,0.7073316922754049,0.2755227221406996,0.39716121592782433
1782829707433646000,3.21564599609375,0.755855192425847,0.37577611726745963,0.28185647347318005
1782829707443574800,3.22557470703125,0.8577958099871873,0.4832172319412231,0.22928163383901118
1782829707453503000,3.2355029296875,0.9557610941767692,0.6260130069822073,0.18437588579431174
1782829707463431200,3.24543115234375,0.8777969800084828,0.7756352670423686,0.12207885796576738
1782829707473360100,3.255360107421875,0.7191670914977788,0.8008673234544694,0.05980623392611742
1782829707483289000,3.2652890625,0.5151368032932281,0.8220615026526152,-0.048997510870359834
1782829707493217000,3.275217041015625,0.3305769392341375,0.8688001652128994,-0.1795122618133202
1782829707503145000,3.28514501953125,0.16201017859876155,0.8761189637936652,-0.2829619322307408
1782829707513074000,3.295073974609375,0.01571194839477539,0.895787540859729,-0.33633374919518827
1782829707523001900,3.305001953125,-0.17324819644987582,0.8568474232211708,-0.3536949991669506
1782829707532931000,3.31493115234375,-0.3203174110263586,0.7724186430834233,-0.32404834118299186
1782829707542859000,3.32485888671875,-0.4470891029834747,0.6811401431813836,-0.2539222271639854
1782829707552788000,3.3347880859375,-0.44845103898644445,0.6139680566623806,-0.2075982646181248
1782829707562716000,3.3447158203125,-0.3008575082749128,0.6089492055870592,-0.1641293079108931
1782829707572644900,3.354644775390625,-0.09544424127936363,0.622634178198874,-0.14252000857321545
1782829707582573000,3.364572998046875,0.10583470239043236,0.5546360161192715,-0.1388991511949338
1782829707592502000,3.374501953125,0.3682242405831814,0.46077743659615517,-0.0976732424404472
1782829707602430200,3.38443017578125,0.5611947901129722,0.3128084967009723,0.006881320478953421
1782829707612359200,3.394359130859375,0.774950938040018,0.19297727153152228,0.05429729777891189
1782829707622287000,3.404287109375,1.017149921119213,0.15657397889420388,-0.028111703501641747
1782829707632216000,3.414216064453125,1.113514784374833,0.10970891347527503,-0.13571874932684003
1782829707642144000,3.42414404296875,1.1755652900964022,-0.0701302056722343,-0.12691153881922362
1782829707652073000,3.434072998046875,1.2053852588206528,-0.20871011658385394,-0.08812460244838148
1782829707662001000,3.4440009765625,1.1580424928873776,-0.28156565556675195,-0.0768993710136041
1782829707671930000,3.45393017578125,1.098792431539297,-0.36175752878710626,-0.13270455260481684
1782829707681858000,3.463858154296875,0.995219244340062,-0.44428719730526206,-0.20178013465758413
1782829707691787000,3.473787109375,0.7713076131016016,-0.47565848712474107,-0.2137460283918306
1782829707701715000,3.48371484375,0.6088105277687311,-0.5512156862817704,-0.25155555283157155
1782829707711644000,3.493643798828125,0.4461825095325708,-0.5944423951983452,-0.30732319715768097
1782829707721571800,3.50357177734375,0.30122634158730505,-0.6329119727157057,-0.32840485589206214
1782829707731501000,3.5135009765625,0.1925502782911062,-0.6981095442913472,-0.3134073028443381
1782829707741429000,3.523428955078125,0.0986129344433546,-0.7214516953036189,-0.28788760686358433
1782829707751358000,3.53335791015625,0.01738426552116871,-0.7225593642845749,-0.2294783985201269
1782829707761286100,3.5432861328125,0.024167057529091835,-0.7616764459252358,-0.14595106073413044
1782829707771214800,3.55321484375,0.009001052579283714,-0.7353722302369773,-0.09392492275759577
1782829707781143000,3.56314306640625,-0.0972141735613346,-0.7166453179351985,-0.09148781353747472
1782829707791072000,3.573072021484375,-0.09881576353907584,-0.6950719301611185,-0.13589998764526098
1782829707801000200,3.583000244140625,-0.03532558040320873,-0.6746314919397235,-0.1424887001194991
1782829707810929200,3.59292919921875,0.07374795777797699,-0.7018064991131424,-0.1237454212048091
1782829707820857000,3.602857177734375,0.1816705723583698,-0.7316374276228249,-0.0535790665069595
1782829707830786000,3.6127861328125,0.28119828355908394,-0.7852661419577897,-0.028143998336046933
1782829707840714000,3.6227138671875,0.3923819457620382,-0.8273457266658544,-0.07262549308668821
1782829707850643000,3.632642822265625,0.4855746087223291,-0.8302003854446113,-0.09096154290735721
1782829707860571000,3.64257080078125,0.4907306763112545,-0.8726419353328645,-0.03379811510760337
1782829707870500000,3.6525,0.43834114838242527,-0.9229789146460592,-0.006772745537944137
1782829707880428000,3.662427978515625,0.34603462060689927,-0.9369703228585422,0.02275415852386504
1782829707890357000,3.67235693359375,0.19795126055181025,-0.9039255468688905,0.011846103279478847
1782829707900285000,3.682284912109375,0.03555529750585556,-0.8913947127282619,0.005161839742586017
1782829707910214000,3.6922138671875,-0.17793840009272097,-0.9019090924799442,0.015363244554959236
1782829707920141800,3.702141845703125,-0.3728887252628803,-0.9079583095163106,0.04956310886386782
1782829707930071000,3.712071044921875,-0.4992641113787889,-0.9457555407300591,0.12314455096852034
1782829707939999000,3.7219990234375,-0.5200678299546242,-0.9179932351879775,0.23334727584272622
1782829707949928000,3.731927978515625,-0.6622399201393127,-0.9646718381240963,0.22082422314975408
1782829707959856000,3.741856201171875,-0.8363432721138,-1.013508495876938,0.14501418174281716
1782829707969785000,3.75178515625,-1.0126286443024872,-1.0373279090121388,0.07692070606257766
1782829707979713000,3.761713134765625,-1.0463906286507845,-0.9910380131326615,0.0635865927150473
1782829707989642000,3.77164208984375,-1.1819617131352425,-0.7789636808127164,0.02259392646085471
1782829707999570000,3.78156982421875,-1.3653560405462979,-0.5888441367998719,0.0007124956509098411
1782829708009499100,3.7914990234375,-1.677147615289688,-0.541045736053586,-0.0423969070289284
1782829708019427000,3.801427001953125,-2.062161662632227,-0.521560114338994,-0.13202292701620608
1782829708029356000,3.81135595703125,-2.3632810367137194,-0.46964741014167666,-0.08619451116863637
1782829708039284000,3.821283935546875,-2.6416893972933293,-0.35183863071054217,0.057467781041190026
1782829708049213000,3.831212890625,-2.7108020964860913,-0.14912906971573828,0.11574965494424104
1782829708059140900,3.841140869140625,-2.62880010510385,0.10374401372149586,0.1401928990662098
1782829708069070000,3.851070068359375,-2.409039748325944,0.317942498588562,0.04820014994759112
1782829708078998000,3.860998046875,-1.936463737386465,0.5288116929024458,0.05023782978765666
1782829708088927000,3.870927001953125,-1.3688257624834774,0.6421732836663723,0.20430640173219144
1782829708098855000,3.88085498046875,-0.6242395675688982,0.6373186832420528,0.44117699286285783
1782829708108783900,3.890783935546875,0.07775017915666103,0.8442756725482642,0.7071543629471212
1782829708118712000,3.900712158203125,0.5692828195005655,1.1728797042742372,0.943357247416675
1782829708128640800,3.910640869140625,0.5313964486986399,1.279254212629795,1.1028291397094725
1782829708138569200,3.9205693359375,0.4553700245946645,1.048113945312053,1.0606379843857139
1782829708148498200,3.930498291015625,0.49221769999861714,0.9631342532932757,0.9678909463010728
1782829708158426000,3.940426025390625,0.49663668548464773,1.0723099366746842,0.8257276970099657
1782829708168355000,3.95035498046875,0.6605535744875669,1.2182875566221774,0.6097536538377404
1782829708178283000,3.960282958984375,0.987735026064515,1.3199100481450556,0.5410285291904583
1782829708188212000,3.9702119140625,1.2737041772872209,1.4025197961620985,0.5532029876414686
1782829708198140000,3.980139892578125,1.4428870239943266,1.459113351652026,0.6010783991467207
1782829708208069000,3.990069091796875,1.5653081195265053,1.4913831977464258,0.652378012946993
1782829708217997000,3.9999970703125,1.6516180372357367,1.6048450340144336,0.6353703256532549
1782829708227926000,4.009926025390625,1.6455612214148043,1.752351470964402,0.6926357890553771
1782829708237854000,4.01985400390625,1.5366998646795749,1.6898412387765942,0.69020593155995
1782829708247783000,4.029782958984375,1.4359867430865765,1.5986011711888015,0.5966583176821469
1782829708257710800,4.0397109375,1.118335920920968,1.5378925815954803,0.5491094712501391
1782829708267640000,4.04964013671875,0.7195809329956769,1.3580255515277384,0.575200007655099
1782829708277568000,4.059568115234375,0.4783382277280092,1.138123740452528,0.5253469759339466
1782829708287497000,4.0694970703125,0.24889292775988578,1.0556868647843598,0.5246629026599228
1782829708297425200,4.079425048828125,0.00814940418601036,1.0233606123276053,0.4408991623021662
1782829708307353900,4.089353759765625,-0.241162041246891,0.9314235023863613,0.35393001349922265
1782829708317281500,4.099281494140625,-0.46937400002777574,0.7923425100848078,0.3953488327436149
1782829708327210500,4.10921044921875,-0.6756476832449436,0.6174360250338912,0.408569183518365
1782829708337138400,4.119138427734375,-0.7294833183288574,0.5561278621122241,0.4638881159625947
1782829708347067600,4.129067626953125,-0.7514402985930443,0.578628301603347,0.5125267669253051
1782829708356995600,4.13899560546875,-0.6272095232903957,0.561605416740477,0.5127643020082265
1782829708366924500,4.148924560546875,-0.45483869419693945,0.5236800291024148,0.5766135277148335
1782829708376852500,4.1588525390625,-0.2655103005617857,0.4311797323204577,0.6646738692879677
1782829708386781400,4.168781494140625,-0.052340428090095516,0.29327319062575696,0.7223449908815324
1782829708396709400,4.17870947265625,0.10420680892765521,0.16100509320944548,0.6999521034181118
1782829708406638600,4.188638671875,0.3106821521967649,0.026991028908640146,0.6802296042077243
1782829708416566500,4.19856640625,0.49421150416433807,-0.06166413675248623,0.7190338205069303
1782829708426495500,4.20849560546875,0.6208727214843034,-0.05875190256759524,0.7867200670931488
1782829708436423400,4.21842333984375,0.6126362235367298,-0.03378068904876709,0.8574431971572339
1782829708446352400,4.228352294921875,0.6528776330322027,-0.043643326893448825,0.8595351279351859
1782829708456280600,4.238280517578125,0.5590706375658512,-0.0248034557364881,0.8748642875574528
1782829708466209500,4.24820947265625,0.2931540942907333,-0.09306114553511143,0.9517726090624928
1782829708476137500,4.258137451171875,0.20287468842864034,-0.16389628460630773,0.9498452942617237
1782829708486066700,4.268066650390625,0.09543371988534927,-0.1321054542005062,0.8714877968616783
1782829708495994600,4.27799462890625,0.06936930430233477,-0.1635565312579274,0.7670728250760585
1782829708505923600,4.287923583984375,0.1145943474292755,-0.231202957290411,0.8015007990524172
1782829708515851500,4.2978515625,0.02112695918083191,-0.34886560624912377,0.8609188373785466
1782829708525780500,4.307780517578125,-0.05712649332284927,-0.5522308546736836,0.8806479855254292
1782829708535708400,4.31770849609375,-0.09626958618760108,-0.6894362623617053,0.8480759416140615
1782829708545637600,4.3276376953125,-0.021973346877098083,-0.6917461467392743,0.8124643108110874
1782829708555565600,4.337565673828125,-0.039165304696559905,-0.6435311280161142,0.8457170304629951
1782829708565494500,4.34749462890625,-0.07236030281186104,-0.696479897262901,0.9051819766707718
1782829708575422500,4.35742236328125,-0.046530865028500554,-0.7062650859571993,0.8684314780309795
1782829708585351400,4.367351318359375,0.0060071314603090285,-0.6378048593237996,0.7587506216064095
1782829708595280400,4.3772802734375,0.04744213465452194,-0.6492552047513425,0.6993917661216109
1782829708605208300,4.387208251953125,0.10716098255813121,-0.710702483882755,0.6646887745961546
1782829708615137500,4.397137451171875,0.17653320946991444,-0.7473844473309814,0.7185396072492003
1782829708625065500,4.4070654296875,0.13588438821732998,-0.786325734013319,0.7548204425506293
1782829708634994400,4.416994384765625,0.1088654483884573,-0.8439055240616202,0.7399051974914967
1782829708644922400,4.42692236328125,0.042943069669604296,-0.8545058285310864,0.6630627077642828
1782829708654851300,4.436851318359375,-0.07989478996992111,-0.9030516866438091,0.6072144542163238
1782829708664779500,4.446779541015625,-0.18565818068981169,-1.0014493709012866,0.6109139663213864
1782829708674708500,4.45670849609375,-0.257156313714385,-1.003589597800374,0.6704634124748409
1782829708684636700,4.46663671875,-0.35700083577930924,-0.9684617319263518,0.7115661880400032
1782829708694565600,4.476565673828125,-0.44487376502156256,-0.9539616435393691,0.7168829991485923
1782829708704493600,4.48649365234375,-0.5873030448377132,-0.9300884543903172,0.7200479659855366
1782829708714422500,4.496422607421875,-0.51908700222373,-0.9116763071261346,0.6866340644225478
1782829708724350500,4.5063505859375,-0.5050689982652664,-0.8327117837436496,0.6815405406758189
1782829708734279400,4.516279541015625,-0.5632581523835659,-0.8099673063635826,0.7273449911259114
1782829708744207600,4.52620751953125,-0.5473024583607912,-0.8355265489034355,0.7456645647358149
1782829708754136600,4.536136474609375,-0.543934443232417,-0.7994928202308714,0.7549829396359622
1782829708764064500,4.546064453125,-0.4891138887643814,-0.7631983947955071,0.7782255757965147
1782829708773993500,4.555993408203125,-0.45711657600104805,-0.6840317729696631,0.8263920061375946
1782829708783921400,4.56592138671875,-0.5237193381994962,-0.5145492126636206,0.8446701517585664
1782829708793850400,4.575850341796875,-0.7352303375482558,-0.42208954015299677,0.7354089820507913
1782829708803778300,4.5857783203125,-0.8740320745170116,-0.36123730430528517,0.717163934981823
1782829708813707500,4.59570751953125,-1.0944681385993957,-0.2933608689092099,0.6710247726846486
1782829708823635500,4.605635498046875,-1.337673668372631,-0.2493292733505368,0.6206964881345629
1782829708833564400,4.615564453125,-1.6199807899564505,-0.32974414167180655,0.6266990895502269
1782829708843492600,4.62549267578125,-1.6818395724982023,-0.2945458409100771,0.6429298011220991
1782829708853421600,4.635421630859375,-1.676008382126689,-0.19113266657814382,0.7103079316072165
1782829708863349500,4.645349609375,-1.5358008700132368,-0.15325564812645315,0.737441876117885
1782829708873278700,4.65527880859375,-1.3933809425473211,-0.12934344214126467,0.7315201579187065
1782829708883206700,4.66520654296875,-1.1983709961444138,-0.08472747082337737,0.7354210378147661
1782829708893135600,4.675135498046875,-0.9484931490004062,-0.05642959709987044,0.7290519411742686
1782829708903063600,4.6850634765625,-0.639497342455387,-0.003195288909971714,0.7272090897865593
1782829708912992500,4.694992431640625,-0.2173024422317743,0.09107610919773577,0.7541513841826468
1782829708922920400,4.70492041015625,0.21084873604774473,0.157379450058192,0.7594815662294626
1782829708932849400,4.714849365234375,0.5115384865403175,0.2274314759276807,0.7275987466912717
1782829708942777300,4.72477734375,0.8160136007905006,0.24132775320261715,0.6999933122113347
1782829708952706600,4.73470654296875,1.05581721316576,0.21295506067723036,0.6910861484605818
1782829708962634500,4.744634521484375,1.2502882303863763,0.2398192483358085,0.7257431088872254
1782829708972563500,4.7545634765625,1.470671102976799,0.3193082339838147,0.7184152502171695
1782829708982491400,4.764491455078125,1.6264683984100818,0.4078633002713322,0.6475473048549145
1782829708992420400,4.77442041015625,1.7004799755603075,0.4693460891075432,0.5971293327273801
1782829709002348500,4.7843486328125,1.6834797409206628,0.5043877380028366,0.545570593066886
1782829709012277500,4.794277587890625,1.5009487523406744,0.4655621866546571,0.4708680014451965
1782829709022205700,4.804205810546875,1.2182429868280886,0.39311946625635025,0.3734744892615825
1782829709032134700,4.814134765625,0.8660328924566507,0.38191827328428624,0.3559987095320597
1782829709042062600,4.8240625,0.7002431953191757,0.4058410006634891,0.2801084790283814
1782829709051991600,4.833991455078125,0.40046471445262427,0.4850326108001172,0.20378555619586258
1782829709061919500,4.84391943359375,-0.011129296779632567,0.473935316593945,0.1392884610397741
1782829709071848400,4.853848388671875,-0.37065117546916004,0.3836144096776843,0.018671903312066567
1782829709081776600,4.863776611328125,-0.5997334873437881,0.33748598797023294,-0.10769376512742601
1782829709091705600,4.87370556640625,-0.7449006676912308,0.33305092813223597,-0.10335969971218145
1782829709101633500,4.883633544921875,-0.7932692695409059,0.2505155605256557,-0.005956204990670085
1782829709111562500,4.8935625,-0.7736275804817676,0.18033961601555346,0.06802391757536679
1782829709121490400,4.903490478515625,-0.7277519644916057,0.1314236094161868,0.04580806261270772
1782829709131419400,4.91341943359375,-0.583550998827815,0.06625307197794318,-0.025787475504889152
1782829709141347300,4.923347412109375,-0.3174596835076809,0.04833206923156976,-0.05947523927292786
1782829709151276500,4.933276611328125,-0.0021457798570394516,-0.036380934675037856,-0.03297725001166109
1782829709161204500,4.94320458984375,0.24660101743042467,-0.1572464713282883,0.02217353649116121
1782829709171133400,4.953133544921875,0.4342191000163555,-0.2770481781423092,0.0629059626402799
1782829709181061600,4.9630615234375,0.6654483607918024,-0.38657106752619147,0.053578363254060964
1782829709190990300,4.972990234375,0.7452472891718148,-0.4225120033487677,0.038461010618414726
1782829709200918500,4.98291845703125,0.7922124539643526,-0.490210305698961,-0.012418679003044962
1782829709210847700,4.99284765625,0.8102963921874761,-0.44348216453269124,-0.030384160211961716
1782829709220775700,5.002775634765625,0.7239040568917989,-0.3708418757356703,-0.02884653884852305
1782829709230704600,5.01270458984375,0.7110019052207469,-0.393049031368643,-0.047753575223870574
1782829709240632600,5.022632568359375,0.648358109781146,-0.357099181587249,-0.04444103487608954
1782829709250561500,5.0325615234375,0.5426975949138403,-0.3865659529596567,0.009933291928097604
1782829709260489500,5.042489501953125,0.45974458641707894,-0.47258287907168267,0.008777947880513965
1782829709270418400,5.05241845703125,0.31693361380696294,-0.44553390943072735,0.010831574208382516
1782829709280346400,5.062346435546875,0.24362463196814058,-0.5210363827258349,0.07287327556898816
1782829709290275600,5.072275634765625,0.22867314655184745,-0.5739884399082511,0.10085555313783698
1782829709300203500,5.08220361328125,0.22899171098172663,-0.5644628519982099,0.07811676571303978
1782829709310132500,5.092132568359375,0.2831348045796156,-0.5703752909123897,0.08043150892881676
1782829709320061200,5.102061279296875,0.3315279563486576,-0.5979279722917825,0.12306578664388507
1782829709329990100,5.111990234375,0.2779699691623449,-0.6359570395000279,0.16071990132620556
1782829709339918300,5.12191845703125,0.28887539405822754,-0.6901723946165293,0.16240084015047176
1782829709349847300,5.131847412109375,0.27909984997510906,-0.6538444322377442,0.17308288635294883
1782829709359775200,5.141775146484375,0.3076496526330709,-0.5712509047031402,0.20059470599899068
1782829709369704200,5.1517041015625,0.2985737812519073,-0.5362194849409163,0.18540258022723718
1782829709379632000,5.161632080078125,0.24270810164511203,-0.48818471815548836,0.20782085786024107
1782829709389561000,5.17156103515625,0.24881869347989558,-0.5418325025171041,0.17780474550938233
1782829709399490300,5.181490234375,0.18403554792404173,-0.5504464554749429,0.18887504211077466
1782829709409418200,5.191418212890625,0.02584814248383045,-0.5890996459309011,0.1881285711250268
1782829709419347200,5.20134716796875,-0.13163842121064662,-0.6450609679318964,0.12152211913214996
1782829709429275400,5.211275390625,-0.29707915877997876,-0.6297448869869112,0.07716984025174752
1782829709439204000,5.2212041015625,-0.43701369917094707,-0.5787567502886056,0.08784163905484602
1782829709449132300,5.23113232421875,-0.7155377950847148,-0.5974206803567708,0.1750951760234311
1782829709459061200,5.241061279296875,-0.9205477419763803,-0.7090997248612344,0.25590229506529866
1782829709468989400,5.250989501953125,-1.122205455830693,-0.7317918144669383,0.2849349858693778
1782829709478918400,5.26091845703125,-1.2764350635558366,-0.5410372604861855,0.1968141462806612
1782829709488846300,5.270846435546875,-1.36236854916811,-0.2617858732111752,0.16196159021668136
1782829709498775300,5.280775390625,-1.6028075368374586,-0.14934958059862255,0.1955231566220522
1782829709508703200,5.290703125,-1.8582202217549084,-0.1410908708192408,0.3393641298670321
1782829709518632200,5.300632080078125,-2.1349866603463887,-0.17231807599291205,0.43792635703645644
1782829709528560000,5.31056005859375,-2.3393688307285307,-0.2018225490272045,0.4770967032343149
1782829709538485200,5.3204853515625,-2.335884495744109,-0.22468612274229524,0.5030904282012955
1782829709548414200,5.330414306640625,-2.5264924077957867,-0.2372647415474057,0.703284828037396
1782829709558343200,5.34034326171875,-2.523402040565014,-0.1781133182682097,0.8477301969163119
1782829709568271000,5.35027099609375,-2.3192910883396864,0.1301809158787131,0.860985180613026
1782829709578200300,5.360200439453125,-2.137971813637018,0.45125060657709837,0.9112040134392678
1782829709588128300,5.370128173828125,-1.8823270735293625,0.5709001185040921,0.8934168662056327
1782829709598057200,5.38005712890625,-1.5311539209902285,0.5941271917693317,0.9289479791183024
1782829709607985200,5.389985107421875,-1.1840642383724451,0.6345608359012752,0.9724115655306727
1782829709617914000,5.3999140625,-0.8141156582146882,0.6435084777928889,0.9405611869573592
1782829709627842300,5.40984228515625,-0.2447574353903532,0.6605337007433175,0.8562462424576281
1782829709637771300,5.419771240234375,0.3661702306628227,0.775061120416224,0.7706332940366118
1782829709647699500,5.429699462890625,0.8375263444185257,0.8955473023630678,0.7445267198123038
1782829709657628400,5.43962841796875,1.1671844152420758,0.8770400241613387,0.7142899869807064
1782829709667556400,5.449556396484375,1.3950398156702517,0.7624544445604086,0.6632950552154332
1782829709677485300,5.4594853515625,1.7063216873258351,0.6877924406774342,0.5688191109789535
1782829709687413200,5.469413330078125,1.9650228923946618,0.6853425633072853,0.5403759470332413
1782829709697342200,5.47934228515625,2.152181540775299,0.6348363649070262,0.5919402031190693
1782829709707270100,5.489270263671875,2.3165847519904372,0.5789478889465332,0.6367359149180353
1782829709717199400,5.499199462890625,2.450361938795447,0.6126490830183029,0.6854708658620715
1782829709727127300,5.509127197265625,2.4788696558773515,0.6083762280046939,0.748701594344154
1782829709737056300,5.51905615234375,2.324163078290224,0.5420294863939285,0.7734314733877777
1782829709746984200,5.528984130859375,2.1527795066684483,0.39530689329802987,0.8213381568141281
1782829709756913200,5.5389130859375,1.9054554356604814,0.30709757170826196,0.9197726659506559
1782829709766841000,5.548841064453125,1.4148229590266943,0.22033114240318535,0.9980724418140947
1782829709776770300,5.558770263671875,1.0045265863895416,0.05759644892215728,1.0471353826034813
1782829709786698200,5.5686982421875,0.49575522647500037,0.00900251388400793,1.0912373399846256
1782829709796627200,5.578627197265625,-0.1281850658863783,-0.04546104383990168,1.0538065309304743
1782829709806555400,5.588555419921875,-0.6606418372929096,-0.20953443857878445,0.9937371160235255
1782829709816484000,5.598484130859375,-1.1233476116031407,-0.26045827786922454,0.8937726939059794
1782829709826412300,5.608412353515625,-1.5436837322175503,-0.1459960323870182,0.8109335210472345
1782829709836341200,5.61834130859375,-1.7330092032432556,-0.08789528720453381,0.7860816961243748
1782829709846269400,5.62826953125,-1.7199392937898634,-0.044305151803046464,0.8327927400253713
1782829709856198400,5.638198486328125,-1.6458488061845302,-0.03164396928101778,0.8774242011733353
1782829709866126300,5.648126220703125,-1.455713772341609,-0.10461100581437349,0.9073910310223698
1782829709876055300,5.65805517578125,-1.1004062964767216,-0.1400708801217377,0.9087512134596705
1782829709885983200,5.667983154296875,-0.6337655208051204,-0.17108385802283882,0.8478870679784566
1782829709895912200,5.677912109375,-0.16450257993638515,-0.2047821294851601,0.806162799514085
1782829709905840000,5.687840087890625,0.2408966683089733,-0.21762159118354318,0.908523030726984
1782829709915769300,5.697769287109375,0.6275690042525529,-0.2118812939658761,0.9828383400641381
1782829709925697300,5.707697265625,0.9091063105076551,-0.12758096251338719,0.9214601075809449
1782829709935626200,5.717626220703125,1.1208435198277233,-0.05852393903061747,0.9036901306778192
1782829709945554200,5.72755419921875,1.181006019845605,-0.11093845527023076,0.9927923094540834
1782829709955483100,5.737483154296875,1.1313485472291707,-0.15620178458094597,1.0546706734791398
1782829709965411000,5.7474111328125,1.1021879191964865,-0.18574103666767477,1.034266037223488
1782829709975340300,5.75734033203125,0.9745306765764951,-0.17976707682460547,0.9709919810563326
1782829709985268500,5.7672685546875,0.7518032866865396,-0.2585780170805752,0.9365458138361573
1782829709995197200,5.777197265625,0.6386328345805407,-0.40024551874399183,0.9301332433801144
1782829710005126100,5.787126220703125,0.6254033506512642,-0.3678000238217413,0.8377494856499135
1782829710015054300,5.797054443359375,0.5491448713570833,-0.2799183267511427,0.7577168215792626
1782829710024982300,5.806982177734375,0.414641123843193,-0.32662571739032864,0.6804034264046699
1782829710034911200,5.8169111328125,0.372066887485981,-0.39931072211191054,0.6326571211718023
1782829710044840400,5.82684033203125,0.19364859492182732,-0.45434111993834375,0.6086829558663069
1782829710054768400,5.836768310546875,-0.02515022334754467,-0.6038678106695413,0.6285758432075381
1782829710064697300,5.846697265625,-0.020188217025995252,-0.7063397586286068,0.6068219112347811
1782829710074625300,5.856625244140625,-0.025655250260233877,-0.6234228443585336,0.5513492130009457
1782829710084554200,5.86655419921875,-0.1264806000560522,-0.537655216832459,0.5028960746729746
1782829710094482200,5.876482177734375,-0.1823293285280466,-0.5653120161734521,0.46176593617685135
1782829710104411400,5.886411376953125,-0.27088030316233636,-0.5405443624027073,0.43724188190363344
1782829710114339300,5.89633935546875,-0.34177287150919433,-0.5674504895068705,0.44815804738923903
1782829710124268300,5.906268310546875,-0.4257669134914875,-0.6129273154377937,0.4112715378122404
1782829710134196200,5.9161962890625,-0.4547977776646614,-0.614199673461169,0.41252573912441726
1782829710144125200,5.926125244140625,-0.5874421610474586,-0.5869403490051627,0.4117664451897144
1782829710154053000,5.93605322265625,-0.6949655471771955,-0.5785220647498965,0.3940026788316667
1782829710163984400,5.945984375,-0.7739210104703903,-0.552746695241332,0.47618981752246614
1782829710173912300,5.955912353515625,-0.7898235130012035,-0.5960816868379711,0.5486209936134517
1782829710183841300,5.96584130859375,-0.8898252714544534,-0.5938378534339368,0.6326691769357771
1782829710193769200,5.975769287109375,-1.0958487793028353,-0.5265950397662819,0.6894758637197316
1782829710203698200,5.9856982421875,-1.2317746685743332,-0.5005431914038956,0.6229131412707268
1782829710213626000,5.995626220703125,-1.4257979420274496,-0.38076062768176194,0.4954565357893705
1782829710223555300,6.005555419921875,-1.5539017593711613,-0.25488559230342506,0.4917697735680267
1782829710233483300,6.015483154296875,-1.688548714748025,-0.2811993064723909,0.5867078554235399
1782829710243412200,6.025412109375,-1.8193658827036618,-0.3067629329264164,0.6541428306624293
1782829710253340200,6.035340087890625,-1.939184686782956,-0.30903526177257296,0.7321090637225657
1782829710263269000,6.04526904296875,-1.9767875644683837,-0.2436572190634906,0.792506468474865
1782829710273197000,6.055197021484375,-2.029346019223332,-0.10082914918810129,0.7772835457060485
1782829710283126300,6.065126220703125,-2.0213205336779354,-0.06019289515614509,0.7123050967738032
1782829710293054500,6.075054443359375,-1.830115240254998,-0.05465820351317525,0.603845160446316
1782829710302983200,6.084983154296875,-1.4115256710469721,0.02284428449273109,0.537782788734883
1782829710312912100,6.094912109375,-0.8736445365041494,0.11774039037004112,0.5379644654447212
1782829710322840000,6.104840087890625,-0.29439620330631733,0.11142770009189844,0.5730177317125722
1782829710332769000,6.11476904296875,0.2601712776213884,0.1133925704240799,0.6255944893091917
1782829710342697000,6.124697021484375,0.7331868490219116,0.16148644698560238,0.6151559512726962
1782829710352626200,6.134626220703125,1.0929565649926662,0.16037877800464628,0.6184327809862792
1782829710362554000,6.14455419921875,1.4282926814526318,0.15061200174987316,0.6470772761903703
1782829710372483000,6.154483154296875,1.5799293500751257,0.21830796601250765,0.6575313040569424
1782829710382411000,6.164410888671875,1.6766116087168454,0.26699615520536896,0.6098529494937509
1782829710392340000,6.174340087890625,1.7588988467812536,0.35687341000735756,0.48303792985156174
1782829710402268000,6.184267822265625,1.7959248013615607,0.49053851474002,0.3237478969316929
1782829710412197000,6.194197021484375,1.7410791124522684,0.5537558722838759,0.2514077966576442
1782829710422125000,6.204125,1.547483124500513,0.571937717923522,0.17023016380295156
1782829710432054000,6.214053955078125,1.3212836745858192,0.6003463585451245,0.019894494776427744
1782829710441982000,6.22398193359375,1.0746657060205935,0.6189531515985727,-0.08049418063517659
1782829710451911000,6.233910888671875,0.702346305078268,0.5957721824973822,-0.19467410204466432
1782829710461838800,6.2438388671875,0.32423663029670713,0.5304325721025467,-0.2908057227999903
1782829710471767800,6.253767822265625,-0.07409282569289206,0.42996568035557864,-0.33236689139083025
1782829710481696000,6.263696044921875,-0.5468874478191137,0.3166793467849493,-0.34185192809477444
1782829710491625000,6.273625,-0.9245622383147477,0.26019348945319654,-0.3407559495516121
1782829710501553200,6.28355322265625,-1.1465993078529835,0.24931086091101168,-0.3602698475126177
1782829710511482000,6.293482177734375,-1.3151117079526184,0.31336992997601626,-0.34940866361726075
1782829710521410000,6.30341015625,-1.2235527836740017,0.3799050337657332,-0.3372587916182354
1782829710531339000,6.313339111328125,-0.9495517181426286,0.4096116052433848,-0.26480379626024514
1782829710541267000,6.323266845703125,-0.589295095437765,0.31583456652387976,-0.2293694217203185
1782829710551196200,6.333196044921875,-0.16326923874914645,0.22829335345402357,-0.11190892600389196
1782829710561124000,6.3431240234375,0.26569910113215445,0.1283795655451715,-0.027263416109234093
1782829710571053000,6.353052978515625,0.7373603353142738,0.0413997857503593,0.02400980287445709
1782829710580981000,6.36298095703125,1.0862456691771745,-0.0747154876358807,0.015294015243649482
1782829710590910000,6.372909912109375,1.3916869981110096,-0.14569924139752982,0.0014560805598273871
1782829710600838000,6.382837890625,1.5986059934943913,-0.1558745984531939,0.021227935337275267
1782829710610767000,6.39276708984375,1.5849299348413943,-0.20106193991824983,0.06048764031901955
1782829710620695000,6.402695068359375,1.4935627337425947,-0.3010457243233919,0.09982377153784036
1782829710630624000,6.4126240234375,1.346763568279147,-0.31898572403118014,0.09240900176931172
1782829710640552000,6.422552001953125,1.10514676900208,-0.2593535314977169,0.01649652290120721
1782829710650481000,6.43248095703125,0.8504179746955632,-0.2660338860444724,-0.06094522962709888
1782829710660409000,6.4424091796875,0.6537491551697254,-0.2831323203615844,-0.10837771967044099
1782829710670337800,6.452337890625,0.4121142357140779,-0.2996108692146838,-0.13563547322386876
1782829710680266000,6.462265869140625,0.3323988939642906,-0.3728790806517005,-0.15173945314353332
1782829710690195200,6.4721953125,0.16200199529230594,-0.42079862355962394,-0.16130922725517302
1782829710700124000,6.4821240234375,-0.037649054914712904,-0.5224874583169817,-0.18501885987296698
1782829710710052000,6.492052001953125,-0.08608838391304016,-0.6113895844765007,-0.2189387381967157
1782829710719981000,6.50198095703125,-0.14482581956386564,-0.6140801387347281,-0.2278026473276317
1782829710729909000,6.511908935546875,-0.20859657320678232,-0.6479330162368715,-0.22053174300920217
1782829710739838200,6.521838134765625,-0.21837036372423171,-0.6845106425277888,-0.19822410441013052
1782829710749766100,6.53176611328125,-0.13239011636078357,-0.6603729572236537,-0.17375994536429643
1782829710759695000,6.541695068359375,-0.10958090318143367,-0.6343567646965385,-0.18566819062717257
1782829710769623000,6.551623046875,-0.013346972829103469,-0.6609532413296401,-0.1983137554549612
1782829710779552000,6.561552001953125,0.06446107399463653,-0.7026305288471281,-0.15748223457923158
1782829710789480000,6.57147998046875,0.13288812901079655,-0.7505842662855983,-0.06872866831123828
1782829710799409000,6.581408935546875,0.26754268317222596,-0.7634570457316935,-0.011632606659270822
1782829710809336800,6.5913369140625,0.421457818120718,-0.7297410924822092,-0.022928546976391226
1782829710819266000,6.60126611328125,0.5753647697627544,-0.7180899637855589,-0.0012791530903428791
1782829710829194000,6.611194091796875,0.6392641182214022,-0.7463024973131716,-0.006299684666097163
1782829710839123000,6.621123046875,0.5809785179913044,-0.834956640060991,-0.0043454087931662794
1782829710849051000,6.63105078125,0.4888806645303964,-0.9535814120501279,-0.014621559342183172
1782829710858979800,6.640979736328125,0.36437282585203645,-0.9746668701767921,0.024440065784193575
1782829710868908000,6.650907958984375,0.21006723028123378,-0.9330281611040234,0.037449696417711675
1782829710878837000,6.6608369140625,0.09640285717844962,-0.8973927110340446,0.011744688731618226
1782829710888765200,6.67076513671875,-0.0943213747292757,-0.8220899980947375,0.014405541971325873
1782829710898694100,6.680694091796875,-0.3396528106153011,-0.7686772645980119,0.038716830276697874
1782829710908622000,6.6906220703125,-0.5264163221985101,-0.7291997521471232,0.06024546559359878
1782829710918551000,6.700551025390625,-0.6936287456154823,-0.6236110604070126,0.0662930386621505
1782829710928479000,6.71047900390625,-0.6958510978400707,-0.5398621522922068,0.0899137508874759
1782829710938408000,6.720407958984375,-0.7402700852811336,-0.4297650432169437,0.0698163174174726
1782829710948336000,6.730336181640625,-0.8021978414058685,-0.3451595913380384,0.09917648661024868
1782829710958265000,6.74026513671875,-0.8690630539327859,-0.35074075247123837,0.14655063406247645
1782829710968193000,6.750193115234375,-0.9769967744290828,-0.35624797158539295,0.20824973253048956
1782829710978122000,6.7601220703125,-1.1653969473034143,-0.32203926638290287,0.1983390908256173
1782829710988050000,6.7700498046875,-1.2752747876048087,-0.27136677150502797,0.1708469074618071
1782829710997979000,6.779978759765625,-1.4860036966651677,-0.1826432898480445,0.0933215500369668
1782829711007906800,6.78990673828125,-1.8276392055302857,-0.18371639897227285,0.05026201438084244
1782829711017836000,6.7998359375,-2.114279387882352,-0.25775084554143246,0.18254242328945547
1782829711027764000,6.809763916015625,-2.2159680765092373,-0.20333565700389444,0.20568174520600585
1782829711037693000,6.81969287109375,-2.3009429462224245,-0.03012808482535183,0.10589191247038543
1782829711047621000,6.82962109375,-2.1842378902494906,0.1379313108097762,0.04524060602225363
1782829711057550000,6.839550048828125,-1.897721626538038,0.2901088083107024,0.00004866144731640816
1782829711067478000,6.84947802734375,-1.4445406364202498,0.4144661326024681,-0.022008345125243068
1782829711077407200,6.8594072265625,-0.8978098404675722,0.4495837693434208,-0.04243596039768308
1782829711087336000,6.8693359375,-0.48849312651753424,0.34850064539425074,-0.000903707374073565
1782829711097264000,6.87926416015625,-0.15292553938925266,0.21660671505257487,0.06994655620101839
1782829711107193000,6.889193115234375,0.20777239734232425,0.14506277012489735,0.05397252280395478
1782829711117121000,6.89912109375,0.5683224500358104,0.21808570156395435,-0.01113748008608818
1782829711127050000,6.909050048828125,0.7673281880766153,0.3912675547793507,-0.09450418395027518
1782829711136978000,6.91897802734375,0.9469704694777726,0.5025006090819836,-0.0939736938027665
1782829711146907100,6.9289072265625,1.0557809728085994,0.5203785033389926,0.022572627944499254
1782829711156835000,6.9388349609375,0.9457008879333734,0.6290783859021961,-0.25659955661445855
1782829711166764000,6.948763916015625,0.915969766536355,0.8189312418028711,-0.25491120166871695
1782829711176692000,6.95869189453125,0.8680506620198488,0.8780719975575805,-0.3137159669347107
1782829711186621000,6.968620849609375,0.87226331127882,0.9530136951647699,-0.21315010832529513
1782829711196548900,6.978548828125,0.7640075192213058,1.049157463015616,-0.1588340693132952
1782829711206478000,6.98847802734375,0.7146043136268854,1.08949488023147,-0.1839577699800953
1782829711216406000,6.998406005859375,0.5227624758660793,1.0861670509830117,-0.152882686628215
1782829711226335000,7.0083349609375,0.2458160045325756,0.8771424616225063,-0.13480123262312263
1782829711236263000,7.018262939453125,0.06621171705424785,0.7014001102693379,-0.12486278959587216
1782829711246191900,7.02819189453125,-0.14283084635436535,0.6292879369996488,-0.07685662785042077
1782829711256120000,7.0381201171875,-0.2598018597871065,0.5693937325291335,-0.08554883367624133
1782829711266049000,7.048049072265625,-0.35331542526483534,0.5638885592415929,-0.08531122552808373
1782829711275977000,7.05797705078125,-0.42852527228891846,0.6508199698500334,-0.09646857935842126
1782829711285906200,7.06790625,-0.3457178097426891,0.7481677066631615,-0.12512830866426228
1782829711295834000,7.077834228515625,-0.2580892106503248,0.7833277212411165,-0.1873756521321833
1782829711305763000,7.08776318359375,-0.15181085614562034,0.7401207399383187,-0.22281799078285694
1782829711315691000,7.09769091796875,-0.0741875182390213,0.5912313241973519,-0.17838387883789836
1782829711325624000,7.1076240234375,-0.05683423237800598,0.41026787719503044,-0.07541603712067008
1782829711335552000,7.117552001953125,0.020226795470714567,0.315446151728183,0.013146262625232339
1782829711345481000,7.12748095703125,0.16485387759208678,0.2784250194534659,-0.005771934464946389
1782829711355409000,7.137408935546875,0.4125678247004747,0.29566520032882687,-0.02044204565659165
1782829711365337900,7.147337890625,0.45757542568445203,0.2979264232590794,-0.010356120450049638
1782829711375265800,7.157265869140625,0.4788830021291971,0.1804283172123134,-0.025287914785183965
1782829711385194800,7.16719482421875,0.5522288088470697,0.11211772818267345,-0.025478359323367474
1782829711395122700,7.177122802734375,0.6204629716396332,0.10170045212991535,-0.005795424938388169
1782829711405052000,7.187052001953125,0.7156915243417025,0.0818295574247837,-0.00823364840336144
1782829711414979800,7.196979736328125,0.7949211284011602,0.04715498827621341,0.034012342380173505
1782829711424908800,7.20690869140625,0.7972866884887218,-0.031188188337534666,0.05449526803642511
1782829711434837800,7.216837646484375,0.7961620683729648,-0.1332462217334658,0.06036609629858285
1782829711444765700,7.226765625,0.7718237459301948,-0.18256591376289724,0.08226491663474589
1782829711454695000,7.23669482421875,0.734724726113677,-0.2812339393943548,0.12840923003107307
1782829711464622800,7.246622802734375,0.6424596993923187,-0.37023850301504135,0.189057796532847
1782829711474551800,7.2565517578125,0.5672977831631899,-0.3889067439321428,0.2003043630165979
1782829711484480000,7.26647998046875,0.43167993692755696,-0.40549196803010995,0.2471155793564394
1782829711494409000,7.276408935546875,0.3286509396076202,-0.4533645299911499,0.26264230737742034
1782829711504337000,7.2863369140625,0.3173322577357292,-0.5020451203994453,0.19078922343533486
1782829711514265900,7.296265869140625,0.246121124958992,-0.5488906774003058,0.20580106073673812
1782829711524193800,7.30619384765625,0.15141221221685408,-0.6858464942414313,0.29598076908402143
1782829711534123000,7.316123046875,0.19359832603931426,-0.743255238571763,0.3850853955456987
1782829711544051000,7.326051025390625,0.10965221485197543,-0.7578759576637297,0.3533287231378257
1782829711553980000,7.33597998046875,0.06974164474606513,-0.7683482518393546,0.35395346744004635
1782829711563907800,7.345907958984375,0.04671674298942089,-0.732414476409927,0.39779242650344965
1782829711573836800,7.3558369140625,-0.020306290447711945,-0.7374808198887854,0.5109794644180685
1782829711583764700,7.3657646484375,-0.10711714341640471,-0.7754905248094349,0.5500286684542894
1782829711593694000,7.37569384765625,-0.2522211953997612,-0.7723997922524809,0.4796656404068693
1782829711603622000,7.385621826171875,-0.3502969542264938,-0.7801184768710285,0.4580930928830057
1782829711613550800,7.39555078125,-0.4334942928731441,-0.8160607278678566,0.45977125522829587
1782829711623478800,7.405478759765625,-0.6075941377162933,-0.8162858418606221,0.5604742938186973
1782829711633407700,7.41540771484375,-0.7677537200123071,-0.8295615030191839,0.6651440440829843
1782829711643336000,7.4253359375,-0.7067237895101308,-0.8421011049881577,0.6258225259114056
1782829711653265000,7.435264892578125,-0.7320306647241115,-0.7510481574703007,0.5706423078181222
1782829711663193000,7.445193115234375,-0.71228317720294,-0.7002833081338554,0.5201338078629225
1782829711673122000,7.4551220703125,-0.6877303352266549,-0.7371783298108726,0.4947375373324379
1782829711683050000,7.465050048828125,-0.6958125193953514,-0.7444481016181409,0.47048137674778695
1782829711692979000,7.47497900390625,-0.7157827097564935,-0.7390841634321957,0.48907457966729995
1782829711702907000,7.484906982421875,-0.689765055924654,-0.758108962702006,0.5098718319697305
1782829711712835800,7.4948359375,-0.5773141502648592,-0.691580069457367,0.45444450724758206
1782829711722763800,7.504763671875,-0.6877905409812927,-0.5959430820848792,0.3421944579221308
1782829711732693000,7.51469287109375,-0.9468196628302336,-0.5337582824591547,0.23701069372110067
1782829711742621000,7.524620849609375,-1.1229285094082355,-0.5573987588308751,0.21222071852069346
1782829711752550000,7.5345498046875,-1.3113140692353247,-0.591103460033983,0.2145874659183435
1782829711762478800,7.544478759765625,-1.3929273535609243,-0.5273139286253601,0.2611755592931062
1782829711772406800,7.55440673828125,-1.4515151516079903,-0.4921875971212983,0.2423946152491495
1782829711782336000,7.5643359375,-1.4690163215070962,-0.4609825307141989,0.14522784275980666
1782829711792264000,7.574263916015625,-1.3939187026858328,-0.3950912047207355,0.21369884651554746
1782829711802193000,7.58419287109375,-1.3177251053214072,-0.3507821073949337,0.28571561485305424
1782829711812120800,7.594120849609375,-1.1399825200617313,-0.2552352825239301,0.2715306020309217
1782829711822049800,7.6040498046875,-1.0137515108525752,-0.15790763865076005,0.24158203849093987
1782829711831977700,7.613977783203125,-0.9473580074906348,-0.14806436309367418,0.20038294467814266
1782829711841906700,7.62390673828125,-0.6466530594289303,-0.2542377228539437,0.24142810830455272
1782829711851835000,7.6338349609375,-0.25712708761990066,-0.2771224854875356,0.31738643560837954
1782829711861763800,7.643763916015625,0.1694289304226637,-0.1754758093714714,0.38280868278536945
1782829711871692000,7.653692138671875,0.49969958018660543,-0.1614311366017908,0.44726340010445564
1782829711881621000,7.66362109375,0.7671791349947452,-0.23164134870767591,0.4668986959554255
1782829711891549000,7.673548828125,1.0284119043678044,-0.23600217426568268,0.44093792340997606
1782829711901478000,7.683477783203125,1.2603507747173308,-0.16371405990719795,0.39737263018880037
1782829711911405800,7.69340576171875,1.3662310698151587,-0.1172021918401122,0.3598035451751202
1782829711921335000,7.7033349609375,1.3877350456148385,-0.13401479495316743,0.30617333300281313
1782829711931263000,7.713262939453125,1.3961422239542007,-0.13742811052799225,0.20799150171941144
1782829711941192000,7.72319189453125,1.301647246223688,-0.09354958663918077,0.14253137021744622
1782829711951120000,7.733119873046875,1.0495447087675331,-0.04329093325920403,0.10006845788075588
1782829711961048800,7.743048828125,0.6884732625484467,-0.01977152598388493,0.005653751445375383
1782829711970976800,7.752976806640625,0.2295283020764589,-0.00592646743953228,0.004245081090694293
1782829711980905700,7.76290576171875,-0.17220482487678526,0.0478010310947895,-0.04786714143382851
1782829711990834000,7.772833984375,-0.40540333989858623,0.1347072341967374,-0.19108429739177227
1782829712000763000,7.782762939453125,-0.6999772378593683,0.18411876922808587,-0.4620367524748668
1782829712010690800,7.79269091796875,-0.9442477665156126,0.18825564983710646,-0.6837767752952874
1782829712020619800,7.802619873046875,-1.066656587088108,0.12578918372578918,-0.7934750943113118
1782829712030548000,7.8125478515625,-1.0709130754888057,-0.008226999466866254,-0.7305175567474216
1782829712040476700,7.8224765625,-0.8045154706984758,-0.10715528346970676,-0.5732217663846909
1782829712050404900,7.83240478515625,-0.5256447533041239,-0.1378025698635727,-0.4460927488898858
1782829712060334000,7.842333984375,-0.24914368765056133,-0.14948511661179362,-0.3873072728462517
1782829712070262800,7.8522626953125,-0.008396656945347785,-0.2507072106402367,-0.27677653986038636
1782829712080191000,7.86219091796875,0.2139484556287527,-0.3706521253172308,-0.18826496565472334
1782829712090120000,7.872119873046875,0.5297071804374456,-0.3870964796397835,-0.11505885966848581
1782829712100048000,7.8820478515625,0.7508294732183217,-0.38608357627019285,-0.02909270476247184
1782829712109976800,7.891976806640625,0.819341868430376,-0.47843313946984706,0.0846801062840037
1782829712119905000,7.901905029296875,0.9300321941584349,-0.6144973412334919,0.10830797890247776
1782829712129834000,7.911833984375,1.0913497143179178,-0.5798224798239767,0.11111030470579862
1782829712139762000,7.921761962890625,1.2523019082963467,-0.4364765235543251,0.11321142343720421
1782829712149691000,7.93169091796875,1.3552163393259047,-0.42613845021761954,0.03304433759823441
1782829712159618800,7.941618896484375,1.3239485098809003,-0.4848682140186429,0.03815028243511915
1782829712169547800,7.9515478515625,1.2450503297328948,-0.5480370562456548,0.1379241504166275
1782829712179475700,7.961475830078125,1.2229016262888908,-0.5837002711053937,0.1799794044010341
1782829712189405000,7.971405029296875,1.1766279508918522,-0.5681679901264608,0.16992191983768715
1782829712199332900,7.981332763671875,1.0461252557128666,-0.5642929753240198,0.11840086357276886
1782829712209261800,7.99126171875,0.8470692487895488,-0.5905424651503562,0.08831937610181048
1782829712219189800,8.001189697265625,0.8339122455745935,-0.6027567806877195,0.13729087574807927
1782829712229118700,8.01111865234375,0.7351268771737813,-0.6057672876153141,0.20275287041356785
1782829712239047000,8.021046875,0.6938555401086807,-0.6458730880323797,0.24853487156983464
1782829712248976000,8.030975830078125,0.5670984611988067,-0.6721177555531263,0.2606573989042081
1782829712258904000,8.040904052734374,0.4509849413782358,-0.6609725305519998,0.2575027707981877
1782829712268833000,8.0508330078125,0.4444762901365757,-0.6237879513438791,0.15463784146616236
1782829712278761000,8.060760986328125,0.36497780600786206,-0.5684541135914624,0.13108447712231427
1782829712288690000,8.07068994140625,0.27561609951257704,-0.5988778203625231,0.1717976140490733
1782829712298617900,8.080617919921876,0.19212649992108344,-0.5908939089365303,0.25261176561992615
1782829712308546800,8.090546875,0.03277940305173397,-0.5467139909483492,0.2648115046426654
1782829712318474800,8.100474853515625,-0.11325637682378291,-0.503292343981564,0.13502232802789657
1782829712328400000,8.11039990234375,-0.34217736065685744,-0.4497738120228052,0.00079673986826092
1782829712338327800,8.120327880859374,-0.6254290696144104,-0.42979953000843524,-0.013391981014609335
1782829712348256800,8.1302568359375,-0.8579676594227552,-0.4597935401253402,0.02397248480506241
1782829712358185700,8.140185791015625,-1.033593690919876,-0.45938481319397684,0.05294581010472029
1782829712368114000,8.150114013671875,-1.3051707441747187,-0.3652615913853049,0.01857891866583377
1782829712378043000,8.16004296875,-1.6155138736754655,-0.3260883956432342,-0.08122443113848567
1782829712387970800,8.169970703125,-1.8443255519151687,-0.2669841725066304,-0.25300942316800357
1782829712397899800,8.179899658203125,-2.2222242142945525,-0.18353870431780814,-0.4128973489157855
1782829712407828000,8.189827880859376,-2.563939802658558,-0.25059198676273226,-0.35591504983659833
1782829712417756700,8.199756591796875,-2.937693620318174,-0.35996100075915455,-0.23996998191811142
1782829712427684900,8.209684814453125,-3.192694217303395,-0.42765944923982024,-0.17775811162237076
1782829712437614000,8.219614013671874,-3.192077546709776,-0.30208807298317547,-0.14487046242319046
1782829712447542000,8.2295419921875,-3.104962742358446,-0.07500307240560651,-0.08605119370780885
1782829712457471000,8.239470947265625,-2.956961215367913,0.10062865817993878,-0.02680277632754296
1782829712467399000,8.24939892578125,-2.6710323961555957,0.15936989322304726,0.03432608450446278
1782829712477328000,8.259327880859376,-2.1698563136756417,0.25117899287045,0.17839734110767022
1782829712487255800,8.269255859375,-1.7289263178437948,0.36886765305325386,0.34569768027011305
1782829712497185000,8.27918505859375,-1.2508879498451948,0.43738910835459827,0.38088761506229635
1782829712507113000,8.289113037109376,-0.6145820969074964,0.5126210210800171,0.42855676340572535
1782829712517042000,8.2990419921875,-0.17948679857850075,0.6147849260032177,0.4094857869066298
1782829712526969900,8.308969970703124,0.3639087154716253,0.6703041302599012,0.4342097111335024
1782829712536898800,8.31889892578125,0.7684446248859167,0.706868020286411,0.4741369401132688
1782829712546826800,8.32882666015625,1.1050427241057157,0.688956516020745,0.5248600326672196
1782829712556755700,8.338755615234374,1.3883897101312874,0.644076194678247,0.5643615470482036
1782829712566683600,8.34868359375,1.473733413156867,0.6798578482858836,0.613878770943731
1782829712576612900,8.35861279296875,1.5669289987266062,0.795328978549689,0.6533932544041424
1782829712586541000,8.368541015625,1.7216455131858586,0.9212240338027476,0.6099595882060006
1782829712596469800,8.3784697265625,1.8923463632404802,1.0266427027381957,0.5114557401603087
1782829712606398000,8.38839794921875,1.934190531757474,1.0621902553290128,0.4553025123164057
1782829712616327000,8.398326904296875,1.9604133527725933,1.0045831388823687,0.5225373618733138
1782829712626256000,8.408255859375,1.9412667537540196,0.9155620625182985,0.6409866311650723
1782829712636184000,8.41818408203125,1.832774814853072,0.7488692790612578,0.6261069688759744
1782829712646113000,8.428113037109375,1.604514925277233,0.6500504467822611,0.6373311773974448
1782829712656041000,8.438041015625,1.4470131640136241,0.5678751446597278,0.6416852078884839
1782829712665970000,8.447969970703125,1.1295564031153917,0.4240373132199049,0.6960742390714585
1782829712675897900,8.45789794921875,0.709026805755496,0.28971330618709323,0.8118716056149452
1782829712685826800,8.467826904296874,0.35348493661284447,0.3082616470515728,0.9104980571269988
1782829712695754800,8.477754638671875,0.04951192666590214,0.4543788216002285,0.8628361422419547
1782829712705684000,8.48768408203125,-0.2442904024004936,0.6128381758496165,0.7832574324838817
1782829712715612000,8.49761181640625,-0.577612840950489,0.6269670928366482,0.7258629358746111
1782829712725540900,8.507540771484376,-0.6983814931005239,0.5631782190151512,0.7542598860584199
1782829712735468800,8.51746875,-0.7551198638886213,0.5305220039516687,0.8741868997525424
1782829712745397800,8.527397705078124,-0.816613320249319,0.46664048341065645,0.940897287043929
1782829712755325700,8.53732568359375,-0.7093494618386029,0.39527912850826974,0.8778133466213941
1782829712765255000,8.5472548828125,-0.5088549465447664,0.4045395626761019,0.7186814268726855
1782829712775182800,8.557182861328124,-0.35262101325988765,0.35322438598051664,0.5406168431170284
1782829712785111800,8.56711181640625,-0.17698504489064215,0.18438655331879852,0.6091054921273141
1782829712795040000,8.5770400390625,0.10120470450222492,-0.042635903416574,0.7457539235197007
1782829712804969000,8.586968994140625,0.3233002262294292,-0.08429010231941939,0.9053252575989812
1782829712814897000,8.59689697265625,0.4562789561331272,-0.09669248777478932,1.0421695038244128
1782829712824825900,8.606825927734375,0.5022229611843824,-0.15540391220152378,0.9455429939579219
1782829712834754000,8.616754150390625,0.46499476203024387,-0.11322948881685733,0.7420745043545961
1782829712844683000,8.62668310546875,0.44917876873910423,-0.042984132332354784,0.6643741556890308
1782829712854611000,8.63661083984375,0.43074879355728624,-0.002837707643955946,0.6481979507833718
1782829712864540000,8.646539794921875,0.41443478761613367,-0.014249182365834712,0.6814186678618193
1782829712874467800,8.6564677734375,0.4118190521597862,-0.11042582957297563,0.7534997153408824
1782829712884396800,8.666396728515625,0.4356009097635746,-0.19035510633438824,0.7710667900830507
1782829712894324700,8.67632470703125,0.4201362141281366,-0.23166224536523222,0.7095145892724395
1782829712904254000,8.68625390625,0.3086772421151399,-0.3211990161664784,0.6024743835497647
1782829712914183000,8.696182861328126,0.27224340820908544,-0.4222971915543079,0.6084895156534388
1782829712924110800,8.70611083984375,0.29133213956058024,-0.5181478216774761,0.6047841217968613
1782829712934039800,8.716039794921874,0.27670915544629093,-0.5922257420621811,0.5973490033600479
1782829712943967700,8.7259677734375,0.24378654453158377,-0.6545628096401691,0.6271868730671704
1782829712953897000,8.73589697265625,0.23686405179202555,-0.6925387584216892,0.6400451855964958
1782829712963825000,8.745824951171874,0.22240707189440725,-0.7291295364551246,0.5797631143195554
1782829712973753900,8.75575390625,0.2299953350663185,-0.696319446004182,0.499613838131912
1782829712983681800,8.765681884765625,0.15092998165786264,-0.6979521617725492,0.4753732039099559
1782829712993610800,8.77561083984375,0.15034604429006576,-0.728906833615154,0.5046160303333774
1782829713003539000,8.7855390625,0.06665712273418903,-0.7142483397960663,0.5156954600892961
1782829713013468000,8.795468017578125,0.009793664261698722,-0.6347704600639641,0.5106893954303116
1782829713023395800,8.805395751953125,-0.026350831308960914,-0.5616144768297672,0.5149535922134295
1782829713033325000,8.815324951171876,-0.14547405433952806,-0.5533450995258986,0.4969721645167097
1782829713043253000,8.8252529296875,-0.06824994488358498,-0.5434069122269749,0.45241636242084204
1782829713053182000,8.835181884765625,-0.13688976586759088,-0.579964664773643,0.5174527520854025
1782829713063110000,8.84510986328125,-0.2038537625938654,-0.6802918557889759,0.6289001067258417
1782829713073038800,8.855038818359375,-0.22802900342941282,-0.724854051093012,0.7152699379287659
1782829713082966800,8.864966796875,-0.26400457217395307,-0.7041516009345651,0.7790498977914452
1782829713092896000,8.87489599609375,-0.30666882490217684,-0.6708138333477079,0.7638747596871107
1782829713102824000,8.884823974609375,-0.36012393623590466,-0.6312314722828567,0.7132685349784791
1782829713112753000,8.8947529296875,-0.4017962553173303,-0.6145815123856068,0.7453680660072713
1782829713122680800,8.904680908203124,-0.4579384137779474,-0.605726005756855,0.7789424918942153
1782829713132609800,8.91460986328125,-0.3798340143561363,-0.5653165462180971,0.7591808297172188
1782829713142538800,8.924538818359375,-0.3266466140478849,-0.5135923503302038,0.8139072030957788
1782829713152466700,8.934466796875,-0.44380759709477424,-0.4127215539574623,0.8185819899737834
1782829713162396000,8.94439599609375,-0.7016273431539535,-0.33933760718628764,0.7686265573240816
1782829713172323800,8.95432373046875,-0.9334919792234897,-0.36265652345344424,0.667127692180872
1782829713182252800,8.964252685546874,-1.1694546982616185,-0.2990298544563353,0.5814801473705098
1782829713192181000,8.974180908203126,-1.4143003964573144,-0.2643215291686356,0.5706837723396718
1782829713202109700,8.984109619140625,-1.5480635547369717,-0.2742320978082716,0.6514012768693268
1782829713212038000,8.994037841796874,-1.6274889736294746,-0.1249164194792509,0.6731484868403523
1782829713221967000,9.003967041015626,-1.6850754856795072,0.06896788389459252,0.597537219408527
1782829713231895000,9.01389501953125,-1.552774216645956,0.2302640690051019,0.46132352617159483
1782829713241824000,9.023823974609375,-1.4604741186112165,0.36304464598819614,0.3291248041970655
1782829713251752000,9.033751953125,-1.206084347000718,0.3765988318271935,0.3353129547800869
1782829713261681000,9.043680908203125,-0.889656344628334,0.3294423822462559,0.41461763336975127
1782829713271608800,9.05360888671875,-0.67433017090559,0.3214947842426598,0.47141884026098996
1782829713281537800,9.063537841796874,-0.4181301350027323,0.270405379126966,0.4488274710834026
1782829713291466000,9.073466064453125,-0.0367997446089983,0.25190833005830643,0.5132563963741064
1782829713301395000,9.08339501953125,0.25889701990187164,0.32939781245216726,0.5841498049711809
1782829713311323000,9.093322998046874,0.4723603223621845,0.3376866251088679,0.5706209727691486
1782829713321251800,9.103251953125,0.7423527367740869,0.29374957596585155,0.5842650288486853
1782829713331179800,9.1131796875,0.8897837704002857,0.28868527831360696,0.5296447096604854
1782829713341108700,9.123108642578124,1.0885936936080456,0.3379590123094618,0.48886411525439466
1782829713351036700,9.13303662109375,1.145434355726838,0.361810135757178,0.5548686558313668
1782829713360965600,9.142965576171875,1.083629933720827,0.38499899590387937,0.49432855467274783
1782829713370893800,9.152893798828124,1.0953010822921991,0.4900523386582732,0.3217655640080571
1782829713380822800,9.16282275390625,0.9856979672789573,0.5936861700035632,0.1879088822260499
1782829713390751700,9.172751708984375,0.7721189294844866,0.6393911056019366,0.10507345396066084
1782829713400680000,9.182679931640624,0.5297387446194887,0.5893360119700431,0.13171644574976527
1782829713410609000,9.19260888671875,0.13287585405111313,0.5450706076554954,0.12972601171806453
1782829713420536800,9.202536865234375,-0.24586101271808147,0.5200210682034492,0.07377548510571941
1782829713430465800,9.2124658203125,-0.6513041001051664,0.5254938005261123,-0.032575213115988294
1782829713440393700,9.222393798828126,-1.0473246946305035,0.5498144411817193,-0.12974750203066504
1782829713450323000,9.232322998046875,-1.2698393185526131,0.5280345710501074,-0.16578056398294866
1782829713460251000,9.2422509765625,-1.3976380154699086,0.5454691054537892,-0.18301942968405782
1782829713470179800,9.252179931640624,-1.4084376419037579,0.5815479884423315,-0.1525589163002558
1782829713480107800,9.262107666015625,-1.3431366099536417,0.5255700806327164,-0.200986792322807
1782829713490036700,9.27203662109375,-1.151298279324174,0.47576443171724675,-0.21779026228133588
1782829713499964700,9.281964599609376,-0.7658271358639002,0.488545733487606,-0.16247315646801144
1782829713509893600,9.2918935546875,-0.4500000219941139,0.40082755641564727,-0.11815296235946006
1782829713519821600,9.301821533203125,-0.09347498703300952,0.23851781034842132,-0.03725049318433739
1782829713529750800,9.311750732421874,0.27287586089372634,0.11074205591529607,0.013201314997428562
1782829713539676700,9.3216767578125,0.2706570158004761,0.12331702145859598,-0.019904075455525888
1782829713549606000,9.33160595703125,0.6350877093195915,0.03469371224045753,-0.031135928427334873
1782829713559533800,9.341533935546876,0.8981734130829572,-0.07825944385305046,-0.04849700486916117
1782829713569462800,9.351462890625,1.0531804349213838,-0.18743001266792417,-0.010649276444036513
1782829713579390700,9.361390625,1.1384797142833472,-0.27514760521799325,0.07947071933895349
1782829713589319700,9.371319580078126,1.1126561217188835,-0.28972675019055605,0.16477023616293443
1782829713599247600,9.38124755859375,1.1210691452771424,-0.2414535715393722,0.08606131324302405
1782829713609176800,9.3911767578125,1.0579968952924013,-0.24753099175691604,0.02621295720823109
1782829713619104800,9.401104736328126,0.9624784197330474,-0.3011328180849552,0.0380406115155667
1782829713629033700,9.41103369140625,0.9301578663647174,-0.32298779927939175,0.08552187260407954
1782829713638961700,9.420961669921875,0.9017495180040598,-0.3272723447307944,0.09232863000947981
1782829713648890600,9.430890625,0.8862070809572935,-0.3348904185190797,0.058436763070663436
1782829713658818800,9.44081884765625,0.8399152853816747,-0.3099054687358439,0.05099021905753761
1782829713668747800,9.450747802734375,0.7536053676724433,-0.3293437441773712,0.02995274652475491
1782829713678676700,9.4606767578125,0.6652595602214336,-0.38088746893182396,0.025418966419482603
1782829713688605000,9.47060498046875,0.5533160195618868,-0.3804004160672426,0.0017395919426344334
1782829713698534000,9.480533935546875,0.44727147381305693,-0.40341304286420343,-0.04820096279834397
1782829713708461800,9.4904619140625,0.3673328447014093,-0.44642128672450776,-0.04991089938823134
1782829713718390800,9.500390869140626,0.3288514306157827,-0.429267468958348,-0.017518888218887148
1782829713728318700,9.510318603515625,0.25058804123997686,-0.4229059711024165,-0.031266276808734984
1782829713738248000,9.520248046875,0.21445698967278,-0.4567984499625861,-0.046931116392463446
1782829713748176000,9.53017578125,0.17802315576672553,-0.4616951359629631,-0.002514868897758424
1782829713758104800,9.540104736328125,0.05994447335302829,-0.5057597570084035,0.06477947402773425
1782829713768032800,9.55003271484375,0.15183599058687686,-0.5205760717377066,-0.03550332985660061
1782829713777961700,9.559961669921876,0.19533727866113185,-0.43312662860453127,-0.07768405511789024
1782829713787889700,9.5698896484375,0.14642916310727597,-0.47648880046904085,-0.052731327103823424
1782829713797818600,9.579818603515625,0.1562041226685047,-0.5763029273957013,-0.06394828390059992
1782829713807746600,9.58974658203125,0.16771335867643355,-0.5992728840947151,-0.023981672758515923
1782829713817675800,9.59967578125,0.20245091005861757,-0.6352491834916174,-0.04499998393310234
1782829713827603700,9.609603759765625,0.16496376770734786,-0.6953592226698995,-0.09935544164003804
1782829713837532700,9.61953271484375,0.10307283646166324,-0.7728639026328921,-0.13977253649597987
1782829713847460900,9.6294609375,-0.037895138630270955,-0.8571643802158534,-0.10647592290341854
1782829713857389600,9.6393896484375,-0.1696545558720827,-0.9291041195280849,-0.1709420018667355
1782829713867317800,9.64931787109375,-0.1143985325962305,-0.8644488381356,-0.3081004651404917
1782829713877247000,9.6592470703125,-0.12147300102710723,-0.7314812141478061,-0.24693825002815573
1782829713887175700,9.66917578125,-0.24351357280910013,-0.7583433559797704,-0.2752073360485956
1782829713897104000,9.679103759765624,-0.27019991968274115,-0.7347000300638378,-0.24176935949027537
1782829713907032800,9.68903271484375,-0.3033417263060808,-0.6604068594932556,-0.23407405574731527
1782829713916960800,9.698960693359375,-0.39239655880928037,-0.6814383954755961,-0.2721976693712175
1782829713926889700,9.7088896484375,-0.5072919350117445,-0.7517192616648971,-0.30657785868309434
1782829713936817700,9.718817626953125,-0.5123918884992599,-0.7932930888079106,-0.3736075045241043
1782829713946747000,9.728746826171875,-0.4264320994019508,-0.7515886210225522,-0.27314547161534425
1782829713956674800,9.7386748046875,-0.4183995995938778,-0.751418379022181,-0.07268920597266405
1782829713966603800,9.748603759765626,-0.43082419688105583,-0.6217001122191548,-0.08139120254013688
1782829713976531700,9.75853173828125,-0.6180868901580572,-0.596666647119075,-0.17751765393000096
1782829713986460700,9.768460693359375,-0.7366080556422472,-0.6436148607768118,-0.3851322668947279
1782829713996388600,9.778388671875,0.3222521784812212,-0.5882004320688545,-0.36530711102746427
1782829714006317800,9.78831787109375,0.28047230737209317,-0.22886852299347518,0.33518655192144214
1782829714016245800,9.798245849609375,-1.2087485977739094,-0.5372863835200667,0.764439042506367
1782829714026174700,9.8081748046875,-1.503746858626604,-1.176700577736646,0.6338403396070003
1782829714036102700,9.8181025390625,-1.89988143492043,-0.9311622211016714,0.3706881099460646
1782829714046031600,9.828031494140625,-1.7958710253477095,-0.16653087089359758,0.32647472807969896
1782829714055959800,9.837959716796876,-1.8709680596470832,0.19481661578789353,0.31605182600375265
1782829714065888800,9.847888671875,-1.8430208990573882,0.35737682948485017,0.3895450783682987
1782829714075817000,9.85781689453125,-1.2203268073648215,0.5682734963275492,0.5329236582659185
1782829714085746000,9.867745849609374,-0.9492869297266006,0.9012434681780636,0.8945994270537048
