time,seconds_elapsed,z,y,x
1782829704296243200,0.0782431640625,0.21425536274909973,-0.14480699598789215,0.12075930833816528
1782829704306172200,0.088172119140625,0.20478655397891998,-0.05168282240629196,0.20616742968559265
1782829704316098800,0.098098876953125,0.202728733420372,0.06697538495063782,0.29923319816589355
1782829704326027800,0.10802783203125,0.2054617553949356,0.2050786316394806,0.37176886200904846
1782829704335956000,0.1179560546875,0.1984158307313919,0.2923637330532074,0.4138473570346832
1782829704345885000,0.127885009765625,0.19575317203998566,0.2724253833293915,0.437622606754303
1782829704355813000,0.137813232421875,0.18429093062877655,0.22438888251781464,0.5107543468475342
1782829704365742000,0.1477421875,0.16441702842712402,0.24233640730381012,0.6583312153816223
1782829704375670000,0.157669921875,0.12253587692975998,0.29453009366989136,0.8559665083885193
1782829704385599000,0.167598876953125,0.04484248906373978,0.31212857365608215,1.0540661811828613
1782829704395527000,0.17752685546875,-0.013880212791264057,0.28276509046554565,1.240950107574463
1782829704405456000,0.187455810546875,-0.05868755280971527,0.13454526662826538,1.4076894521713257
1782829704415383800,0.1973837890625,-0.05930434167385101,-0.16848385334014893,1.5119929313659668
1782829704425313000,0.20731298828125,-0.05354243144392967,-0.5631899237632751,1.577579379081726
1782829704435241000,0.217240966796875,-0.0604538656771183,-0.8369080424308777,1.518414855003357
1782829704445170000,0.227169921875,-0.09087200462818146,-0.7822365164756775,1.4161455631256104
1782829704455097900,0.237097900390625,-0.15154972672462463,-0.30938002467155457,1.2794519662857056
1782829704465026800,0.24702685546875,-0.21849378943443298,0.39323925971984863,1.0692600011825562
1782829704474954800,0.256954833984375,-0.2842504382133484,0.9874040484428406,0.7104771137237549
1782829704484884000,0.266884033203125,-0.2902722656726837,1.2771128416061401,0.23065327107906342
1782829704494812000,0.27681201171875,-0.17795319855213165,1.104575753211975,-0.23650352656841278
1782829704504740900,0.286740966796875,0.0911087766289711,0.5078768730163574,-0.5745673179626465
1782829704514669000,0.2966689453125,0.38666480779647827,-0.2672148644924164,-0.7933098077774048
1782829704524597800,0.30659765625,0.566071629524231,-1.0378015041351318,-1.0102092027664185
1782829704534526000,0.31652587890625,0.5862525105476379,-1.5719324350357056,-1.2789801359176636
1782829704544455000,0.326454833984375,0.49461105465888977,-1.6536891460418701,-1.536094307899475
1782829704554383000,0.336383056640625,0.3928961455821991,-1.3507188558578491,-1.736135721206665
1782829704564312000,0.34631201171875,0.3144921660423279,-0.8937899470329285,-1.8102104663848877
1782829704574240000,0.356239990234375,0.2258930653333664,-0.3770621418952942,-1.7398631572723389
1782829704584168000,0.36616796875,0.1558709442615509,0.1100553423166275,-1.5704395771026611
1782829704594097000,0.376096923828125,0.15705204010009766,0.4192448556423187,-1.3642094135284424
1782829704604024800,0.38602490234375,0.2530599534511566,0.4775821566581726,-1.1552808284759521
1782829704613953800,0.395953857421875,0.34468841552734375,0.39392080903053284,-0.9630063772201538
1782829704623881700,0.4058818359375,0.36022597551345825,0.25694409012794495,-0.7646476626396179
1782829704633811000,0.41581103515625,0.3302081525325775,0.1660032570362091,-0.5464058518409729
1782829704643739000,0.42573876953125,0.2913057804107666,0.1266147494316101,-0.3528674244880676
1782829704653667800,0.435667724609375,0.2572695314884186,0.03733280673623085,-0.23761779069900513
1782829704663596000,0.445595947265625,0.23350651562213898,-0.03806770220398903,-0.17611455917358398
1782829704673524700,0.455524658203125,0.21897311508655548,-0.03988317772746086,-0.15018415451049805
1782829704683453000,0.465452880859375,0.21022078394889832,-0.041307270526885986,-0.1671721488237381
1782829704693382100,0.475382080078125,0.21882732212543488,-0.07318397611379623,-0.2121438831090927
1782829704703310000,0.48531005859375,0.22439900040626526,-0.08283127099275589,-0.29157888889312744
1782829704713239000,0.495239013671875,0.22162584960460663,-0.030801888555288315,-0.3665822744369507
1782829704723167000,0.5051669921875,0.18787755072116852,0.022981463000178337,-0.41013360023498535
1782829704733096000,0.515095947265625,0.14399398863315582,0.0689188539981842,-0.38742324709892273
1782829704743023900,0.52502392578125,0.10192934423685074,0.15060554444789886,-0.31112515926361084
1782829704752952800,0.534952880859375,0.06820892542600632,0.17938446998596191,-0.22392073273658752
1782829704762881000,0.544881103515625,0.07146003097295761,0.16629701852798462,-0.15211433172225952
1782829704772810000,0.55481005859375,0.09698536247015,0.16714736819267273,-0.12656636536121368
1782829704782738000,0.564738037109375,0.12604089081287384,0.1418527364730835,-0.15445078909397125
1782829704792667000,0.5746669921875,0.13423223793506622,0.12171017378568649,-0.1945047378540039
1782829704802594800,0.5845947265625,0.12251531332731247,0.16890257596969604,-0.1820458024740219
1782829704812523800,0.594523681640625,0.11244776844978333,0.2640807330608368,-0.1354852318763733
1782829704822451700,0.60445166015625,0.12582993507385254,0.3343973457813263,-0.10861951857805252
1782829704832381000,0.614380859375,0.17942872643470764,0.3546682596206665,-0.09474125504493713
1782829704842309000,0.62430908203125,0.25285813212394714,0.33227890729904175,-0.09028540551662445
1782829704852237800,0.63423779296875,0.30094707012176514,0.29588600993156433,-0.07120518386363983
1782829704862166000,0.644166015625,0.31553319096565247,0.25608766078948975,-0.029586415737867355
1782829704872095000,0.654094970703125,0.3225889801979065,0.18619008362293243,0.029637224972248077
1782829704882023000,0.66402294921875,0.330615758895874,0.1398417204618454,0.09975242614746094
1782829704891952000,0.6739521484375,0.3396183252334595,0.08604639768600464,0.14107589423656464
1782829704901880000,0.683880126953125,0.33931612968444824,0.019908171147108078,0.15953300893306732
1782829704911808000,0.69380810546875,0.32865121960639954,0.0009145066142082214,0.17570613324642181
1782829704921737000,0.703737060546875,0.29960083961486816,0.029908008873462677,0.19089169800281525
1782829704931665000,0.713664794921875,0.28337526321411133,0.10431060940027237,0.20112968981266022
1782829704941593900,0.72359375,0.2825472056865692,0.18533723056316376,0.21068529784679413
1782829704951521800,0.733521728515625,0.28765514492988586,0.23824359476566315,0.2101694494485855
1782829704961450800,0.74345068359375,0.294271856546402,0.2512827515602112,0.19995331764221191
1782829704971379000,0.75337890625,0.31542137265205383,0.2135883867740631,0.18163689970970154
1782829704981308000,0.763307861328125,0.3455853760242462,0.13609614968299866,0.1393330842256546
1782829704991236000,0.773236083984375,0.36702993512153625,0.059424541890621185,0.10531731694936752
1782829705001164800,0.783164794921875,0.3779459595680237,0.01941223070025444,0.0799255222082138
1782829705011093000,0.793093017578125,0.3566848635673523,0.041813675314188004,0.07159914821386337
1782829705021022000,0.80302197265625,0.32137471437454224,0.09928639978170395,0.06869672238826752
1782829705030950000,0.812949951171875,0.3005567789077759,0.1487213373184204,0.04977922514081001
1782829705040879000,0.822879150390625,0.29482996463775635,0.13569201529026031,-0.009974800050258636
1782829705050807000,0.83280712890625,0.29859113693237305,0.09438824653625488,-0.07127464562654495
1782829705060736000,0.842736083984375,0.30095088481903076,0.03135976567864418,-0.1205335259437561
1782829705070664000,0.852663818359375,0.2901155650615692,-0.060923028737306595,-0.15941780805587769
1782829705080593000,0.862593017578125,0.28531667590141296,-0.13622716069221497,-0.2023993879556656
1782829705090520800,0.872520751953125,0.29035618901252747,-0.16739945113658905,-0.2327418476343155
1782829705100450000,0.882449951171875,0.3023729920387268,-0.14613455533981323,-0.19793300330638885
1782829705110378000,0.8923779296875,0.3192039132118225,-0.07207497954368591,-0.0758073627948761
1782829705120307000,0.902306884765625,0.3406422734260559,0.07091687619686127,0.11148018389940262
1782829705130235000,0.91223486328125,0.35592082142829895,0.23626109957695007,0.3101421296596527
1782829705140163800,0.922163818359375,0.3856772780418396,0.36956384778022766,0.46871599555015564
1782829705150091800,0.932091796875,0.42093220353126526,0.454641729593277,0.558083176612854
1782829705160020700,0.942020751953125,0.43781667947769165,0.4811807870864868,0.5834329724311829
1782829705169949000,0.951948974609375,0.4239892363548279,0.44393619894981384,0.5444186925888062
1782829705179878000,0.9618779296875,0.4103652536869049,0.3491300046443939,0.45404958724975586
1782829705189806000,0.97180615234375,0.4116017818450928,0.2070077508687973,0.33458393812179565
1782829705199735000,0.981735107421875,0.418639212846756,0.10694006085395813,0.2229107916355133
1782829705209663000,0.9916630859375,0.4201161861419678,0.0910351350903511,0.14889061450958252
1782829705219592000,1.001592041015625,0.4141325056552887,0.1339081972837448,0.11322988569736481
1782829705229520000,1.011519775390625,0.39846351742744446,0.21978183090686798,0.11431672424077988
1782829705239449000,1.021448974609375,0.3933727741241455,0.3126643896102905,0.12564055621623993
1782829705249377000,1.031376953125,0.39531394839286804,0.36718329787254333,0.1353224664926529
1782829705259306000,1.041305908203125,0.41673803329467773,0.32301294803619385,0.16091932356357574
1782829705269234000,1.05123388671875,0.44046440720558167,0.2105385959148407,0.19249242544174194
1782829705279163000,1.061162841796875,0.4518585801124573,0.052956923842430115,0.1913650780916214
1782829705289090800,1.0710908203125,0.4407348334789276,-0.07965518534183502,0.14252084493637085
1782829705299018800,1.081018798828125,0.4152907133102417,-0.15395799279212952,0.0505218505859375
1782829705308948000,1.090947998046875,0.36715540289878845,-0.2046656459569931,-0.04584995657205582
1782829705318877400,1.10087744140625,0.30190080404281616,-0.20383170247077942,-0.10004017502069473
1782829705328806400,1.110806396484375,0.23330095410346985,-0.16862817108631134,-0.11711050570011139
1782829705338734300,1.120734375,0.1816314458847046,-0.09868970513343811,-0.1138138622045517
1782829705348663300,1.130663330078125,0.15491753816604614,-0.026524432003498077,-0.10589201748371124
1782829705358591200,1.14059130859375,0.13881990313529968,0.025835378095507622,-0.10330420732498169
1782829705368520400,1.1505205078125,0.13105466961860657,0.04164337366819382,-0.12461163103580475
1782829705378448400,1.160448486328125,0.13189373910427094,0.03106461465358734,-0.1453213095664978
1782829705388377300,1.17037744140625,0.13852182030677795,0.02902143821120262,-0.1492241621017456
1782829705398305500,1.180305419921875,0.14935190975666046,0.007280070334672928,-0.12062274664640427
1782829705408234200,1.190234130859375,0.1456698179244995,-0.03649910166859627,-0.07756688445806503
1782829705418162400,1.200162353515625,0.11901719123125076,-0.10700185596942902,-0.04040843993425369
1782829705428091600,1.210091552734375,0.06997641175985336,-0.18130962550640106,-0.026215653866529465
1782829705438019600,1.22001953125,0.007696321699768305,-0.2370143085718155,-0.04011077806353569
1782829705447948500,1.229948486328125,-0.06564021110534668,-0.244766503572464,-0.07616544514894485
1782829705457876500,1.23987646484375,-0.13169652223587036,-0.20589220523834229,-0.12235523760318756
1782829705467805400,1.249805419921875,-0.18052318692207336,-0.1376393884420395,-0.1699744164943695
1782829705477733400,1.2597333984375,-0.2046736180782318,-0.07481920719146729,-0.20103813707828522
1782829705487662300,1.269662353515625,-0.2060541957616806,0.004803715273737907,-0.19870920479297638
1782829705497590500,1.279590576171875,-0.1961968094110489,0.073553167283535,-0.19258536398410797
1782829705507519500,1.28951953125,-0.19990234076976776,0.11286355555057526,-0.19654814898967743
1782829705517447400,1.299447509765625,-0.2213713377714157,0.09647176414728165,-0.22865204513072968
1782829705527376400,1.30937646484375,-0.24776141345500946,0.005585802718997002,-0.28297731280326843
1782829705537304300,1.31930419921875,-0.259731650352478,-0.07120935618877411,-0.31336522102355957
1782829705547233300,1.3292333984375,-0.28090113401412964,-0.15152177214622498,-0.3078194558620453
1782829705557161200,1.3391611328125,-0.31978586316108704,-0.18698005378246307,-0.25142326951026917
1782829705567090400,1.34909033203125,-0.36587774753570557,-0.16878880560398102,-0.18090702593326569
1782829705577018600,1.3590185546875,-0.42132046818733215,-0.13453447818756104,-0.13687989115715027
1782829705586947300,1.368947265625,-0.46861234307289124,-0.1129535436630249,-0.14867715537548065
1782829705596875500,1.37887548828125,-0.49491646885871887,-0.08838284015655518,-0.19170966744422913
1782829705606804500,1.388804443359375,-0.4961870610713959,-0.03569725900888443,-0.22183296084403992
1782829705616732400,1.398732421875,-0.4810524880886078,0.017293144017457962,-0.22009381651878357
1782829705626661600,1.40866162109375,-0.4488128125667572,0.05578913539648056,-0.1818942278623581
1782829705636589600,1.418589599609375,-0.41375795006752014,0.0801444798707962,-0.12025891989469528
1782829705646518500,1.4285185546875,-0.39338237047195435,0.09133295714855194,-0.0605524443089962
1782829705656446500,1.438446533203125,-0.36498570442199707,0.07842441648244858,-0.029672350734472275
1782829705666374400,1.44837451171875,-0.3470834195613861,0.04683719575405121,-0.020528120920062065
1782829705676303400,1.458303466796875,-0.3174407184123993,0.009412034414708614,-0.01756538264453411
1782829705686231300,1.468231201171875,-0.31180521845817566,-0.027058091014623642,0.006995887961238623
1782829705696160300,1.47816015625,-0.31070396304130554,-0.03984813764691353,0.05037275329232216
1782829705706088400,1.48808837890625,-0.3081691563129425,-0.07115865498781204,0.09297294169664383
1782829705716017400,1.498017333984375,-0.293753981590271,-0.11821937561035156,0.12083040177822113
1782829705725945600,1.507945556640625,-0.28446248173713684,-0.16925913095474243,0.13808023929595947
1782829705735874300,1.517874267578125,-0.27082547545433044,-0.1797061562538147,0.16117404401302338
1782829705745802500,1.527802490234375,-0.2663995623588562,-0.11607658863067627,0.18451717495918274
1782829705755731500,1.5377314453125,-0.2640122175216675,-0.025342673063278198,0.20952683687210083
1782829705765659400,1.547659423828125,-0.27071085572242737,0.06110060587525368,0.2354860007762909
1782829705775588600,1.557588623046875,-0.2846723198890686,0.13741475343704224,0.25542211532592773
1782829705785516500,1.5675166015625,-0.3081592917442322,0.2140386998653412,0.2754109799861908
1782829705795445500,1.577445556640625,-0.3352314531803131,0.23348504304885864,0.2819037139415741
1782829705805373400,1.58737353515625,-0.35633140802383423,0.17257215082645416,0.27878275513648987
1782829705815302400,1.597302490234375,-0.38488295674324036,0.04234076663851738,0.22369885444641113
1782829705825230300,1.607230224609375,-0.4171024262905121,-0.132634237408638,0.10803455859422684
1782829705835159600,1.61715966796875,-0.4483617842197418,-0.27510201930999756,-0.04574183374643326
1782829705845087500,1.62708740234375,-0.47842592000961304,-0.3764459490776062,-0.19323568046092987
1782829705855016400,1.637016357421875,-0.507416307926178,-0.393271803855896,-0.27168935537338257
1782829705864944400,1.6469443359375,-0.518459141254425,-0.3295128047466278,-0.2660338580608368
1782829705874873300,1.656873291015625,-0.5119307041168213,-0.22518548369407654,-0.19340570271015167
1782829705884801300,1.66680126953125,-0.48963919281959534,-0.1010957583785057,-0.06119734048843384
1782829705894730200,1.676730224609375,-0.45699408650398254,0.007861414924263954,0.1139281764626503
1782829705904658400,1.686658447265625,-0.42794087529182434,0.04642025753855705,0.2675875127315521
1782829705914587400,1.69658740234375,-0.39955198764801025,-0.004522441886365414,0.3495616316795349
1782829705924515600,1.706515625,-0.3488895893096924,-0.10340268164873123,0.35249456763267517
1782829705934444500,1.716444580078125,-0.2919853925704956,-0.22439974546432495,0.3036423325538635
1782829705944372500,1.72637255859375,-0.2571142315864563,-0.31983304023742676,0.22107793390750885
1782829705954301400,1.736301513671875,-0.26223811507225037,-0.3270892798900604,0.15896855294704437
1782829705964229400,1.7462294921875,-0.30012691020965576,-0.2334221601486206,0.11904508620500565
1782829705974158600,1.75615869140625,-0.34034720063209534,-0.10264203697443008,0.07762321829795837
1782829705984086500,1.76608642578125,-0.3598977327346802,0.062401242554187775,0.04741897061467171
1782829705994015500,1.776015380859375,-0.3635424077510834,0.19804804027080536,0.02782270312309265
1782829706003943400,1.785943359375,-0.3541089594364166,0.22702829539775848,0.03258736431598663
1782829706013872400,1.795872314453125,-0.3256152868270874,0.21066899597644806,0.079744353890419
1782829706023800300,1.80580029296875,-0.2975703477859497,0.14297915995121002,0.1471441686153412
1782829706033729300,1.815729248046875,-0.2722048759460449,0.04176272824406624,0.2097553163766861
1782829706043657500,1.825657470703125,-0.25238776206970215,-0.05901768058538437,0.22904884815216064
1782829706053586400,1.83558642578125,-0.23543377220630646,-0.15635278820991516,0.20457576215267181
1782829706063514400,1.845514404296875,-0.23851878941059113,-0.23630328476428986,0.1417296826839447
1782829706073443300,1.855443359375,-0.25392550230026245,-0.2680262327194214,0.06391919404268265
1782829706083371500,1.86537158203125,-0.2656697630882263,-0.20777249336242676,-0.021903572604060173
1782829706093299500,1.875299560546875,-0.25375720858573914,-0.063153937458992,-0.11324383318424225
1782829706103228400,1.885228515625,-0.2295602560043335,0.11402936279773712,-0.18951569497585297
1782829706113156400,1.89515625,-0.19711007177829742,0.2616550326347351,-0.25068536400794983
1782829706123085600,1.90508544921875,-0.1693761795759201,0.3325696885585785,-0.28615838289260864
1782829706133013500,1.915013427734375,-0.14165599644184113,0.32776716351509094,-0.28221675753593445
1782829706142942500,1.9249423828125,-0.11391864717006683,0.2653818130493164,-0.24209676682949066
1782829706152870400,1.934870361328125,-0.08767484128475189,0.15560303628444672,-0.1673429161310196
1782829706162799400,1.94479931640625,-0.04342695698142052,0.05663491040468216,-0.057690709829330444
1782829706172727300,1.954727294921875,-0.00031413231045007706,0.046673838049173355,0.06274022907018661
1782829706182656500,1.964656494140625,0.0405677855014801,0.04694308713078499,0.1474766880273819
1782829706192584400,1.97458447265625,0.08158646523952484,0.03625704348087311,0.16862894594669342
1782829706202513400,1.984513427734375,0.1270279735326767,0.0481155663728714,0.12537308037281036
1782829706212441300,1.99444140625,0.15306809544563293,0.06027689203619957,0.028581280261278152
1782829706222370300,2.004370361328125,0.17142419517040253,0.06327800452709198,-0.07370194792747498
1782829706232298500,2.014298583984375,0.17800919711589813,0.055382225662469864,-0.15941442549228668
1782829706242227200,2.024227294921875,0.17607174813747406,0.016158659011125565,-0.20839396119117737
1782829706252155600,2.03415576171875,0.18064212799072266,-0.033064790070056915,-0.23644176125526428
1782829706262084600,2.044084716796875,0.1798383891582489,-0.09837853908538818,-0.23107735812664032
1782829706272012500,2.054012451171875,0.17216530442237854,-0.1526951789855957,-0.2022249549627304
1782829706281941500,2.06394140625,0.15242595970630646,-0.1751949042081833,-0.14806371927261353
1782829706291869400,2.073869384765625,0.14199140667915344,-0.1825016736984253,-0.08941769599914551
1782829706301798400,2.08379833984375,0.14316239953041077,-0.15942725539207458,-0.0375390499830246
1782829706311726300,2.093726318359375,0.17262683808803558,-0.07944022864103317,0.012857416644692421
1782829706321654800,2.10365478515625,0.20591261982917786,0.025302428752183914,0.049277741461992264
1782829706331582700,2.113582763671875,0.2404811829328537,0.11491566151380539,0.0739554911851883
1782829706341511700,2.12351171875,0.26920151710510254,0.169589564204216,0.09367566555738449
1782829706351439600,2.133439697265625,0.2812584936618805,0.1857108324766159,0.12316539138555527
1782829706361368800,2.143368896484375,0.28217220306396484,0.1639261692762375,0.16163687407970428
1782829706371296800,2.153296875,0.28403735160827637,0.1449914276599884,0.20296785235404968
1782829706381225700,2.163225830078125,0.2818143963813782,0.12480279803276062,0.2311406284570694
1782829706391154000,2.17315380859375,0.2735586166381836,0.09469962865114212,0.23363417387008667
1782829706401083000,2.183082763671875,0.24798958003520966,0.05608006566762924,0.20896291732788086
1782829706411010800,2.1930107421875,0.2184371054172516,0.026225686073303223,0.175615131855011
1782829706420939800,2.202939697265625,0.18471616506576538,0.04547421634197235,0.15078115463256836
1782829706430868000,2.212867919921875,0.17028078436851501,0.05988942086696625,0.12485862523317337
1782829706440797000,2.222796875,0.17266298830509186,0.0675785019993782,0.092142753303051
1782829706450724900,2.232724853515625,0.17938180267810822,0.06256219744682312,0.06866645812988281
1782829706460653800,2.24265380859375,0.18208278715610504,0.05244138836860657,0.05877308547496796
1782829706470581800,2.252581787109375,0.17782555520534515,0.049261730164289474,0.07434819638729095
1782829706480510700,2.2625107421875,0.16294540464878082,0.06770758330821991,0.09984583407640457
1782829706490438700,2.272438720703125,0.14634005725383759,0.06846227496862411,0.11262483149766922
1782829706500368000,2.282367919921875,0.13559207320213318,0.0657770112156868,0.12085666507482529
1782829706510295800,2.2922958984375,0.12110275775194168,0.07630162686109543,0.11294785887002945
1782829706520224800,2.302224853515625,0.09481576085090637,0.09865061193704605,0.08462274074554443
1782829706530152700,2.312152587890625,0.07248388975858688,0.0898996889591217,0.002949705347418785
1782829706540081700,2.32208154296875,0.0763888880610466,0.06597970426082611,-0.11857353150844574
1782829706550009600,2.332009521484375,0.09716316312551498,0.07510215044021606,-0.23583103716373444
1782829706559938800,2.341938720703125,0.09352368861436844,0.048750173300504684,-0.32119840383529663
1782829706569867000,2.351866943359375,0.08226639032363892,0.016240771859884262,-0.36393123865127563
1782829706579795000,2.361794921875,0.05047943815588951,-0.030727799981832504,-0.366518497467041
1782829706589724000,2.371723876953125,0.01629510335624218,-0.06549537181854248,-0.3446904122829437
1782829706599651800,2.38165185546875,-0.006702891550958157,-0.048127830028533936,-0.3041374087333679
1782829706609580800,2.391580810546875,-0.014363695867359638,-0.008351960219442844,-0.2481827735900879
1782829706619508700,2.4015087890625,0.017349492758512497,0.005722580477595329,-0.2061716765165329
1782829706629437700,2.411437744140625,0.07149185985326767,-0.016166025772690773,-0.16970807313919067
1782829706639366000,2.421365966796875,0.14604145288467407,-0.028221355751156807,-0.12306548655033112
1782829706649294800,2.431294921875,0.22884654998779297,-0.0007102852687239647,-0.05858727544546127
1782829706659222800,2.441222900390625,0.31421712040901184,0.0363321527838707,0.020357608795166016
1782829706669151700,2.45115185546875,0.3807207942008972,0.057998303323984146,0.08960480988025665
1782829706679079700,2.46107958984375,0.4134129583835602,0.053769197314977646,0.1402655988931656
1782829706689008600,2.471008544921875,0.4169541001319885,0.06564179062843323,0.1708178073167801
1782829706698936600,2.4809365234375,0.4003799259662628,0.10737752169370651,0.171141117811203
1782829706708865800,2.49086572265625,0.38052693009376526,0.1780794858932495,0.15114477276802063
1782829706718794000,2.5007939453125,0.3603050112724304,0.26633477210998535,0.11352816969156265
1782829706728722700,2.51072265625,0.3396211564540863,0.3380132019519806,0.06994915753602982
1782829706738651000,2.52065087890625,0.3339339792728424,0.3529370129108429,0.03454535827040672
1782829706748579800,2.530579833984375,0.3421284556388855,0.2885006070137024,0.01863788440823555
1782829706758507800,2.5405078125,0.36366012692451477,0.17932380735874176,0.0273102018982172
1782829706768437000,2.55043701171875,0.39583322405815125,0.06118949502706528,0.05706827715039253
1782829706778365000,2.560364990234375,0.41790685057640076,-0.07020101696252823,0.07686647772789001
1782829706788294000,2.5702939453125,0.43267521262168884,-0.18212439119815826,0.07682306319475174
1782829706798221800,2.580221923828125,0.42962509393692017,-0.26092255115509033,0.04918530955910683
1782829706808150800,2.59015087890625,0.412964403629303,-0.3145289421081543,0.009552462957799435
1782829706818078700,2.60007861328125,0.37327584624290466,-0.3458210825920105,-0.040174614638090134
1782829706828007700,2.610007568359375,0.31824156641960144,-0.36796897649765015,-0.08290404081344604
1782829706837935600,2.619935546875,0.2549630105495453,-0.327824205160141,-0.11705188453197479
1782829706847864800,2.62986474609375,0.1787572056055069,-0.27950912714004517,-0.14664599299430847
1782829706857792800,2.639792724609375,0.10317961871623993,-0.22642993927001953,-0.17630189657211304
1782829706867721700,2.6497216796875,0.030642524361610413,-0.15565341711044312,-0.20017805695533752
1782829706877649700,2.659649658203125,-0.01853088103234768,-0.04375778138637543,-0.19980041682720184
1782829706887578600,2.66957861328125,-0.0473942831158638,0.08502195030450821,-0.1769583523273468
1782829706897506800,2.6795068359375,-0.04167035222053528,0.20505701005458832,-0.14484035968780518
1782829706907435800,2.689435791015625,-0.01564989984035492,0.2769743800163269,-0.10378746688365936
1782829706917364000,2.699364013671875,0.012722885236144066,0.3216129541397095,-0.04084685444831848
1782829706927293000,2.70929296875,0.029222939163446426,0.3334771990776062,0.023358233273029327
1782829706937220900,2.719220947265625,0.03840258717536926,0.29460784792900085,0.08233606070280075
1782829706947149800,2.72914990234375,0.040495503693819046,0.21846838295459747,0.10113080590963364
1782829706957077800,2.739077880859375,0.02835734747350216,0.12334080040454865,0.08087319880723953
1782829706967006700,2.7490068359375,0.013700107112526894,0.016596166417002678,0.027903130277991295
1782829706976935000,2.758934814453125,0.007315977942198515,-0.08458211272954941,-0.04000960290431976
1782829706986863900,2.76886376953125,-0.006619792431592941,-0.1303892880678177,-0.08726264536380768
1782829706996791800,2.778791748046875,-0.027472341433167458,-0.1446443796157837,-0.09928788989782333
1782829707006720800,2.788720703125,-0.05029227212071419,-0.14018604159355164,-0.10030125081539154
1782829707016648700,2.798648681640625,-0.06310607492923737,-0.1289467066526413,-0.09214984625577927
1782829707026577700,2.80857763671875,-0.07296936213970184,-0.11272252351045609,-0.07520779967308044
1782829707036505600,2.818505615234375,-0.07725758850574493,-0.07257616519927979,-0.04357929900288582
1782829707046434800,2.828434814453125,-0.08082840591669083,-0.03028738871216774,-0.00030986638739705086
1782829707056362800,2.83836279296875,-0.0928879976272583,0.0046197278425097466,0.04778122901916504
1782829707066291700,2.848291748046875,-0.12095402181148529,0.041677169501781464,0.07501566410064697
1782829707076220000,2.858219970703125,-0.1412169486284256,0.07220205664634705,0.06471642106771469
1782829707086148900,2.86814892578125,-0.1557796448469162,0.09242024272680283,0.03131452202796936
1782829707096076800,2.878076904296875,-0.18356893956661224,0.05844496190547943,0.014863112010061741
1782829707106006000,2.888006103515625,-0.20341014862060547,0.010197115130722523,0.009052003733813763
1782829707115934000,2.897933837890625,-0.23725679516792297,-0.03876829519867897,0.029787108302116394
1782829707125863000,2.90786279296875,-0.2503596842288971,-0.05896555259823799,0.05413541570305824
1782829707135790800,2.917790771484375,-0.27368924021720886,-0.06464794278144836,0.07590782642364502
1782829707145719800,2.9277197265625,-0.2878513038158417,-0.08760273456573486,0.08733655512332916
1782829707155647700,2.937647705078125,-0.3058561384677887,-0.13614043593406677,0.08473864197731018
1782829707165576700,2.94757666015625,-0.3359863758087158,-0.1957230418920517,0.07197248190641403
1782829707175504600,2.957504638671875,-0.3692287504673004,-0.24551482498645782,0.05526726692914963
1782829707185433900,2.967433837890625,-0.3983382284641266,-0.2715834677219391,0.05180041864514351
1782829707195361800,2.97736181640625,-0.4283195436000824,-0.2606125771999359,0.06890936195850372
1782829707205290800,2.987290771484375,-0.4516229033470154,-0.2186957150697708,0.09568596631288528
1782829707215218700,2.99721875,-0.4541347920894623,-0.1404171586036682,0.11752389371395111
1782829707225147600,3.007147705078125,-0.44719210267066956,-0.028168370947241783,0.12997007369995117
1782829707235075800,3.017075927734375,-0.43801698088645935,0.05348707735538483,0.13375841081142426
1782829707245004800,3.0270048828125,-0.4263276755809784,0.08309955149888992,0.12415942549705505
1782829707254933000,3.03693310546875,-0.4315096437931061,0.07381124794483185,0.10819856077432632
1782829707264861700,3.04686181640625,-0.449753999710083,-0.008716769516468048,0.0676162913441658
1782829707274790000,3.056789794921875,-0.4679490029811859,-0.15226487815380096,-0.0064483461901545525
1782829707284718800,3.06671875,-0.4921536445617676,-0.2981739938259125,-0.09853330254554749
1782829707294646800,3.076646728515625,-0.5345868468284607,-0.4250997304916382,-0.18824294209480286
1782829707304575700,3.08657568359375,-0.580811619758606,-0.514354407787323,-0.24586427211761475
1782829707314504000,3.09650390625,-0.6091727018356323,-0.5156676173210144,-0.2590905725955963
1782829707324433200,3.10643310546875,-0.6172208189964294,-0.44100654125213623,-0.23995551466941833
1782829707334361000,3.116361083984375,-0.5977557897567749,-0.3028486669063568,-0.18405257165431976
1782829707344290000,3.1262900390625,-0.568108856678009,-0.10201568901538849,-0.09081567078828812
1782829707354218000,3.136218017578125,-0.5343543887138367,0.06237272545695305,0.014215143397450447
1782829707364147000,3.14614697265625,-0.4919370412826538,0.13988199830055237,0.10331057757139206
1782829707374075000,3.156074951171875,-0.44573038816452026,0.13493305444717407,0.16585864126682281
1782829707384004000,3.166004150390625,-0.40660861134529114,0.0808611512184143,0.22107326984405518
1782829707393932000,3.17593212890625,-0.3852846920490265,0.038019947707653046,0.2648561894893646
1782829707403860000,3.18585986328125,-0.39273685216903687,0.02209918573498726,0.2836261987686157
1782829707413789000,3.195788818359375,-0.41370710730552673,0.025926947593688965,0.28479212522506714
1782829707423717000,3.205717041015625,-0.43783634901046753,0.03919501602649689,0.2627878189086914
1782829707433646000,3.21564599609375,-0.4567607641220093,0.04594586417078972,0.2385980486869812
1782829707443574800,3.22557470703125,-0.4697223901748657,0.07141682505607605,0.2295871078968048
1782829707453503000,3.2355029296875,-0.4797300100326538,0.08724558353424072,0.23213070631027222
1782829707463431200,3.24543115234375,-0.462961882352829,0.05260220915079117,0.22037337720394135
1782829707473360100,3.255360107421875,-0.41962215304374695,-0.026469435542821884,0.19635245203971863
1782829707483289000,3.2652890625,-0.3653680682182312,-0.11562541872262955,0.155803844332695
1782829707493217000,3.275217041015625,-0.31266435980796814,-0.17497795820236206,0.11042731255292892
1782829707503145000,3.28514501953125,-0.2760951519012451,-0.21447792649269104,0.06746906787157059
1782829707513074000,3.295073974609375,-0.2689434885978699,-0.23659971356391907,0.028144828975200653
1782829707523001900,3.305001953125,-0.27278655767440796,-0.2545163929462433,-0.016208184882998466
1782829707532931000,3.31493115234375,-0.2854464054107666,-0.2493908703327179,-0.0794883593916893
1782829707542859000,3.32485888671875,-0.2973954379558563,-0.20342496037483215,-0.1488957554101944
1782829707552788000,3.3347880859375,-0.3020860552787781,-0.10711200535297394,-0.19664223492145538
1782829707562716000,3.3447158203125,-0.29556700587272644,0.03683195263147354,-0.2160879373550415
1782829707572644900,3.354644775390625,-0.26847708225250244,0.16955885291099548,-0.19582873582839966
1782829707582573000,3.364572998046875,-0.2188074290752411,0.26748788356781006,-0.16145341098308563
1782829707592502000,3.374501953125,-0.15639598667621613,0.32849982380867004,-0.11428909748792648
1782829707602430200,3.38443017578125,-0.08633559942245483,0.30735671520233154,-0.06674271821975708
1782829707612359200,3.394359130859375,-0.0009192395955324173,0.2444176971912384,-0.011902105063199997
1782829707622287000,3.404287109375,0.09111382067203522,0.15706923604011536,0.034322284162044525
1782829707632216000,3.414216064453125,0.1821470558643341,0.03908267617225647,0.06447885185480118
1782829707642144000,3.42414404296875,0.2546665668487549,-0.06740763038396835,0.08178822696208954
1782829707652073000,3.434072998046875,0.29160913825035095,-0.1552908718585968,0.08144441992044449
1782829707662001000,3.4440009765625,0.2963944971561432,-0.2069781869649887,0.06546099483966827
1782829707671930000,3.45393017578125,0.2846315801143646,-0.19956634938716888,0.036645859479904175
1782829707681858000,3.463858154296875,0.26773905754089355,-0.16256891191005707,-0.020502770319581032
1782829707691787000,3.473787109375,0.25373509526252747,-0.11429166793823242,-0.10715723782777786
1782829707701715000,3.48371484375,0.2486182302236557,-0.07001464068889618,-0.19541236758232117
1782829707711644000,3.493643798828125,0.2368886023759842,-0.03903808444738388,-0.26134049892425537
1782829707721571800,3.50357177734375,0.22824789583683014,-0.016567280516028404,-0.29341766238212585
1782829707731501000,3.5135009765625,0.21699178218841553,0.0011339513584971428,-0.2873038351535797
1782829707741429000,3.523428955078125,0.2001725137233734,0.015525128692388535,-0.2590412199497223
1782829707751358000,3.53335791015625,0.17190413177013397,0.028114955872297287,-0.19794510304927826
1782829707761286100,3.5432861328125,0.1491205245256424,0.04823513701558113,-0.13019882142543793
1782829707771214800,3.55321484375,0.13941515982151031,0.06613796949386597,-0.07515181601047516
1782829707781143000,3.56314306640625,0.16027164459228516,0.09251269698143005,-0.044981587678194046
1782829707791072000,3.573072021484375,0.19782699644565582,0.13782772421836853,-0.027688881382346153
1782829707801000200,3.583000244140625,0.23900164663791656,0.1561775505542755,0.006796444300562143
1782829707810929200,3.59292919921875,0.27215319871902466,0.16850344836711884,0.056297417730093
1782829707820857000,3.602857177734375,0.3018428683280945,0.17512503266334534,0.09266660362482071
1782829707830786000,3.6127861328125,0.3397958278656006,0.18729621171951294,0.11179076135158539
1782829707840714000,3.6227138671875,0.3770633041858673,0.18653428554534912,0.10804209858179092
1782829707850643000,3.632642822265625,0.397328644990921,0.17227597534656525,0.09138855338096619
1782829707860571000,3.64257080078125,0.4057369530200958,0.11564953625202179,0.07093674689531326
1782829707870500000,3.6525,0.41401273012161255,0.04975439980626106,0.053798239678144455
1782829707880428000,3.662427978515625,0.41766250133514404,-0.010998357087373734,0.032073974609375
1782829707890357000,3.67235693359375,0.42427486181259155,-0.03054169751703739,0.006399236619472504
1782829707900285000,3.682284912109375,0.4384046196937561,-0.009767113253474236,-0.03323384374380112
1782829707910214000,3.6922138671875,0.45835089683532715,0.03075367957353592,-0.07524947077035904
1782829707920141800,3.702141845703125,0.48617324233055115,0.10379904508590698,-0.09947267174720764
1782829707930071000,3.712071044921875,0.5001615285873413,0.21151085197925568,-0.09665211290121078
1782829707939999000,3.7219990234375,0.5174137353897095,0.304490327835083,-0.06202782690525055
1782829707949928000,3.731927978515625,0.554146945476532,0.33355873823165894,-0.01587124913930893
1782829707959856000,3.741856201171875,0.6038528680801392,0.31630995869636536,0.03160294517874718
1782829707969785000,3.75178515625,0.6523730158805847,0.2624339461326599,0.07598931342363358
1782829707979713000,3.761713134765625,0.6857166290283203,0.19898168742656708,0.12480354309082031
1782829707989642000,3.77164208984375,0.7024694681167603,0.10778573900461197,0.16052637994289398
1782829707999570000,3.78156982421875,0.7029441595077515,0.04200126975774765,0.16068312525749207
1782829708009499100,3.7914990234375,0.7008301615715027,-0.008704785257577896,0.10939143598079681
1782829708019427000,3.801427001953125,0.6928876042366028,-0.05546725168824196,0.038287363946437836
1782829708029356000,3.81135595703125,0.6727789044380188,-0.10355648398399353,-0.04539341852068901
1782829708039284000,3.821283935546875,0.6340224742889404,-0.1348082274198532,-0.11380453407764435
1782829708049213000,3.831212890625,0.5895447731018066,-0.10062815994024277,-0.15428273379802704
1782829708059140900,3.841140869140625,0.5626240372657776,-0.0267493799328804,-0.15826621651649475
1782829708069070000,3.851070068359375,0.5555871725082397,0.09005020558834076,-0.09745825082063675
1782829708078998000,3.860998046875,0.5732442140579224,0.18500125408172607,0.016809701919555664
1782829708088927000,3.870927001953125,0.6352968811988831,0.19223493337631226,0.19121825695037842
1782829708098855000,3.88085498046875,0.7430139780044556,0.08513680100440979,0.40945911407470703
1782829708108783900,3.890783935546875,0.8462351560592651,-0.061840400099754333,0.6400060653686523
1782829708118712000,3.900712158203125,0.8750142455101013,-0.18887028098106384,0.7990397810935974
1782829708128640800,3.910640869140625,0.8372530341148376,-0.2538045346736908,0.8287785053253174
1782829708138569200,3.9205693359375,0.768831193447113,-0.17810682952404022,0.7363623976707458
1782829708148498200,3.930498291015625,0.673265814781189,-0.013381261378526688,0.5400277972221375
1782829708158426000,3.940426025390625,0.5780531764030457,0.17554554343223572,0.32169634103775024
1782829708168355000,3.95035498046875,0.48289865255355835,0.3581662178039551,0.14411062002182007
1782829708178283000,3.960282958984375,0.37630409002304077,0.5070342421531677,0.05488588660955429
1782829708188212000,3.9702119140625,0.27103304862976074,0.5964810252189636,0.032950494438409805
1782829708198140000,3.980139892578125,0.19567444920539856,0.617811381816864,0.042276524007320404
1782829708208069000,3.990069091796875,0.17440271377563477,0.5873895883560181,0.06697893887758255
1782829708217997000,3.9999970703125,0.1836705207824707,0.505343496799469,0.08362600207328796
1782829708227926000,4.009926025390625,0.21031545102596283,0.37199100852012634,0.08025364577770233
1782829708237854000,4.01985400390625,0.2721429169178009,0.2274758219718933,0.05501684546470642
1782829708247783000,4.029782958984375,0.35401514172554016,0.07834945619106293,-0.008478237316012383
1782829708257710800,4.0397109375,0.421650230884552,-0.09318290650844574,-0.11484735459089279
1782829708267640000,4.04964013671875,0.45663484930992126,-0.25599899888038635,-0.21723684668540955
1782829708277568000,4.059568115234375,0.45772621035575867,-0.356037437915802,-0.28631845116615295
1782829708287497000,4.0694970703125,0.41982516646385193,-0.3789728581905365,-0.31625422835350037
1782829708297425200,4.079425048828125,0.3675744831562042,-0.3218686878681183,-0.34617429971694946
1782829708307353900,4.089353759765625,0.2969312071800232,-0.23117099702358246,-0.3806968629360199
1782829708317281500,4.099281494140625,0.234937846660614,-0.16028569638729095,-0.41019871830940247
1782829708327210500,4.10921044921875,0.20177163183689117,-0.11347664147615433,-0.4261864721775055
1782829708337138400,4.119138427734375,0.18803195655345917,-0.07739109545946121,-0.41354796290397644
1782829708347067600,4.129067626953125,0.19924865663051605,-0.03842158988118172,-0.3722572326660156
1782829708356995600,4.13899560546875,0.2187030166387558,0.03543549031019211,-0.3076138496398926
1782829708366924500,4.148924560546875,0.23700052499771118,0.1255754977464676,-0.2508368492126465
1782829708376852500,4.1588525390625,0.24477151036262512,0.22028259932994843,-0.21086645126342773
1782829708386781400,4.168781494140625,0.2498200684785843,0.27448830008506775,-0.2005147486925125
1782829708396709400,4.17870947265625,0.2575807571411133,0.25927481055259705,-0.2060612142086029
1782829708406638600,4.188638671875,0.26467305421829224,0.1950036734342575,-0.2038995325565338
1782829708416566500,4.19856640625,0.26454171538352966,0.09134000539779663,-0.18993628025054932
1782829708426495500,4.20849560546875,0.26160505414009094,-0.014624505303800106,-0.17562365531921387
1782829708436423400,4.21842333984375,0.25794729590415955,-0.07819896191358566,-0.18445858359336853
1782829708446352400,4.228352294921875,0.27565786242485046,-0.07582608610391617,-0.21149712800979614
1782829708456280600,4.238280517578125,0.30731847882270813,-0.08654960989952087,-0.27193567156791687
1782829708466209500,4.24820947265625,0.3652361035346985,-0.11510748416185379,-0.3390231132507324
1782829708476137500,4.258137451171875,0.42526015639305115,-0.12946638464927673,-0.37330976128578186
1782829708486066700,4.268066650390625,0.47899317741394043,-0.1575893610715866,-0.3546103835105896
1782829708495994600,4.27799462890625,0.5026388168334961,-0.13536199927330017,-0.28167587518692017
1782829708505923600,4.287923583984375,0.4843898117542267,-0.10980604588985443,-0.20262208580970764
1782829708515851500,4.2978515625,0.43984121084213257,-0.08786750584840775,-0.14914967119693756
1782829708525780500,4.307780517578125,0.3934614658355713,-0.08570155501365662,-0.13719819486141205
1782829708535708400,4.31770849609375,0.35474127531051636,-0.0835830420255661,-0.13616245985031128
1782829708545637600,4.3276376953125,0.33273395895957947,-0.09410199522972107,-0.14187894761562347
1782829708555565600,4.337565673828125,0.31504160165786743,-0.11660555750131607,-0.12797865271568298
1782829708565494500,4.34749462890625,0.2986152172088623,-0.1037835031747818,-0.1000378355383873
1782829708575422500,4.35742236328125,0.29585862159729004,-0.052299778908491135,-0.06043919920921326
1782829708585351400,4.367351318359375,0.3128453493118286,0.003236185759305954,-0.032867755740880966
1782829708595280400,4.3772802734375,0.3407468795776367,0.02172880992293358,-0.01232457347214222
1782829708605208300,4.387208251953125,0.3695359230041504,0.006033472716808319,0.009649701416492462
1782829708615137500,4.397137451171875,0.3754810690879822,-0.04983087256550789,0.028632014989852905
1782829708625065500,4.4070654296875,0.36746761202812195,-0.11698007583618164,0.04621633514761925
1782829708634994400,4.416994384765625,0.34109410643577576,-0.16153644025325775,0.05654902756214142
1782829708644922400,4.42692236328125,0.29424136877059937,-0.17641551792621613,0.041240643709897995
1782829708654851300,4.436851318359375,0.2480643093585968,-0.1709640622138977,0.015289956703782082
1782829708664779500,4.446779541015625,0.20783326029777527,-0.14479424059391022,-0.009444151073694229
1782829708674708500,4.45670849609375,0.17259857058525085,-0.12265975773334503,-0.035425662994384766
1782829708684636700,4.46663671875,0.14594778418540955,-0.0965738296508789,-0.0470101460814476
1782829708694565600,4.476565673828125,0.12754307687282562,-0.05759650468826294,-0.03983195126056671
1782829708704493600,4.48649365234375,0.11159312725067139,-0.0032323328778147697,-0.0046707699075341225
1782829708714422500,4.496422607421875,0.09964583814144135,0.0923408567905426,0.055769871920347214
1782829708724350500,4.5063505859375,0.10234308987855911,0.13135670125484467,0.10921632498502731
1782829708734279400,4.516279541015625,0.12004082649946213,0.11436542123556137,0.134898379445076
1782829708744207600,4.52620751953125,0.15424805879592896,0.053807809948921204,0.14239011704921722
1782829708754136600,4.536136474609375,0.1937301903963089,-0.025439243763685226,0.14086002111434937
1782829708764064500,4.546064453125,0.22554217278957367,-0.07562411576509476,0.14396606385707855
1782829708773993500,4.555993408203125,0.22982366383075714,-0.10983090102672577,0.14798575639724731
1782829708783921400,4.56592138671875,0.22488003969192505,-0.15728230774402618,0.13069836795330048
1782829708793850400,4.575850341796875,0.2407267838716507,-0.16646642982959747,0.08891695737838745
1782829708803778300,4.5857783203125,0.22438828647136688,-0.16111189126968384,0.0386577807366848
1782829708813707500,4.59570751953125,0.19738715887069702,-0.14036457240581512,-0.030438579618930817
1782829708823635500,4.605635498046875,0.1681365966796875,-0.15672624111175537,-0.10850701481103897
1782829708833564400,4.615564453125,0.14786867797374725,-0.189863920211792,-0.1598741114139557
1782829708843492600,4.62549267578125,0.1280941665172577,-0.23606736958026886,-0.1700388640165329
1782829708853421600,4.635421630859375,0.10482155531644821,-0.27349168062210083,-0.1435937136411667
1782829708863349500,4.645349609375,0.08891689032316208,-0.2705480754375458,-0.10273496806621552
1782829708873278700,4.65527880859375,0.0723816454410553,-0.226636603474617,-0.0591888353228569
1782829708883206700,4.66520654296875,0.06526488065719604,-0.14978469908237457,-0.031519923359155655
1782829708893135600,4.675135498046875,0.07129069417715073,-0.05243507772684097,-0.0028525004163384438
1782829708903063600,4.6850634765625,0.0718986913561821,0.06240708380937576,0.02880210056900978
1782829708912992500,4.694992431640625,0.07314645498991013,0.1953861266374588,0.07316913455724716
1782829708922920400,4.70492041015625,0.07781551033258438,0.30543139576911926,0.11730703711509705
1782829708932849400,4.714849365234375,0.07497642189264297,0.3727980852127075,0.14276714622974396
1782829708942777300,4.72477734375,0.07526830583810806,0.4062623083591461,0.14777228236198425
1782829708952706600,4.73470654296875,0.0770316869020462,0.4074570834636688,0.15208610892295837
1782829708962634500,4.744634521484375,0.08081656694412231,0.38399890065193176,0.16390734910964966
1782829708972563500,4.7545634765625,0.09713772684335709,0.3638746738433838,0.18667803704738617
1782829708982491400,4.764491455078125,0.11671728640794754,0.32536643743515015,0.21717602014541626
1782829708992420400,4.77442041015625,0.12595131993293762,0.28605586290359497,0.2385798543691635
1782829709002348500,4.7843486328125,0.11932671070098877,0.24309800565242767,0.22151298820972443
1782829709012277500,4.794277587890625,0.11491067707538605,0.18695369362831116,0.15412746369838715
1782829709022205700,4.804205810546875,0.10083933174610138,0.11390852183103561,0.05472283810377121
1782829709032134700,4.814134765625,0.07126256078481674,0.05333641171455383,-0.04673256725072861
1782829709042062600,4.8240625,0.04674177244305611,0.01536346785724163,-0.12046218663454056
1782829709051991600,4.833991455078125,0.03704579919576645,-0.053416505455970764,-0.19469201564788818
1782829709061919500,4.84391943359375,0.056582484394311905,-0.14881280064582825,-0.25194624066352844
1782829709071848400,4.853848388671875,0.1037331074476242,-0.21619628369808197,-0.2928297817707062
1782829709081776600,4.863776611328125,0.1463729739189148,-0.24468198418617249,-0.3016277849674225
1782829709091705600,4.87370556640625,0.17152315378189087,-0.22325552999973297,-0.2663818299770355
1782829709101633500,4.883633544921875,0.18744060397148132,-0.15735268592834473,-0.1891445368528366
1782829709111562500,4.8935625,0.21265403926372528,-0.04994789510965347,-0.10862043499946594
1782829709121490400,4.903490478515625,0.25477033853530884,0.08057922124862671,-0.04290587455034256
1782829709131419400,4.91341943359375,0.3027288317680359,0.21736674010753632,0.0054302881471812725
1782829709141347300,4.923347412109375,0.343658447265625,0.3308989107608795,0.03418071195483208
1782829709151276500,4.933276611328125,0.37176254391670227,0.39093017578125,0.03297552466392517
1782829709161204500,4.94320458984375,0.3880198001861572,0.38394445180892944,0.011210840195417404
1782829709171133400,4.953133544921875,0.3988591134548187,0.345395565032959,-0.031423866748809814
1782829709181061600,4.9630615234375,0.39894112944602966,0.2843306064605713,-0.08089501410722733
1782829709190990300,4.972990234375,0.3986516296863556,0.21972474455833435,-0.13651329278945923
1782829709200918500,4.98291845703125,0.40388739109039307,0.169802725315094,-0.17881788313388824
1782829709210847700,4.99284765625,0.41749387979507446,0.10029929876327515,-0.19994279742240906
1782829709220775700,5.002775634765625,0.4403557777404785,0.041742779314517975,-0.18403254449367523
1782829709230704600,5.01270458984375,0.47647756338119507,0.00716550275683403,-0.15057815611362457
1782829709240632600,5.022632568359375,0.4955809414386749,-0.027269970625638962,-0.12005086988210678
1782829709250561500,5.0325615234375,0.5212959051132202,-0.040657129138708115,-0.10992651432752609
1782829709260489500,5.042489501953125,0.542904794216156,-0.03447726368904114,-0.12039779871702194
1782829709270418400,5.05241845703125,0.5434563755989075,0.006677168421447277,-0.14122991263866425
1782829709280346400,5.062346435546875,0.5434907078742981,0.08244862407445908,-0.1446763128042221
1782829709290275600,5.072275634765625,0.5329564213752747,0.1473059505224228,-0.13497325778007507
1782829709300203500,5.08220361328125,0.5216886401176453,0.1916814148426056,-0.11479713767766953
1782829709310132500,5.092132568359375,0.5197191834449768,0.21343575417995453,-0.08782128989696503
1782829709320061200,5.102061279296875,0.5195407271385193,0.19091394543647766,-0.06224428862333298
1782829709329990100,5.111990234375,0.5284502506256104,0.14332439005374908,-0.04535148665308952
1782829709339918300,5.12191845703125,0.5537793636322021,0.11796177923679352,-0.018773136660456657
1782829709349847300,5.131847412109375,0.5805153250694275,0.1197294145822525,0.01535382866859436
1782829709359775200,5.141775146484375,0.6205335855484009,0.15463414788246155,0.04562784358859062
1782829709369704200,5.1517041015625,0.6723684668540955,0.19382160902023315,0.057567935436964035
1782829709379632000,5.161632080078125,0.7228888869285583,0.23233065009117126,0.050649575889110565
1782829709389561000,5.17156103515625,0.7685853838920593,0.25230419635772705,0.033932335674762726
1782829709399490300,5.181490234375,0.809478759765625,0.20702141523361206,0.015689948573708534
1782829709409418200,5.191418212890625,0.8391501307487488,0.13292348384857178,-0.00978531688451767
1782829709419347200,5.20134716796875,0.8749387264251709,0.05894912779331207,-0.018600912764668465
1782829709429275400,5.211275390625,0.8993851542472839,0.011829495429992676,-0.003138105385005474
1782829709439204000,5.2212041015625,0.8995183110237122,-0.0033340109512209892,0.028581205755472183
1782829709449132300,5.23113232421875,0.8767214417457581,0.02563495747745037,0.05249863862991333
1782829709459061200,5.241061279296875,0.8391663432121277,0.0992383360862732,0.0752020850777626
1782829709468989400,5.250989501953125,0.8071192502975464,0.1833696961402893,0.08611911535263062
1782829709478918400,5.26091845703125,0.7907544374465942,0.2549959719181061,0.09098737686872482
1782829709488846300,5.270846435546875,0.8063238859176636,0.2694019377231598,0.07088065147399902
1782829709498775300,5.280775390625,0.8396973013877869,0.2216554433107376,0.005351976025849581
1782829709508703200,5.290703125,0.8581613898277283,0.1284552812576294,-0.09404467046260834
1782829709518632200,5.300632080078125,0.8575568199157715,0.0005625616759061813,-0.19013364613056183
1782829709528560000,5.31056005859375,0.8206841945648193,-0.11881689727306366,-0.2518504858016968
1782829709538485200,5.3204853515625,0.7697796821594238,-0.208099365234375,-0.25283533334732056
1782829709548414200,5.330414306640625,0.729669451713562,-0.20529092848300934,-0.17618362605571747
1782829709558343200,5.34034326171875,0.7158713340759277,-0.13287557661533356,-0.06562890112400055
1782829709568271000,5.35027099609375,0.723930299282074,-0.034332193434238434,0.034086745232343674
1782829709578200300,5.360200439453125,0.7579250335693359,0.07611522078514099,0.11718003451824188
1782829709588128300,5.370128173828125,0.7964031100273132,0.16560208797454834,0.16461265087127686
1782829709598057200,5.38005712890625,0.8353305459022522,0.20194011926651,0.1904812604188919
1782829709607985200,5.389985107421875,0.8831629157066345,0.2257513403892517,0.2051776945590973
1782829709617914000,5.3999140625,0.9133991003036499,0.26323744654655457,0.22967585921287537
1782829709627842300,5.40984228515625,0.9071035385131836,0.2959024906158447,0.2592809498310089
1782829709637771300,5.419771240234375,0.8746888637542725,0.3260928690433502,0.2733432352542877
1782829709647699500,5.429699462890625,0.8251177072525024,0.36174026131629944,0.26511630415916443
1782829709657628400,5.43962841796875,0.7665880918502808,0.4143906831741333,0.234608456492424
1782829709667556400,5.449556396484375,0.7165060639381409,0.4784504175186157,0.17854145169258118
1782829709677485300,5.4594853515625,0.6634045243263245,0.5326561331748962,0.1199689731001854
1782829709687413200,5.469413330078125,0.6265110373497009,0.5619366765022278,0.07015741616487503
1782829709697342200,5.47934228515625,0.6087357997894287,0.5539871454238892,0.03997315466403961
1782829709707270100,5.489270263671875,0.6052777767181396,0.5139727592468262,0.02627972885966301
1782829709717199400,5.499199462890625,0.6184124946594238,0.4319157004356384,0.019996264949440956
1782829709727127300,5.509127197265625,0.6501750946044922,0.3014221787452698,0.010663817636668682
1782829709737056300,5.51905615234375,0.6883105039596558,0.16862499713897705,-0.007862195372581482
1782829709746984200,5.528984130859375,0.7231724262237549,-0.020959964022040367,-0.05484895408153534
1782829709756913200,5.5389130859375,0.76425701379776,-0.24177142977714539,-0.1261758655309677
1782829709766841000,5.548841064453125,0.7929632067680359,-0.45428717136383057,-0.1986476629972458
1782829709776770300,5.558770263671875,0.7920295000076294,-0.6669936180114746,-0.2500869035720825
1782829709786698200,5.5686982421875,0.7465981841087341,-0.823087751865387,-0.26288869976997375
1782829709796627200,5.578627197265625,0.6701470613479614,-0.8485110998153687,-0.23787015676498413
1782829709806555400,5.588555419921875,0.5765562653541565,-0.7723934054374695,-0.20211713016033173
1782829709816484000,5.598484130859375,0.4920006990432739,-0.6245794296264648,-0.16052573919296265
1782829709826412300,5.608412353515625,0.42320355772972107,-0.3914612829685211,-0.11113286018371582
1782829709836341200,5.61834130859375,0.364815890789032,-0.10537360608577728,-0.06488600373268127
1782829709846269400,5.62826953125,0.31967148184776306,0.17291900515556335,-0.03861888125538826
1782829709856198400,5.638198486328125,0.279882550239563,0.4007590711116791,-0.043159306049346924
1782829709866126300,5.648126220703125,0.24751001596450806,0.5489107370376587,-0.05501220375299454
1782829709876055300,5.65805517578125,0.23024392127990723,0.6151379346847534,-0.06393326073884964
1782829709885983200,5.667983154296875,0.21718567609786987,0.5859242677688599,-0.043655309826135635
1782829709895912200,5.677912109375,0.19839468598365784,0.5212659239768982,-0.01395840011537075
1782829709905840000,5.687840087890625,0.17893549799919128,0.4417342245578766,0.030772075057029724
1782829709915769300,5.697769287109375,0.17288319766521454,0.3874627351760864,0.06257607787847519
1782829709925697300,5.707697265625,0.16953299939632416,0.33843088150024414,0.06631055474281311
1782829709935626200,5.717626220703125,0.1837492287158966,0.26239416003227234,0.04135700315237045
1782829709945554200,5.72755419921875,0.21753811836242676,0.15749242901802063,-0.0050087859854102135
1782829709955483100,5.737483154296875,0.2599417567253113,0.06187216565012932,-0.06907778233289719
1782829709965411000,5.7474111328125,0.28798210620880127,-0.039630960673093796,-0.12957341969013214
1782829709975340300,5.75734033203125,0.29783180356025696,-0.1287030428647995,-0.16271618008613586
1782829709985268500,5.7672685546875,0.299584299325943,-0.17730441689491272,-0.1340041160583496
1782829709995197200,5.777197265625,0.2924613952636719,-0.1767888367176056,-0.06724584847688675
1782829710005126100,5.787126220703125,0.28283587098121643,-0.15911193192005157,-0.003348175436258316
1782829710015054300,5.797054443359375,0.2747449278831482,-0.11312738060951233,0.03622213751077652
1782829710024982300,5.806982177734375,0.2654949724674225,-0.07805728167295456,0.04607130587100983
1782829710034911200,5.8169111328125,0.23620525002479553,-0.10055539757013321,0.02877061255276203
1782829710044840400,5.82684033203125,0.19254538416862488,-0.14817869663238525,0.03782538324594498
1782829710054768400,5.836768310546875,0.14235438406467438,-0.1679484099149704,0.08359793573617935
1782829710064697300,5.846697265625,0.08983833342790604,-0.17730410397052765,0.14431323111057281
1782829710074625300,5.856625244140625,0.054573822766542435,-0.16399788856506348,0.18532857298851013
1782829710084554200,5.86655419921875,0.03720817714929581,-0.14969401061534882,0.1805504560470581
1782829710094482200,5.876482177734375,0.015778250992298126,-0.14246858656406403,0.1380290985107422
1782829710104411400,5.886411376953125,-0.0038828086107969284,-0.15595388412475586,0.08100152760744095
1782829710114339300,5.89633935546875,-0.037847697734832764,-0.17832204699516296,0.04858047515153885
1782829710124268300,5.906268310546875,-0.0850692018866539,-0.1916135996580124,0.0458114892244339
1782829710134196200,5.9161962890625,-0.11850092560052872,-0.22061729431152344,0.06383469700813293
1782829710144125200,5.926125244140625,-0.13695429265499115,-0.24402529001235962,0.09449347108602524
1782829710154053000,5.93605322265625,-0.15105067193508148,-0.24414032697677612,0.12647005915641785
1782829710163984400,5.945984375,-0.1708371639251709,-0.2523258924484253,0.15327857434749603
1782829710173912300,5.955912353515625,-0.20677705109119415,-0.25189393758773804,0.16957472264766693
1782829710183841300,5.96584130859375,-0.2682328224182129,-0.2751048505306244,0.16261397302150726
1782829710193769200,5.975769287109375,-0.3226452171802521,-0.28579556941986084,0.12665782868862152
1782829710203698200,5.9856982421875,-0.34460046887397766,-0.2702142000198364,0.059767477214336395
1782829710213626000,5.995626220703125,-0.356532484292984,-0.253142774105072,-0.020547866821289062
1782829710223555300,6.005555419921875,-0.3758491277694702,-0.24795649945735931,-0.10273457318544388
1782829710233483300,6.015483154296875,-0.40331241488456726,-0.2814185917377472,-0.16188578307628632
1782829710243412200,6.025412109375,-0.43573182821273804,-0.3487052321434021,-0.19618912041187286
1782829710253340200,6.035340087890625,-0.45972931385040283,-0.40961307287216187,-0.2068987637758255
1782829710263269000,6.04526904296875,-0.46996819972991943,-0.4147185981273651,-0.1964753419160843
1782829710273197000,6.055197021484375,-0.4653122127056122,-0.3493630290031433,-0.17943750321865082
1782829710283126300,6.065126220703125,-0.4441981613636017,-0.20185042917728424,-0.1513087898492813
1782829710293054500,6.075054443359375,-0.414095401763916,0.012395819649100304,-0.10085706412792206
1782829710302983200,6.084983154296875,-0.3903016149997711,0.22641907632350922,0.0027792099863290787
1782829710312912100,6.094912109375,-0.3773706555366516,0.39849817752838135,0.12909960746765137
1782829710322840000,6.104840087890625,-0.3824733793735504,0.5014914274215698,0.25068411231040955
1782829710332769000,6.11476904296875,-0.3864358961582184,0.55146723985672,0.33884647488594055
1782829710342697000,6.124697021484375,-0.3874499797821045,0.5521657466888428,0.38700684905052185
1782829710352626200,6.134626220703125,-0.3774932324886322,0.5307419300079346,0.4018568992614746
1782829710362554000,6.14455419921875,-0.36925169825553894,0.48680397868156433,0.3928983509540558
1782829710372483000,6.154483154296875,-0.3446826934814453,0.42590412497520447,0.37127748131752014
1782829710382411000,6.164410888671875,-0.3035711944103241,0.36719202995300293,0.348273366689682
1782829710392340000,6.174340087890625,-0.24753588438034058,0.3283996284008026,0.33150768280029297
1782829710402268000,6.184267822265625,-0.17973874509334564,0.28676411509513855,0.32314494252204895
1782829710412197000,6.194197021484375,-0.12265601754188538,0.23825599253177643,0.3182026445865631
1782829710422125000,6.204125,-0.06756517291069031,0.15422627329826355,0.29449036717414856
1782829710432054000,6.214053955078125,-0.028715506196022034,0.05738573521375656,0.2655676603317261
1782829710441982000,6.22398193359375,0.0024330364540219307,-0.06349575519561768,0.2101840078830719
1782829710451911000,6.233910888671875,0.03242422640323639,-0.2124474197626114,0.1351289302110672
1782829710461838800,6.2438388671875,0.04478161409497261,-0.3789178133010864,0.04362352564930916
1782829710471767800,6.253767822265625,0.03564244508743286,-0.5222232937812805,-0.0554114431142807
1782829710481696000,6.263696044921875,0.012896881438791752,-0.6143139600753784,-0.14619019627571106
1782829710491625000,6.273625,-0.020729519426822662,-0.5963658690452576,-0.2189038246870041
1782829710501553200,6.28355322265625,-0.04691597446799278,-0.4590071439743042,-0.2534022629261017
1782829710511482000,6.293482177734375,-0.07391297072172165,-0.22652596235275269,-0.2585349678993225
1782829710521410000,6.30341015625,-0.09170108288526535,0.06958656758069992,-0.21691617369651794
1782829710531339000,6.313339111328125,-0.08912819623947144,0.3619910180568695,-0.15697187185287476
1782829710541267000,6.323266845703125,-0.058144327253103256,0.5694600343704224,-0.09573069959878922
1782829710551196200,6.333196044921875,-0.018110625445842743,0.6633116602897644,-0.05689941719174385
1782829710561124000,6.3431240234375,0.017730800434947014,0.6675019264221191,-0.03827629238367081
1782829710571053000,6.353052978515625,0.05872936546802521,0.6110391616821289,-0.034607257694005966
1782829710580981000,6.36298095703125,0.11285137385129929,0.49610471725463867,-0.04066023230552673
1782829710590910000,6.372909912109375,0.17299248278141022,0.3513461947441101,-0.05197307467460632
1782829710600838000,6.382837890625,0.22718273103237152,0.17913120985031128,-0.07196187973022461
1782829710610767000,6.39276708984375,0.27020424604415894,-0.0003136368468403816,-0.09757855534553528
1782829710620695000,6.402695068359375,0.30344128608703613,-0.14927926659584045,-0.11467443406581879
1782829710630624000,6.4126240234375,0.3257191479206085,-0.23292116820812225,-0.13317808508872986
1782829710640552000,6.422552001953125,0.35396113991737366,-0.25793495774269104,-0.14792421460151672
1782829710650481000,6.43248095703125,0.38625168800354004,-0.22259479761123657,-0.15447771549224854
1782829710660409000,6.4424091796875,0.41417860984802246,-0.17783300578594208,-0.15468625724315643
1782829710670337800,6.452337890625,0.42480194568634033,-0.12602147459983826,-0.1541283279657364
1782829710680266000,6.462265869140625,0.42126452922821045,-0.07360589504241943,-0.16042807698249817
1782829710690195200,6.4721953125,0.40640008449554443,-0.07318751513957977,-0.1864737868309021
1782829710700124000,6.4821240234375,0.39101728796958923,-0.09359682351350784,-0.21087881922721863
1782829710710052000,6.492052001953125,0.3636666238307953,-0.10159056633710861,-0.22110749781131744
1782829710719981000,6.50198095703125,0.3275851607322693,-0.092678003013134,-0.22162780165672302
1782829710729909000,6.511908935546875,0.2931044399738312,-0.07250482589006424,-0.20119231939315796
1782829710739838200,6.521838134765625,0.2589567005634308,-0.006024744361639023,-0.17008396983146667
1782829710749766100,6.53176611328125,0.22666986286640167,0.08114132285118103,-0.13646608591079712
1782829710759695000,6.541695068359375,0.2048121839761734,0.1624068319797516,-0.10158155858516693
1782829710769623000,6.551623046875,0.19356484711170197,0.24328598380088806,-0.06498200446367264
1782829710779552000,6.561552001953125,0.17998631298542023,0.29248014092445374,-0.038237810134887695
1782829710789480000,6.57147998046875,0.17831383645534515,0.3073379099369049,-0.02513798512518406
1782829710799409000,6.581408935546875,0.19581350684165955,0.3268808424472809,-0.025704385712742805
1782829710809336800,6.5913369140625,0.21923336386680603,0.35777854919433594,-0.0430532842874527
1782829710819266000,6.60126611328125,0.23290711641311646,0.40086108446121216,-0.08082848787307739
1782829710829194000,6.611194091796875,0.23714660108089447,0.4190225303173065,-0.13727711141109467
1782829710839123000,6.621123046875,0.235136017203331,0.4073038697242737,-0.20740742981433868
1782829710849051000,6.63105078125,0.23281347751617432,0.3636583983898163,-0.2607231140136719
1782829710858979800,6.640979736328125,0.23281633853912354,0.2944079041481018,-0.2750343084335327
1782829710868908000,6.650907958984375,0.24642588198184967,0.2149975299835205,-0.24479839205741882
1782829710878837000,6.6608369140625,0.27625927329063416,0.1564771980047226,-0.18297502398490906
1782829710888765200,6.67076513671875,0.31258824467658997,0.09814704954624176,-0.1112062931060791
1782829710898694100,6.680694091796875,0.3586440682411194,0.06910233944654465,-0.04536193609237671
1782829710908622000,6.6906220703125,0.40341395139694214,0.07712831348180771,0.010090135037899017
1782829710918551000,6.700551025390625,0.440581738948822,0.15343420207500458,0.05268283188343048
1782829710928479000,6.71047900390625,0.4712514877319336,0.25723835825920105,0.07940871268510818
1782829710938408000,6.720407958984375,0.5023138523101807,0.30774539709091187,0.07015176117420197
1782829710948336000,6.730336181640625,0.5282296538352966,0.2991279363632202,0.021062778308987617
1782829710958265000,6.74026513671875,0.5415619015693665,0.2623872458934784,-0.059724606573581696
1782829710968193000,6.750193115234375,0.5338283777236938,0.21972741186618805,-0.15629270672798157
1782829710978122000,6.7601220703125,0.516403079032898,0.1678682267665863,-0.23395010828971863
1782829710988050000,6.7700498046875,0.498567670583725,0.10246951133012772,-0.2795887291431427
1782829710997979000,6.779978759765625,0.5072469115257263,-0.02232351526618004,-0.29906612634658813
1782829711007906800,6.78990673828125,0.5196031928062439,-0.2032991647720337,-0.30458155274391174
1782829711017836000,6.7998359375,0.5210216641426086,-0.3499349355697632,-0.2780657112598419
1782829711027764000,6.809763916015625,0.525480329990387,-0.4201989769935608,-0.22658200562000275
1782829711037693000,6.81969287109375,0.5539976954460144,-0.39461347460746765,-0.15117517113685608
1782829711047621000,6.82962109375,0.6020054817199707,-0.2571163475513458,-0.05510110408067703
1782829711057550000,6.839550048828125,0.6520993709564209,-0.07269653677940369,0.06073477864265442
1782829711067478000,6.84947802734375,0.6853116750717163,0.1287207305431366,0.17968273162841797
1782829711077407200,6.8594072265625,0.690653383731842,0.2990702986717224,0.27469393610954285
1782829711087336000,6.8693359375,0.6540842056274414,0.3937177062034607,0.2996549606323242
1782829711097264000,6.87926416015625,0.6034299731254578,0.40410998463630676,0.27324390411376953
1782829711107193000,6.889193115234375,0.5513585209846497,0.3675282895565033,0.2321968823671341
1782829711117121000,6.89912109375,0.4986433982849121,0.29333293437957764,0.19867771863937378
1782829711127050000,6.909050048828125,0.4555172324180603,0.2070625126361847,0.1840801239013672
1782829711136978000,6.91897802734375,0.3730872869491577,0.11336986720561981,0.23495739698410034
1782829711146907100,6.9289072265625,0.325888067483902,0.03813210874795914,0.29625484347343445
1782829711156835000,6.9388349609375,0.2887295186519623,0.006757291965186596,0.3383370041847229
1782829711166764000,6.948763916015625,0.2799623906612396,-0.00829143263399601,0.3451445698738098
1782829711176692000,6.95869189453125,0.27556535601615906,-0.0037747323513031006,0.33820641040802
1782829711186621000,6.968620849609375,0.2672826647758484,0.004821685142815113,0.31675493717193604
1782829711196548900,6.978548828125,0.2494879513978958,0.01088490430265665,0.2882404625415802
1782829711206478000,6.98847802734375,0.21454353630542755,0.010134958662092686,0.23109330236911774
1782829711216406000,6.998406005859375,0.16642890870571136,-0.04641694203019142,0.13281619548797607
1782829711226335000,7.0083349609375,0.10873471945524216,-0.15074841678142548,-0.006330239586532116
1782829711236263000,7.018262939453125,0.045016415417194366,-0.26459425687789917,-0.15548326075077057
1782829711246191900,7.02819189453125,-0.02163424901664257,-0.36006486415863037,-0.28394246101379395
1782829711256120000,7.0381201171875,-0.08755035698413849,-0.3831147253513336,-0.36852341890335083
1782829711266049000,7.048049072265625,-0.14065217971801758,-0.33666226267814636,-0.4006904065608978
1782829711275977000,7.05797705078125,-0.18529215455055237,-0.23618562519550323,-0.3912579417228699
1782829711285906200,7.06790625,-0.21638642251491547,-0.0937560424208641,-0.35395291447639465
1782829711295834000,7.077834228515625,-0.2297249734401703,0.03446004539728165,-0.30327728390693665
1782829711305763000,7.08776318359375,-0.22398878633975983,0.1352662891149521,-0.24863535165786743
1782829711315691000,7.09769091796875,-0.19947077333927155,0.16054168343544006,-0.20450566709041595
1782829711325624000,7.1076240234375,-0.17134273052215576,0.1305941641330719,-0.16231612861156464
1782829711335552000,7.117552001953125,-0.1516692340373993,0.062252916395664215,-0.10491187125444412
1782829711345481000,7.12748095703125,-0.14754852652549744,0.009422993287444115,-0.02725941687822342
1782829711355409000,7.137408935546875,-0.17973142862319946,-0.005917983129620552,0.03595623001456261
1782829711365337900,7.147337890625,-0.2197965532541275,-0.0017996709793806076,0.06361421942710876
1782829711375265800,7.157265869140625,-0.25545334815979004,0.028895050287246704,0.034073006361722946
1782829711385194800,7.16719482421875,-0.27812322974205017,0.05019581317901611,-0.02349015697836876
1782829711395122700,7.177122802734375,-0.28982797265052795,0.048391614109277725,-0.08556800335645676
1782829711405052000,7.187052001953125,-0.2921585142612457,0.04151826351881027,-0.13188250362873077
1782829711414979800,7.196979736328125,-0.29224079847335815,0.020328249782323837,-0.15588997304439545
1782829711424908800,7.20690869140625,-0.28955233097076416,-0.015325087122619152,-0.1662648469209671
1782829711434837800,7.216837646484375,-0.28204819560050964,-0.06658052653074265,-0.17213918268680573
1782829711444765700,7.226765625,-0.2878696024417877,-0.13274170458316803,-0.16757318377494812
1782829711454695000,7.23669482421875,-0.29506850242614746,-0.21811258792877197,-0.15874138474464417
1782829711464622800,7.246622802734375,-0.3082370460033417,-0.2828044891357422,-0.14766529202461243
1782829711474551800,7.2565517578125,-0.3167165219783783,-0.32302403450012207,-0.1378285139799118
1782829711484480000,7.26647998046875,-0.33098307251930237,-0.3163621425628662,-0.12883901596069336
1782829711494409000,7.276408935546875,-0.34120672941207886,-0.23949894309043884,-0.1276971697807312
1782829711504337000,7.2863369140625,-0.3485618233680725,-0.1436038464307785,-0.1483457088470459
1782829711514265900,7.296265869140625,-0.3572581708431244,-0.10381703078746796,-0.17864012718200684
1782829711524193800,7.30619384765625,-0.368936151266098,-0.1168939471244812,-0.18630284070968628
1782829711534123000,7.316123046875,-0.37562453746795654,-0.1547701209783554,-0.1660810261964798
1782829711544051000,7.326051025390625,-0.3716503083705902,-0.19786620140075684,-0.13772927224636078
1782829711553980000,7.33597998046875,-0.3493839204311371,-0.2088325023651123,-0.10463833063840866
1782829711563907800,7.345907958984375,-0.3284485340118408,-0.21247810125350952,-0.0744524672627449
1782829711573836800,7.3558369140625,-0.31484171748161316,-0.2191464602947235,-0.0500778928399086
1782829711583764700,7.3657646484375,-0.30091550946235657,-0.22423629462718964,-0.048320472240448
1782829711593694000,7.37569384765625,-0.28743863105773926,-0.23410320281982422,-0.06304208934307098
1782829711603622000,7.385621826171875,-0.2813439965248108,-0.2583414316177368,-0.08972962200641632
1782829711613550800,7.39555078125,-0.2904900312423706,-0.2744515538215637,-0.11800462007522583
1782829711623478800,7.405478759765625,-0.3246879577636719,-0.2987755537033081,-0.14632946252822876
1782829711633407700,7.41540771484375,-0.35112905502319336,-0.30122852325439453,-0.16762113571166992
1782829711643336000,7.4253359375,-0.3714497685432434,-0.23899658024311066,-0.1832810491323471
1782829711653265000,7.435264892578125,-0.37707239389419556,-0.18171446025371552,-0.20831941068172455
1782829711663193000,7.445193115234375,-0.3703974485397339,-0.11635595560073853,-0.21724872291088104
1782829711673122000,7.4551220703125,-0.3485247790813446,-0.07035131007432938,-0.2010386437177658
1782829711683050000,7.465050048828125,-0.32288306951522827,-0.06365932524204254,-0.15257151424884796
1782829711692979000,7.47497900390625,-0.3014214336872101,-0.06761791557073593,-0.07761960476636887
1782829711702907000,7.484906982421875,-0.29294565320014954,-0.036294881254434586,0.013926023617386818
1782829711712835800,7.4948359375,-0.306181401014328,0.03762581944465637,0.08074778318405151
1782829711722763800,7.504763671875,-0.32372522354125977,0.04924705624580383,0.10158968716859818
1782829711732693000,7.51469287109375,-0.3379266560077667,-0.0033566271886229515,0.07027947157621384
1782829711742621000,7.524620849609375,-0.3437243402004242,-0.10855761915445328,0.011453711427748203
1782829711752550000,7.5345498046875,-0.36232510209083557,-0.2177480161190033,-0.05104625225067139
1782829711762478800,7.544478759765625,-0.3990786075592041,-0.28615236282348633,-0.11417142301797867
1782829711772406800,7.55440673828125,-0.4315243363380432,-0.34048566222190857,-0.1687951236963272
1782829711782336000,7.5643359375,-0.45475029945373535,-0.3751981258392334,-0.20434007048606873
1782829711792264000,7.574263916015625,-0.48373720049858093,-0.38993462920188904,-0.20409782230854034
1782829711802193000,7.58419287109375,-0.499871164560318,-0.35846272110939026,-0.17776741087436676
1782829711812120800,7.594120849609375,-0.5077998042106628,-0.2763649523258209,-0.13538140058517456
1782829711822049800,7.6040498046875,-0.5086794495582581,-0.1793859302997589,-0.08447294682264328
1782829711831977700,7.613977783203125,-0.5166040658950806,-0.06343987584114075,-0.028988583013415337
1782829711841906700,7.62390673828125,-0.5202853083610535,0.06514686346054077,0.05193636193871498
1782829711851835000,7.6338349609375,-0.5263620018959045,0.17695224285125732,0.15467612445354462
1782829711861763800,7.643763916015625,-0.5386123061180115,0.25689980387687683,0.2505142390727997
1782829711871692000,7.653692138671875,-0.5476229786872864,0.3191547095775604,0.31504106521606445
1782829711881621000,7.66362109375,-0.5435198545455933,0.3557335138320923,0.3472495973110199
1782829711891549000,7.673548828125,-0.5267926454544067,0.38433921337127686,0.3597812056541443
1782829711901478000,7.683477783203125,-0.5059012174606323,0.36708831787109375,0.3810209631919861
1782829711911405800,7.69340576171875,-0.47709324955940247,0.29699087142944336,0.41647547483444214
1782829711921335000,7.7033349609375,-0.44636037945747375,0.18937893211841583,0.4430796504020691
1782829711931263000,7.713262939453125,-0.4247700870037079,0.061956655234098434,0.4530247747898102
1782829711941192000,7.72319189453125,-0.4217175543308258,-0.09480713307857513,0.43949803709983826
1782829711951120000,7.733119873046875,-0.44416552782058716,-0.2402448058128357,0.3802347779273987
1782829711961048800,7.743048828125,-0.4739239513874054,-0.339708536863327,0.2738950252532959
1782829711970976800,7.752976806640625,-0.5102161765098572,-0.4106575846672058,0.15455922484397888
1782829711980905700,7.76290576171875,-0.5476030111312866,-0.41601958870887756,0.05903882533311844
1782829711990834000,7.772833984375,-0.5612454414367676,-0.38408878445625305,-0.015607114881277084
1782829712000763000,7.782762939453125,-0.5523499250411987,-0.3548606038093567,-0.06896727532148361
1782829712010690800,7.79269091796875,-0.5246138572692871,-0.3303936719894409,-0.11947263032197952
1782829712020619800,7.802619873046875,-0.4942208230495453,-0.2877753674983978,-0.14781984686851501
1782829712030548000,7.8125478515625,-0.47538650035858154,-0.1936592310667038,-0.1375204622745514
1782829712040476700,7.8224765625,-0.47029826045036316,-0.05470588058233261,-0.07882624864578247
1782829712050404900,7.83240478515625,-0.47038766741752625,0.08560186624526978,0.008400805294513702
1782829712060334000,7.842333984375,-0.47157490253448486,0.2096894532442093,0.09672587364912033
1782829712070262800,7.8522626953125,-0.46012651920318604,0.3010563552379608,0.17149211466312408
1782829712080191000,7.86219091796875,-0.436028391122818,0.36677810549736023,0.21312372386455536
1782829712090120000,7.872119873046875,-0.4072651267051697,0.4057139456272125,0.21103066205978394
1782829712100048000,7.8820478515625,-0.37883880734443665,0.39346471428871155,0.15993818640708923
1782829712109976800,7.891976806640625,-0.32319289445877075,0.3290150463581085,0.08154186606407166
1782829712119905000,7.901905029296875,-0.25269901752471924,0.2621704936027527,0.008065514266490936
1782829712129834000,7.911833984375,-0.186609148979187,0.2013786882162094,-0.025285059586167336
1782829712139762000,7.921761962890625,-0.12877914309501648,0.17764593660831451,-0.030089402571320534
1782829712149691000,7.93169091796875,-0.07301241904497147,0.17018453776836395,-0.031288158148527145
1782829712159618800,7.941618896484375,-0.028227634727954865,0.14634817838668823,-0.036153487861156464
1782829712169547800,7.9515478515625,0.0033333739265799522,0.09974806010723114,-0.035023998469114304
1782829712179475700,7.961475830078125,0.028665363788604736,0.0539318285882473,-0.02428347058594227
1782829712189405000,7.971405029296875,0.06624672561883926,0.023029256612062454,-0.013719279319047928
1782829712199332900,7.981332763671875,0.1170896664261818,-0.0185775738209486,-0.015290011651813984
1782829712209261800,7.99126171875,0.17998085916042328,-0.03804903104901314,-0.01417048741132021
1782829712219189800,8.001189697265625,0.23232582211494446,-0.062162090092897415,0.009931385517120361
1782829712229118700,8.01111865234375,0.25873488187789917,-0.07277233898639679,0.052761711180210114
1782829712239047000,8.021046875,0.27387815713882446,-0.05533555522561073,0.09783730655908585
1782829712248976000,8.030975830078125,0.27180078625679016,-0.025036221370100975,0.12825307250022888
1782829712258904000,8.040904052734374,0.2818145155906677,0.04402540251612663,0.1480685919523239
1782829712268833000,8.0508330078125,0.2934010624885559,0.13679949939250946,0.15538106858730316
1782829712278761000,8.060760986328125,0.3048190772533417,0.20644702017307281,0.13075800240039825
1782829712288690000,8.07068994140625,0.32284194231033325,0.23501694202423096,0.09776084870100021
1782829712298617900,8.080617919921876,0.3398699164390564,0.22357572615146637,0.06954305619001389
1782829712308546800,8.090546875,0.3595677614212036,0.2155332863330841,0.04474916309118271
1782829712318474800,8.100474853515625,0.39528581500053406,0.22219465672969818,0.013086842373013496
1782829712328400000,8.11039990234375,0.4406222701072693,0.21775032579898834,-0.012330937199294567
1782829712338327800,8.120327880859374,0.4865279793739319,0.18624405562877655,-0.023110080510377884
1782829712348256800,8.1302568359375,0.5284589529037476,0.15279236435890198,0.003601157572120428
1782829712358185700,8.140185791015625,0.5531011819839478,0.14059855043888092,0.04850098863244057
1782829712368114000,8.150114013671875,0.5857216119766235,0.12327182292938232,0.08681076765060425
1782829712378043000,8.16004296875,0.6295556426048279,0.11687570810317993,0.10495967417955399
1782829712387970800,8.169970703125,0.6888089776039124,0.09933226555585861,0.08994100242853165
1782829712397899800,8.179899658203125,0.7397012114524841,0.039765339344739914,0.037928931415081024
1782829712407828000,8.189827880859376,0.7555173635482788,-0.050805967301130295,-0.02586963027715683
1782829712417756700,8.199756591796875,0.7430540323257446,-0.1951729953289032,-0.0750608816742897
1782829712427684900,8.209684814453125,0.7175399661064148,-0.3208947777748108,-0.08937814831733704
1782829712437614000,8.219614013671874,0.677186131477356,-0.3674420416355133,-0.05492083728313446
1782829712447542000,8.2295419921875,0.6255088448524475,-0.32189488410949707,-0.0031255288049578667
1782829712457471000,8.239470947265625,0.5860762596130371,-0.21563662588596344,0.03924722969532013
1782829712467399000,8.24939892578125,0.5650873184204102,-0.06224171817302704,0.07231327146291733
1782829712477328000,8.259327880859376,0.5539081692695618,0.10017621517181396,0.10490983724594116
1782829712487255800,8.269255859375,0.5496671795845032,0.22675612568855286,0.1400989443063736
1782829712497185000,8.27918505859375,0.5502602458000183,0.33698567748069763,0.1788700371980667
1782829712507113000,8.289113037109376,0.5503908395767212,0.4458410143852234,0.20825603604316711
1782829712517042000,8.2990419921875,0.5301673412322998,0.5238330364227295,0.2253284901380539
1782829712526969900,8.308969970703124,0.5043577551841736,0.5662400126457214,0.2373591512441635
1782829712536898800,8.31889892578125,0.46703246235847473,0.5604785084724426,0.23384937644004822
1782829712546826800,8.32882666015625,0.43807563185691833,0.5336179137229919,0.22538718581199646
1782829712556755700,8.338755615234374,0.4372172951698303,0.4717404246330261,0.2143326699733734
1782829712566683600,8.34868359375,0.45801129937171936,0.39265871047973633,0.2070828676223755
1782829712576612900,8.35861279296875,0.47757914662361145,0.34915784001350403,0.22377049922943115
1782829712586541000,8.368541015625,0.5039951205253601,0.37082329392433167,0.2506387531757355
1782829712596469800,8.3784697265625,0.5418639779090881,0.44840142130851746,0.27899661660194397
1782829712606398000,8.38839794921875,0.5898792743682861,0.5100606083869934,0.287780225276947
1782829712616327000,8.398326904296875,0.6112191677093506,0.5005560517311096,0.28624677658081055
1782829712626256000,8.408255859375,0.6224637627601624,0.4384556710720062,0.2679907977581024
1782829712636184000,8.41818408203125,0.6122135519981384,0.3342890441417694,0.21834254264831543
1782829712646113000,8.428113037109375,0.5715431571006775,0.1974944919347763,0.1319086253643036
1782829712656041000,8.438041015625,0.49996405839920044,0.015447729267179966,0.03146297484636307
1782829712665970000,8.447969970703125,0.42387548089027405,-0.23542442917823792,-0.09120045602321625
1782829712675897900,8.45789794921875,0.349158376455307,-0.5032060742378235,-0.20133894681930542
1782829712685826800,8.467826904296874,0.2921583950519562,-0.716996967792511,-0.26182296872138977
1782829712695754800,8.477754638671875,0.24841755628585815,-0.8002486824989319,-0.2785084843635559
1782829712705684000,8.48768408203125,0.22459857165813446,-0.7730871438980103,-0.27646926045417786
1782829712715612000,8.49761181640625,0.21931512653827667,-0.6691815257072449,-0.24258211255073547
1782829712725540900,8.507540771484376,0.20675340294837952,-0.534997284412384,-0.19577381014823914
1782829712735468800,8.51746875,0.16642674803733826,-0.380326509475708,-0.13548783957958221
1782829712745397800,8.527397705078124,0.1055726483464241,-0.19325144588947296,-0.08482242375612259
1782829712755325700,8.53732568359375,0.033748261630535126,0.02652459591627121,-0.04651445150375366
1782829712765255000,8.5472548828125,-0.030649520456790924,0.23211345076560974,-0.0569165013730526
1782829712775182800,8.557182861328124,-0.08639774471521378,0.3727107644081116,-0.12619224190711975
1782829712785111800,8.56711181640625,-0.13976867496967316,0.4011993110179901,-0.22693048417568207
1782829712795040000,8.5770400390625,-0.1878129094839096,0.34410911798477173,-0.3082951009273529
1782829712804969000,8.586968994140625,-0.24824929237365723,0.2256237268447876,-0.35898277163505554
1782829712814897000,8.59689697265625,-0.2968117892742157,0.11863630264997482,-0.36765187978744507
1782829712824825900,8.606825927734375,-0.2936508059501648,0.044122885912656784,-0.36263445019721985
1782829712834754000,8.616754150390625,-0.25189271569252014,0.002020173706114292,-0.3540194034576416
1782829712844683000,8.62668310546875,-0.196768656373024,-0.018364787101745605,-0.34012508392333984
1782829712854611000,8.63661083984375,-0.14644797146320343,-0.021440472453832626,-0.31260985136032104
1782829712864540000,8.646539794921875,-0.10739348828792572,-0.02247624844312668,-0.25825244188308716
1782829712874467800,8.6564677734375,-0.07484246790409088,-0.018366457894444466,-0.17253299057483673
1782829712884396800,8.666396728515625,-0.04665584862232208,-0.016347598284482956,-0.08095293492078781
1782829712894324700,8.67632470703125,-0.018384799361228943,-0.053901366889476776,0.009707458317279816
1782829712904254000,8.68625390625,0.015588421374559402,-0.10370565950870514,0.08600692451000214
1782829712914183000,8.696182861328126,0.027943357825279236,-0.11548242717981339,0.1133866161108017
1782829712924110800,8.70611083984375,0.021796975284814835,-0.09110146760940552,0.10152526199817657
1782829712934039800,8.716039794921874,-0.008935902267694473,-0.05920105800032616,0.05421020835638046
1782829712943967700,8.7259677734375,-0.0349799245595932,-0.043624553829431534,-0.0017219684086740017
1782829712953897000,8.73589697265625,-0.07089505344629288,-0.03981409966945648,-0.03670152276754379
1782829712963825000,8.745824951171874,-0.08061891049146652,-0.04851846769452095,-0.046653132885694504
1782829712973753900,8.75575390625,-0.10734213143587112,-0.07133004069328308,-0.03181905671954155
1782829712983681800,8.765681884765625,-0.11462972313165665,-0.09863156825304031,-0.003815609496086836
1782829712993610800,8.77561083984375,-0.12426743656396866,-0.129239022731781,0.0411398783326149
1782829713003539000,8.7855390625,-0.13196201622486115,-0.1659466028213501,0.09179195761680603
1782829713013468000,8.795468017578125,-0.1326965093612671,-0.1819484680891037,0.13775146007537842
1782829713023395800,8.805395751953125,-0.128615140914917,-0.1846071481704712,0.1707950085401535
1782829713033325000,8.815324951171876,-0.10916154086589813,-0.1660076230764389,0.18915244936943054
1782829713043253000,8.8252529296875,-0.105998694896698,-0.11691401898860931,0.18783001601696014
1782829713053182000,8.835181884765625,-0.11779703199863434,-0.091151662170887,0.1644461303949356
1782829713063110000,8.84510986328125,-0.1438271403312683,-0.0788184329867363,0.12698082625865936
1782829713073038800,8.855038818359375,-0.18076865375041962,-0.09582964330911636,0.09955239295959473
1782829713082966800,8.864966796875,-0.21210530400276184,-0.10800949484109879,0.0804440975189209
1782829713092896000,8.87489599609375,-0.22462056577205658,-0.12456662952899933,0.06862765550613403
1782829713102824000,8.884823974609375,-0.23128631711006165,-0.12265534698963165,0.06658276170492172
1782829713112753000,8.8947529296875,-0.23466479778289795,-0.11605949699878693,0.06781420856714249
1782829713122680800,8.904680908203124,-0.22271300852298737,-0.11098451912403107,0.07770965993404388
1782829713132609800,8.91460986328125,-0.21759548783302307,-0.08056536316871643,0.10632932186126709
1782829713142538800,8.924538818359375,-0.22134968638420105,-0.06465433537960052,0.1140274852514267
1782829713152466700,8.934466796875,-0.24003760516643524,-0.06584344059228897,0.08551621437072754
1782829713162396000,8.94439599609375,-0.2531903088092804,-0.08841279149055481,0.012324875220656395
1782829713172323800,8.95432373046875,-0.25903353095054626,-0.12948833405971527,-0.0859159454703331
1782829713182252800,8.964252685546874,-0.27108556032180786,-0.1986314058303833,-0.19540724158287048
1782829713192181000,8.974180908203126,-0.28467807173728943,-0.2918359041213989,-0.2779359221458435
1782829713202109700,8.984109619140625,-0.30059343576431274,-0.3867943286895752,-0.3104912340641022
1782829713212038000,8.994037841796874,-0.3022962510585785,-0.4667584300041199,-0.29806095361709595
1782829713221967000,9.003967041015626,-0.2952008545398712,-0.45092228055000305,-0.23215517401695251
1782829713231895000,9.01389501953125,-0.2590292692184448,-0.3764592111110687,-0.125966414809227
1782829713241824000,9.023823974609375,-0.21408209204673767,-0.30179429054260254,-0.009894441813230515
1782829713251752000,9.033751953125,-0.18185730278491974,-0.22809262573719025,0.10701939463615417
1782829713261681000,9.043680908203125,-0.16698725521564484,-0.16928957402706146,0.20769129693508148
1782829713271608800,9.05360888671875,-0.1629459112882614,-0.1416182667016983,0.2543395161628723
1782829713281537800,9.063537841796874,-0.15551339089870453,-0.0926666408777237,0.2697538137435913
1782829713291466000,9.073466064453125,-0.15804845094680786,-0.002037676051259041,0.26838868856430054
1782829713301395000,9.08339501953125,-0.17704597115516663,0.09581780433654785,0.2584857940673828
1782829713311323000,9.093322998046874,-0.20418225228786469,0.2361307144165039,0.23936641216278076
1782829713321251800,9.103251953125,-0.22295266389846802,0.3515826165676117,0.2147614061832428
1782829713331179800,9.1131796875,-0.22915863990783691,0.4052770137786865,0.20317772030830383
1782829713341108700,9.123108642578124,-0.22754257917404175,0.3965110182762146,0.22118014097213745
1782829713351036700,9.13303662109375,-0.2058098465204239,0.3186423182487488,0.2543319761753082
1782829713360965600,9.142965576171875,-0.15924696624279022,0.21271772682666779,0.30095961689949036
1782829713370893800,9.152893798828124,-0.09790531545877457,0.0961943045258522,0.35430753231048584
1782829713380822800,9.16282275390625,-0.03504849970340729,-0.03667938709259033,0.3904147446155548
1782829713390751700,9.172751708984375,0.0006080335006117821,-0.16531406342983246,0.3878580927848816
1782829713400680000,9.182679931640624,0.015294208191335201,-0.28786230087280273,0.33018356561660767
1782829713410609000,9.19260888671875,0.009823276661336422,-0.39092370867729187,0.2211683988571167
1782829713420536800,9.202536865234375,-0.002354200929403305,-0.4384039044380188,0.07134594023227692
1782829713430465800,9.2124658203125,-0.024842465296387672,-0.45900827646255493,-0.08827061951160431
1782829713440393700,9.222393798828126,-0.06106513366103172,-0.4340892434120178,-0.21400590240955353
1782829713450323000,9.232322998046875,-0.08861766755580902,-0.3666441738605499,-0.27800992131233215
1782829713460251000,9.2422509765625,-0.11578989773988724,-0.25569528341293335,-0.29882705211639404
1782829713470179800,9.252179931640624,-0.12996456027030945,-0.10395581275224686,-0.27646687626838684
1782829713480107800,9.262107666015625,-0.09942351281642914,0.07630742341279984,-0.23950077593326569
1782829713490036700,9.27203662109375,-0.04901706427335739,0.25557252764701843,-0.1677139401435852
1782829713499964700,9.281964599609376,0.020691849291324615,0.3873123526573181,-0.08004923909902573
1782829713509893600,9.2918935546875,0.09606463462114334,0.4383118748664856,0.004355922341346741
1782829713519821600,9.301821533203125,0.1659976691007614,0.4375702440738678,0.07158303260803223
1782829713529750800,9.311750732421874,0.22494594752788544,0.4058445394039154,0.12021955102682114
1782829713539676700,9.3216767578125,0.26828697323799133,0.36011993885040283,0.13447460532188416
1782829713549606000,9.33160595703125,0.3017019033432007,0.29446902871131897,0.12345073372125626
1782829713559533800,9.341533935546876,0.32480430603027344,0.2194298505783081,0.10135535895824432
1782829713569462800,9.351462890625,0.3210013210773468,0.1527237892150879,0.07900424301624298
1782829713579390700,9.361390625,0.3137851655483246,0.10316841304302216,0.06946533173322678
1782829713589319700,9.371319580078126,0.3272207975387573,0.09992175549268723,0.05340912938117981
1782829713599247600,9.38124755859375,0.35162803530693054,0.10697648674249649,0.03409542143344879
1782829713609176800,9.3911767578125,0.3788931965827942,0.09367665648460388,0.014519590884447098
1782829713619104800,9.401104736328126,0.3916582763195038,0.0727379322052002,0.013890262693166733
1782829713629033700,9.41103369140625,0.397058367729187,0.05476585403084755,0.028002886101603508
1782829713638961700,9.420961669921875,0.3838352560997009,0.05387016385793686,0.04887477308511734
1782829713648890600,9.430890625,0.35675784945487976,0.04976463317871094,0.04513649269938469
1782829713658818800,9.44081884765625,0.33662253618240356,0.05243062600493431,0.02250460907816887
1782829713668747800,9.450747802734375,0.31294381618499756,0.05102447792887688,-0.038160599768161774
1782829713678676700,9.4606767578125,0.2929512560367584,0.047630053013563156,-0.11133294552564621
1782829713688605000,9.47060498046875,0.27752941846847534,0.052005089819431305,-0.19039075076580048
1782829713698534000,9.480533935546875,0.2636050879955292,0.07122454047203064,-0.23102131485939026
1782829713708461800,9.4904619140625,0.24862533807754517,0.10456385463476181,-0.24836541712284088
1782829713718390800,9.500390869140626,0.25472965836524963,0.13869881629943848,-0.24571697413921356
1782829713728318700,9.510318603515625,0.2659578025341034,0.17173106968402863,-0.2090764045715332
1782829713738248000,9.520248046875,0.26682838797569275,0.1831759512424469,-0.15430647134780884
1782829713748176000,9.53017578125,0.2764700949192047,0.18936114013195038,-0.07796216756105423
1782829713758104800,9.540104736328125,0.29850301146507263,0.21354703605175018,0.0006123236380517483
1782829713768032800,9.55003271484375,0.32763054966926575,0.21908986568450928,0.04510389268398285
1782829713777961700,9.559961669921876,0.3697594702243805,0.19968923926353455,0.04751744493842125
1782829713787889700,9.5698896484375,0.4178295135498047,0.17501133680343628,0.024912536144256592
1782829713797818600,9.579818603515625,0.4463881850242615,0.15383148193359375,-0.00828643050044775
1782829713807746600,9.58974658203125,0.4564805030822754,0.15180428326129913,-0.043978117406368256
1782829713817675800,9.59967578125,0.4474791884422302,0.15597869455814362,-0.07326880097389221
1782829713827603700,9.609603759765625,0.41522854566574097,0.17842967808246613,-0.09795097261667252
1782829713837532700,9.61953271484375,0.3671312928199768,0.17406074702739716,-0.1155415028333664
1782829713847460900,9.6294609375,0.33220499753952026,0.20812258124351501,-0.11775006353855133
1782829713857389600,9.6393896484375,0.306201696395874,0.23544631898403168,-0.08774925768375397
1782829713867317800,9.64931787109375,0.30638518929481506,0.2247084528207779,-0.04820983484387398
1782829713877247000,9.6592470703125,0.34237879514694214,0.182517871260643,-0.02260703407227993
1782829713887175700,9.66917578125,0.3851883113384247,0.15112267434597015,-0.006727137602865696
1782829713897104000,9.679103759765624,0.4256395399570465,0.1332753747701645,0.0002669794484972954
1782829713907032800,9.68903271484375,0.45789068937301636,0.12801429629325867,0.0018116123974323273
1782829713916960800,9.698960693359375,0.4792197346687317,0.17044618725776672,0.0036887754686176777
1782829713926889700,9.7088896484375,0.49711936712265015,0.2538611888885498,0.0029231165535748005
1782829713936817700,9.718817626953125,0.5112012028694153,0.35154157876968384,0.011597312055528164
1782829713946747000,9.728746826171875,0.5193161368370056,0.3823724687099457,0.021447811275720596
1782829713956674800,9.7386748046875,0.5668525099754333,0.41341763734817505,-0.014704971574246883
1782829713966603800,9.748603759765626,0.6365298628807068,0.4336198568344116,-0.08926922082901001
1782829713976531700,9.75853173828125,0.7443766593933105,0.44661402702331543,-0.19348463416099548
1782829713986460700,9.768460693359375,0.7624310255050659,0.5872430205345154,-0.09055505692958832
1782829713996388600,9.778388671875,0.6675443053245544,0.23901519179344177,-0.0989399254322052
1782829714006317800,9.78831787109375,0.6368886828422546,-0.20721368491649628,-0.18082013726234436
1782829714016245800,9.798245849609375,0.6988502144813538,-0.5019994974136353,-0.31205570697784424
1782829714026174700,9.8081748046875,0.7049856185913086,-0.5696815848350525,-0.43352222442626953
1782829714036102700,9.8181025390625,0.664024829864502,-0.45228174328804016,-0.4820387661457062
1782829714046031600,9.828031494140625,0.6184437274932861,-0.2819052040576935,-0.48676374554634094
1782829714055959800,9.837959716796876,0.5812050104141235,-0.03547646105289459,-0.4183689057826996
1782829714065888800,9.847888671875,0.5265854597091675,0.22983136773109436,-0.24697981774806976
1782829714075817000,9.85781689453125,0.4683223068714142,0.35963141918182373,-0.08471798151731491
1782829714085746000,9.867745849609374,0.5129328966140747,0.32389363646507263,0.0005079703405499458
