time,seconds_elapsed,z,y,x
1782836477890118100,0.0791181640625,0.1534860958814621,0.07381094001159072,0.06859400908090174
1782836477900047000,0.089047119140625,-0.18480594777464865,-0.13460918064974248,-0.0036933746252208947
1782836477909976000,0.09897607421875,-0.2238122625172138,-0.22777656303830443,0.09089826841279863
1782836477919905000,0.108905029296875,0.04835398880243301,-0.11192132882773875,0.10283873544484376
1782836477929835000,0.1188349609375,0.08517652976512909,0.09679682493209839,0.02151873497739434
1782836477939764000,0.128763916015625,-0.023862521624565123,0.13589702850319443,0.04709609769582748
1782836477949693000,0.13869287109375,-0.045401568737626075,0.0109546708650887,0.033847616805136205
1782836477959622000,0.148621826171875,-0.05597790780961513,-0.08358085807152092,0.026127397816628217
1782836477969551000,0.158551025390625,-0.07037760456204414,-0.07857515873871743,0.03313121216408908
1782836477979480000,0.16847998046875,-0.022458500045537948,-0.021224574336409566,0.09305420433767139
1782836477989409000,0.178408935546875,0.004756254616379738,0.005370660187676549,0.1402551506474614
1782836477999339000,0.188339111328125,0.02478898881971836,-0.02752769306860864,0.06466171113327145
1782836478009268000,0.19826806640625,-0.06899930194616317,-0.05080671571679413,0.045330622393265366
1782836478019197000,0.208197021484375,-0.09556056113541125,-0.09824044786915183,0.06419862366616726
1782836478029126000,0.2181259765625,0.0037830256700515743,-0.07755341447554528,0.014432649173960088
1782836478039055000,0.22805517578125,-0.09999649775624275,0.04960340434163808,0.04511719883829355
1782836478048984000,0.237984130859375,-0.16767945640683174,0.055432402756065126,0.02439049102142453
1782836478058913000,0.2479130859375,-0.1253700084656477,0.027336408280208706,-0.06922017815522849
1782836478068842000,0.257842041015625,-0.03080956428349018,0.022768735038489103,-0.02657156138755381
1782836478078772000,0.26777197265625,0.011348492488265038,0.02336860062777996,0.021559140053018927
1782836478088701000,0.277700927734375,0.032192543074488635,0.02738667716272175,0.07208112054429948
1782836478098630000,0.2876298828125,-0.07037994264960289,-0.03649805824868381,0.14735796838998794
1782836478108558800,0.297558837890625,-0.062335167881846426,-0.09424692125357687,0.08415062078349292
1782836478118488000,0.307488037109375,-0.08995733430087566,-0.08177073990963399,-0.07962481392212212
1782836478128417000,0.3174169921875,-0.10994447579681872,-0.04603599418364465,-0.08979914806447922
1782836478138346000,0.327345947265625,0.05929156240224838,-0.03738514328151941,-0.014026917917281388
1782836478148275000,0.33727490234375,0.11128478448987006,-0.046775779700279234,0.0038042145885527133
1782836478158205000,0.347204833984375,0.05251812274456024,-0.08998203035071492,0.06288659121952951
1782836478168134000,0.3571337890625,-0.06617898382842541,-0.16739282148517667,0.09527619123607874
1782836478178062800,0.367062744140625,-0.08854746750295162,-0.23185016915276646,0.012483999324217438
1782836478187992000,0.376991943359375,-0.044071196916699404,-0.1570289561200887,0.021184315391257404
1782836478197921000,0.386921142578125,-0.03356909212470054,-0.025056188388541338,0.0020095862567424774
1782836478207850000,0.39685009765625,-0.08907003007233143,0.014743907080218195,0.02432853170111775
1782836478217779000,0.406779052734375,-0.13166238660812377,-0.03234386117868125,0.03779898477941751
1782836478227708200,0.416708251953125,-0.16435001972317695,-0.09842164965495466,0.027827114406600593
1782836478237638000,0.426637939453125,-0.33832185427248473,-0.16837554891221224,0.06868300253860651
1782836478247566800,0.43656689453125,-0.2795090152978897,-0.24571378626711665,-0.013699804854765534
1782836478257496000,0.44649609375,-0.13702128329277038,-0.17955599135719238,-0.051243134372681375
1782836478267425000,0.456425048828125,-0.14001929606497288,-0.04857822601236403,0.01902772187925875
1782836478277354000,0.46635400390625,-0.0518137738674879,-0.05687105725705623,-0.0109830201767385
1782836478287283000,0.476282958984375,0.002069207489490509,-0.11280592964254318,-0.06521583788469433
1782836478297212200,0.486212158203125,-0.12102291917204856,-0.15191614315100013,0.053128363597393036
1782836478307142100,0.49614208984375,-0.1394090552121401,-0.2188212492968887,0.12186784556359052
1782836478317070800,0.50607080078125,0.0037882863670587537,-0.204160344325006,0.020078473041206597
1782836478326999800,0.515999755859375,-0.00625146161019802,-0.0852251912124455,-0.0008543518070131539
1782836478336929000,0.525928955078125,0.022816811963915825,-0.03165244484841823,0.03361698638703674
1782836478346858000,0.53585791015625,-0.020673370194435117,-0.03543444760516286,0.015665625035017727
1782836478356787000,0.545786865234375,-0.28118717764317985,-0.0803227330584079,0.00820752758141607
1782836478366715600,0.555715576171875,-0.28927929868400093,-0.15967260249666868,-0.10085413749888539
1782836478376644600,0.56564453125,-0.2694447174012661,-0.1601616281226277,-0.07840243252031505
1782836478386574600,0.57557470703125,-0.23052198928892612,-0.0674076488405466,0.03952266676686704
1782836478396503800,0.58550390625,-0.12024784314632415,-0.02251023023277521,0.04507708602361381
1782836478406432500,0.5954326171875,-0.06833353151381015,-0.06447780593372882,-0.057571241415664554
1782836478416361500,0.605361572265625,-0.011326280656456947,-0.11813165470995009,-0.04070800409391522
1782836478426290400,0.61529052734375,0.04601823933124542,-0.12380100558325648,0.08104410613551735
1782836478436219600,0.6252197265625,0.02272854915857315,-0.1080770014245063,0.11844327794238925
1782836478446148600,0.635148681640625,-0.06091010351479053,-0.12388188879974185,0.13146240705661474
1782836478456078600,0.64507861328125,-0.11225450630486011,-0.14088709187544882,0.08094561419710516
1782836478466007800,0.6550078125,-0.1629483362317085,-0.08860694260522722,0.06863174727540462
1782836478475936800,0.664936767578125,-0.15927461615502833,-0.022706118131056427,0.02313994297105819
1782836478485865500,0.674865478515625,-0.11658932063877582,0.04250687020942569,0.014676394801959395
1782836478495794400,0.68479443359375,-0.03202595433592796,0.04935286364667117,0.06354180372525006
1782836478505723400,0.694723388671875,-0.025416765329241753,0.01023994672447443,0.08905483250319957
1782836478515652600,0.704652587890625,-0.06469429822862148,-0.0740815736465156,0.06739449709802865
1782836478525581600,0.71458154296875,-0.055223874571919435,-0.1565847925491631,0.0038405280109494924
1782836478535511600,0.724511474609375,0.03855506384372711,-0.17018742063976824,0.02531016314961016
1782836478545440800,0.734440673828125,0.05186813440322876,-0.12208959855549037,0.10071166028827429
1782836478555369700,0.74436962890625,0.02600070269703865,-0.09546469954550266,0.1003041024006903
1782836478565298400,0.75429833984375,-0.020305705925822256,-0.09786934953443706,0.05676989843752235
1782836478575227400,0.764227294921875,-0.1339829385101795,-0.05787840766869485,0.028225977531075475
1782836478585156600,0.774156494140625,-0.10019815780818461,-0.010998290811106561,-0.06180073221158236
1782836478595085600,0.78408544921875,-0.060167760714888566,0.03405051896609366,-0.08020491536501795
1782836478605014500,0.7940146484375,-0.06894669497609138,0.011887860061973333,-0.032284751402586694
1782836478614944800,0.80394482421875,-0.12330489262938499,-0.05488090635314583,0.02650094383675605
1782836478624873700,0.813873779296875,-0.09704524673521518,-0.14143361984230576,0.0022901567637920377
1782836478634802700,0.823802734375,-0.008656769186258316,-0.14826083551384509,-0.04302377022299915
1782836478644731600,0.833731689453125,-0.012993921607732772,-0.0838048030205071,-0.013241685823723674
1782836478654660600,0.84366064453125,-0.04357727591991424,-0.03213854786492884,0.08220682977195828
1782836478664589600,0.853589599609375,-0.056636079457402226,-0.029656960182264446,0.08550656543709337
1782836478674518500,0.8635185546875,-0.15121289025247095,-0.008455839786678552,0.0177089308982715
1782836478684447500,0.873447509765625,-0.183994046869874,-0.01323598673529923,-0.06221793471034616
1782836478694377700,0.883377685546875,-0.15700959383249283,-0.03944843248687684,-0.03177877464182675
1782836478704306700,0.893306640625,-0.16300445033311842,-0.09281791136376559,0.06221862883009016
1782836478714235600,0.903235595703125,-0.0714466950982809,-0.15637136899419127,0.006723864894919097
1782836478724164600,0.91316455078125,-0.01018587844967842,-0.15641915365867315,-0.004957695472612976
1782836478734093600,0.923093505859375,0.08903495875895023,-0.09950316128134727,0.018867014892213044
1782836478744022500,0.9330224609375,0.15960896267592906,-0.05251600385271012,0.005489756522700191
1782836478753951500,0.942951416015625,0.1395125155866146,-0.020599208979681132,0.00531085629183799
1782836478763881700,0.9528818359375,0.0074853873193264,-0.03444967435151338,0.007804609336331487
1782836478773810700,0.962810791015625,-0.06394026499092578,-0.062191302431747315,0.013682232665456831
1782836478783739600,0.97273974609375,0.006997311541438103,-0.044056949195638295,0.04523041342180222
1782836478793668600,0.982668701171875,-0.09863514627516269,-0.0384516765344888,-0.03850885008182377
1782836478803597600,0.99259765625,-0.1300491061925888,-0.08127711117379367,-0.007500073431804775
1782836478813526500,1.002526611328125,-0.10696282963752746,-0.13439159237630666,0.04190357055403292
1782836478823455500,1.01245556640625,-0.1011404070943594,-0.11152356168180703,0.05686228942871093
1782836478833384400,1.022384521484375,-0.09969488446116447,-0.0585869212642312,0.014781426079012453
1782836478843314700,1.032314697265625,-0.13165654138922692,-0.052312955561280246,-0.015972462494485078
1782836478853243600,1.04224365234375,-0.10525251858830452,-0.12174122350923716,0.056849539544992146
1782836478863172600,1.052172607421875,-0.10436989053487777,-0.19113544305711982,0.09075334351677447
1782836478873101600,1.0621015625,-0.11402326954305171,-0.22571225091964006,0.11103829891551285
1782836478883030500,1.072030517578125,-0.08327449553608894,-0.1885578476540744,0.09359514281395823
1782836478892959500,1.08195947265625,-0.04744681082963943,-0.11139796254076063,0.037719416737183924
1782836478902888400,1.091888427734375,-0.05899813241362571,-0.04748093229494989,-0.011232355295307934
1782836478912817400,1.1018173828125,-0.047315877926349635,-0.07241181380338967,-0.06242675515543669
1782836478922747600,1.11174755859375,-0.05377250671982765,-0.09814093301743268,0.024151348503306507
1782836478932676600,1.121676513671875,-0.15314765770733355,-0.10977649881877004,0.06628916620463132
1782836478942605600,1.13160546875,-0.10587269631326197,-0.16186390199586748,-0.05652553175501525
1782836478952534800,1.14153466796875,-0.10771627835333347,-0.12526808246113358,-0.030763898510858416
1782836478962463700,1.151463623046875,-0.16294658266603945,-0.09150025289393961,0.023666341465339063
1782836478972392400,1.161392333984375,-0.08018646639287472,-0.14414397477954624,0.02462035425454378
1782836478982321400,1.1713212890625,-0.01840542526245117,-0.1929438807185739,0.025066198325902223
1782836478992250600,1.181250732421875,-0.06671966657638549,-0.21265067090317605,0.0356589040108025
1782836479002180600,1.1911806640625,0.03317746245861053,-0.18030498309358953,-0.009086502373032272
1782836479012109600,1.201109619140625,-0.02861936076283455,-0.11984656886905432,-0.04198522095549852
1782836479022038800,1.211038818359375,-0.0966565396785736,-0.13777122487723825,0.00011230126805603503
1782836479031967700,1.2209677734375,-0.008676642930507659,-0.17702705740146338,0.04200600801520049
1782836479041896700,1.230896728515625,0.027528058394789695,-0.11335633006691932,0.04272171853650361
1782836479051825400,1.240825439453125,-0.02584112822115421,-0.027686025435477494,0.08521426795963198
1782836479061754600,1.250754638671875,-0.06428337934017181,-0.007141396187245845,0.07031268609967083
1782836479071684600,1.2606845703125,-0.22786124564707277,-0.0649441813364625,0.06862257758826017
1782836479081613600,1.270613525390625,-0.32503391815423965,-0.17967377251796424,0.0505432424750179
1782836479091542500,1.28054248046875,-0.2823281643718481,-0.2167271996270865,0.0018782149620354175
1782836479101471700,1.2904716796875,-0.17987901276648044,-0.14696034737452865,-0.01783255727794021
1782836479111400700,1.300400634765625,-0.07652502127587794,-0.07457417946904897,0.017033661985211074
1782836479121329700,1.31032958984375,-0.11376023469269275,-0.07890271019265055,0.056729347231425344
1782836479131258400,1.32025830078125,-0.08476677992045879,-0.18844868819117544,-0.0015264423822984098
1782836479141187600,1.3301875,-0.1394119778215885,-0.20581534499041734,-0.020083112683705984
1782836479151117600,1.34011767578125,-0.16570084981024263,-0.14243614794835446,0.047464894475601614
1782836479161046500,1.350046630859375,-0.07816694326400757,-0.09415069433748721,0.02978343610614538
1782836479170975700,1.359975830078125,-0.08636194015741348,-0.030682284642010924,0.028401480228453874
1782836479180904700,1.36990478515625,-0.06445581329762935,-0.019046572710201142,0.07034114500917493
1782836479190833700,1.379833740234375,-0.09028583560287952,-0.06464278723709285,0.08563198191504925
1782836479200762600,1.3897626953125,-0.05060147546827793,-0.11653897869102656,0.10075864123515785
1782836479210691600,1.399691650390625,-0.0454395626604557,-0.12447072153836489,0.06621058454308658
1782836479220620500,1.40962060546875,-0.10277180768847465,-0.10099785681851207,0.02907053859643638
1782836479230550500,1.419550537109375,-0.021252631387114522,-0.07684504701048135,0.011304105357266963
1782836479240479700,1.429479736328125,0.034355858588218685,-0.0362947907615453,-0.014820625578239559
1782836479250408700,1.43940869140625,-0.038974750560522076,-0.02465148004516959,0.020543533269688486
1782836479260337700,1.449337646484375,-0.17928630757033823,-0.08759718104079366,0.04571308237221092
1782836479270266600,1.4592666015625,-0.12320435486435889,-0.16164587533101438,-0.04693473312165588
1782836479280195600,1.469195556640625,-0.04525602278709411,-0.10994031107835471,-0.02685476224310696
1782836479290124500,1.47912451171875,-0.043942017579078674,0.005053630127757788,0.05552457455154508
1782836479300053500,1.489053466796875,-0.021533201894164085,-0.007337503281235695,0.06848875860814005
1782836479309983500,1.4989833984375,-0.04045417546331882,-0.07443046014942228,0.033686471426673234
1782836479319912700,1.50891259765625,-0.1244938101530075,-0.07844583327062428,0.04667666670735925
1782836479329841700,1.518841552734375,-0.13160744155049323,-0.08240443470329045,0.011888956040516496
1782836479339770600,1.5287705078125,-0.02279343108832836,-0.10754691313579678,-0.08469689302202314
1782836479349699600,1.538699462890625,0.08389467326104641,-0.09566460603177547,-0.10053444055784493
1782836479359628800,1.54862890625,0.05946165827214717,-0.10828238780349492,0.03166811734158546
1782836479369557500,1.5585576171875,-0.014179332000017164,-0.16051153753884137,0.0890543941117823
1782836479379486500,1.568486572265625,0.00319850378036499,-0.16601992569677532,0.06077975513339042
1782836479389416700,1.578416748046875,0.038003859701752664,-0.0954251712527126,-0.017120500018447636
1782836479399345700,1.588345703125,-0.06692541828155517,0.026148367539420722,0.03431187331601977
1782836479409274600,1.598274658203125,-0.21010697776973247,0.029699703345447775,0.041388314508274196
1782836479419203600,1.60820361328125,-0.2249462349832058,-0.09649155837520956,-0.1179176831657067
1782836479429132800,1.6181328125,-0.24127076231837272,-0.11243724246062338,-0.10756411999892443
1782836479439061800,1.628061767578125,-0.19568506918549536,-0.08896686195880174,0.029376389675214883
1782836479448990500,1.637990478515625,-0.026039281141757964,-0.11796148577481508,0.04975019240118563
1782836479458920400,1.64792041015625,0.020787351962924003,-0.1303786304078996,0.01988528855666518
1782836479468849700,1.657849609375,-0.02234685636460781,-0.16469364552907645,-0.027440453176572916
1782836479478778600,1.667778564453125,0.033175708892941476,-0.18794154238663613,-0.011285400656796991
1782836479488707600,1.67770751953125,0.10012567709386348,-0.15272621742486953,0.07360548056736588
1782836479498636500,1.687636474609375,0.0508031355202198,-0.09495017415210603,0.09130692227892577
1782836479508565800,1.697565673828125,-0.08062602685391902,-0.03474500403627753,0.006432590330764651
1782836479518494700,1.70749462890625,-0.16120938360989093,-0.02394501227624714,-0.08742770622540265
1782836479528423400,1.71742333984375,-0.15382453405559063,-0.0223177764005959,-0.11226557568814605
1782836479538353700,1.727353759765625,-0.15151099641621113,-0.002093465147912502,-0.019623605413176117
1782836479548282600,1.73728271484375,-0.1630675786972046,-0.030453371256962417,0.10521481692641974
1782836479558211600,1.747211669921875,-0.07481763283610343,-0.1098268407665193,0.08260382973290979
1782836479568140500,1.757140625,-0.11213000314235687,-0.1418220346380025,0.0317527634177357
1782836479578069800,1.76706982421875,-0.08977671703696251,-0.17353928835093974,0.024320859851315615
1782836479587998700,1.776998779296875,0.046857028242945666,-0.17442082042582333,0.02429265667013824
1782836479597927700,1.786927734375,0.06321311976015567,-0.1253369829788804,0.030138204360567033
1782836479607856600,1.796856689453125,-0.025704934620857236,-0.07496266732998191,0.07852123659439385
1782836479617786600,1.80678662109375,0.03167641024589538,-0.06410385805480182,0.0089564097199589
1782836479627715600,1.816715576171875,-0.014309095859527587,-0.03446450659446418,-0.06051602616328746
1782836479637644500,1.82664453125,-0.1416775846660137,-0.022624138936027882,0.016736103810742496
1782836479647573800,1.83657373046875,-0.05338438418507575,-0.055993470704928036,0.07440408359915017
1782836479657502700,1.846502685546875,-0.01789922930598259,-0.06757036512158811,0.048784452641569075
1782836479667431700,1.856431640625,-0.11463643300533294,-0.07265482877902686,0.055005665243975814
1782836479677360600,1.866360595703125,-0.12093290280103683,-0.12401603657342493,0.09719309424068778
1782836479687289600,1.87628955078125,-0.13488193317651748,-0.14374686522074043,0.034687465162761506
1782836479697219600,1.886219482421875,-0.11538520554602145,-0.09949738912768662,-0.06659512688126415
1782836479707148500,1.8961484375,-0.04534194750487804,-0.046027664746716615,-0.0031454584188759325
1782836479717077500,1.906077392578125,-0.028121932634711265,-0.041795726265385746,0.11136230670548974
1782836479727006700,1.9160068359375,-0.010559387937188148,-0.08591273508518933,0.04414948631729931
1782836479736935700,1.925935791015625,-0.06863105315566062,-0.0989065836276859,-0.0007561886621639132
1782836479746864600,1.93586474609375,-0.20304186168909072,-0.11100677126608788,0.04106182250026613
1782836479756793600,1.945793701171875,-0.1163029049128294,-0.16291151135265827,0.018674816788360474
1782836479766722600,1.95572265625,-0.03604746493697166,-0.1275405574377626,-0.012676051297597586
1782836479776652500,1.965652587890625,-0.05337444731295109,-0.06883117883764207,0.015510690201632678
1782836479786581500,1.97558154296875,-0.0765180070132017,-0.06430610262863337,0.02245426226183772
1782836479796510700,1.9855107421875,-0.08379998071491718,-0.10521335562169551,0.013075279748253524
1782836479806439700,1.995439697265625,-0.10207505759596824,-0.10243979925513266,0.029125264458358287
1782836479816368600,2.00536865234375,-0.14716098451316356,-0.0742334032073617,-0.015623758654668926
1782836479826297600,2.015297607421875,-0.13057868302464484,-0.05244644574783742,-0.03578223812952638
1782836479836226800,2.025226806640625,-0.14758242479562758,-0.04078903344087303,0.017442242786101996
1782836479846156500,2.035156494140625,-0.18004793959259985,-0.07832030719481409,0.011424809127487242
1782836479856085500,2.04508544921875,-0.13354337804913521,-0.11397848055325448,-0.0035513358060270546
1782836479866014500,2.055014404296875,-0.08109189079999923,-0.08948737870156764,0.017919943300448358
1782836479875943700,2.064943603515625,0.00722352151274681,-0.05683927387930453,0.007451192788779735
1782836479885872600,2.07487255859375,-0.010212766456604003,-0.03998809232152998,0.0134619409782812
1782836479895801600,2.084801513671875,-0.06937105786800384,-0.08480864630080759,0.01148494181688875
1782836479905730600,2.09473046875,-0.02917524107992649,-0.11337700752876698,-0.014934388151019811
1782836479915659800,2.10465966796875,-0.049713586717844004,-0.09868833776712417,-0.06715199357904493
1782836479925589500,2.114589599609375,-0.05603285286724567,-0.0712150782994926,-0.06020801966004073
1782836479935518500,2.1245185546875,0.0014765022933483122,-0.06664448244832456,-0.026652517669275403
1782836479945447700,2.13444775390625,-0.012404139021039009,-0.057459013212844724,-0.011858962761051951
1782836479955376600,2.144376708984375,-0.008004442757368087,-0.06250263340324164,-0.04359835524056106
1782836479965305600,2.1543056640625,0.012918518283963202,-0.07342369425967335,-0.013678689001500606
1782836479975234600,2.164234619140625,0.021862287718057632,-0.03773892515525221,0.08617905787117779
1782836479985163800,2.174163818359375,-0.10453121857643127,-0.05992912965342402,0.1015016050895676
1782836479995092700,2.1840927734375,-0.17513795571923255,-0.10134455136433243,0.04412679956145584
1782836480005022500,2.1940224609375,-0.17398410950899124,-0.09723558167554437,-0.035651159095764155
1782836480014951700,2.20395166015625,-0.13657237048149107,-0.03733567811660468,-0.10941113610509783
1782836480024880600,2.213880615234375,-0.1286415774822235,-0.03245024416260421,-0.06455854301974177
1782836480034809600,2.2238095703125,-0.09139233554005623,-0.10505443873293697,0.03568206569068134
1782836480044738600,2.233738525390625,-0.04389759391546249,-0.1446518512364477,0.07519669528156518
1782836480054667500,2.24366748046875,-0.020307459491491316,-0.12506854130104184,0.05424122021012008
1782836480064596700,2.2535966796875,-0.002183189257979393,-0.09521956567801534,0.00331745398491621
1782836480074525700,2.263525634765625,-0.021168460234999655,-0.11355382540039717,0.004159603897482157
1782836480084455400,2.273455322265625,-0.00571077886223793,-0.15133783180639146,0.049913383606262504
1782836480094384600,2.283384521484375,-0.013974164816737173,-0.1531987303074449,0.05672014101166278
1782836480104313600,2.293313720703125,-0.13224340136647222,-0.14790230439975857,0.024597630966082213
1782836480114242600,2.30324267578125,-0.13058745085299014,-0.13439984874799846,0.0128179074537009
1782836480124171500,2.313171630859375,-0.06180442200601101,-0.0910998553995043,-0.049257294317707416
1782836480134100700,2.323100830078125,-0.11225801343619823,-0.02253054236844182,-0.031941052531450985
1782836480144029700,2.33302978515625,-0.1323760878354311,0.008929156386852264,0.021132621736638248
1782836480153958700,2.342958740234375,-0.11306757625341415,-0.020714286726713178,0.00013728957884013651
1782836480163888600,2.352888671875,-0.1548094534397125,-0.057097048032656306,0.01069981932118535
1782836480173817600,2.362817626953125,-0.15479951656758784,-0.10746259585320948,0.04105422371570021
1782836480183746600,2.37274658203125,-0.10487667101323604,-0.18679142250344155,0.018750621970929204
1782836480193675500,2.382675537109375,-0.017303016978502273,-0.2054415432419628,0.07863204002510756
1782836480203604700,2.392604736328125,0.06521686079800129,-0.12712284348234534,0.07536708341240883
1782836480213533700,2.40253369140625,0.023635142609477043,-0.050868528906628484,0.03887066913153976
1782836480223462700,2.412462646484375,-0.06922258930802346,-0.04368957718797028,0.03881437236703932
1782836480233391600,2.4223916015625,-0.1456114169836044,-0.10309913994669914,0.013832199062779545
1782836480243321600,2.432321533203125,-0.1351291859358549,-0.13814802230037748,-0.015451653490774332
1782836480253250600,2.44225048828125,-0.06074702190756798,-0.11103585123009979,-0.009584734218753874
1782836480263179500,2.452179443359375,-0.03144669314324856,-0.0352072147205472,0.0636629458868876
1782836480273108500,2.4621083984375,-0.06557692628204823,-0.0359586176097393,0.06949084832277148
1782836480283037700,2.47203759765625,-0.08571487442553043,-0.07397511759735644,-0.006667275869473814
1782836480292966700,2.481966552734375,-0.17235270891487597,-0.07598382707126439,-0.012554945668578147
1782836480302895600,2.4918955078125,-0.22656302253007887,-0.1313040746897459,0.04342928228396922
1782836480312824600,2.501824462890625,-0.09516600885987281,-0.18913111749738454,0.01640774863921106
1782836480322754600,2.511754638671875,-0.13183248247802257,-0.16167597820833324,0.0018312340151518582
1782836480332683500,2.52168359375,-0.1718108571231365,-0.12555815144889057,0.03323218832053244
1782836480342612500,2.531612548828125,-0.029771453407406806,-0.09803666892535984,-0.0021166268277913332
1782836480352541700,2.541541748046875,0.000962123030424118,-0.03716638596430421,-0.02718534590434283
1782836480362470700,2.551470703125,-0.06929974619746208,-0.03537541089430451,0.03756236301194876
1782836480372400000,2.561400146484375,-0.03498889579474926,-0.09160860863924027,0.03775054252780974
1782836480382329000,2.5713291015625,-0.03439852868616581,-0.08491765963323414,-0.008191855088248849
1782836480392258000,2.581258056640625,-0.08686053732931613,-0.03728774732165038,0.03056019263230264
1782836480402188000,2.59118798828125,-0.07704758384525776,-0.06652903937511145,0.026543394738994537
1782836480412117000,2.601116943359375,-0.07790098580420017,-0.08832863712050021,-0.029072182564251123
1782836480422046000,2.6110458984375,-0.08641162451803684,-0.06313143282607198,0.00046356239113956685
1782836480431975000,2.620974853515625,-0.1203635784804821,-0.0486070867806673,0.05569262459482997
1782836480441904000,2.630904052734375,-0.09907762934565544,-0.05349938886687159,0.004017418947815895
1782836480451833000,2.6408330078125,-0.10913023680448532,-0.023476517981663343,-0.019467574601247907
1782836480461762000,2.650761962890625,-0.10038462029099464,-0.019356588507443664,-0.052534160563908514
1782836480471691000,2.66069091796875,-0.02156476607620716,-0.04052782522141933,-0.09126827076897025
1782836480481621000,2.67062109375,0.07068681664168834,-0.06262735576145351,-0.002338891276344657
1782836480491550000,2.680550048828125,0.13986439776420592,-0.08411978725381195,0.06109163409415632
1782836480501479000,2.69047900390625,0.15886135917901992,-0.069179115492478,0.06911247999705374
1782836480511407900,2.700407958984375,0.14255144489109514,-0.018437062509730456,0.007792918898537755
1782836480521337000,2.710337158203125,0.08740063555538653,0.06654409081377088,-0.05064235546793788
1782836480531266000,2.72026611328125,-0.07332184132039546,0.09891915084831417,-0.03246898539569229
1782836480541195000,2.730195068359375,-0.12737608759105204,0.04266512951105833,0.0431685489885509
1782836480551124000,2.7401240234375,-0.21582243280708788,0.013200842356681824,0.07465718157738446
1782836480561054000,2.750053955078125,-0.23962241058945655,0.020269903960078953,0.0496176885953173
1782836480570983000,2.75998291015625,-0.22546762850880622,0.024260581031441686,0.026528051039390266
1782836480580911900,2.769911865234375,-0.19560148255527018,-0.026635785730183124,-0.00992218601219356
1782836480590841000,2.779841064453125,-0.10527765302956103,-0.10338131788894533,-0.041629247124679386
1782836480600770000,2.78977001953125,-0.04865560209751129,-0.16224844433404503,-0.03034450405500829
1782836480610699000,2.799698974609375,0.09026245472729205,-0.15420885719805955,0.054959561079926784
1782836480620628000,2.8096279296875,0.11740122154355048,-0.11161861955411731,0.08751260802987962
1782836480630557200,2.81955712890625,0.024782559078931808,-0.028489669968560335,0.0781084545424208
1782836480640487000,2.82948681640625,-0.01514554668366909,-0.008069836143776774,-0.024581520081497728
1782836480650415900,2.839415771484375,-0.016142156505584714,0.01948832512833178,-0.07560472809318453
1782836480660345000,2.849344970703125,-0.14891162757277487,0.05984736965410411,-0.009704415075667203
1782836480670274000,2.859274169921875,-0.23175591499805448,-0.015379282374307513,0.044148280740901824
1782836480680203000,2.869203125,-0.17996201487481592,-0.14780293567851185,0.017566709415987133
1782836480690132000,2.879132080078125,-0.14314707269668578,-0.15893296311050653,-0.01506488266289234
1782836480700061200,2.889061279296875,-0.14704057300388812,-0.14793036145046354,0.053101731318794185
1782836480709990100,2.898990234375,-0.07342471717298031,-0.21093371091745794,0.13253368954993783
1782836480719919900,2.908919921875,-0.04870645550191402,-0.23531930656805633,0.07587959951180964
1782836480729848800,2.918848876953125,-0.11159984178841113,-0.1607270799856633,-0.1093211927993223
1782836480739778000,2.928778076171875,-0.11271101790070533,-0.09161854551136493,-0.08869619179125875
1782836480749707000,2.93870703125,-0.0808323630809784,-0.03561316517293453,0.030762254543043672
1782836480759636000,2.948635986328125,-0.1258311962366104,-0.01228716157786548,0.010397219645418227
1782836480769565000,2.95856494140625,-0.16262392658293245,-0.03476838491186499,-0.05961644697505981
1782836480779494100,2.968494140625,-0.1481096635401249,-0.06588197364322841,-0.021329788276553154
1782836480789423000,2.978423095703125,-0.07298574123382567,-0.09134206665754317,0.04457629689462483
1782836480799352800,2.988352783203125,0.015462942069768905,-0.09854366859942675,0.06119732295833528
1782836480809282000,2.998281982421875,0.09165303230285644,-0.0964350789476186,0.06746573570333421
1782836480819211000,3.0082109375,0.04119710278511047,-0.11570691178105771,0.13964969556760043
1782836480829140000,3.018139892578125,-0.010527823755145072,-0.20173494380898774,0.09835347978956997
1782836480839069000,3.02806884765625,-0.0015431377887725828,-0.21366364733800292,0.016257051589526235
1782836480848998100,3.037998046875,-0.07982347829937934,-0.12756466896571217,0.05405727847795933
1782836480858927000,3.047927001953125,-0.1302098497122526,-0.0704583416480571,0.048679896288551384
1782836480868856800,3.05785693359375,-0.11163900475502013,-0.028293416744098066,-0.010480879340879618
1782836480878785800,3.067785888671875,-0.13242635671794414,-0.016338336664810774,-0.004640300086513161
1782836480888715000,3.077715087890625,-0.15707447576224803,-0.07675481144376099,-0.04021558093447238
1782836480898644000,3.08764404296875,-0.015458265894651413,-0.11028269477523862,-0.018064941261708736
1782836480908573000,3.097572998046875,-0.04451952520608902,-0.10725713640898465,0.09054127166867255
1782836480918502000,3.107501953125,-0.024671499919891357,-0.09705503747686743,0.11727613385915756
1782836480928431000,3.11743115234375,-0.016502806511521338,-0.07298486445099114,0.05880213491749018
1782836480938360000,3.127360107421875,-0.08376900105476379,-0.031119068624079226,0.024731048087403177
1782836480948289000,3.1372890625,-0.14282441661357878,-0.027658918232843277,0.013871873486042022
1782836480958219000,3.147218994140625,-0.10637830774784088,-0.054096404911950224,0.026992526745982466
1782836480968148000,3.15714794921875,-0.13986615132987498,-0.055429772407561535,0.10166538081653416
1782836480978077000,3.167076904296875,-0.16492694282829762,-0.06294248612523079,0.12400865698456763
1782836480988006000,3.177005859375,-0.1831353842139244,-0.043516266447678205,0.06206117324605584
1782836480997935000,3.18693505859375,-0.2394979074269533,-0.018392492715641855,-0.01815773411169648
1782836481007864000,3.196864013671875,-0.24790859289765357,-0.06374342724457382,-0.06024553865883499
1782836481017793000,3.20679296875,-0.1741869386047125,-0.10397745715118945,-0.035205132361315186
1782836481027722000,3.216721923828125,-0.01712941397726536,-0.10489902897551655,0.026902948766387998
1782836481037652000,3.22665185546875,0.03577040156126022,-0.11225384871773421,0.0702808296566829
1782836481047581000,3.236580810546875,0.026628479206562042,-0.15361235260963438,0.0757854914875701
1782836481057510000,3.246510009765625,0.09060673812031746,-0.19712818066589533,0.05782591029647737
1782836481067439000,3.256439208984375,0.03839665841162204,-0.1221741350337863,0.03322356662265956
1782836481077368000,3.2663681640625,-0.09043371964097023,-0.03679294954203069,0.03915131270382553
1782836481087297000,3.276297119140625,-0.03702537005841732,0.007992094732448458,-0.07319890906047076
1782836481097226000,3.28622607421875,-0.057599371531605714,0.0413235056437552,-0.13860603173356503
1782836481107156000,3.296156005859375,-0.1659381656974554,0.008473740769550204,-0.031340675485506654
1782836481117085000,3.3060849609375,-0.14691782340705395,-0.08949811929129063,0.0315192103901878
1782836481127014000,3.316013916015625,-0.09572305822074413,-0.18115056707225738,0.042363662346452474
1782836481136942800,3.32594287109375,0.01542787075638771,-0.1613037108298391,0.0792047984117642
1782836481146872000,3.3358720703125,0.0404682039886713,-0.13850209643505512,0.06851060511376708
1782836481156801000,3.345801025390625,0.009230185160040856,-0.157731916757673,0.030377200748212634
1782836481166730000,3.35572998046875,-0.012981646648049353,-0.15909925958812235,0.015444785358570514
1782836481176659000,3.365658935546875,-0.08341361174583435,-0.12823898803070186,-0.035081761709973215
1782836481186589000,3.3755888671875,-0.13210370063483715,-0.05468837945573032,-0.002755947644636035
1782836481196518000,3.385517822265625,-0.07919862439930439,-0.013010799677297472,-0.02323635255023837
1782836481206446800,3.39544677734375,-0.16183949820697308,-0.00933437618687749,-0.021686456227116284
1782836481216376000,3.4053759765625,-0.2122317148387432,-0.07985847654752433,0.02221690984200686
1782836481226305000,3.415304931640625,-0.0996153894841671,-0.15804069044589997,0.01773848578631878
1782836481236234000,3.42523388671875,-0.05586684865057468,-0.17586437029764054,0.012723434103280305
1782836481246163000,3.435162841796875,-0.039327801781892775,-0.1492169671948999,0.09160086372420191
1782836481256092200,3.445092041015625,-0.045347792723774906,-0.127817255487293,0.06614175709057599
1782836481266022000,3.45502197265625,-0.09436287578344345,-0.10431713743433356,0.018961999699287115
1782836481275950800,3.464950927734375,-0.04561199661791324,-0.060618354026600714,-0.03644205374512821
1782836481285879800,3.4748798828125,-0.05236030183434486,-0.03154299312457442,-0.07876611473355442
1782836481295809000,3.48480908203125,-0.11747487130165099,-0.06457279074080288,0.024091069683432578
1782836481305738000,3.494738037109375,-0.08837152641415595,-0.16249503950625657,0.10676233862936496
1782836481315667000,3.5046669921875,-0.07410685421824455,-0.1830792701125145,0.04339234780706465
1782836481325596000,3.514595947265625,-0.10156944616138934,-0.10720452943891286,0.04418415577188134
1782836481335525000,3.524525146484375,-0.09417933591008186,-0.05741919265910983,0.05158577379789203
1782836481345454800,3.534454833984375,-0.04007072910368442,-0.06735306910909712,-0.025282727153412995
1782836481355383800,3.5443837890625,-0.023713468542695043,-0.06706650725267826,-0.08644735341854393
1782836481365313000,3.55431298828125,-0.2210030503153801,-0.1291452161554247,0.0789908268675208
1782836481375244800,3.564244873046875,-0.07747662291228771,-0.22471571416296063,0.01513933613859117
1782836481385174000,3.574174072265625,0.03856032454073429,-0.11910342235155402,-0.046237069713696836
1782836481395103000,3.58410302734375,-0.0022562544941902157,0.054938774020224804,0.004615056047402322
1782836481405032000,3.594031982421875,-0.0077414079070091246,0.0077947455294430255,-0.009858363528363405
1782836481414961000,3.6039609375,-0.048260465300083155,-0.1270516048770398,-0.007042904248833656
1782836481424891000,3.613890869140625,0.046617958790063856,-0.1523022198591381,0.0993946228729561
1782836481434819800,3.62381982421875,-0.12213058815300463,-0.1546655879896134,0.1199922974826768
1782836481444748800,3.633748779296875,-0.06399404100477694,-0.10321728643365204,0.05949183421470224
1782836481454678000,3.643677978515625,-0.1742518205344677,-0.020746873822063205,-0.04295293347649276
1782836481464607000,3.65360693359375,-0.15871113705337048,0.0036704321410506962,-0.08346015430130065
1782836481474536000,3.663535888671875,-0.09656827687323093,-0.019055121342837808,0.0299273746214807
1782836481484465000,3.67346484375,-0.20641396847069263,-0.07435805250033736,0.06592004063129425
1782836481494394000,3.68339404296875,-0.1568365753531456,-0.11021876269355416,0.06173395058568567
1782836481504323800,3.69332373046875,-0.10953823308348655,-0.08327654136270284,0.002240801196731627
1782836481514252800,3.703252685546875,-0.03624970951080322,-0.059444195680692785,-0.02158745283205062
1782836481524182000,3.71318212890625,0.03228898918628693,-0.08800159712322056,0.03162548377625644
1782836481534111000,3.723111083984375,0.004568038567900657,-0.12944244553633033,0.05483666535262018
1782836481544040000,3.7330400390625,-0.05656652135252952,-0.1196008504796773,0.07229943947009741
1782836481553969000,3.742968994140625,-0.08148293594419956,-0.06967077146694063,0.04435732038170099
1782836481563897900,3.75289794921875,-0.15538754558861254,0.004110504058748484,-0.007685768729634583
1782836481573827000,3.7628271484375,-0.2003852097004652,0.08539784436561167,-0.007052183533832431
1782836481583756800,3.7727568359375,-0.22737959960997103,0.10953107269033789,-0.002261588256433606
1782836481593685800,3.782685791015625,-0.22438041779398918,0.0932310952745378,-0.008080978592298924
1782836481603615000,3.792614990234375,-0.1798895341604948,0.01759827359803021,0.0007648834252730011
1782836481613544000,3.8025439453125,-0.10987082603871821,-0.05622559896036982,0.09663432784676551
1782836481623473000,3.812472900390625,-0.061007134148478505,-0.10650449141077696,0.13210965545158831
1782836481633401900,3.82240185546875,0.03670096040964126,-0.11828070779182016,0.07533902636170386
1782836481643331000,3.8323310546875,0.11791267819702625,-0.08045490807071327,0.02636248521413654
1782836481653260000,3.842260009765625,0.1034060139387846,-0.07205920097343624,0.013404402104765177
1782836481663190000,3.85218994140625,0.10847031159102916,-0.08699154329784214,0.004623714277893305
1782836481673119000,3.862118896484375,0.09967033454179763,-0.07892521428540349,-0.0048141953486949204
1782836481683048000,3.8720478515625,0.0027957681983709335,-0.039178602569550275,-0.0169481025936082
1782836481692977000,3.881976806640625,0.019330723413825034,0.024783289731293914,-0.03223736859690398
1782836481702905900,3.89190576171875,-0.010010521882772445,0.039495705694705244,-0.04907678665164858
1782836481712835000,3.9018349609375,-0.06284253288209438,-0.03754142982177436,-0.009296016937866806
1782836481722764000,3.911763916015625,-0.0076268416166305536,-0.12994959134086967,0.05430296033471822
1782836481732693000,3.92169287109375,-0.007103110003471374,-0.15068090226761996,0.07719126663226634
1782836481742622000,3.9316220703125,-0.10173603489995002,-0.11532594963945447,0.11088168358169495
1782836481752552000,3.941552001953125,-0.1849263592839241,-0.09166720695868134,0.025977979408577084
1782836481762481000,3.95148095703125,-0.17045067468583583,-0.07303053022362291,-0.07728511892817914
1782836481772409900,3.961409912109375,-0.1830477059304714,-0.028205665395408867,-0.07099398289471864
1782836481782338800,3.9713388671875,-0.15412147117555142,-0.04985189920999109,-0.034352753315679725
1782836481792268000,3.98126806640625,-0.06325871246755123,-0.12246055075973272,-0.016932685828767717
1782836481802197000,3.991197021484375,-0.05014788648188114,-0.16089717585556207,0.0446908631850034
1782836481812126000,4.0011259765625,-0.15839315714538096,-0.17384112084172665,0.1353951433956623
1782836481822055000,4.011054931640625,-0.1633235992848873,-0.1969983437411487,0.06490388585869222
1782836481831985000,4.02098486328125,-0.18159107738137245,-0.12446378034092485,-0.006383636622503399
1782836481841913900,4.030913818359375,-0.2325660623371601,-0.030213498086482285,-0.02511080465260893
1782836481851842800,4.0408427734375,-0.17689795112907886,-0.017925898117199537,-0.014138378935121
1782836481861772000,4.05077197265625,-0.2399690320700407,-0.07369147835038602,0.006819397691264748
1782836481871701000,4.060700927734375,-0.20749767205417155,-0.16616444873400033,-0.0008548632636666297
1782836481881630000,4.0706298828125,0.03228548205494881,-0.19423706233426927,-0.02638495277427137
1782836481891559000,4.080558837890625,0.007846037325263023,-0.131704399118945,0.033327501921169456
1782836481901489000,4.090489013671875,-0.005749941828846931,-0.10410371387936174,0.09550831949152051
1782836481911417900,4.10041796875,-0.0206043966114521,-0.13940057964473962,0.048154959098994726
1782836481921346800,4.110346923828125,-0.08108604558110237,-0.08221614558957517,0.006774389505758881
1782836481931276000,4.120276123046875,-0.08283435055315494,-0.034259777802601456,-0.048904937216080725
1782836481941205000,4.130205078125,-0.07975508923828602,-0.026197613508626816,-0.05248761800844222
1782836481951134000,4.140134033203125,-0.12982991048395634,-0.05786160266436636,0.028936281224898993
1782836481961063000,4.15006298828125,-0.16244330931901932,-0.15207476777881382,-0.0034240561645478007
1782836481970991900,4.159991943359375,-0.1206768822133541,-0.2015835526395589,-0.003794423846900463
1782836481980921900,4.169921875,-0.03351297802329063,-0.14847477052547037,0.015646153149567542
1782836481990850800,4.179850830078125,0.07269464933276176,-0.10598360934183002,0.001226034663617611
1782836482000779800,4.18977978515625,0.12340309230685233,-0.10376995188035071,0.021199220699444413
1782836482010709000,4.199708984375,0.036034605455398556,-0.10962474232316016,0.06774331053569912
1782836482020638000,4.209637939453125,-0.018718144473433493,-0.13522263637296855,0.050118404659070075
1782836482030567000,4.21956689453125,-0.05483633655905723,-0.10502718539983033,-0.00430686688106507
1782836482040495900,4.229495849609375,-0.16080489446222782,-0.02594320035614073,-0.0176879977080971
1782836482050425000,4.239425048828125,-0.15906594184041023,0.030931583227962255,-0.06378397845067084
1782836482060355000,4.24935498046875,-0.186968678766489,0.048373570285737515,-0.06363905355464666
1782836482070283800,4.25928369140625,-0.2328267590999603,-0.005267126747965812,0.015166699069552123
1782836482080213000,4.269212890625,-0.11776128702759742,-0.08748714479506016,0.03624667730350047
1782836482090142000,4.279141845703125,-0.04154138617813587,-0.08791369964405894,0.09149901078492402
1782836482100071000,4.28907080078125,-0.08960019142627716,-0.07300868371799588,0.10779522534105926
1782836482109999900,4.298999755859375,-0.05890986960828304,-0.13301307056471703,-0.0036730259569361804
1782836482119929000,4.30892919921875,-0.07619301284253596,-0.10992927822768687,0.01275762863382697
1782836482129858000,4.318858154296875,-0.11133213076293468,-0.06688026396557688,0.03814282978102564
1782836482139788000,4.3287880859375,-0.03512333582937717,-0.038701705772802235,0.012917056979238986
1782836482149716700,4.338716796875,-0.05998889701664448,0.015010010670498012,-0.029983232994563874
1782836482159646000,4.34864599609375,-0.06429623882174491,0.018455328818783163,-0.03935549350641668
1782836482169575000,4.358574951171875,-0.04935585932135582,-0.012892799320816993,-0.014138269337266684
1782836482179503900,4.36850390625,-0.12735855193436146,0.002648834008350968,0.0008938435671851039
1782836482189432800,4.378432861328125,-0.06682663408219813,-0.0263487124171108,0.017573248754628002
1782836482199362000,4.388362060546875,-0.07222995443046093,-0.05155884925834834,0.04890983258690685
1782836482209291000,4.398291015625,-0.08522212247252464,-0.11247801286242902,0.021617446111515164
1782836482219220000,4.408219970703125,0.04845744917690754,-0.15930501129329203,0.008916991025023161
1782836482229150000,4.41814990234375,0.0734510206580162,-0.11461378278210758,0.020232458026520905
1782836482239079000,4.428078857421875,0.055147302204370495,-0.0778674488607794,0.04294829383399337
1782836482249007900,4.4380078125,0.05818038628995418,-0.07896817664429545,-0.028419563874416052
1782836482258936800,4.447936767578125,-0.03701543318629265,-0.07012180317007005,-0.03998239323310554
1782836482268866000,4.457865966796875,-0.12391630252599715,-0.0794842364076525,-0.043711679421924055
1782836482278795000,4.467794921875,-0.059171735414862627,-0.059316769908741115,-0.029696707670763132
1782836482288724000,4.477723876953125,-0.08754501246213912,0.03428746952712536,0.020992117287404834
1782836482298653000,4.48765283203125,-0.09750935711562633,0.07243680211417376,0.0170109021641314
1782836482308583000,4.4975830078125,-0.13763210866749287,-0.005328574611619115,0.0032836247805505987
1782836482318511900,4.507511962890625,-0.2215437330633402,-0.12175912449210881,0.027456490995921193
1782836482328440800,4.51744091796875,-0.1775233895510435,-0.19933022075481713,0.07333539492171258
1782836482338369800,4.527369873046875,-0.061631988048553465,-0.21496121286787093,0.08119560690280049
1782836482348299000,4.537299072265625,0.02134557036757469,-0.16785181729905307,0.0536223211267963
1782836482358228000,4.54722802734375,0.0011076689809560775,-0.10967208859622478,0.02540785137042403
1782836482368154400,4.557154296875,0.005108721315860748,-0.07429499720148741,-0.037339331378415226
1782836482378083300,4.567083251953125,-0.019809446841478347,-0.03874620250165462,-0.08302158022094518
1782836482388013000,4.577012939453125,-0.121339145514369,-0.007837123366445303,-0.05606843563728034
1782836482397942300,4.5869423828125,-0.16722995907366275,-0.024403204372525213,0.021606997782737017
1782836482407871200,4.596871337890625,-0.2233504902243614,0.007835296735540032,0.033616767191328105
1782836482417800200,4.60680029296875,-0.23861878650486468,-0.00521722319163382,0.036890455099754034
1782836482427729200,4.616729248046875,-0.16923428463339804,-0.03185081696473062,0.07674169623386114
1782836482437658400,4.626658447265625,-0.10074760838449001,-0.020957155571877956,0.14865155186448245
1782836482447587300,4.63658740234375,-0.18249533274471758,-0.14733517203629015,0.03909622151572257
1782836482457516300,4.646516357421875,0.03536298980414867,-0.27852599560990926,0.01950790661163628
1782836482467446300,4.6564462890625,0.08284779455661773,-0.2075412189349532,0.08012078074552119
1782836482477375200,4.666375244140625,0.04889876320362091,-0.11209142469763755,0.10616513992119579
1782836482487304200,4.67630419921875,-0.05093289937973022,-0.06572269142828881,0.08390808073189109
1782836482497233200,4.686233154296875,-0.07825052989423274,-0.05527195149734616,-0.029832572477497158
1782836482507162400,4.696162353515625,-0.13937398389875888,0.0017407792527228594,-0.05573558695372194
1782836482517091300,4.70609130859375,-0.152788761267066,0.013282602356001734,-0.11071936915945262
1782836482527020300,4.716020263671875,-0.05128361251354217,-0.000970817793533206,-0.10481657485645264
1782836482536949200,4.72594921875,-0.05466039547026157,0.015797800047323108,-0.012448891478218137
1782836482546879200,4.735879150390625,-0.07958265528082847,-0.03277121974527836,0.04762731849569827
1782836482556808200,4.74580810546875,-0.09164309543073176,-0.09050875763855874,0.04636504347492009
1782836482566737200,4.755737060546875,-0.08977379442751407,-0.14806553213745355,0.001369059863500297
1782836482576666000,4.765666015625,0.06804653126597404,-0.2138054669614881,0.09686751554813236
1782836482586595300,4.77559521484375,0.10281623135209082,-0.2086079713836312,0.14576543850153684
1782836482596524300,4.785524169921875,0.0325298122048378,-0.1647972520340234,0.05116338366735726
1782836482606453200,4.795453369140625,-0.05646773715317249,-0.12147460846230387,-0.04220525691434741
1782836482616382200,4.80538232421875,-0.09826222130954265,-0.06008702362887561,-0.1013004564942792
1782836482626312200,4.815312255859375,-0.14005787450969218,0.04217230449281632,-0.10426562644280493
1782836482636241200,4.8252412109375,-0.2190022318869829,0.1083132943984121,-0.1210947422992438
1782836482646170000,4.835170166015625,-0.2356768878340721,0.10841412442438304,-0.11354776098579168
1782836482656099300,4.845099365234375,-0.22917758894264698,0.014371858897432683,-0.05235482194162905
1782836482666028300,4.8550283203125,-0.10934300277233124,-0.17015936358906328,0.0937482144838199
1782836482675957200,4.864957275390625,-0.021846505627036092,-0.25874299838393927,0.12152246619202196
1782836482685886200,4.87488623046875,-0.000741173756122589,-0.29187757154889404,0.04945471658594906
1782836482695815400,4.8848154296875,0.03405366077125072,-0.20032040083594618,0.15289919937159865
1782836482705745200,4.8947451171875,0.02039922942817211,-0.117919181003049,0.2233045321907848
1782836482715674000,4.904674072265625,-0.05020049345195293,-0.07328282448425888,0.017288111670315263
1782836482725603000,4.91460302734375,-0.14963234306275844,-0.00827646463178098,-0.08855207061283289
1782836482735532300,4.9245322265625,-0.28613690900504585,0.006584712152555585,-0.1121943736154586
1782836482745461200,4.934461181640625,-0.25984219179749485,-0.019359584182128308,-0.11963873480465262
1782836482755390200,4.94439013671875,-0.2717179230302572,-0.03964242068901658,-0.1263786740515381
1782836482765319200,4.954319091796875,-0.2602157012850046,-0.06588102379515767,-0.08802172659579664
1782836482775248400,4.964248291015625,-0.06625263358652592,-0.11738280910402536,-0.062101870582625264
1782836482785178000,4.97417822265625,0.06121113228797912,-0.13287958037815986,-0.008593933083117008
1782836482795107000,4.984107177734375,0.06010287878513336,-0.14839388730898498,-0.04165587940327823
1782836482805036300,4.994036376953125,0.047367315852642054,-0.1570317325990647,-0.02478844083044678
1782836482814965200,5.00396533203125,0.016277765583992004,-0.18046667646132408,0.14623809751458466
1782836482824894200,5.013894287109375,0.09242226310968399,-0.22844912853762506,0.018610628978349267
1782836482834823200,5.0238232421875,0.07754325840771198,-0.12053959263451397,0.002030957838334143
1782836482844752400,5.03375244140625,0.048725160202383995,-0.0018371522992849348,-0.08495360772944986
1782836482854681300,5.043681396484375,-0.012381342667341231,-0.019984291951730845,-0.10515764337908476
1782836482864611000,5.053611083984375,-0.10768179156184196,-0.08288447330519556,-0.08563187231719493
1782836482874540300,5.063540283203125,-0.179279293307662,-0.12218122236169875,-0.06853939281683415
1782836482884469200,5.07346923828125,-0.13845803809762,-0.1632628090083599,-0.02069057705756277
1782836482894398200,5.083398193359375,-0.07469137610793113,-0.16225918492376804,0.0439469129499048
1782836482904327200,5.0933271484375,-0.018429975181818006,-0.13338066176809368,0.04600450306683779
1782836482914256400,5.10325634765625,-0.028047113832831382,-0.11260193150304257,0.027700711547955868
1782836482924185300,5.113185302734375,-0.022330489751696585,-0.09740092830508947,-0.015162534351088107
1782836482934114300,5.1231142578125,-0.03663549395799637,-0.0792777540501207,0.021783085002005098
1782836482944044000,5.1330439453125,-0.036458968347311015,-0.06790602681674063,0.028118754296936093
1782836482953973200,5.14297314453125,-0.08436404433846473,-0.09771868901737034,0.00551237021330744
1782836482963902200,5.152902099609375,-0.18420681283771992,-0.09861008489914237,0.06147858758512884
1782836482973831200,5.1628310546875,-0.21275310836434363,-0.12661598993875087,0.018383688354678452
1782836482983760100,5.172760009765625,-0.17567688490152358,-0.11980002631358802,-0.0017815131219103932
1782836482993689300,5.182689453125,-0.17217735234797,-0.08304565521627665,-0.1351731346754357
1782836483003618300,5.192618408203125,-0.16516601228117941,-0.04787650748379528,-0.10454802358075976
1782836483013547300,5.20254736328125,-0.13114742282330988,-0.12237579508572816,0.0072896090188995
1782836483023477200,5.212477294921875,-0.035976737788319585,-0.15591734161637721,0.09603281828965991
1782836483033406200,5.22240625,-0.07946458185911179,-0.1293673344735056,0.15526815699264407
1782836483043335200,5.232335205078125,-0.10640987192988395,-0.16113712209127842,0.11723244084790348
1782836483053264100,5.24226416015625,-0.05082125569880008,-0.1239233898539096,-0.02130702845547348
1782836483063193300,5.252193359375,-0.07547521996200084,-0.04456402193494141,-0.049377377033419906
1782836483073122300,5.262122314453125,-0.06188216341733932,0.0274167069748044,0.048951333641074596
1782836483083051300,5.27205126953125,-0.056369537475705146,0.0023882833760231733,0.09476794945299624
1782836483092980200,5.281980224609375,-0.12009469841122626,-0.03771379071399569,0.07994224584084003
1782836483102910200,5.29191015625,-0.17081483182311058,-0.05595759567394852,0.024541918723471463
1782836483112839200,5.301839111328125,-0.10851941142976283,-0.08276179677359759,-0.02468874331563711
1782836483122768100,5.31176806640625,-0.11418810471594333,-0.05103343714475631,0.006078333532996475
1782836483132697000,5.321697021484375,-0.08431962067484855,-0.028786680153757332,0.026928959990479052
1782836483142626300,5.331626220703125,0.021770517781376838,-0.03320303529128432,0.04142097466886043
1782836483152555300,5.34155517578125,0.05136018488109111,-0.013073197389021515,0.08071074599530548
1782836483162484200,5.351484130859375,0.03940905032455921,-0.0004272124361246824,0.07358253808319568
1782836483172413200,5.3614130859375,0.0375882646381855,-0.007710062920674682,0.024203334418870508
1782836483182342400,5.37134228515625,-0.028721652093529698,-0.009774228908866643,0.07723105065338313
1782836483192272100,5.381272216796875,-0.03539806111752987,0.03213613671213388,0.13392649561520664
1782836483202201000,5.391201171875,-0.07325812843441963,0.051698111598566174,0.056795471270196136
1782836483212130300,5.40113037109375,-0.20210721118748187,0.00938252617754042,0.03843841519411653
1782836483222059300,5.411059326171875,-0.18812310949862002,-0.07905811995007098,0.12850677212141454
1782836483231988200,5.42098828125,-0.12176876910328864,-0.14280651563070715,0.06971556045673787
1782836483241917200,5.430917236328125,-0.013219547057151794,-0.1071966383934021,0.006507153404317796
1782836483251846400,5.440846435546875,-0.028537527698278425,-0.0588542669635266,0.06380988007690758
1782836483261775400,5.450775390625,-0.08157353683710097,-0.11260134698115289,0.04256035396233201
1782836483271705000,5.460705078125,-0.013712883532047271,-0.1560439636707306,-0.05351619387120008
1782836483281634300,5.47063427734375,-0.04057867862582207,-0.08682846169061958,-0.0354523120554164
1782836483291563300,5.480563232421875,-0.07716682631075382,-0.026871494182199238,0.01414290897976607
1782836483301492200,5.4904921875,-0.0052712184011936185,-0.048676791016012425,-0.004596570542640984
1782836483311421200,5.500421142578125,-0.04600888698101043,-0.09607852059490977,-0.04908957306798547
1782836483321350100,5.51035009765625,-0.0618961919426918,-0.11026150585673748,0.033737617092020805
1782836483331279400,5.520279296875,-0.028072832795977592,-0.1215112872108817,0.03666249156277627
1782836483341208300,5.530208251953125,-0.07211246553063393,-0.08561755153089762,-0.004571180373057723
1782836483351138000,5.540137939453125,-0.1528267551898956,-0.04590009284429252,0.0021856369433924557
1782836483361067300,5.5500673828125,-0.15795125859677792,-0.059812225275486706,-0.05315386336483061
1782836483370995000,5.559994873046875,-0.14807634579241274,-0.036079248314723374,-0.05457037909924984
1782836483380924000,5.569923828125,-0.18202187001407144,-0.046984600145369766,0.024052491238713263
1782836483390853000,5.57985302734375,-0.14707389075160027,-0.08575564482733607,0.02880578671302646
1782836483400782000,5.589781982421875,-0.11493746177852153,-0.13401369897462426,0.053868295244500035
1782836483410711000,5.5997109375,-0.14352876549065113,-0.1602992099624127,0.0534730853818357
1782836483420640000,5.609639892578125,-0.04949380648732185,-0.12770751150250434,-0.009070793347246944
1782836483430570200,5.6195703125,-0.05719429786205291,-0.07885200291872024,-0.032293226969987154
1782836483440499000,5.6294990234375,-0.059113867747783655,-0.09026837301142514,0.008941979335807263
1782836483450428000,5.639427978515625,0.07510054143071174,-0.09853168590068817,-0.02187996950522065
1782836483460357000,5.649357177734375,0.09623568391799926,-0.05412285452745855,-0.034135128509625794
1782836483470286000,5.6592861328125,-0.04062836298644543,-0.037678573270142075,0.011654453164897858
1782836483480215000,5.669215087890625,-0.08477262513935566,-0.11679141908213496,0.023998751757480202
1782836483490144000,5.67914404296875,-0.10279401952028273,-0.2011285754136741,0.015056114834547041
1782836483500073200,5.6890732421875,-0.2344920619636774,-0.15524755259603262,0.04192625730987638
1782836483510003200,5.699003173828125,-0.19978899737298486,-0.07480097396224737,0.036306115873157976
1782836483519932000,5.708931884765625,-0.10758125379681586,-0.031068434415385125,-0.08203110787887126
1782836483529860900,5.71886083984375,-0.11774258232712745,-0.025271438574418423,-0.05250818587243557
1782836483539790000,5.7287900390625,-0.13489654622375966,-0.09572130465507507,0.017280147559568283
1782836483549719000,5.738718994140625,-0.007978723794221878,-0.20268588785827157,0.02968304447159171
1782836483559648000,5.74864794921875,0.08894201977849006,-0.19732677197791634,0.02682992006279528
1782836483569577000,5.758576904296875,0.06560147620141506,-0.11511457191109657,0.050605311393178996
1782836483579506200,5.768506103515625,-0.01792845540046692,-0.1075369031984359,0.08286324785407632
1782836483589436200,5.778436279296875,0.019117957445979116,-0.12028203767687082,0.02673873464800417
1782836483599365000,5.788365234375,-0.08244973514974117,-0.07036613331995904,-0.03162628749385476
1782836483609294000,5.798294189453125,-0.15204992559850214,-0.022037205893546342,0.03736333330851048
1782836483619223000,5.80822314453125,-0.08893909716904162,-0.039188320245966315,0.04519395386893302
1782836483629152000,5.818152099609375,-0.12862754895687104,-0.05842888115830719,-0.0005636982973664999
1782836483639081000,5.8280810546875,-0.17866671436727047,-0.11003061971031129,0.08341901857331395
1782836483649010200,5.83801025390625,-0.11883622278273105,-0.136629872822389,0.12392642206121235
1782836483658939100,5.847939208984375,-0.11693126594424247,-0.07247063131853938,0.05835767908561974
1782836483668869000,5.857869140625,-0.13532558529078959,-0.03910480668097734,0.008144216554239391
1782836483678798000,5.867798095703125,-0.09225918150246143,-0.05968238835074007,0.0015336027754470705
1782836483688727000,5.87772705078125,-0.09552548982203006,-0.07348718794994055,0.023102204776555297
1782836483698656000,5.887656005859375,-0.09150397922098637,-0.09830657190792262,0.04516640827488154
1782836483708585000,5.8975849609375,-0.01546528015732765,-0.1063021737717092,0.050107517938874656
1782836483718514200,5.90751416015625,-0.0024129063606262205,-0.05812924062460661,0.02979308071732521
1782836483728443100,5.917443115234375,0.007522796720266341,-0.007320552146434784,0.028474216671101747
1782836483738372000,5.9273720703125,0.0017366145342588423,0.014158873733878134,0.009569682780094443
1782836483748302000,5.937302001953125,-0.007441548177599906,0.025410043327510356,0.011501783353835345
1782836483758231000,5.94723095703125,-0.014203297397494315,0.036433833906054494,0.07213003771994263
1782836483768160000,5.957159912109375,-0.10133680644929409,-0.01653327471502125,0.09887724793534726
1782836483778092000,5.967092041015625,-0.13079963229894637,-0.12009228725843131,0.045545507252961394
1782836483788021000,5.97702099609375,-0.07757189998030663,-0.1835160540945828,-0.013190686288848518
1782836483797951000,5.986950927734375,-0.03788169462680816,-0.188052747676149,0.07516538682784885
1782836483807880200,5.996880126953125,-0.02430442017316818,-0.171556297840178,0.1558293345393613
1782836483817809200,6.00680908203125,0.0017506430596113203,-0.12265022811293601,0.049700288844853634
1782836483827738000,6.016738037109375,-0.022535656934976576,-0.06662029785513877,-0.07322371470816433
1782836483837667000,6.0266669921875,-0.011810264781117439,-0.03764598617479205,-0.08338781971745192
1782836483847596300,6.03659619140625,-0.028708792611956593,-0.04394925103746354,0.005646700650081038
1782836483857525000,6.04652490234375,-0.03205868756175041,-0.03874408360980451,0.01456241303347051
1782836483867454000,6.056453857421875,-0.04349368928968906,-0.015138605486229062,-0.03823617062028497
1782836483877384200,6.06638427734375,-0.17528642427921295,-0.05499488812163472,-0.03166534086260944
1782836483887313200,6.076313232421875,-0.1977232970148325,-0.10030147205218672,0.021468064236082135
1782836483897242000,6.0862421875,-0.19537293449640272,-0.10550473978370427,0.03574581510927528
1782836483907171000,6.096171142578125,-0.15652034901082515,-0.11677665990442036,0.04908716191519052
1782836483917100300,6.106100341796875,-0.09670154786407947,-0.09730623575896025,0.16865509650595484
1782836483927029200,6.116029296875,-0.2610901460319757,-0.13195669337958096,-0.1030164666319266
1782836483936958000,6.1259580078125,-0.08537702077329158,-0.2798747798703611,-0.13008169328793884
1782836483946887000,6.135886962890625,-0.02944353662729263,-0.2573188107997179,0.025854097300581632
1782836483956817200,6.145817138671875,-0.033899931514263154,-0.18778657102063298,0.12998619702421127
1782836483966746000,6.15574609375,0.055903089007735246,-0.11143420289792119,0.05059457080345601
1782836483976675000,6.165675048828125,-0.012223521757125854,0.018427052572369575,-0.08145045844670384
1782836483986604000,6.17560400390625,-0.13047288456261158,0.04708411499708891,-0.13886026222296058
1782836483996533200,6.185533203125,-0.1718412522614002,-0.045938671289011836,-0.07737451424468308
1782836484006462200,6.195462158203125,-0.21296587433218955,-0.15386786174066364,0.015662081371061502
1782836484016391000,6.205390869140625,-0.14901742603480814,-0.22815672146230934,0.070718234693259
1782836484026320000,6.21531982421875,-0.04892915834188461,-0.20978176440335808,0.047722120639681814
1782836484036250000,6.22525,-0.007526888373494148,-0.1199086012545973,-0.05720196971185505
1782836484046179000,6.235178955078125,0.05329495233595371,-0.07700520600825547,-0.12248561213575303
1782836484056108000,6.24510791015625,0.08803308824002742,-0.08601553787253796,-0.05761040438227355
1782836484066037200,6.255037353515625,0.08683715645372866,-0.11527421945221722,0.0028617461066693067
1782836484075966200,6.26496630859375,0.06726911715269088,-0.1381407888419926,-0.020786475180089473
1782836484085895200,6.274895263671875,-0.042457916501164435,-0.12423026384599506,-0.04601528018917888
1782836484095824100,6.28482421875,-0.018353402814269063,-0.1281696491215378,-0.050298072074912485
1782836484105753000,6.294753173828125,-0.04009410997927189,-0.13437208395823835,-0.01541727629713714
1782836484115682000,6.30468212890625,-0.09784253459274768,-0.12180778593942522,0.06946838076263666
1782836484125612000,6.314612060546875,-0.06924538566172123,-0.07704780304096638,0.022378274416178463
1782836484135541200,6.324541259765625,-0.1072924999833107,-0.019182620180025697,-0.02926792433205992
1782836484145470200,6.33447021484375,-0.17320085017681122,-0.03835376911796629,-0.019998320477083324
1782836484155399200,6.344399169921875,-0.24408581973910332,-0.10206095600537955,-0.07022329078316689
1782836484165328100,6.354328125,-0.19038404016792773,-0.14360000409595666,-0.07914462918974459
1782836484175257000,6.364257080078125,-0.10451485196352005,-0.12073840314224361,0.05142280178852379
1782836484185186000,6.37418603515625,-0.015136194333434104,-0.0995358214419335,0.12973912692796438
1782836484195115000,6.384114990234375,0.02967325372993946,-0.11835567272417247,0.10478347630444913
1782836484205045000,6.394044921875,-0.025711948883533477,-0.12073811088129878,0.013089089077897369
1782836484214974200,6.40397412109375,-0.05982698445320129,-0.05874591121822595,-0.04585384254977107
1782836484224903200,6.413903076171875,-0.0595563508182764,-0.0007232727732509374,-0.03159512517061085
1782836484234832100,6.42383203125,-0.07325228321552277,0.03139423230364918,-0.002676233471930027
1782836484244761000,6.433760986328125,-0.12704115654826165,0.016476210765540598,-0.01614460419099778
1782836484254690000,6.44368994140625,-0.1699777964770794,-0.03241203104406595,-0.016864625561237336
1782836484264619000,6.453618896484375,-0.16674889755845068,-0.06458455424383282,0.02819704369753599
1782836484274548000,6.4635478515625,-0.11246551870703697,-0.05217478919960558,0.06183868960179388
1782836484284478200,6.473478271484375,-0.10819617082476615,-0.04090272294841706,0.10453560249060392
1782836484294407200,6.4834072265625,-0.17490180887579918,-0.09244023715779184,0.07415946118831634
1782836484304336100,6.493336181640625,-0.1132832648307085,-0.14584676010943948,-0.006616020606271922
1782836484314265000,6.50326513671875,-0.047583004429936404,-0.09102627870664,-0.05502758481483906
1782836484324194300,6.5131943359375,0.01648351728916168,0.008642521465197206,-0.0374228449434042
1782836484334123000,6.523123046875,0.11769815866351127,0.061916211817413566,-0.010077741900086402
1782836484344052000,6.533052001953125,0.10312310534417629,0.004818871523812413,-0.012792480751499533
1782836484353981000,6.54298095703125,0.05913724862337112,-0.06306589330919087,0.00441785297486931
1782836484363911200,6.5529111328125,-0.011585223853588103,-0.09897409590594469,0.016810228492878377
1782836484373840600,6.562840576171875,-0.0630599750250578,-0.1123057981006801,0.007240107321366668
1782836484383769600,6.57276953125,0.019635843840241432,-0.06000087971538305,0.04724266655966639
1782836484393698600,6.582698486328125,0.028674305820465085,0.007964329942688345,0.03927113969121128
1782836484403627500,6.59262744140625,-0.04284428547024727,-0.005910320022329688,0.02019786163717508
1782836484413556500,6.602556396484375,-0.12034779638946055,-0.0954764630485326,-0.014318521274998783
1782836484423485400,6.6124853515625,-0.13659867396652697,-0.14483845984973012,-0.0066869304180145256
1782836484433414400,6.622414306640625,-0.16296411832273006,-0.10310798084028065,0.027114107299037276
1782836484443343400,6.63234326171875,-0.09740940387248992,-0.02417933248877525,0.013574023050628601
1782836484453273600,6.642273681640625,-0.10324176328778266,0.0017224398784339426,-0.049244873227551576
1782836484463202600,6.65220263671875,-0.1263888301193714,-0.00960427916944027,-0.04582903690207749
1782836484473131500,6.662131591796875,-0.14412497781813144,-0.042687195212393995,0.031036029983125626
1782836484483060500,6.672060546875,-0.13746785801649092,-0.087995167382434,0.057765083487331864
1782836484492989400,6.681989501953125,-0.16554478246569632,-0.09880845701545476,0.08063271232303232
1782836484502918400,6.69191845703125,-0.18564122955501078,-0.12219715058319269,0.010379976249672471
1782836484512847400,6.701847412109375,-0.12665011140406132,-0.16419680192284286,-0.054676433289609846
1782836484522777600,6.711777587890625,-0.03764204065203666,-0.14704539530947805,-0.019649507039412855
1782836484532706600,6.72170654296875,0.05369827243983745,-0.09722396430298685,0.045931474363245066
1782836484542635500,6.731635498046875,0.031631402060389516,-0.05196268081888556,0.037029863570444285
1782836484552564700,6.741564697265625,-0.042134091374278065,-0.0841316238220781,-0.04699161440804601
1782836484562493400,6.751493408203125,-0.14921850156486033,-0.09389211646653711,-0.021451588025316593
1782836484572422400,6.76142236328125,-0.20931085895597934,-0.10956227154619991,-0.023353841450065374
1782836484582351400,6.771351318359375,-0.11051263107359409,-0.11840930260755121,-0.08992898498922586
1782836484592280600,6.781280517578125,-0.032255086916685105,-0.08533033208735287,-0.018551336539164184
1782836484602209500,6.79120947265625,0.027805706292390823,-0.09577347323372959,0.0651683454811573
1782836484612139500,6.801139404296875,0.027960604593157766,-0.14863061867430805,0.08801993649750947
1782836484622068500,6.811068359375,-0.03747311382591724,-0.16720504382811485,0.08444284519571811
1782836484631997700,6.820997802734375,-0.03868482770323753,-0.14434863050617278,0.026505035489983855
1782836484641926400,6.830926513671875,-0.009138415223360062,-0.085728245363757,-0.04207859832737595
1782836484651855400,6.84085546875,-0.0746229870468378,-0.019818214669823645,-0.025883542590774595
1782836484661784300,6.850784423828125,-0.15752514213919638,-0.050901262132450935,0.03355064315255731
1782836484671713500,6.860713623046875,-0.18349077352285384,-0.15293167686909437,-0.039735761528275904
1782836484681642500,6.870642578125,-0.11102116511762142,-0.1748770397607237,-0.04645513291116803
1782836484691572500,6.880572509765625,-0.09274608823657035,-0.11172536786422133,0.08185969683472066
1782836484701501700,6.890501708984375,-0.06495733307898044,-0.04575089363195002,0.11279416613951325
1782836484711430700,6.9004306640625,-0.08991524872481822,-0.006573021714761853,-0.027419045062363145
1782836484721359600,6.910359619140625,-0.13852175098359584,-0.023869170561060308,-0.10565773838832974
1782836484731288300,6.920288330078125,-0.12928572060465812,-0.05686616188623011,-0.049974356545880436
1782836484741217500,6.930217529296875,-0.0952706382781267,-0.07701996518597007,0.07540281231291592
1782836484751146500,6.940146484375,-0.11461188308596611,-0.08713489729128777,0.08717230669222771
1782836484761075500,6.950075439453125,-0.10064414801001548,-0.10743804593384265,-0.018626338004134595
1782836484771005400,6.96000537109375,-0.06374737276732921,-0.12700031308121978,-0.020294271216355263
1782836484780934700,6.9699345703125,-0.06231763222515583,-0.1263557315673679,0.08231303009279071
1782836484790863600,6.979863525390625,-0.059950903093814845,-0.09126943981274963,0.07737886162623762
1782836484800792600,6.98979248046875,-0.09337912544310092,-0.06411971321105957,-0.028540377242490648
1782836484810721300,6.99972119140625,-0.16479191827178,-0.03696436058618128,-0.023365239626914263
1782836484820650500,7.009650390625,-0.12785539554059505,-0.027221038272231816,-0.05253529307506978
1782836484830579500,7.019579345703125,-0.043703532648086546,-0.01865560063123703,-0.08284998651370405
1782836484840508400,7.02950830078125,-0.006702712509036064,0.0008232260163873433,-0.017051234174519776
1782836484850438700,7.039438720703125,0.02248889518380165,-0.05877484505176544,0.06543240324482322
1782836484860367600,7.04936767578125,0.09002396979629992,-0.1383074506457895,0.07558584072962403
1782836484870296600,7.059296630859375,0.03817395557165146,-0.10989194189198315,0.0842180599965155
1782836484880225500,7.0692255859375,-0.06476151824593544,-0.07015555930919945,0.04751808596756309
1782836484890154500,7.079154541015625,-0.12495850505530834,-0.052056788843125104,0.02336779691018164
1782836484900083500,7.08908349609375,-0.21595862640738486,-0.011991174305975436,0.024214988324046133
1782836484910012400,7.099012451171875,-0.20035773717164992,-0.037173400226980444,-0.07247176382970065
1782836484919941400,7.10894140625,-0.13178864333629609,-0.06338394628241657,-0.06422171228080988
1782836484929870600,7.11887060546875,-0.0591512771487236,-0.09212642196826636,0.0031662454785779115
1782836484939800600,7.128800537109375,0.043996378114819525,-0.13894377578794956,0.005750234089791775
1782836484949729500,7.1387294921875,0.039514848786592484,-0.16246179482378065,0.019270627257041633
1782836484959658500,7.148658447265625,0.06016016193032264,-0.1189203208696097,0.026618578867055473
1782836484969587500,7.15858740234375,0.05964461362361908,-0.055776028561964626,-0.03938329482879489
1782836484979516400,7.168516357421875,0.007218260815739631,-0.029437764473631976,-0.06255114872008562
1782836484989445400,7.1784453125,-0.0456312858402729,-0.058820145498216146,0.00393536668755114
1782836484999374300,7.188374267578125,-0.15910452028512953,-0.07962240276932715,0.03566588174086064
1782836485009303600,7.198303466796875,-0.19710662642121313,-0.0799480545271188,0.006585077478736639
1782836485019233500,7.208233642578125,-0.18841887757480144,-0.06998042193800211,-0.04414126647822559
1782836485029162500,7.21816259765625,-0.13980653009712696,-0.07997340816408395,-0.07693678041454405
1782836485039091700,7.228091796875,-0.1256704527169466,-0.11569039903767406,-0.007407865103706717
1782836485049020400,7.2380205078125,-0.026980945906043052,-0.14467187111116944,0.046721126903593535
1782836485058949400,7.247949462890625,0.039327801781892775,-0.11953384965807198,0.03734302117284387
1782836485068878300,7.25787841796875,0.05618775116801262,-0.07218180443979799,0.03141885528825223
1782836485078807600,7.2678076171875,0.00040039749443531033,-0.06822912129126489,0.013026618300937116
1782836485088736500,7.277736572265625,0.0687672467559576,-0.06832162188030778,-0.06330682592559606
1782836485098666500,7.28766650390625,-0.11385492723882197,-0.0657104164686054,0.06808485398236662
1782836485108595700,7.297595703125,-0.3125613900721073,-0.15921864818409084,0.08792334425523876
1782836485118524700,7.307524658203125,-0.16003215652406214,-0.2131863852150738,-0.03167889446392655
1782836485128453400,7.317453369140625,-0.14306523963212966,-0.08890950574837625,-0.028144363662227986
1782836485138382300,7.32738232421875,-0.2432324177801609,-0.07261625033430755,0.014451792265847325
1782836485148311600,7.3373115234375,-0.10469196209609508,-0.1823928222183138,-0.030279001070745288
1782836485158240500,7.347240478515625,-0.10421791484355926,-0.21724099436812103,0.044321628013812
1782836485168169500,7.35716943359375,-0.18155308345854282,-0.19162424948737025,0.05582315563932061
1782836485178099500,7.367099365234375,-0.11662731456160545,-0.18334420465901494,-0.0797915122585371
1782836485188028700,7.377028564453125,-0.09007073154747486,-0.15158888395801184,-0.10210391836427152
1782836485197957600,7.38695751953125,-0.08602642459273338,-0.11240246340818702,-0.014995178427547216
1782836485207886300,7.39688623046875,-0.08517010002434253,-0.07615837992057203,-0.018812471693381665
1782836485217815300,7.406815185546875,-0.09513795180916786,-0.060219783163070674,-0.03609948738515377
1782836485227744500,7.41674462890625,-0.1242979953199625,-0.01958250621780753,-0.021394122217036782
1782836485237673500,7.426673583984375,-0.1566267319947481,0.0017589724965393543,-0.0055493412228301165
1782836485247602400,7.4366025390625,-0.1335164900422096,-0.035820451248064634,-0.04147486028056591
1782836485257531400,7.446531494140625,-0.10965981363654136,-0.05541742438264191,0.018500775395706295
1782836485267461600,7.456461669921875,-0.06218260766863823,-0.06179477739483118,0.05312295676991343
1782836485277390600,7.466390625,-0.026191256833076475,-0.057715764452889555,0.010493154300563037
1782836485287319300,7.4763193359375,-0.012228782454133034,-0.04681465040594339,-0.002744768663495779
1782836485297248500,7.48624853515625,0.08900397909879684,-0.02835164973735809,-0.0014197306048125027
1782836485307177500,7.496177490234375,0.10227087242901324,-0.014044672769680619,0.029289953500777482
1782836485317106400,7.5061064453125,0.019846856242418286,-0.022017405214533207,0.08994096768796443
1782836485327035400,7.516035400390625,0.04997019182741642,-0.020707053268328307,0.03315477570276707
1782836485336964600,7.525964599609375,0.09904548064172268,0.07045951069183647,0.04388491709697991
1782836485346894600,7.53589453125,0.07210077509284019,0.10636471761390566,0.06025876346658915
1782836485356823600,7.545823486328125,0.015158406165242194,0.008794058765098452,0.08860252215843648
1782836485366752800,7.555752685546875,-0.05678747062683105,-0.11557736711725591,0.07589508934188634
1782836485376682000,7.565681884765625,-0.08222937039732933,-0.15673011930398642,0.08834105821065605
1782836485386611000,7.57561083984375,-0.0425596233099699,-0.1517108298372477,0.07767963467109948
1782836485396540000,7.585539794921875,0.01014496191740036,-0.10437427444905042,0.050736938416212796
1782836485406468900,7.59546875,-0.013569675669074058,-0.09472031091898679,-0.019214367025159298
1782836485416398000,7.605398193359375,-0.022874679630994797,-0.10686126895919441,-0.005630078308843076
1782836485426328000,7.615328125,0.01795183627605438,-0.06224208277091384,0.03834646259434521
1782836485436256800,7.6252568359375,-0.027359131568670272,0.007039250987023115,0.04095978689789772
1782836485446186000,7.63518603515625,-0.17860124791562557,-0.00980593922138214,0.07007379930987953
1782836485456115000,7.645114990234375,-0.22188743193447588,-0.08716171223297714,0.013727752307616173
1782836485466044000,7.6550439453125,-0.21831541866660117,-0.0906421747598797,-0.0492754144962877
1782836485475972900,7.664972900390625,-0.19115970071554184,-0.08282200252823531,-0.008660385915450751
1782836485485902000,7.674902099609375,-0.18024784607887268,-0.1071467348370701,0.10266111385561526
1782836485495831000,7.6848310546875,-0.12076865215003489,-0.15397329487651584,0.08130257440861315
1782836485505761000,7.694760986328125,-0.07826748102903365,-0.1570944225717336,-0.003531133268214762
1782836485515689700,7.704689697265625,-0.0886573576182127,-0.1027154743913561,-0.008060228065215051
1782836485525619000,7.714618896484375,-0.0650374125778675,-0.09915376332178712,0.02615340904071927
1782836485535548000,7.7245478515625,-0.08076689662933349,-0.12114581489935516,0.0007457768660038709
1782836485545476900,7.734476806640625,-0.06590308949649333,-0.09906016675420105,-0.02349726850874722
1782836485555405800,7.74440576171875,-0.06357201620042324,-0.12123203187808394,-0.032998160368949175
1782836485565335000,7.7543349609375,-0.12555939355790616,-0.12420198759958147,0.040304866653122
1782836485575264000,7.764263916015625,-0.09843816239833832,-0.10923698511458933,0.04983323104213923
1782836485585193000,7.77419287109375,-0.009535890108346939,-0.05322656327486038,-0.005984225508756935
1782836485595123000,7.784123046875,-0.0774812990874052,-0.04277195088639855,-0.0110350060923025
1782836485605052000,7.794052001953125,-0.0642576603770256,-0.11177607513815165,0.008633059517107904
1782836485614980900,7.80398095703125,-0.06249649592339992,-0.14266666876859962,0.034587767647951836
1782836485624909800,7.813909912109375,-0.16427636996507644,-0.13018033135682344,0.033437793895229696
1782836485634839000,7.823839111328125,-0.13593290353417395,-0.10570084687769413,-0.020935345598869025
1782836485644768000,7.83376806640625,-0.11624854437708854,-0.1125900218695402,-0.050895051587373015
1782836485654697000,7.843697021484375,-0.11917933713197708,-0.09409699138887226,0.010348119806684554
1782836485664626000,7.8536259765625,-0.08896949230730533,-0.09657974811531603,0.0032104499464854597
1782836485674556000,7.863555908203125,-0.03947627034187317,-0.10105294800661503,-0.0537883618760854
1782836485684484900,7.87348486328125,0.017705752560496328,-0.0765564393274486,-0.05087024593967944
1782836485694413800,7.883413818359375,0.005361234772205352,-0.0797975401405245,0.0015829583425074816
1782836485704343000,7.893343017578125,0.034978958922624585,-0.11343282936923205,-0.03462444639652967
1782836485714272000,7.90327197265625,0.01566401759982109,-0.10670205980949103,-0.02243205043002963
1782836485724201000,7.913200927734375,-0.025161329263448714,-0.08011610457040369,0.0667784475589171
1782836485734130000,7.9231298828125,-0.0955716670513153,-0.061607803455367684,0.04262684332728386
1782836485744059000,7.933058837890625,-0.13302198452353475,0.003289396934211254,-0.03226999222487211
1782836485753988900,7.94298876953125,-0.10690730005800723,0.0577936519946903,-0.07611749992091209
1782836485763917800,7.952917724609375,-0.09107669371962547,0.09930435077361761,-0.029462058664672074
1782836485773846800,7.9628466796875,-0.1520049174129963,0.015580211773887276,0.07741334841772914
1782836485783776000,7.97277587890625,-0.1519248379141092,-0.12371968397535384,0.07447466461732984
1782836485793705000,7.982705078125,-0.12129238376319408,-0.1700062919192016,-0.008992978870682417
1782836485803634000,7.992634033203125,-0.027606968849897384,-0.1320701636914164,-0.01448869021013379
1782836485813563000,8.00256298828125,-0.02393675590455532,-0.12507409425899385,0.060799592345021664
1782836485823492000,8.0124921875,0.03655658350288868,-0.15927739263400434,0.022636815754510462
1782836485833421000,8.022421142578125,0.11725392202734947,-0.09474391099028288,-0.08258132564015686
1782836485843350800,8.032350830078125,0.08992343203127384,0.03383716847635805,-0.005027399707958102
1782836485853280000,8.042280029296874,0.02357376781105995,0.08092354849576949,0.07329531863965094
1782836485863209000,8.052208984375,-0.12147124746143817,0.07062266536429523,0.00876421161610633
1782836485873138000,8.062137939453125,-0.2941156327992678,0.006225377320870757,-0.03083250676766038
1782836485883067000,8.07206689453125,-0.32381694357991214,-0.0731370593380183,-0.028827487088181076
1782836485892996000,8.08199609375,-0.24600012892782686,-0.1107671903565526,-0.00035754473339766265
1782836485902925000,8.091925048828125,-0.16509470061063766,-0.13276347971782088,0.066932980533503
1782836485912854000,8.10185400390625,-0.10332476539611815,-0.19729630377441643,0.0784143056211993
1782836485922783700,8.11178369140625,-0.004221417087316512,-0.21085501965805886,0.015492971881851553
1782836485932713000,8.121712890625,0.052608723637461656,-0.15773257434479893,-0.007482647372968494
1782836485942642000,8.131641845703125,0.008279168045520782,-0.08531769180148839,-0.04170611175317317
1782836485952571000,8.14157080078125,-0.05279460159838199,-0.06321830739192665,-0.03193897017221898
1782836485962499800,8.151499755859374,-0.14458324297964573,-0.06196019708961248,0.022672361991927025
1782836485972429000,8.161428955078126,-0.15665186643600462,-0.032285262859240174,-0.005887596733868122
1782836485982358000,8.17135791015625,-0.1152478429019451,-0.004664557744935155,-0.015200089882500468
1782836485992287000,8.181286865234375,-0.15808394506573675,-0.026251024196296928,0.0388554350297898
1782836486002217000,8.191217041015625,-0.10314473265409468,-0.09281842282041906,0.08301865761149674
1782836486012146000,8.20114599609375,-0.10809621758162975,-0.10117343258112668,0.05908453205544501
1782836486022075000,8.211074951171875,-0.16779226913154124,-0.1071777875624597,0.02457289838362485
1782836486032003800,8.22100390625,-0.19876783763170242,-0.11918065230622887,0.09040189973060041
1782836486041933000,8.23093310546875,-0.15880699864327907,-0.09446056400425731,0.003853716286085546
1782836486051862000,8.240862060546876,-0.057195466905832285,0.015707564480602742,-0.040069998451322315
1782836486061791000,8.250791015625,-0.008405424773693083,0.09948810984268784,0.003592654197104275
1782836486071720000,8.260719970703125,0.05211597168445587,0.052344519743323326,0.005865384902060031
1782836486081649200,8.270649169921874,0.03594342004060745,-0.04140058946795761,0.036340675729885696
1782836486091579000,8.280578857421874,-0.06968436160087585,-0.0852704916588962,0.09446067360211163
1782836486101507800,8.2905078125,-0.18009470134377478,-0.13144962064027785,0.13196125995684416
1782836486111437000,8.30043701171875,-0.12886544936597347,-0.17485351275466382,-0.03251731804944575
1782836486121366000,8.310365966796875,-0.03021569004356861,-0.08914251078665256,-0.07780337064862251
1782836486131295000,8.320294921875,-0.023651509222388265,-0.012039178166165947,0.04143591650966555
1782836486141224000,8.330223876953125,0.009974281525611877,-0.036493162877857685,0.05763451591022312
1782836486151153000,8.34015283203125,0.027695231655240057,-0.0696853845141828,-0.037743126406334336
1782836486161082000,8.35008203125,-0.0999766240119934,-0.04033909771628678,-0.01636314231250435
1782836486171011800,8.36001171875,-0.12936813819110393,-0.04595153077058494,0.042260786493867636
1782836486180940800,8.36994091796875,-0.04322364017665386,-0.08554572840370238,-0.048190687999501824
1782836486190870000,8.3798701171875,-0.052227615365386004,-0.07057670733071864,-0.07802084932420403
1782836486200799000,8.389799072265625,-0.06980769571959972,-0.090274218230322,0.0315658260108903
1782836486210728000,8.39972802734375,-0.02495674660205841,-0.14558160636723042,0.09150072781797498
1782836486220657000,8.409656982421875,-0.039732875451445576,-0.1305812403079122,0.01656958813741803
1782836486230586000,8.419586181640625,-0.17336159369647502,-0.06717858932502567,-0.013656257973983883
1782836486240515000,8.42951513671875,-0.10581249055862427,-0.030790713452547788,-0.11530256876386702
1782836486250444800,8.43944482421875,-0.05043780933916568,0.0030582915920764208,-0.12326368383616208
1782836486260374000,8.4493740234375,-0.05462941581010818,0.0008047405116260051,0.016360073572583497
1782836486270303000,8.459302978515625,-0.018127777364850044,-0.05157952672019601,0.09588234043568372
1782836486280232000,8.46923193359375,-0.03067103259563446,-0.05265460860580205,0.043364765680395066
1782836486290161000,8.479160888671874,-0.04759995556473732,-0.022777064475417136,-0.05721223537754267
1782836486300090000,8.489090087890625,-0.09752163207530974,0.0027002719346433876,0.005287183155305683
1782836486310019000,8.49901904296875,-0.17028116333782672,-0.05710815394856036,0.09791158124096691
1782836486319948000,8.508947998046875,-0.11051847629249095,-0.12556677314676343,0.03033416532408446
1782836486329877800,8.518877685546874,-0.12909107481539248,-0.09168306211493908,-0.015533230827003716
1782836486339807000,8.528806884765626,-0.16083470507860181,-0.052960898075997825,0.03512841386329382
1782836486349736000,8.53873583984375,-0.1119020396053791,-0.08124247825182974,-0.0081996365359053
1782836486359665000,8.548664794921875,-0.051043374016880985,-0.09514138587526977,-0.07366185039710253
1782836486369594000,8.558593994140624,-0.026713234880566594,-0.05364150075130164,-0.0449743928341195
1782836486379523000,8.568523193359376,0.018206687819957733,-0.05852898053191602,0.008064575446769594
1782836486389452000,8.5784521484375,-0.005981997019052505,-0.08452807579375803,0.045755387143976985
1782836486399381200,8.58838134765625,-0.03847381530106067,-0.10683613451793789,0.005552373430132865
1782836486409310200,8.598310302734374,0.033192075505852695,-0.0810978090841323,-0.11439188365973532
1782836486419240000,8.608239990234376,0.05434241556227207,-0.047138329402357335,-0.07651208872906863
1782836486429169200,8.618169189453125,0.040866263395547865,-0.08892989094927907,0.10183277327269315
1782836486439098000,8.62809814453125,-0.05843699139952659,-0.11668934694714843,0.12828600551020353
1782836486449027000,8.638027099609374,-0.24418285037279128,-0.0867043238542974,0.019920798261463642
1782836486458956000,8.6479560546875,-0.1853220806032419,-0.07598382707126439,-0.08882650364004074
1782836486468885200,8.65788525390625,-0.11636311066746712,-0.020901333731412886,-0.09025748629122972
1782836486478814200,8.667814208984375,-0.13814765697419643,0.010642901502177119,0.02046612065192312
1782836486488743200,8.6777431640625,-0.15830197173058985,-0.08044555572047829,0.0964782239696011
1782836486498673200,8.687673095703126,-0.13239479253590106,-0.18237988967150448,0.02841123443748802
1782836486508602000,8.69760205078125,-0.08579846105575561,-0.18491328060664236,-0.01354052263982594
1782836486518531000,8.707531005859375,-0.03271452112197876,-0.14497260762341319,0.0023739260571077466
1782836486528460000,8.7174599609375,0.028001521125435826,-0.15093326959349215,0.03333696386925876
1782836486538389200,8.72738916015625,-0.006975684231519699,-0.19813027038052677,0.09703147393818944
1782836486548318200,8.737318115234375,-0.015122750329971313,-0.21780111246891318,0.07677720593865961
1782836486558247200,8.7472470703125,-0.06155950733423233,-0.1228499884687364,0.026304398351348936
1782836486568176000,8.757176025390624,-0.12471885108053683,0.0023613223038613795,-0.0034034883005544542
1782836486578105000,8.76710498046875,-0.13583762646615505,0.05247318762429058,-0.04285393008142709
1782836486588035000,8.77703515625,-0.1859668082475662,0.0173551855571568,-0.05559135617744177
1782836486597964000,8.786964111328125,-0.21765783154070376,-0.058530587967112656,-0.035885040916875
1782836486607893000,8.79689306640625,-0.14418518357276916,-0.10505633842907845,0.005020239314809442
1782836486617822200,8.806822265625,-0.09877309344112872,-0.12079473643936216,0.06739351071733982
1782836486627751200,8.816751220703125,-0.08317804942429065,-0.1343904963977635,0.06906710648536682
1782836486637680000,8.82668017578125,-0.030581016224622726,-0.1311624742619693,-0.01309084264356643
1782836486647609000,8.836609130859374,-0.025255437287688254,-0.074941551476717,-0.01651665237378329
1782836486657538000,8.8465380859375,-0.05034779296815395,-0.052403044997528195,0.023830044127069412
1782836486667468000,8.856468017578125,-0.03885141644179821,-0.057666737679392094,0.029125045262649654
1782836486677397000,8.86639697265625,-0.08726911813020706,-0.04875577453635633,-0.02295289596635848
1782836486687326200,8.876326171875,-0.06714402946829795,-0.03263524534069002,-0.049051907938718796
1782836486697255200,8.886255126953126,-0.008088029387593268,-0.027553558162227272,-0.03420771882180124
1782836486707184000,8.89618408203125,0.0022737901508808134,-0.061020432021468875,0.010297960522025824
1782836486717113000,8.906113037109375,0.0003489595681428909,-0.10748970305584371,0.05319894461557269
1782836486727042300,8.916042236328124,-0.03679565295577049,-0.14247589543685316,0.022850896896608172
1782836486736971300,8.92597119140625,-0.030426702445745465,-0.14736863591447472,-0.03157857589460909
1782836486746901000,8.93590087890625,-0.035754034948348994,-0.12036642802469431,-0.032059089420549566
1782836486756830000,8.945829833984375,-0.10008417603969573,-0.10306399556808173,0.0326797055369243
1782836486766759200,8.95575927734375,-0.07446458161473274,-0.10182451690100133,-0.04236961716320366
1782836486776688000,8.965688232421876,-0.04747369883656501,-0.0931953663740307,-0.08850392062216997
1782836486786617000,8.9756171875,-0.1297258655875921,-0.08645677883401513,-0.011666472396254539
1782836486796546000,8.985546142578125,-0.061435004171729084,-0.09840842484720051,0.024040764268301425
1782836486806475300,8.995475341796874,-0.027106618112325665,-0.08075352569110691,0.004631861051730812
1782836486816404200,9.005404296875,-0.1064776764690876,-0.05968626080825924,0.011890161616913973
1782836486826333000,9.0153330078125,-0.1316688163489103,-0.10313545336909591,0.01733512914981693
1782836486836263200,9.02526318359375,-0.11136837112009525,-0.10384783942215144,0.02234415295086801
1782836486846192000,9.035192138671874,-0.20675649829804896,-0.04952566293030977,0.09541063127070665
1782836486856121000,9.04512109375,-0.24436697476804256,-0.06274111833423375,0.05763681746516376
1782836486866050000,9.055050048828125,-0.2486304774314165,-0.07272898999378084,-0.008230725793913006
1782836486875979300,9.064979248046875,-0.23457097241878508,-0.05514036100693047,-0.0361732467411086
1782836486885908200,9.074908203125,-0.13457564370632172,-0.057891559411212795,-0.03205423058234155
1782836486895837200,9.084837158203126,-0.06083119305968284,-0.08916311518326402,0.03491447885166853
1782836486905766000,9.094765869140625,-0.014509002345800399,-0.1109542373612523,0.07889419809263198
1782836486915696000,9.104696044921875,-0.0005541267514228821,-0.11623195856846869,0.06177300395444035
1782836486925625000,9.114625,-0.02771393635571003,-0.09240019740834832,0.029589594034478067
1782836486935554000,9.124553955078126,-0.02121756007373333,-0.0281721284519881,-0.026249234098009763
1782836486945483300,9.134483154296875,0.009646364745497703,0.030562676850333807,-0.027980514870025217
1782836486955412200,9.144412109375,0.014331892213225363,0.04103080630749464,0.00784406456388533
1782836486965341200,9.154341064453124,-0.029075287836790083,-0.006596110329404473,0.031037783548794686
1782836486975270100,9.164270263671876,-0.05780746132433414,-0.10136997806653379,0.046726168404892084
1782836486985198800,9.17419873046875,-0.018220131823420523,-0.16143457066789269,0.0377786361111328
1782836486995128000,9.184128173828125,-0.019516601374745368,-0.12601736645847558,0.003675838968530297
1782836487005058000,9.19405810546875,-0.0838818137794733,-0.05693403949066996,-0.010732296818681061
1782836487014987000,9.203987060546876,-0.14132219535708426,-0.06754910313785076,-0.0067512643584981555
1782836487024916200,9.213916259765625,-0.12518880667984486,-0.12475326480679214,-0.06816493348125367
1782836487034845200,9.22384521484375,-0.05813713167011737,-0.07597162517681717,-0.06154891287498176
1782836487044774100,9.233774169921874,-0.00935059666931629,-0.00941094855442643,0.010847338033095002
1782836487054703000,9.243703125,0.03534194701611996,-0.029946298517659304,0.038521819161251185
1782836487064632000,9.253632080078125,-0.026848259437084198,-0.057970469866320484,0.025691965541429815
1782836487074561000,9.26356103515625,-0.16694705047905445,-0.06479951216876506,0.010983750829100608
1782836487084491000,9.273490966796874,-0.19241700730025768,-0.09576748188436031,-0.014476890174485743
1782836487094420200,9.283420166015626,-0.19677870964109898,-0.11511771371625364,0.030469701337255534
1782836487104349200,9.29334912109375,-0.14141045816242695,-0.08230535824298858,0.05612166366185992
1782836487114278100,9.303278076171875,-0.07653437362611293,-0.045833311218395824,0.003061360331997275
1782836487124207000,9.31320703125,-0.04813420857191086,-0.04998517020083964,-0.0368024845553562
1782836487134136300,9.32313623046875,-0.06959200714230537,-0.08554002931527793,-0.02761321592759341
1782836487144062000,9.33306201171875,-0.08291735266149043,-0.13159881985262037,-0.0008236644078046083
1782836487153991000,9.342990966796876,-0.040268882024288175,-0.20575119371302425,-0.021383089366368947
1782836487163920100,9.352920166015625,-0.050720133411884305,-0.21298750164210795,0.0329781039616093
1782836487173849000,9.36284912109375,-0.09168635005056858,-0.1460959856301546,0.08079151961393653
1782836487183778000,9.372778076171874,-0.11051263107359409,-0.07434468156211077,-0.007069573060050606
1782836487193707000,9.38270703125,-0.09455518348515034,0.00211633456684649,-0.11641864024698734
1782836487203637200,9.39263720703125,-0.13990823690593243,-0.0018480390194803476,-0.10291304279007017
1782836487213566000,9.40256591796875,-0.11615092922151088,-0.0575229452945292,-0.028618812773562968
1782836487223495000,9.412494873046874,-0.06161445239186287,-0.10757029401138424,0.013703677312284708
1782836487233424100,9.422424072265626,-0.0035620763957500455,-0.16426833278909325,0.05795286114439368
1782836487243353000,9.43235302734375,-0.0030950434058904645,-0.1828020606063306,0.08441529960166662
1782836487253282000,9.442281982421875,-0.027264439022541043,-0.14367613807208834,0.04395546158254146
1782836487263211000,9.4522109375,-0.07653671171367168,-0.07247194649279118,0.03451587145552039
1782836487273140200,9.46214013671875,-0.0928875425338745,-0.05770144366659224,0.01843607612904161
1782836487283070200,9.4720703125,-0.10145780248045921,-0.05680822115391493,-0.04185498217195272
1782836487292999000,9.4819990234375,-0.09252338539659977,-0.04966244105249643,-0.09836188229173422
1782836487302928100,9.49192822265625,-0.06385843192636967,-0.06803359871916473,-0.034214221627824004
1782836487312857000,9.501857177734376,-0.02801496512889862,-0.09480784307196735,0.04487878697253763
1782836487322786000,9.5117861328125,0.03907236571609974,-0.08028824626691639,0.04026961267665028
1782836487332715000,9.521715087890625,0.0396446126461029,-0.07879713092632591,0.0017408157853409647
1782836487342644000,9.53164404296875,-0.026976854252815246,-0.07095248184055089,0.02461176908928901
1782836487352573200,9.5415732421875,-0.024240707287192343,-0.07058006833158433,0.035646336790174246
1782836487362502100,9.551502197265625,-0.04670855968296528,-0.0028584581710398194,0.028102570347115396
1782836487372432000,9.561431884765625,-0.12740823629498482,0.0020763678826391696,0.004247136050462723
1782836487382361000,9.571361083984375,-0.12107961779534816,-0.048722018397226924,0.02172083342075348
1782836487392290000,9.5812900390625,-0.12409458170235156,-0.07824629211053252,0.037281829037517304
1782836487402219000,9.591218994140625,-0.19913141024708747,-0.05946794188246131,0.009756948980502785
1782836487412148000,9.60114794921875,-0.1536158597409725,-0.0678383684080094,0.01230356472339481
1782836487422077200,9.6110771484375,-0.12548574379980562,-0.09268887815661728,-0.006583287380449473
1782836487432006100,9.621006103515626,-0.1046644895672798,-0.08652304900325834,-0.023766038980148733
1782836487441935000,9.63093505859375,-0.05485737934708595,-0.07298143038488925,-0.0362407955519855
1782836487451865000,9.640864990234375,0.00921907924413681,-0.08312259291000663,-0.06369250077493488
1782836487461794000,9.6507939453125,0.09711188223063945,-0.0676492755766958,-0.003797017662785947
1782836487471723000,9.660722900390626,0.017006664380431174,-0.09730141345337033,0.05405669395606964
1782836487481652000,9.67065185546875,-0.08898761248588562,-0.20530958742536604,0.06358345090989023
1782836487491581200,9.680581298828125,-0.06237783797979354,-0.23032157134599981,-0.07615249816905707
1782836487501510100,9.69051025390625,0.017400632134079934,-0.11008059633187949,-0.1932191905286163
1782836487511439000,9.700439208984376,-0.04040332205891609,-0.02425911972671747,-0.08246803799141197
1782836487521368000,9.7103681640625,-0.014931027150154113,-0.13429244285076855,-0.0178513715762645
1782836487531297300,9.72029736328125,0.04169102378189563,-0.22174597763717174,-0.09439783749897032
1782836487541227000,9.73022705078125,-0.11969020926356315,-0.1737328381616622,-0.1455267709074542
1782836487551156000,9.740156005859374,-0.018122516667842863,-0.11945208965875208,-0.09845383489150554
1782836487561085000,9.7500849609375,-0.0018710545688867567,-0.16298998341634868,-0.05764894629437476
1782836487571014100,9.76001416015625,0.05851765542030334,-0.2196476171184331,-0.1035998194778338
1782836487580943000,9.769943115234375,0.8423907355844974,-0.09010039603337645,0.09267715118620544
1782836487590872000,9.7798720703125,0.36720951058268547,0.025195889120176434,0.3351162266315892
1782836487600801000,9.789801025390625,-0.23235095828175542,-0.16089827183410524,0.21609914912292733
1782836487610730200,9.799730224609375,-0.11859656880795955,-0.1928843325510621,-0.05331444248771294
1782836487620660000,9.809659912109375,-0.46007074963152406,0.08752608856596052,-0.0865717287168838
1782836487630589000,9.8195888671875,-0.34070962619185446,0.1720160243064165,0.08541108743967488
1782836487640518100,9.82951806640625,-0.350410351473093,0.18325996044166384,0.20820602125292642
1782836487650447000,9.839447021484375,-0.5115010771393775,0.09466587731800973,0.0865514896464534
1782836487660376000,9.8493759765625,-0.30519407617449756,-0.023659254137426613,-0.004595255368389189
