time,seconds_elapsed,z,y,x
1782836477890118100,0.0791181640625,-0.10694143176078796,0.06795769184827805,0.18874894082546234
1782836477900047000,0.089047119140625,-0.06285890191793442,-0.030702002346515656,0.11502448469400406
1782836477909976000,0.09897607421875,-0.01294220332056284,-0.08153055608272552,0.061860598623752594
1782836477919905000,0.108905029296875,0.022354885935783386,-0.09754852205514908,0.028734343126416206
1782836477929835000,0.1188349609375,0.039007365703582764,-0.08063558489084244,0.00017407257109880447
1782836477939764000,0.128763916015625,0.05002409219741821,-0.032935865223407745,-0.022284075617790222
1782836477949693000,0.13869287109375,0.06013185530900955,-0.0017547747120261192,-0.036744773387908936
1782836477959622000,0.148621826171875,0.06555142998695374,-0.004496421664953232,-0.04832246154546738
1782836477969551000,0.158551025390625,0.057421863079071045,-0.011775373481214046,-0.044012401252985
1782836477979480000,0.16847998046875,0.028897317126393318,-0.004949083551764488,-0.03402354568243027
1782836477989409000,0.178408935546875,0.005015953443944454,0.02650817483663559,-0.029199229553341866
1782836477999339000,0.188339111328125,-0.025492502376437187,0.03830289840698242,-0.037159159779548645
1782836478009268000,0.19826806640625,-0.05674576759338379,0.051915913820266724,-0.020977262407541275
1782836478019197000,0.208197021484375,-0.05934923142194748,0.06562647223472595,0.01321839727461338
1782836478029126000,0.2181259765625,-0.03679332137107849,0.03186424821615219,0.03661905974149704
1782836478039055000,0.22805517578125,0.010222838260233402,-0.006066428497433662,0.04275544360280037
1782836478048984000,0.237984130859375,0.06416463106870651,-0.03967045992612839,0.05431116744875908
1782836478058913000,0.2479130859375,0.10095629096031189,-0.0534597784280777,0.06744814664125443
1782836478068842000,0.257842041015625,0.10659713298082352,-0.05582839250564575,0.08329102396965027
1782836478078772000,0.26777197265625,0.0788852721452713,-0.04456333816051483,0.0852692574262619
1782836478088701000,0.277700927734375,0.04049767181277275,-0.03569847345352173,0.056826964020729065
1782836478098630000,0.2876298828125,0.02310260385274887,-0.009224368259310722,0.008341064676642418
1782836478108558800,0.297558837890625,0.036490313708782196,-0.001698540523648262,-0.051596302539110184
1782836478118488000,0.307488037109375,0.05330049246549606,-0.009042588993906975,-0.1047329530119896
1782836478128417000,0.3174169921875,0.05526590719819069,0.01018303819000721,-0.11894837021827698
1782836478138346000,0.327345947265625,0.046072185039520264,0.02070705033838749,-0.11682270467281342
1782836478148275000,0.33727490234375,0.023700036108493805,0.00024252012372016907,-0.10211832821369171
1782836478158205000,0.347204833984375,0.0027644075453281403,-0.04538259655237198,-0.09717878699302673
1782836478168134000,0.3571337890625,0.006451553665101528,-0.07336736470460892,-0.06980548799037933
1782836478178062800,0.367062744140625,0.0029687006026506424,-0.06778819113969803,-0.02410002239048481
1782836478187992000,0.376991943359375,0.003718913532793522,-0.044294849038124084,0.02638552337884903
1782836478197921000,0.386921142578125,0.0014234920963644981,-0.02773958072066307,0.06241469457745552
1782836478207850000,0.39685009765625,0.004587593488395214,-0.018266715109348297,0.06902626156806946
1782836478217779000,0.406779052734375,0.014354637823998928,-0.014734603464603424,0.04426666349172592
1782836478227708200,0.416708251953125,0.003956858068704605,-0.030319955199956894,-0.007179215084761381
1782836478237638000,0.426637939453125,0.00185483880341053,-0.010226975195109844,-0.05770326033234596
1782836478247566800,0.43656689453125,0.006760914344340563,0.030604876577854156,-0.09411107003688812
1782836478257496000,0.44649609375,0.003936151973903179,0.053210098296403885,-0.1243177205324173
1782836478267425000,0.456425048828125,0.015201323665678501,0.0752730518579483,-0.14512740075588226
1782836478277354000,0.46635400390625,0.03251592442393303,0.06670501828193665,-0.15806147456169128
1782836478287283000,0.476282958984375,0.032259196043014526,-0.005722579080611467,-0.14744983613491058
1782836478297212200,0.486212158203125,0.02406250312924385,-0.07444986701011658,-0.09806381911039352
1782836478307142100,0.49614208984375,0.02677786350250244,-0.09123976528644562,-0.03544197976589203
1782836478317070800,0.50607080078125,0.021631697192788124,-0.09336961060762405,0.03639247268438339
1782836478326999800,0.515999755859375,0.012527947314083576,-0.0748278796672821,0.10005294531583786
1782836478336929000,0.525928955078125,-0.007737433537840843,-0.04129251837730408,0.1333029866218567
1782836478346858000,0.53585791015625,-0.0319674089550972,-0.02711251750588417,0.12758944928646088
1782836478356787000,0.545786865234375,-0.033089157193899155,0.017531458288431168,0.10637154430150986
1782836478366715600,0.555715576171875,-0.018149886280298233,0.040812812745571136,0.08719491958618164
1782836478376644600,0.56564453125,-0.009595520794391632,0.04821819067001343,0.07079727202653885
1782836478386574600,0.57557470703125,-0.00982188992202282,0.05403506010770798,0.060167260468006134
1782836478396503800,0.58550390625,-0.001224081963300705,0.045646265149116516,0.04987931251525879
1782836478406432500,0.5954326171875,0.007910294458270073,0.02949126437306404,0.04725636541843414
1782836478416361500,0.605361572265625,0.001206262968480587,0.005626977421343327,0.03986445069313049
1782836478426290400,0.61529052734375,-0.016647303476929665,-0.020600631833076477,0.01914212852716446
1782836478436219600,0.6252197265625,-0.023481285199522972,-0.05364646762609482,-0.013049829751253128
1782836478446148600,0.635148681640625,-0.011057637631893158,-0.07217754423618317,-0.05162625014781952
1782836478456078600,0.64507861328125,0.004568993113934994,-0.06873487681150436,-0.08373944461345673
1782836478466007800,0.6550078125,0.027898283675312996,-0.05092950910329819,-0.10095091909170151
1782836478475936800,0.664936767578125,0.04452706128358841,-0.009052368812263012,-0.07300983369350433
1782836478485865500,0.674865478515625,0.04994233697652817,0.05235905945301056,-0.014786743558943272
1782836478495794400,0.68479443359375,0.043101005256175995,0.08070354163646698,0.04319416359066963
1782836478505723400,0.694723388671875,0.0317455530166626,0.07940391451120377,0.0783633291721344
1782836478515652600,0.704652587890625,0.021452929824590683,0.039624471217393875,0.08629355579614639
1782836478525581600,0.71458154296875,0.012851717881858349,-0.007225325796753168,0.07707902044057846
1782836478535511600,0.724511474609375,-0.0036565298214554787,-0.05143619328737259,0.04782416298985481
1782836478545440800,0.734440673828125,-0.01874333806335926,-0.09215352684259415,0.007209358736872673
1782836478555369700,0.74436962890625,-0.015262912958860397,-0.11201819777488708,-0.029797237366437912
1782836478565298400,0.75429833984375,-0.0042203813791275024,-0.10024569928646088,-0.0563897006213665
1782836478575227400,0.764227294921875,0.009441737085580826,-0.03574451059103012,-0.06720854341983795
1782836478585156600,0.774156494140625,0.03216063231229782,0.027657633647322655,-0.06262311339378357
1782836478595085600,0.78408544921875,0.044848836958408356,0.04611360281705856,-0.05151823163032532
1782836478605014500,0.7940146484375,0.03948123753070831,0.01847265660762787,-0.021480970084667206
1782836478614944800,0.80394482421875,0.02943701669573784,-0.008082855492830276,0.0217666644603014
1782836478624873700,0.813873779296875,0.02564893662929535,-0.023900168016552925,0.0649772509932518
1782836478634802700,0.823802734375,0.022546548396348953,-0.04876542463898659,0.09318656474351883
1782836478644731600,0.833731689453125,0.004752372391521931,-0.06265807151794434,0.10507331788539886
1782836478654660600,0.84366064453125,-0.003420773893594742,-0.044194526970386505,0.09566688537597656
1782836478664589600,0.853589599609375,-0.0016425810754299164,-0.022458339110016823,0.05105014890432358
1782836478674518500,0.8635185546875,0.018462086096405983,0.0055760350078344345,-0.016156213358044624
1782836478684447500,0.873447509765625,0.026483792811632156,0.022145692259073257,-0.07721158117055893
1782836478694377700,0.883377685546875,0.005198340862989426,0.032967790961265564,-0.12311355024576187
1782836478704306700,0.893306640625,-0.01192871481180191,0.04527692124247551,-0.1375015377998352
1782836478714235600,0.903235595703125,-0.026570942252874374,0.039685189723968506,-0.12467457354068756
1782836478724164600,0.91316455078125,-0.03883932903409004,0.030773188918828964,-0.09222981333732605
1782836478734093600,0.923093505859375,-0.0393579825758934,0.018461279571056366,-0.05591287463903427
1782836478744022500,0.9330224609375,-0.034986935555934906,-0.006968445610255003,-0.027892159298062325
1782836478753951500,0.942951416015625,-0.01695491373538971,-0.05254300683736801,-0.01757292076945305
1782836478763881700,0.9528818359375,0.0028030788525938988,-0.0809115320444107,-0.0076723527163267136
1782836478773810700,0.962810791015625,0.010941613465547562,-0.04322148859500885,-0.001081366091966629
1782836478783739600,0.97273974609375,0.01369532197713852,-0.02270502597093582,0.0044289808720350266
1782836478793668600,0.982668701171875,0.010951707139611244,-0.0028627999126911163,0.008898601867258549
1782836478803597600,0.99259765625,0.014850575476884842,0.0002786647528409958,0.01826201006770134
1782836478813526500,1.002526611328125,0.01998976059257984,0.0006766915321350098,0.027638742700219154
1782836478823455500,1.01245556640625,0.02244333177804947,0.006385709159076214,0.028320511803030968
1782836478833384400,1.022384521484375,0.021666374057531357,0.013292619027197361,0.02398671768605709
1782836478843314700,1.032314697265625,0.011855822056531906,0.021364927291870117,0.0006249360740184784
1782836478853243600,1.04224365234375,-0.0040203602984547615,0.012703106738626957,-0.035746295005083084
1782836478863172600,1.052172607421875,-0.011399181559681892,-0.01726997084915638,-0.07441912591457367
1782836478873101600,1.0621015625,-0.01257298979908228,-0.039386600255966187,-0.10785974562168121
1782836478883030500,1.072030517578125,-0.005495372228324413,-0.03171243518590927,-0.12284322082996368
1782836478892959500,1.08195947265625,0.007764085195958614,-0.025619324296712875,-0.11765168607234955
1782836478902888400,1.091888427734375,0.021762991324067116,-0.010659015737473965,-0.0929117202758789
1782836478912817400,1.1018173828125,0.02077002450823784,0.004911839962005615,-0.056033652275800705
1782836478922747600,1.11174755859375,0.0063173165544867516,0.01570909470319748,-0.04487181454896927
1782836478932676600,1.121676513671875,0.00671693030744791,0.04428678750991821,-0.05051606148481369
1782836478942605600,1.13160546875,0.019365081563591957,0.05571255087852478,-0.07092706114053726
1782836478952534800,1.14153466796875,0.018096519634127617,0.029904350638389587,-0.09660464525222778
1782836478962463700,1.151463623046875,0.013842119835317135,0.020451728254556656,-0.10939740389585495
1782836478972392400,1.161392333984375,0.0032413238659501076,0.01973065920174122,-0.10213950276374817
1782836478982321400,1.1713212890625,-0.01217944361269474,0.026348082348704338,-0.07707516103982925
1782836478992250600,1.181250732421875,-0.01928296498954296,0.04852776229381561,-0.03757238760590553
1782836479002180600,1.1911806640625,-0.02054823376238346,0.026692770421504974,-0.002848230302333832
1782836479012109600,1.201109619140625,-0.0077760908752679825,-0.015910541638731956,0.027241399511694908
1782836479022038800,1.211038818359375,0.012039159424602985,-0.04341353848576546,0.06527507305145264
1782836479031967700,1.2209677734375,0.03235500305891037,-0.06482470780611038,0.09933662414550781
1782836479041896700,1.230896728515625,0.036403536796569824,-0.0770195871591568,0.11640961468219757
1782836479051825400,1.240825439453125,0.035966452211141586,-0.06546720862388611,0.1121809333562851
1782836479061754600,1.250754638671875,0.028317853808403015,-0.054679542779922485,0.0735856145620346
1782836479071684600,1.2606845703125,0.029401328414678574,-0.044790998101234436,0.018655763939023018
1782836479081613600,1.270613525390625,0.032963309437036514,-0.01605203002691269,-0.029203902930021286
1782836479091542500,1.28054248046875,0.025026820600032806,0.037692420184612274,-0.052309490740299225
1782836479101471700,1.2904716796875,0.0031193923205137253,0.0742400512099266,-0.0592624694108963
1782836479111400700,1.300400634765625,-0.0195123590528965,0.08347878605127335,-0.05435315519571304
1782836479121329700,1.31032958984375,-0.0257825069129467,0.08323590457439423,-0.05494704097509384
1782836479131258400,1.32025830078125,-0.023944128304719925,0.047369781881570816,-0.05126947909593582
1782836479141187600,1.3301875,-0.016676247119903564,0.010430670343339443,-0.03580659627914429
1782836479151117600,1.34011767578125,-0.0016795257106423378,0.0110275624319911,-0.01565089263021946
1782836479161046500,1.350046630859375,0.02010992541909218,0.0045899031683802605,0.003655959852039814
1782836479170975700,1.359975830078125,0.03867381066083908,-0.008570943027734756,0.020137779414653778
1782836479180904700,1.36990478515625,0.04287122189998627,-0.03439188748598099,0.02856402099132538
1782836479190833700,1.379833740234375,0.02415429800748825,-0.03558802604675293,0.03593919053673744
1782836479200762600,1.3897626953125,0.0024521974846720695,-0.025149766355752945,0.027463946491479874
1782836479210691600,1.399691650390625,-0.007917352952063084,-0.016722459346055984,0.013283679261803627
1782836479220620500,1.40962060546875,-0.0013334853574633598,0.00028342194855213165,0.0024289004504680634
1782836479230550500,1.419550537109375,0.02019575610756874,0.013409464620053768,-0.006860115099698305
1782836479240479700,1.429479736328125,0.022737212479114532,-0.009952849708497524,-0.016166530549526215
1782836479250408700,1.43940869140625,0.006145276129245758,-0.017176151275634766,-0.02152840793132782
1782836479260337700,1.449337646484375,0.0032480228692293167,0.015480594709515572,-0.011753540486097336
1782836479270266600,1.4592666015625,0.013808423653244972,0.046471498906612396,0.011599799618124962
1782836479280195600,1.469195556640625,0.006866361480206251,0.048257678747177124,0.021797042340040207
1782836479290124500,1.47912451171875,0.006061735562980175,0.03957197070121765,0.02363375574350357
1782836479300053500,1.489053466796875,0.02122364565730095,0.006146369501948357,0.011119293048977852
1782836479309983500,1.4989833984375,0.03949505835771561,-0.043871521949768066,-0.008273579180240631
1782836479319912700,1.50891259765625,0.05245533585548401,-0.06330887228250504,-0.02752423845231533
1782836479329841700,1.518841552734375,0.05624590814113617,-0.034278515726327896,-0.02145817130804062
1782836479339770600,1.5287705078125,0.03938383609056473,0.004157024435698986,0.0010396810248494148
1782836479349699600,1.538699462890625,0.007061319891363382,-0.006593164522200823,0.027749117463827133
1782836479359628800,1.54862890625,-0.020447533577680588,-0.044152259826660156,0.04125747084617615
1782836479369557500,1.5585576171875,-0.03377386927604675,-0.06221571937203407,0.05853088200092316
1782836479379486500,1.568486572265625,-0.032459862530231476,-0.06395237147808075,0.07471544295549393
1782836479389416700,1.578416748046875,-0.03030296042561531,-0.06621342897415161,0.06780251860618591
1782836479399345700,1.588345703125,-0.029717862606048584,-0.042463891208171844,0.029141947627067566
1782836479409274600,1.598274658203125,-0.002932922914624214,0.012319270521402359,-0.018940523266792297
1782836479419203600,1.60820361328125,0.020955897867679596,0.04438585788011551,-0.06787397712469101
1782836479429132800,1.6181328125,0.018589653074741364,0.06034919619560242,-0.10349904745817184
1782836479439061800,1.628061767578125,0.007443791721016169,0.08032476902008057,-0.1207728385925293
1782836479448990500,1.637990478515625,0.0015977323055267334,0.06327387690544128,-0.11621001362800598
1782836479458920400,1.64792041015625,0.0005284734070301056,0.016801446676254272,-0.08889690041542053
1782836479468849700,1.657849609375,-0.005650579929351807,-0.013371938839554787,-0.028877923265099525
1782836479478778600,1.667778564453125,-0.0265571940690279,-0.018459109589457512,0.05044699087738991
1782836479488707600,1.67770751953125,-0.046022966504096985,-0.01953909546136856,0.1141800656914711
1782836479498636500,1.687636474609375,-0.04246045649051666,-0.022995080798864365,0.14367590844631195
1782836479508565800,1.697565673828125,-0.00889861211180687,-0.016918813809752464,0.1342429518699646
1782836479518494700,1.70749462890625,0.039257995784282684,0.0005192980170249939,0.09793873876333237
1782836479528423400,1.71742333984375,0.07045885175466537,-0.0061796545051038265,0.04144728183746338
1782836479538353700,1.727353759765625,0.06531815230846405,-0.01613934338092804,-0.011308342218399048
1782836479548282600,1.73728271484375,0.056088946759700775,-0.012681114487349987,-0.05406024307012558
1782836479558211600,1.747211669921875,0.0384199395775795,-0.013527467846870422,-0.07321662455797195
1782836479568140500,1.757140625,0.010233757086098194,-0.017044777050614357,-0.07608970999717712
1782836479578069800,1.76706982421875,-0.00875058677047491,-0.0006604781374335289,-0.047234367579221725
1782836479587998700,1.776998779296875,-0.023169148713350296,-0.013639776967465878,-0.010979313403367996
1782836479597927700,1.786927734375,-0.04138144105672836,-0.0315101221203804,0.028136132284998894
1782836479607856600,1.796856689453125,-0.03467854857444763,-0.008407002314925194,0.06316471844911575
1782836479617786600,1.80678662109375,-0.01129226665943861,-0.005863949656486511,0.07709331810474396
1782836479627715600,1.816715576171875,-0.003216758370399475,-0.029631946235895157,0.07082323729991913
1782836479637644500,1.82664453125,-0.001060662791132927,-0.019511401653289795,0.0496220737695694
1782836479647573800,1.83657373046875,0.005701716989278793,-0.0014249226078391075,0.012808674946427345
1782836479657502700,1.846502685546875,0.013090391643345356,-0.018848920240998268,-0.035941820591688156
1782836479667431700,1.856431640625,0.011900801211595535,-0.024890834465622902,-0.07398461550474167
1782836479677360600,1.866360595703125,0.0024654874578118324,0.0036478666588664055,-0.08721652626991272
1782836479687289600,1.87628955078125,0.01138183381408453,0.03242693841457367,-0.07485545426607132
1782836479697219600,1.886219482421875,0.00785900466144085,0.04133254289627075,-0.03846362605690956
1782836479707148500,1.8961484375,-0.007919217459857464,0.03829285502433777,-0.01408030092716217
1782836479717077500,1.906077392578125,-0.00855704303830862,0.04758781939744949,-0.009243468753993511
1782836479727006700,1.9160068359375,0.0028520533815026283,0.030496638268232346,-0.02360127493739128
1782836479736935700,1.925935791015625,0.008808212354779243,-0.0075631290674209595,-0.046669572591781616
1782836479746864600,1.93586474609375,0.00703339884057641,-0.01930702105164528,-0.05381005257368088
1782836479756793600,1.945793701171875,0.00010065734386444092,-0.01930755376815796,-0.0369194857776165
1782836479766722600,1.95572265625,-0.010666788555681705,-0.01906847208738327,-0.015160099603235722
1782836479776652500,1.965652587890625,-0.025446802377700806,-0.0212932750582695,-0.0014357655309140682
1782836479786581500,1.97558154296875,-0.02850125916302204,-0.019023356959223747,0.013669142499566078
1782836479796510700,1.9855107421875,-0.030080514028668404,-0.012866927310824394,0.02355346269905567
1782836479806439700,1.995439697265625,-0.02004070393741131,-0.008726054802536964,0.023074757307767868
1782836479816368600,2.00536865234375,-0.004423130303621292,-0.004692696966230869,0.022510433569550514
1782836479826297600,2.015297607421875,0.0013632206246256828,0.004414211958646774,0.010612474754452705
1782836479836226800,2.025226806640625,0.01266008336097002,0.007855283096432686,-0.004122262354940176
1782836479846156500,2.035156494140625,0.021139459684491158,0.008957487531006336,-0.006860263645648956
1782836479856085500,2.04508544921875,0.024383988231420517,0.014166629873216152,0.001361980102956295
1782836479866014500,2.055014404296875,0.009858297184109688,0.030259352177381516,0.01955312117934227
1782836479875943700,2.064943603515625,-0.011906920000910759,0.030730731785297394,0.026973219588398933
1782836479885872600,2.07487255859375,-0.023318802937865257,0.022815663367509842,0.01889214664697647
1782836479895801600,2.084801513671875,-0.02519606612622738,0.029285013675689697,-0.009326175786554813
1782836479905730600,2.09473046875,-0.0143075967207551,0.03178192675113678,-0.04700058698654175
1782836479915659800,2.10465966796875,-0.006203596480190754,0.033263444900512695,-0.07425857335329056
1782836479925589500,2.114589599609375,0.00587220024317503,0.034800540655851364,-0.08438006043434143
1782836479935518500,2.1245185546875,0.013034505769610405,0.012764211744070053,-0.07748432457447052
1782836479945447700,2.13444775390625,0.02431100606918335,-0.005000369157642126,-0.06276332587003708
1782836479955376600,2.144376708984375,0.03299930319190025,-0.022102124989032745,-0.02888711541891098
1782836479965305600,2.1543056640625,0.025835175067186356,-0.0295272059738636,-0.001259078737348318
1782836479975234600,2.164234619140625,0.007818888872861862,-0.032622329890728,0.008566919714212418
1782836479985163800,2.174163818359375,-0.0006350250914692879,-0.021954843774437904,0.010490482673048973
1782836479995092700,2.1840927734375,0.0009780516847968102,0.025166597217321396,0.018796348944306374
1782836480005022500,2.1940224609375,0.007084517274051905,0.06577789783477783,0.030372560024261475
1782836480014951700,2.20395166015625,0.010728520341217518,0.07901593297719955,0.0357619971036911
1782836480024880600,2.213880615234375,0.01687907613813877,0.061495568603277206,0.037556588649749756
1782836480034809600,2.2238095703125,0.02680254727602005,0.030118204653263092,0.034292615950107574
1782836480044738600,2.233738525390625,0.03181453049182892,-0.005580215714871883,0.029902059584856033
1782836480054667500,2.24366748046875,0.03860532492399216,-0.032933276146650314,0.00620418693870306
1782836480064596700,2.2535966796875,0.03786417841911316,-0.056077513843774796,-0.016193682327866554
1782836480074525700,2.263525634765625,0.024429066106677055,-0.0678204596042633,-0.03531171381473541
1782836480084455400,2.273455322265625,0.006392008624970913,-0.06067599356174469,-0.05292399972677231
1782836480094384600,2.283384521484375,-0.01074330322444439,-0.060947638005018234,-0.0571909174323082
1782836480104313600,2.293313720703125,-0.023620877414941788,-0.02066721022129059,-0.037835005670785904
1782836480114242600,2.30324267578125,-0.021853871643543243,0.023231808096170425,0.0011249110102653503
1782836480124171500,2.313171630859375,-0.013116404414176941,0.035053007304668427,0.03621853142976761
1782836480134100700,2.323100830078125,0.0013402989134192467,0.03687088191509247,0.05019533261656761
1782836480144029700,2.33302978515625,0.03197255730628967,0.02416147291660309,0.05117504298686981
1782836480153958700,2.342958740234375,0.05556097254157066,-0.0061791217885911465,0.02878664806485176
1782836480163888600,2.352888671875,0.06170700117945671,-0.03343699127435684,-0.0075361160561442375
1782836480173817600,2.362817626953125,0.055423006415367126,-0.0615791454911232,-0.029255259782075882
1782836480183746600,2.37274658203125,0.03033836930990219,-0.044147469103336334,-0.01867370866239071
1782836480193675500,2.382675537109375,0.0018326928839087486,-0.005995554383844137,0.008413301780819893
1782836480203604700,2.392604736328125,-0.020326070487499237,0.021060220897197723,0.028441499918699265
1782836480213533700,2.40253369140625,-0.02485876902937889,0.024067196995019913,0.03291401267051697
1782836480223462700,2.412462646484375,-0.008545827120542526,0.005270760506391525,0.029228638857603073
1782836480233391600,2.4223916015625,0.010222001001238823,-0.014036359265446663,0.026183050125837326
1782836480243321600,2.432321533203125,0.020903490483760834,-0.03502032160758972,0.03416269272565842
1782836480253250600,2.44225048828125,0.021944787353277206,-0.047364603728055954,0.04241503030061722
1782836480263179500,2.452179443359375,0.015753470361232758,-0.0312197245657444,0.04256390035152435
1782836480273108500,2.4621083984375,0.023277699947357178,0.011077401228249073,0.03615393489599228
1782836480283037700,2.47203759765625,0.021960709244012833,0.030457792803645134,0.015354067087173462
1782836480292966700,2.481966552734375,0.004627258516848087,0.023256072774529457,-0.015566565096378326
1782836480302895600,2.4918955078125,-0.011473946273326874,0.04059804975986481,-0.04412763565778732
1782836480312824600,2.501824462890625,-0.02012549340724945,0.03289671987295151,-0.06758342683315277
1782836480322754600,2.511754638671875,-0.024799508973956108,0.013167792931199074,-0.0755053460597992
1782836480332683500,2.52168359375,-0.012543641030788422,0.020440353080630302,-0.06189952418208122
1782836480342612500,2.531612548828125,-0.00016247667372226715,0.0249529629945755,-0.040093351155519485
1782836480352541700,2.541541748046875,0.005775040946900845,-0.005302675534039736,-0.015182942152023315
1782836480362470700,2.551470703125,0.018427914008498192,-0.02594396285712719,0.022577591240406036
1782836480372400000,2.561400146484375,0.024530015885829926,-0.03678222745656967,0.0655764564871788
1782836480382329000,2.5713291015625,0.016384808346629143,-0.039706453680992126,0.10623963177204132
1782836480392258000,2.581258056640625,-0.0038757221773266792,-0.028095073997974396,0.1372622549533844
1782836480402188000,2.59118798828125,-0.012445132248103619,-0.02161720022559166,0.14795248210430145
1782836480412117000,2.601116943359375,-0.01843857765197754,-0.018815021961927414,0.13381588459014893
1782836480422046000,2.6110458984375,-0.02428440935909748,-0.009871404618024826,0.08990851789712906
1782836480431975000,2.620974853515625,-0.01819962076842785,0.005523531697690487,0.03088621236383915
1782836480441904000,2.630904052734375,-0.012137873098254204,0.03812690079212189,-0.03219720721244812
1782836480451833000,2.6408330078125,-0.008470434695482254,0.07695365697145462,-0.08350646495819092
1782836480461762000,2.650761962890625,-0.004236261360347271,0.09357334673404694,-0.11687016487121582
1782836480471691000,2.66069091796875,-0.006548951379954815,0.06654146313667297,-0.11730985343456268
1782836480481621000,2.67062109375,-0.015037650242447853,0.008438893593847752,-0.09625815600156784
1782836480491550000,2.680550048828125,-0.028391538187861443,-0.04453191161155701,-0.04394648224115372
1782836480501479000,2.69047900390625,-0.03071710839867592,-0.060543403029441833,0.01971006952226162
1782836480511407900,2.700407958984375,-0.024149753153324127,-0.053044743835926056,0.07445666939020157
1782836480521337000,2.710337158203125,-0.012409503571689129,-0.05576926842331886,0.09416164457798004
1782836480531266000,2.72026611328125,0.00334868673235178,-0.050243210047483444,0.08226744085550308
1782836480541195000,2.730195068359375,0.01870349422097206,-0.048807159066200256,0.03723105415701866
1782836480551124000,2.7401240234375,0.03066748008131981,-0.030990347266197205,-0.023467712104320526
1782836480561054000,2.750053955078125,0.035404033958911896,-0.00016615260392427444,-0.07769165188074112
1782836480570983000,2.75998291015625,0.029930971562862396,0.034093014895915985,-0.10689268261194229
1782836480580911900,2.769911865234375,0.020454686135053635,0.04618970304727554,-0.10682090371847153
1782836480590841000,2.779841064453125,-0.003437597304582596,0.03841487318277359,-0.08253394067287445
1782836480600770000,2.78977001953125,-0.02531817927956581,0.02921174094080925,-0.03098764643073082
1782836480610699000,2.799698974609375,-0.043575745075941086,0.0033713579177856445,0.03130315989255905
1782836480620628000,2.8096279296875,-0.04408686235547066,-0.03186097368597984,0.06756264716386795
1782836480630557200,2.81955712890625,-0.00910996925085783,-0.053060002624988556,0.07586131989955902
1782836480640487000,2.82948681640625,0.03501037880778313,-0.04008675366640091,0.06114225462079048
1782836480650415900,2.839415771484375,0.06059270352125168,-0.03063439391553402,0.02466760203242302
1782836480660345000,2.849344970703125,0.06854864954948425,-0.020018354058265686,-0.01862669736146927
1782836480670274000,2.859274169921875,0.06846822053194046,0.011303083039820194,-0.04837847128510475
1782836480680203000,2.869203125,0.0553656741976738,0.01971578225493431,-0.06454150378704071
1782836480690132000,2.879132080078125,0.01987559348344803,-0.018820956349372864,-0.05925353616476059
1782836480700061200,2.889061279296875,-0.025931663811206818,-0.024421922862529755,-0.03522523492574692
1782836480709990100,2.898990234375,-0.061432134360075,-0.005207747220993042,-0.010043182410299778
1782836480719919900,2.908919921875,-0.06707479804754257,0.001579579897224903,0.0028616301715373993
1782836480729848800,2.918848876953125,-0.05855214595794678,0.0009566666558384895,0.00746943149715662
1782836480739778000,2.928778076171875,-0.04022393375635147,0.01274880301207304,-0.0019209794700145721
1782836480749707000,2.93870703125,-0.010290802456438541,0.02510906383395195,-0.021738359704613686
1782836480759636000,2.948635986328125,0.02923252433538437,0.01960385963320732,-0.04060189053416252
1782836480769565000,2.95856494140625,0.05913582816720009,0.015193398110568523,-0.04099790379405022
1782836480779494100,2.968494140625,0.06552944332361221,0.02058839239180088,-0.008672639727592468
1782836480789423000,2.978423095703125,0.05606350302696228,0.025623364374041557,0.040925540030002594
1782836480799352800,2.988352783203125,0.037066295742988586,0.011394736357033253,0.08806294947862625
1782836480809282000,2.998281982421875,-0.004632413387298584,-0.03298897296190262,0.09934649616479874
1782836480819211000,3.0082109375,-0.03718309476971626,-0.05954822152853012,0.08178018033504486
1782836480829140000,3.018139892578125,-0.052067503333091736,-0.05542591214179993,0.06626646965742111
1782836480839069000,3.02806884765625,-0.06482090055942535,-0.03453923016786575,0.04140181839466095
1782836480848998100,3.037998046875,-0.06943722814321518,-0.0045150211080908775,0.017079966142773628
1782836480858927000,3.047927001953125,-0.0570727102458477,0.031397707760334015,-0.008739380165934563
1782836480868856800,3.05785693359375,-0.04110625758767128,0.0491894856095314,-0.04187096655368805
1782836480878785800,3.067785888671875,-0.015049155801534653,0.0339261069893837,-0.06536600738763809
1782836480888715000,3.077715087890625,0.0003883903846144676,0.020183127373456955,-0.07003532350063324
1782836480898644000,3.08764404296875,0.002392166294157505,-0.020994970574975014,-0.06470543146133423
1782836480908573000,3.097572998046875,-0.0019815433770418167,-0.049580276012420654,-0.04262809082865715
1782836480918502000,3.107501953125,-0.0018616728484630585,-0.05191176384687424,-0.012152450159192085
1782836480928431000,3.11743115234375,0.002504579722881317,-0.041612785309553146,0.013082333840429783
1782836480938360000,3.127360107421875,0.004499455448240042,-0.024825319647789,0.04230288416147232
1782836480948289000,3.1372890625,0.0011904779821634293,-0.011685549281537533,0.05997055768966675
1782836480958219000,3.147218994140625,-0.008515863679349422,-0.023312222212553024,0.06396424770355225
1782836480968148000,3.15714794921875,-0.015897881239652634,-0.032474029809236526,0.051618628203868866
1782836480978077000,3.167076904296875,-0.00910017266869545,-0.012249416671693325,0.01682218722999096
1782836480988006000,3.177005859375,0.008435944095253944,0.019598795101046562,-0.030061697587370872
1782836480997935000,3.18693505859375,0.02865663915872574,0.04667941480875015,-0.07473619282245636
1782836481007864000,3.196864013671875,0.04294662922620773,0.057824209332466125,-0.09525398164987564
1782836481017793000,3.20679296875,0.04068451002240181,0.05848056823015213,-0.08374835550785065
1782836481027722000,3.216721923828125,0.02708081528544426,0.02816341072320938,-0.04966095834970474
1782836481037652000,3.22665185546875,0.0035067396238446236,-0.024649018421769142,-0.0024925172328948975
1782836481047581000,3.236580810546875,-0.013986766338348389,-0.05334378033876419,0.050127819180488586
1782836481057510000,3.246510009765625,-0.024001622572541237,-0.06823252141475677,0.09574629366397858
1782836481067439000,3.256439208984375,-0.030926642939448357,-0.0595727264881134,0.12929441034793854
1782836481077368000,3.2663681640625,-0.014185049571096897,0.008718496188521385,0.14075854420661926
1782836481087297000,3.276297119140625,0.013465486466884613,0.06660736352205276,0.11972168833017349
1782836481097226000,3.28622607421875,0.04012928158044815,0.05334847420454025,0.06845516711473465
1782836481107156000,3.296156005859375,0.05643608048558235,0.011651623994112015,0.01460818201303482
1782836481117085000,3.3060849609375,0.05776409059762955,-0.04287907853722572,-0.025264637544751167
1782836481127014000,3.316013916015625,0.03504546731710434,-0.058839138597249985,-0.0391804538667202
1782836481136942800,3.32594287109375,0.0029849857091903687,-0.06373124569654465,-0.04034123569726944
1782836481146872000,3.3358720703125,-0.01915839873254299,-0.05664937198162079,-0.027908265590667725
1782836481156801000,3.345801025390625,-0.03090829774737358,-0.03876582533121109,-0.023277319967746735
1782836481166730000,3.35572998046875,-0.023399248719215393,-0.02991747483611107,-0.02229035273194313
1782836481176659000,3.365658935546875,-0.007597773335874081,-0.02499770000576973,-0.015869148075580597
1782836481186589000,3.3755888671875,0.014754137955605984,0.01579953171312809,0.000615021213889122
1782836481196518000,3.385517822265625,0.030187200754880905,0.03821215778589249,0.009956790134310722
1782836481206446800,3.39544677734375,0.030741140246391296,0.041511815041303635,0.01576860621571541
1782836481216376000,3.4053759765625,0.020517051219940186,0.04585885629057884,0.01998870074748993
1782836481226305000,3.415304931640625,0.006494710221886635,0.02166297286748886,0.011543548665940762
1782836481236234000,3.42523388671875,-0.005611457861959934,-0.014337524771690369,-0.000017209909856319427
1782836481246163000,3.435162841796875,-0.007056756876409054,-0.04704434052109718,-0.015339973382651806
1782836481256092200,3.445092041015625,0.0005552573129534721,-0.04926031455397606,-0.01263897679746151
1782836481266022000,3.45502197265625,0.004002452827990055,-0.005652384366840124,0.002716011367738247
1782836481275950800,3.464950927734375,0.009621091187000275,0.030139397829771042,0.017628995701670647
1782836481285879800,3.4748798828125,-0.003866754472255707,0.02090754732489586,0.016002869233489037
1782836481295809000,3.48480908203125,-0.011565420776605606,-0.0029224175959825516,0.009054416790604591
1782836481305738000,3.494738037109375,-0.006807683035731316,-0.03173862025141716,-0.005985785275697708
1782836481315667000,3.5046669921875,-0.006360752508044243,-0.05254931002855301,-0.02263588272035122
1782836481325596000,3.514595947265625,-0.004507724195718765,-0.044279132038354874,-0.033631809055805206
1782836481335525000,3.524525146484375,-0.002828833647072315,-0.010622072964906693,-0.04240231215953827
1782836481345454800,3.534454833984375,-0.007327445782721043,0.013644916005432606,-0.048184834420681
1782836481355383800,3.5443837890625,-0.029024221003055573,-0.017624322324991226,-0.04704020544886589
1782836481365313000,3.55431298828125,-0.03393721953034401,-0.008670242503285408,-0.006610758602619171
1782836481375244800,3.564244873046875,-0.028037212789058685,0.016188044100999832,0.05730258673429489
1782836481385174000,3.574174072265625,-0.020951606333255768,0.022094668820500374,0.11796433478593826
1782836481395103000,3.58410302734375,-0.021220862865447998,0.005334901623427868,0.1537826657295227
1782836481405032000,3.594031982421875,-0.013102748431265354,-0.04312797263264656,0.17982545495033264
1782836481414961000,3.6039609375,-0.022339418530464172,-0.06494549661874771,0.18236741423606873
1782836481424891000,3.613890869140625,-0.03538571298122406,-0.11273591965436935,0.15999473631381989
1782836481434819800,3.62381982421875,-0.03637545928359032,-0.08480940014123917,0.11948316544294357
1782836481444748800,3.633748779296875,-0.02368735894560814,-0.04916086047887802,0.06241641938686371
1782836481454678000,3.643677978515625,-0.011475767940282822,-0.004027210175991058,0.010580017231404781
1782836481464607000,3.65360693359375,-0.005838654935359955,0.028671879321336746,-0.05022074654698372
1782836481474536000,3.663535888671875,-0.0019329627975821495,0.023033741861581802,-0.09515571594238281
1782836481484465000,3.67346484375,0.005666633136570454,0.022831343114376068,-0.11759151518344879
1782836481494394000,3.68339404296875,0.009310496971011162,0.023195013403892517,-0.11045749485492706
1782836481504323800,3.69332373046875,-0.005081758834421635,0.014685147441923618,-0.0786401778459549
1782836481514252800,3.703252685546875,-0.02986534684896469,0.0048291003331542015,-0.03876468166708946
1782836481524182000,3.71318212890625,-0.052944034337997437,-0.01885119453072548,-0.016631949692964554
1782836481534111000,3.723111083984375,-0.06663902848958969,-0.04655180498957634,-0.0019196481443941593
1782836481544040000,3.7330400390625,-0.061973437666893005,-0.05004613846540451,0.004896446131169796
1782836481553969000,3.742968994140625,-0.03962498903274536,-0.023494955152273178,0.01657227799296379
1782836481563897900,3.75289794921875,-0.015238690190017223,0.028744012117385864,0.03479548916220665
1782836481573827000,3.7628271484375,0.015909265726804733,0.08063037693500519,0.04794960469007492
1782836481583756800,3.7727568359375,0.04390920698642731,0.10391999036073685,0.04850061982870102
1782836481593685800,3.782685791015625,0.06128856912255287,0.0888867974281311,0.0278451107442379
1782836481603615000,3.792614990234375,0.05642084404826164,0.052304551005363464,0.007324123755097389
1782836481613544000,3.8025439453125,0.04601448029279709,0.0147707499563694,-0.008983843959867954
1782836481623473000,3.812472900390625,0.028215773403644562,0.0008892891928553581,-0.012085627764463425
1782836481633401900,3.82240185546875,0.005773969925940037,-0.0027361037209630013,-0.0143715376034379
1782836481643331000,3.8323310546875,-0.018760401755571365,-0.013955468311905861,-0.026086250320076942
1782836481653260000,3.842260009765625,-0.034049760550260544,-0.014571008272469044,-0.05006419122219086
1782836481663190000,3.85218994140625,-0.029310930520296097,-0.02318766713142395,-0.07361878454685211
1782836481673119000,3.862118896484375,-0.008448260836303234,-0.02632167376577854,-0.08032356202602386
1782836481683048000,3.8720478515625,0.00983504205942154,-0.00808012206107378,-0.06376022100448608
1782836481692977000,3.881976806640625,0.024797648191452026,-0.00004593748599290848,-0.038406044244766235
1782836481702905900,3.89190576171875,0.029138334095478058,-0.02488790452480316,-0.008412990719079971
1782836481712835000,3.9018349609375,0.020433606579899788,-0.0494583323597908,0.016902495175600052
1782836481722764000,3.911763916015625,-0.002781168557703495,-0.057434238493442535,0.03474380820989609
1782836481732693000,3.92169287109375,-0.02910207025706768,-0.05320875719189644,0.026285333558917046
1782836481742622000,3.9316220703125,-0.03005894459784031,-0.029538847506046295,-0.007187137380242348
1782836481752552000,3.941552001953125,-0.0035507604479789734,0.011490913107991219,-0.0467863604426384
1782836481762481000,3.95148095703125,0.022918930277228355,0.03507640212774277,-0.0855550616979599
1782836481772409900,3.961409912109375,0.03599834069609642,0.04604580998420715,-0.09412551671266556
1782836481782338800,3.9713388671875,0.0316467359662056,0.04367533326148987,-0.07847731560468674
1782836481792268000,3.98126806640625,0.010044250637292862,0.01053385715931654,-0.04686974734067917
1782836481802197000,3.991197021484375,-0.02083110809326172,-0.031205065548419952,-0.018067926168441772
1782836481812126000,4.0011259765625,-0.023642659187316895,-0.046204302459955215,0.01092619076371193
1782836481822055000,4.011054931640625,-0.008825895376503468,-0.035857122391462326,0.027494248002767563
1782836481831985000,4.02098486328125,-0.003986122086644173,-0.004028919152915478,0.02463199757039547
1782836481841913900,4.030913818359375,0.0023889532312750816,0.04269171506166458,0.007711069658398628
1782836481851842800,4.0408427734375,0.009600961580872536,0.05119408294558525,-0.03186022490262985
1782836481861772000,4.05077197265625,0.012979980558156967,0.04288049414753914,-0.054449960589408875
1782836481871701000,4.060700927734375,0.013005645014345646,0.04081685096025467,-0.048027023673057556
1782836481881630000,4.0706298828125,-0.0037214038893580437,0.0026878388598561287,-0.020720038563013077
1782836481891559000,4.080558837890625,-0.019132543355226517,-0.03077629953622818,0.01299571804702282
1782836481901489000,4.090489013671875,-0.01620493084192276,-0.04124358668923378,0.0508408360183239
1782836481911417900,4.10041796875,-0.012884218245744705,-0.01964760199189186,0.07724492251873016
1782836481921346800,4.110346923828125,-0.0047740936279296875,0.015662983059883118,0.08320747315883636
1782836481931276000,4.120276123046875,0.004977759439498186,0.045390255749225616,0.054589107632637024
1782836481941205000,4.130205078125,0.00004558544605970383,0.05132590979337692,-0.006975449621677399
1782836481951134000,4.140134033203125,0.007342003285884857,0.037480808794498444,-0.07713833451271057
1782836481961063000,4.15006298828125,0.01813126727938652,0.03205941244959831,-0.10643363744020462
1782836481970991900,4.159991943359375,0.0157942995429039,0.02255364879965782,-0.09880520403385162
1782836481980921900,4.169921875,0.0011306675150990486,0.015254189260303974,-0.05792488157749176
1782836481990850800,4.179850830078125,-0.01759771630167961,-0.003375306725502014,-0.004884278867393732
1782836482000779800,4.18977978515625,-0.03716129809617996,-0.03987099975347519,0.031140565872192383
1782836482010709000,4.199708984375,-0.05199950560927391,-0.0574844628572464,0.04974375665187836
1782836482020638000,4.209637939453125,-0.04350482299923897,-0.047528233379125595,0.05852019786834717
1782836482030567000,4.21956689453125,-0.031213413923978806,-0.037019431591033936,0.05896589905023575
1782836482040495900,4.229495849609375,-0.00026002340018749237,-0.00488999392837286,0.053818006068468094
1782836482050425000,4.239425048828125,0.02615327760577202,0.007553551346063614,0.04398071765899658
1782836482060355000,4.24935498046875,0.03579205647110939,0.0021611833944916725,0.024820340797305107
1782836482070283800,4.25928369140625,0.030757535248994827,0.0072926683351397514,0.014179935678839684
1782836482080213000,4.269212890625,0.0032742461189627647,0.01621052995324135,-0.001267196610569954
1782836482090142000,4.279141845703125,-0.03892965987324715,0.018871089443564415,-0.028113137930631638
1782836482100071000,4.28907080078125,-0.05706152692437172,0.03799472004175186,-0.055353015661239624
1782836482109999900,4.298999755859375,-0.05814950913190842,0.03680438920855522,-0.07861041277647018
1782836482119929000,4.30892919921875,-0.0446680523455143,0.011589842848479748,-0.07842105627059937
1782836482129858000,4.318858154296875,-0.02647453546524048,0.005350385792553425,-0.053692273795604706
1782836482139788000,4.3287880859375,-0.007598318159580231,-0.004931279923766851,-0.01604529656469822
1782836482149716700,4.338716796875,0.009454349055886269,-0.002455144189298153,0.027798784896731377
1782836482159646000,4.34864599609375,0.023465504869818687,0.0074571408331394196,0.05568714439868927
1782836482169575000,4.358574951171875,0.03578212112188339,0.006089453585445881,0.06462899595499039
1782836482179503900,4.36850390625,0.04394897073507309,0.022144854068756104,0.05488262325525284
1782836482189432800,4.378432861328125,0.03250812739133835,0.01813204027712345,0.02563757263123989
1782836482199362000,4.388362060546875,0.016898011788725853,-0.0028526028618216515,-0.0009887120686471462
1782836482209291000,4.398291015625,-0.003477162681519985,-0.012199916876852512,-0.02284601703286171
1782836482219220000,4.408219970703125,-0.022833019495010376,-0.01623833365738392,-0.03445233777165413
1782836482229150000,4.41814990234375,-0.033254846930503845,-0.020924853160977364,-0.035593509674072266
1782836482239079000,4.428078857421875,-0.03387509658932686,-0.013041097670793533,-0.026206135749816895
1782836482249007900,4.4380078125,-0.03158724680542946,-0.02679571695625782,-0.028346946462988853
1782836482258936800,4.447936767578125,-0.01643012836575508,-0.04293873533606529,-0.02243339642882347
1782836482268866000,4.457865966796875,0.010556786321103573,-0.039225414395332336,-0.0021793870255351067
1782836482278795000,4.467794921875,0.03372948616743088,-0.02571253478527069,0.013800378888845444
1782836482288724000,4.477723876953125,0.048280585557222366,-0.001993918791413307,0.01960861310362816
1782836482298653000,4.48765283203125,0.05011257529258728,0.0213359072804451,0.015012796968221664
1782836482308583000,4.4975830078125,0.043095678091049194,0.02052781730890274,-0.002830320503562689
1782836482318511900,4.507511962890625,0.019826311618089676,0.009132417850196362,-0.018513942137360573
1782836482328440800,4.51744091796875,-0.01739579066634178,-0.002406221814453602,-0.020221110433340073
1782836482338369800,4.527369873046875,-0.045465245842933655,-0.02174902707338333,-0.013659879565238953
1782836482348299000,4.537299072265625,-0.05487946793437004,-0.0387125238776207,-0.00042877672240138054
1782836482358228000,4.54722802734375,-0.040392134338617325,-0.03270922601222992,0.013626853935420513
1782836482368154400,4.557154296875,-0.014447493478655815,-0.0170438289642334,0.0209512896835804
1782836482378083300,4.567083251953125,0.013759643770754337,-0.009127050638198853,0.010800119489431381
1782836482388013000,4.577012939453125,0.0357808843255043,0.013910219073295593,0.0029135579243302345
1782836482397942300,4.5869423828125,0.05746167525649071,0.04309127479791641,-0.011620111763477325
1782836482407871200,4.596871337890625,0.08285783231258392,0.07221031188964844,-0.013424251228570938
1782836482417800200,4.60680029296875,0.09825170785188675,0.08790591359138489,-0.007310166023671627
1782836482427729200,4.616729248046875,0.08710495382547379,0.05639159306883812,-0.004272902384400368
1782836482437658400,4.626658447265625,0.06432320922613144,-0.015560624189674854,-0.0021602166816592216
1782836482447587300,4.63658740234375,0.029429279267787933,-0.034528736025094986,0.012949559837579727
1782836482457516300,4.646516357421875,-0.015427938662469387,-0.040610332041978836,0.02861160784959793
1782836482467446300,4.6564462890625,-0.048058800399303436,-0.0514167882502079,0.034593794494867325
1782836482477375200,4.666375244140625,-0.05681341513991356,-0.05735723301768303,0.013475725427269936
1782836482487304200,4.67630419921875,-0.027926579117774963,-0.042577262967824936,-0.022462254390120506
1782836482497233200,4.686233154296875,0.0031996481120586395,-0.011759962886571884,-0.05962347239255905
1782836482507162400,4.696162353515625,0.03073565661907196,0.023659581318497658,-0.08163966983556747
1782836482517091300,4.70609130859375,0.0604858323931694,0.0712721049785614,-0.06551875919103622
1782836482527020300,4.716020263671875,0.07220252603292465,0.0883093848824501,-0.02631182037293911
1782836482536949200,4.72594921875,0.07886575907468796,0.08185601234436035,0.020030111074447632
1782836482546879200,4.735879150390625,0.07489320635795593,0.06450292468070984,0.06445490568876266
1782836482556808200,4.74580810546875,0.06427118927240372,0.016116218641400337,0.09526927769184113
1782836482566737200,4.755737060546875,0.01889280043542385,-0.036797896027565,0.11251655220985413
1782836482576666000,4.765666015625,-0.03884133696556091,-0.06891215592622757,0.10083593428134918
1782836482586595300,4.77559521484375,-0.07815992087125778,-0.07589934766292572,0.049914002418518066
1782836482596524300,4.785524169921875,-0.07733380794525146,-0.05635920166969299,-0.023039299994707108
1782836482606453200,4.795453369140625,-0.04973037913441658,-0.010342593304812908,-0.0981271043419838
1782836482616382200,4.80538232421875,-0.0057943472638726234,0.06698840856552124,-0.16063548624515533
1782836482626312200,4.815312255859375,0.05486276000738144,0.1481131613254547,-0.18633322417736053
1782836482636241200,4.8252412109375,0.10811719298362732,0.20291650295257568,-0.17112764716148376
1782836482646170000,4.835170166015625,0.13294543325901031,0.19161099195480347,-0.13399231433868408
1782836482656099300,4.845099365234375,0.11608949303627014,0.1455492228269577,-0.07593779265880585
1782836482666028300,4.8550283203125,0.08378233760595322,0.04807079955935478,-0.0077875759452581406
1782836482675957200,4.864957275390625,0.04901636391878128,-0.038922686129808426,0.04107530415058136
1782836482685886200,4.87488623046875,-0.004951726645231247,-0.09504622220993042,0.0744432732462883
1782836482695815400,4.8848154296875,-0.05931989848613739,-0.09116332978010178,0.08481229096651077
1782836482705745200,4.8947451171875,-0.07219752669334412,-0.04994595795869827,0.06318797171115875
1782836482715674000,4.904674072265625,-0.052947402000427246,0.004756433889269829,0.015069441869854927
1782836482725603000,4.91460302734375,-0.023930704221129417,0.03874894231557846,-0.057189181447029114
1782836482735532300,4.9245322265625,0.010957506485283375,0.0780303031206131,-0.12251891195774078
1782836482745461200,4.934461181640625,0.04891850799322128,0.09058425575494766,-0.15917399525642395
1782836482755390200,4.94439013671875,0.07151170819997787,0.08564542233943939,-0.15959611535072327
1782836482765319200,4.954319091796875,0.08453218638896942,0.09274396300315857,-0.11215038597583771
1782836482775248400,4.964248291015625,0.07138389348983765,0.08827464282512665,-0.04680973291397095
1782836482785178000,4.97417822265625,0.06141587719321251,0.0767458975315094,0.005505245178937912
1782836482795107000,4.984107177734375,0.042367350310087204,0.025379907339811325,0.04383718594908714
1782836482805036300,4.994036376953125,0.0053948634304106236,-0.02013305388391018,0.05327722430229187
1782836482814965200,5.00396533203125,-0.006105998530983925,-0.06347706913948059,0.06223876029253006
1782836482824894200,5.013894287109375,-0.018008995801210403,-0.07477819174528122,0.0665259137749672
1782836482834823200,5.0238232421875,-0.023332655429840088,-0.047660283744335175,0.05832364410161972
1782836482844752400,5.03375244140625,-0.01586287096142769,-0.009077920578420162,0.022995121777057648
1782836482854681300,5.043681396484375,0.0012540649622678757,0.019631223753094673,-0.020445561036467552
1782836482864611000,5.053611083984375,0.008061723783612251,0.017710085958242416,-0.07195528596639633
1782836482874540300,5.063540283203125,0.006289124023169279,0.00031138770282268524,-0.08768311887979507
1782836482884469200,5.07346923828125,-0.011020115576684475,-0.008483896031975746,-0.06504540890455246
1782836482894398200,5.083398193359375,-0.023640569299459457,-0.024250343441963196,-0.020024940371513367
1782836482904327200,5.0933271484375,-0.03329714387655258,-0.04398343339562416,0.029250122606754303
1782836482914256400,5.10325634765625,-0.021153397858142853,-0.060500625520944595,0.075466088950634
1782836482924185300,5.113185302734375,-0.018439671024680138,-0.07386187463998795,0.09930023550987244
1782836482934114300,5.1231142578125,-0.02277689427137375,-0.07624087482690811,0.1098191887140274
1782836482944044000,5.1330439453125,-0.02333415485918522,-0.07906770706176758,0.10165558755397797
1782836482953973200,5.14297314453125,-0.03236573189496994,-0.07732865959405899,0.05637999251484871
1782836482963902200,5.152902099609375,-0.02657739259302616,-0.05521997809410095,-0.005095757078379393
1782836482973831200,5.1628310546875,-0.020050784572958946,-0.02788209542632103,-0.04804562032222748
1782836482983760100,5.172760009765625,0.002895236946642399,0.019850464537739754,-0.06129312142729759
1782836482993689300,5.182689453125,0.008869506418704987,0.053669944405555725,-0.05086284875869751
1782836483003618300,5.192618408203125,0.010189907625317574,0.05183481425046921,-0.006527557969093323
1782836483013547300,5.20254736328125,-0.0035898201167583466,0.03920051455497742,0.03821594640612602
1782836483023477200,5.212477294921875,-0.02249358966946602,-0.008176296949386597,0.06650948524475098
1782836483033406200,5.22240625,-0.030833277851343155,-0.03876350075006485,0.0774414986371994
1782836483043335200,5.232335205078125,-0.011643254198133945,-0.04865414276719093,0.0748809427022934
1782836483053264100,5.24226416015625,0.015534836798906326,-0.059255123138427734,0.06733167171478271
1782836483063193300,5.252193359375,0.02156630903482437,-0.06155480444431305,0.057196762412786484
1782836483073122300,5.262122314453125,0.019352158531546593,-0.04873620718717575,0.03882574662566185
1782836483083051300,5.27205126953125,0.009258490055799484,-0.03198392689228058,0.009332597255706787
1782836483092980200,5.281980224609375,-0.0009536668658256531,-0.01038568839430809,-0.02038135565817356
1782836483102910200,5.29191015625,-0.003684970550239086,0.01658124290406704,-0.04430630803108215
1782836483112839200,5.301839111328125,-0.014256921596825123,0.034910183399915695,-0.05525243282318115
1782836483122768100,5.31176806640625,-0.02161158248782158,0.03495721518993378,-0.05061928927898407
1782836483132697000,5.321697021484375,-0.015470598824322224,0.019415272399783134,-0.032593950629234314
1782836483142626300,5.331626220703125,-0.013094845227897167,-0.00039203371852636337,-0.007149829994887114
1782836483152555300,5.34155517578125,-0.01016563456505537,-0.007285359315574169,0.0189206525683403
1782836483162484200,5.351484130859375,-0.0065297894179821014,-0.005270109046250582,0.04484138637781143
1782836483172413200,5.3614130859375,0.00434443075209856,-0.017062053084373474,0.06676266342401505
1782836483182342400,5.37134228515625,0.009248850867152214,-0.006557972636073828,0.07512121647596359
1782836483192272100,5.381272216796875,0.021483145654201508,0.001451483927667141,0.06533835828304291
1782836483202201000,5.391201171875,0.031120916828513145,-0.01920350268483162,0.03522577881813049
1782836483212130300,5.40113037109375,0.02718396671116352,-0.04561806470155716,0.00291417445987463
1782836483222059300,5.411059326171875,0.02632763236761093,-0.05213816463947296,-0.024023374542593956
1782836483231988200,5.42098828125,0.01239530649036169,-0.03731607645750046,-0.03446695953607559
1782836483241917200,5.430917236328125,-0.012553002685308456,-0.02508300170302391,-0.040177054703235626
1782836483251846400,5.440846435546875,-0.028897887095808983,-0.012611949816346169,-0.05270989239215851
1782836483261775400,5.450775390625,-0.015218854881823063,0.006961105391383171,-0.057390689849853516
1782836483271705000,5.460705078125,-0.004704962484538555,-0.003261171281337738,-0.055696383118629456
1782836483281634300,5.47063427734375,-0.004876706749200821,-0.01045958325266838,-0.04270066320896149
1782836483291563300,5.480563232421875,-0.0007581282407045364,0.0032743392512202263,-0.03214336186647415
1782836483301492200,5.4904921875,0.008163584396243095,-0.008997541852295399,-0.01589234173297882
1782836483311421200,5.500421142578125,0.005192827899008989,-0.04278932511806488,-0.008803804405033588
1782836483321350100,5.51035009765625,-0.00016376841813325882,-0.04943064600229263,0.0012752655893564224
1782836483331279400,5.520279296875,-0.00020398199558258057,-0.0401439368724823,0.013305563479661942
1782836483341208300,5.530208251953125,0.007698735222220421,-0.024849891662597656,0.030335932970046997
1782836483351138000,5.540137939453125,0.01893594302237034,0.0024158181622624397,0.05429159849882126
1782836483361067300,5.5500673828125,0.031109914183616638,0.02176162227988243,0.06566888839006424
1782836483370995000,5.559994873046875,0.029159151017665863,0.019857197999954224,0.06400495022535324
1782836483380924000,5.569923828125,0.01602756604552269,0.015093409456312656,0.03789888322353363
1782836483390853000,5.57985302734375,0.00992226880043745,0.008039229549467564,-0.0044461749494075775
1782836483400782000,5.589781982421875,0.0058321584947407246,-0.004970960319042206,-0.04677820950746536
1782836483410711000,5.5997109375,0.008965101093053818,0.006694484502077103,-0.0733935758471489
1782836483420640000,5.609639892578125,0.012633687816560268,0.010300558991730213,-0.07043319195508957
1782836483430570200,5.6195703125,0.016782626509666443,-0.0003792503848671913,-0.04278585687279701
1782836483440499000,5.6294990234375,0.02290826104581356,0.005977218970656395,0.004913941957056522
1782836483450428000,5.639427978515625,0.031199747696518898,0.004534851759672165,0.04983081668615341
1782836483460357000,5.649357177734375,0.015857264399528503,-0.030772235244512558,0.07660692185163498
1782836483470286000,5.6592861328125,-0.009763943962752819,-0.04776453599333763,0.07799150049686432
1782836483480215000,5.669215087890625,-0.019076745957136154,-0.05432198941707611,0.06361474841833115
1782836483490144000,5.67914404296875,-0.027387138456106186,-0.06571445614099503,0.03773494437336922
1782836483500073200,5.6890732421875,-0.023580465465784073,-0.026831286028027534,0.010676177218556404
1782836483510003200,5.699003173828125,-0.002074909396469593,0.030098840594291687,-0.012297848239541054
1782836483519932000,5.708931884765625,0.013048128224909306,0.04360130429267883,-0.03697778284549713
1782836483529860900,5.71886083984375,0.011551165021955967,0.02955099754035473,-0.06425867229700089
1782836483539790000,5.7287900390625,0.0076485686004161835,0.02527875266969204,-0.0656626895070076
1782836483549719000,5.738718994140625,0.000852447934448719,0.013765640556812286,-0.05412027984857559
1782836483559648000,5.74864794921875,-0.00881335698068142,-0.011715366505086422,-0.03482562303543091
1782836483569577000,5.758576904296875,-0.0211616363376379,-0.03507102280855179,0.0005555376410484314
1782836483579506200,5.768506103515625,-0.010294404812157154,-0.022915832698345184,0.03615178167819977
1782836483589436200,5.778436279296875,0.008292595855891705,-0.029795045033097267,0.06574375927448273
1782836483599365000,5.788365234375,0.01939491555094719,-0.034214891493320465,0.08754546195268631
1782836483609294000,5.798294189453125,0.017497414723038673,-0.008395278826355934,0.09035909175872803
1782836483619223000,5.80822314453125,0.016267091035842896,-0.004517491906881332,0.07215376943349838
1782836483629152000,5.818152099609375,0.015610621310770512,-0.024451518431305885,0.03839313983917236
1782836483639081000,5.8280810546875,0.01346916239708662,-0.029966892674565315,0.0000957045704126358
1782836483649010200,5.83801025390625,0.009446990676224232,-0.02114277333021164,-0.030949030071496964
1782836483658939100,5.847939208984375,0.0064788684248924255,0.007909003645181656,-0.04267735034227371
1782836483668869000,5.857869140625,0.005023451056331396,0.04251278564333916,-0.04013216495513916
1782836483678798000,5.867798095703125,-0.002659444697201252,0.05027000606060028,-0.029174011200666428
1782836483688727000,5.87772705078125,-0.00791785679757595,0.03844929486513138,-0.021331800147891045
1782836483698656000,5.887656005859375,-0.004574245773255825,0.026129744946956635,-0.00555112399160862
1782836483708585000,5.8975849609375,0.005066663958132267,0.012570526450872421,0.011005748063325882
1782836483718514200,5.90751416015625,0.020481109619140625,0.011136072687804699,0.0353354848921299
1782836483728443100,5.917443115234375,0.04126841202378273,0.013869808055460453,0.06621084362268448
1782836483738372000,5.9273720703125,0.0512215830385685,0.01820901408791542,0.09302493184804916
1782836483748302000,5.937302001953125,0.051029834896326065,0.027313031256198883,0.10287969559431076
1782836483758231000,5.94723095703125,0.041066210716962814,0.02664666250348091,0.07981090992689133
1782836483768160000,5.957159912109375,0.03021436184644699,0.021259889006614685,0.023256557062268257
1782836483778092000,5.967092041015625,0.01670149713754654,0.009647054597735405,-0.04098697006702423
1782836483788021000,5.97702099609375,-0.01187954656779766,-0.013955210335552692,-0.0965314507484436
1782836483797951000,5.986950927734375,-0.035225894302129745,-0.034121159464120865,-0.12182334065437317
1782836483807880200,5.996880126953125,-0.03846083581447601,-0.02572447992861271,-0.11280401796102524
1782836483817809200,6.00680908203125,-0.02420227602124214,-0.024171775206923485,-0.08099900931119919
1782836483827738000,6.016738037109375,-0.0017614150419831276,-0.02359120547771454,-0.03955116868019104
1782836483837667000,6.0266669921875,0.023507066071033478,-0.02773851528763771,0.012984861619770527
1782836483847596300,6.03659619140625,0.036487311124801636,-0.009617035277187824,0.06429944187402725
1782836483857525000,6.04652490234375,0.04299699142575264,0.016056640073657036,0.09694104641675949
1782836483867454000,6.056453857421875,0.05292179062962532,0.01667688973248005,0.11156845837831497
1782836483877384200,6.06638427734375,0.05862891674041748,0.018792124465107918,0.10282181948423386
1782836483887313200,6.076313232421875,0.05940895900130272,0.03318757563829422,0.07501841336488724
1782836483897242000,6.0862421875,0.05314651504158974,0.04347282648086548,0.04239851236343384
1782836483907171000,6.096171142578125,0.047417525202035904,0.04123497009277344,-0.015827510505914688
1782836483917100300,6.106100341796875,0.04588267579674721,-0.003660525195300579,-0.07744257152080536
1782836483927029200,6.116029296875,0.03818933665752411,-0.008155940100550652,-0.10111860930919647
1782836483936958000,6.1259580078125,0.013762839138507843,-0.03782900422811508,-0.09559183567762375
1782836483946887000,6.135886962890625,-0.012967575341463089,-0.0630912184715271,-0.054957322776317596
1782836483956817200,6.145817138671875,-0.02213602140545845,-0.024220630526542664,0.003155956044793129
1782836483966746000,6.15574609375,-0.009094790555536747,0.03628399223089218,0.04595854878425598
1782836483976675000,6.165675048828125,0.023150689899921417,0.0666780099272728,0.06205153465270996
1782836483986604000,6.17560400390625,0.04717080667614937,0.06020332872867584,0.0298099797219038
1782836483996533200,6.185533203125,0.05043618753552437,0.011974708177149296,-0.02215413935482502
1782836484006462200,6.195462158203125,0.03987036645412445,-0.025597434490919113,-0.059313759207725525
1782836484016391000,6.205390869140625,0.020113371312618256,-0.024491701275110245,-0.07323180884122849
1782836484026320000,6.21531982421875,0.005504069849848747,-0.0019898544996976852,-0.06251470744609833
1782836484036250000,6.22525,-0.0008294191211462021,0.013275193981826305,-0.029674336314201355
1782836484046179000,6.235178955078125,-0.0130368173122406,0.016201473772525787,-0.0012482884339988232
1782836484056108000,6.24510791015625,-0.019700665026903152,0.008409262634813786,0.010999253019690514
1782836484066037200,6.255037353515625,-0.013177518732845783,-0.0028519146144390106,0.01578149013221264
1782836484075966200,6.26496630859375,-0.003020135685801506,-0.03903568163514137,0.028980186209082603
1782836484085895200,6.274895263671875,-0.0022629983723163605,-0.053010083734989166,0.05824406445026398
1782836484095824100,6.28482421875,-0.00785248726606369,-0.07091344147920609,0.08919832110404968
1782836484105753000,6.294753173828125,-0.008909761905670166,-0.08500635623931885,0.11640011519193649
1782836484115682000,6.30468212890625,-0.0083743492141366,-0.07004940509796143,0.13028386235237122
1782836484125612000,6.314612060546875,-0.006241423077881336,-0.040510423481464386,0.11983415484428406
1782836484135541200,6.324541259765625,-0.009475145488977432,0.0029788045212626457,0.07686235755681992
1782836484145470200,6.33447021484375,-0.0063944011926651,0.03975093364715576,0.006451571360230446
1782836484155399200,6.344399169921875,0.007178288418799639,0.05976272001862526,-0.057121045887470245
1782836484165328100,6.354328125,0.0027585066854953766,0.0345069020986557,-0.09561304748058319
1782836484175257000,6.364257080078125,-0.025380775332450867,-0.004466025158762932,-0.11387784779071808
1782836484185186000,6.37418603515625,-0.03899352625012398,-0.03184598311781883,-0.11367438733577728
1782836484195115000,6.384114990234375,-0.03617896884679794,-0.04861469194293022,-0.10052081942558289
1782836484205045000,6.394044921875,-0.025281047448515892,-0.03584589809179306,-0.0705658495426178
1782836484214974200,6.40397412109375,-0.020304134115576744,-0.007151670753955841,-0.02876274660229683
1782836484224903200,6.413903076171875,-0.016586225479841232,0.023004569113254547,0.021554481238126755
1782836484234832100,6.42383203125,-0.002271869219839573,0.02324751392006874,0.06315919011831284
1782836484244761000,6.433760986328125,0.016160666942596436,0.015916630625724792,0.08215045928955078
1782836484254690000,6.44368994140625,0.019924595952033997,-0.0035301512107253075,0.08879344910383224
1782836484264619000,6.453618896484375,0.011709009297192097,-0.009445032104849815,0.08127401769161224
1782836484274548000,6.4635478515625,-0.014555688016116619,-0.013533706776797771,0.052789751440286636
1782836484284478200,6.473478271484375,-0.03741519898176193,-0.01837586611509323,0.009656928479671478
1782836484294407200,6.4834072265625,-0.042183294892311096,-0.0035906806588172913,-0.030979158356785774
1782836484304336100,6.493336181640625,-0.03814593702554703,0.012954473495483398,-0.053971823304891586
1782836484314265000,6.50326513671875,-0.03220811486244202,0.033217210322618484,-0.05791263282299042
1782836484324194300,6.5131943359375,-0.02085266076028347,0.051458533853292465,-0.04480801522731781
1782836484334123000,6.523123046875,-0.004021286964416504,0.028419334441423416,-0.035373929888010025
1782836484344052000,6.533052001953125,0.010219167917966843,-0.008039872162044048,-0.022911401465535164
1782836484353981000,6.54298095703125,0.01998003013432026,-0.05595279857516289,-0.009576121345162392
1782836484363911200,6.5529111328125,0.02504776045680046,-0.09249456226825714,0.011480161920189857
1782836484373840600,6.562840576171875,0.020941738039255142,-0.07811687886714935,0.03819340467453003
1782836484383769600,6.57276953125,0.0068733226507902145,-0.04355836659669876,0.05376596748828888
1782836484393698600,6.582698486328125,-0.007368076592683792,-0.013415670022368431,0.04566638171672821
1782836484403627500,6.59262744140625,-0.019315548241138458,-0.009794836863875389,0.01864834502339363
1782836484413556500,6.602556396484375,-0.02288397215306759,-0.03343523293733597,0.0015452727675437927
1782836484423485400,6.6124853515625,-0.026530103757977486,-0.05374183505773544,-0.00004703085869550705
1782836484433414400,6.622414306640625,-0.027567049488425255,-0.03016461431980133,0.014841502532362938
1782836484443343400,6.63234326171875,-0.01442514918744564,-0.00023760925978422165,0.02449199929833412
1782836484453273600,6.642273681640625,0.0034411558881402016,0.01367474440485239,0.023607097566127777
1782836484463202600,6.65220263671875,0.012622936628758907,0.01486917119473219,0.011445507407188416
1782836484473131500,6.662131591796875,0.005939675960689783,0.009158330969512463,-0.010182870551943779
1782836484483060500,6.672060546875,-0.001152321696281433,0.000544336624443531,-0.03751462697982788
1782836484492989400,6.681989501953125,-0.005449702963232994,-0.011853422969579697,-0.06261490285396576
1782836484502918400,6.69191845703125,-0.005807098001241684,-0.013290464878082275,-0.06840008497238159
1782836484512847400,6.701847412109375,-0.015152407810091972,-0.013516005128622055,-0.045104995369911194
1782836484522777600,6.711777587890625,-0.03296682611107826,0.0043516745790839195,-0.009266304783523083
1782836484532706600,6.72170654296875,-0.04199199378490448,0.0153349619358778,0.01450258307158947
1782836484542635500,6.731635498046875,-0.03183629363775253,0.019748087972402573,0.01342160627245903
1782836484552564700,6.741564697265625,-0.013519978150725365,0.016595758497714996,-0.004409835673868656
1782836484562493400,6.751493408203125,0.0035815108567476273,0.013428459875285625,-0.01836373284459114
1782836484572422400,6.76142236328125,0.027083421126008034,0.027640674263238907,-0.011602569371461868
1782836484582351400,6.771351318359375,0.027884766459465027,0.031249254941940308,0.007294422946870327
1782836484592280600,6.781280517578125,0.012624981813132763,0.018972232937812805,0.0289157722145319
1782836484602209500,6.79120947265625,-0.0044320328161120415,-0.004937094636261463,0.040625691413879395
1782836484612139500,6.801139404296875,-0.01598583348095417,-0.041844554245471954,0.03946460038423538
1782836484622068500,6.811068359375,-0.022985421121120453,-0.046791642904281616,0.038208652287721634
1782836484631997700,6.820997802734375,-0.029424220323562622,-0.023267243057489395,0.024352803826332092
1782836484641926400,6.830926513671875,-0.031136363744735718,-0.004097276367247105,-0.0022668233141303062
1782836484651855400,6.84085546875,-0.033784739673137665,0.005179962143301964,-0.04235666245222092
1782836484661784300,6.850784423828125,-0.023867394775152206,0.0018709851428866386,-0.07827045023441315
1782836484671713500,6.860713623046875,-0.00805986113846302,-0.004005446098744869,-0.08541975915431976
1782836484681642500,6.870642578125,-0.012000806629657745,-0.023560771718621254,-0.059360988438129425
1782836484691572500,6.880572509765625,-0.024716423824429512,-0.014711422845721245,-0.01779870316386223
1782836484701501700,6.890501708984375,-0.016248103231191635,0.018800731748342514,0.01902322843670845
1782836484711430700,6.9004306640625,0.011172868311405182,0.04362991452217102,0.03550446778535843
1782836484721359600,6.910359619140625,0.032966047525405884,0.04970139265060425,0.03402561694383621
1782836484731288300,6.920288330078125,0.03847174718976021,0.03177301958203316,0.027039458975195885
1782836484741217500,6.930217529296875,0.02602493017911911,-0.0018848106265068054,0.011873023584485054
1782836484751146500,6.940146484375,0.014593265019357204,-0.01675163395702839,0.005491625517606735
1782836484761075500,6.950075439453125,-0.005539167672395706,-0.029494594782590866,0.004559253342449665
1782836484771005400,6.96000537109375,-0.037466712296009064,-0.03495795279741287,0.004019187763333321
1782836484780934700,6.9699345703125,-0.05923432856798172,-0.006351344753056765,-0.006777267437428236
1782836484790863600,6.979863525390625,-0.05231453478336334,0.0207742378115654,-0.024808485060930252
1782836484800792600,6.98979248046875,-0.03531104326248169,0.03806747496128082,-0.052084051072597504
1782836484810721300,6.99972119140625,-0.003786640241742134,0.0506497398018837,-0.07128483057022095
1782836484820650500,7.009650390625,0.02541731856763363,0.052333660423755646,-0.05980207771062851
1782836484830579500,7.019579345703125,0.03551546856760979,0.022397927939891815,-0.01675816811621189
1782836484840508400,7.02950830078125,0.0194731205701828,-0.009834576398134232,0.03976955637335777
1782836484850438700,7.039438720703125,-0.0006469227373600006,-0.02789015881717205,0.09850110113620758
1782836484860367600,7.04936767578125,-0.021964993327856064,-0.03991752862930298,0.13149712979793549
1782836484870296600,7.059296630859375,-0.032421015202999115,-0.03732531517744064,0.1263045072555542
1782836484880225500,7.0692255859375,-0.025325024500489235,-0.03199872374534607,0.07981345057487488
1782836484890154500,7.079154541015625,-0.011864672414958477,-0.004983095917850733,0.003147595562040806
1782836484900083500,7.08908349609375,0.008509041741490364,0.0407702773809433,-0.07394824922084808
1782836484910012400,7.099012451171875,0.021997641772031784,0.0676780641078949,-0.12737944722175598
1782836484919941400,7.10894140625,0.016543220728635788,0.06180606037378311,-0.146202951669693
1782836484929870600,7.11887060546875,0.00890791229903698,0.040148504078388214,-0.1287008821964264
1782836484939800600,7.128800537109375,0.0027456246316432953,-0.016524361446499825,-0.07731997221708298
1782836484949729500,7.1387294921875,0.004337354097515345,-0.051864586770534515,-0.011640172451734543
1782836484959658500,7.148658447265625,0.006634596735239029,-0.05150985345244408,0.06184310093522072
1782836484969587500,7.15858740234375,-0.006030184216797352,-0.035931795835494995,0.1157732903957367
1782836484979516400,7.168516357421875,-0.02547765150666237,-0.01227999571710825,0.12573084235191345
1782836484989445400,7.1784453125,-0.03185870498418808,0.0032790182158350945,0.0927162915468216
1782836484999374300,7.188374267578125,-0.021292882040143013,0.018954120576381683,0.025679731741547585
1782836485009303600,7.198303466796875,-0.008104659616947174,0.03065723553299904,-0.04993078485131264
1782836485019233500,7.208233642578125,0.0019381213933229446,0.04619491472840309,-0.10693654417991638
1782836485029162500,7.21816259765625,0.0033150501549243927,0.034763138741254807,-0.13309814035892487
1782836485039091700,7.228091796875,-0.003542856313288212,0.02189154550433159,-0.11432446539402008
1782836485049020400,7.2380205078125,-0.00529043935239315,-0.0009452076628804207,-0.06460821628570557
1782836485058949400,7.247949462890625,-0.00589417852461338,-0.009615395218133926,0.0010192645713686943
1782836485068878300,7.25787841796875,0.0028355494141578674,-0.02519853040575981,0.05899885296821594
1782836485078807600,7.2678076171875,0.01461231429129839,-0.0029906965792179108,0.09896837174892426
1782836485088736500,7.277736572265625,0.0046621887013316154,-0.023372679948806763,0.09033024311065674
1782836485098666500,7.28766650390625,0.00584915978834033,-0.06829541176557541,0.057086534798145294
1782836485108595700,7.297595703125,0.020244624465703964,-0.04510757327079773,0.022062618285417557
1782836485118524700,7.307524658203125,0.01871943287551403,-0.011678778566420078,-0.014964375644922256
1782836485128453400,7.317453369140625,0.007579871453344822,-0.005652296356856823,-0.0480436347424984
1782836485138382300,7.32738232421875,0.008420631289482117,0.017837584018707275,-0.0633472204208374
1782836485148311600,7.3373115234375,-0.001124827191233635,0.013236447237432003,-0.06993238627910614
1782836485158240500,7.347240478515625,-0.018408475443720818,-0.007183607202023268,-0.05996737256646156
1782836485168169500,7.35716943359375,-0.023513739928603172,-0.007075606845319271,-0.02803749032318592
1782836485178099500,7.367099365234375,-0.02944166772067547,-0.006575731560587883,0.005356417968869209
1782836485188028700,7.377028564453125,-0.034175071865320206,-0.008386379107832909,0.04809102043509483
1782836485197957600,7.38695751953125,-0.033994246274232864,-0.006569037679582834,0.07883214950561523
1782836485207886300,7.39688623046875,-0.020850028842687607,-0.007729800883680582,0.09127283096313477
1782836485217815300,7.406815185546875,-0.009666615165770054,-0.009071767330169678,0.08706450462341309
1782836485227744500,7.41674462890625,-0.001469029113650322,-0.010131435468792915,0.06715980917215347
1782836485237673500,7.426673583984375,0.0030809808522462845,-0.02020191214978695,0.03802535682916641
1782836485247602400,7.4366025390625,-0.00471912045031786,-0.031036872416734695,0.0032578138634562492
1782836485257531400,7.446531494140625,-0.021022461354732513,-0.01825210079550743,-0.021332483738660812
1782836485267461600,7.456461669921875,-0.03430873155593872,0.005572342313826084,-0.04294107109308243
1782836485277390600,7.466390625,-0.04319969192147255,0.03246520832180977,-0.04691663756966591
1782836485287319300,7.4763193359375,-0.045307379215955734,0.0648706778883934,-0.035914693027734756
1782836485297248500,7.48624853515625,-0.04073047265410423,0.06358596682548523,-0.01207567285746336
1782836485307177500,7.496177490234375,-0.02950577437877655,0.026165273040533066,0.01070400234311819
1782836485317106400,7.5061064453125,0.006303087808191776,-0.01880965568125248,0.0427977554500103
1782836485327035400,7.516035400390625,0.039302241057157516,-0.03551124036312103,0.06076321750879288
1782836485336964600,7.525964599609375,0.0534694567322731,-0.0346720814704895,0.058512575924396515
1782836485346894600,7.53589453125,0.05691731348633766,-0.028664372861385345,0.024641109630465508
1782836485356823600,7.545823486328125,0.0518338717520237,-0.026447825133800507,-0.016659459099173546
1782836485366752800,7.555752685546875,0.03283621370792389,-0.029573842883110046,-0.052336230874061584
1782836485376682000,7.565681884765625,0.00693697202950716,-0.022236566990613937,-0.06964757293462753
1782836485386611000,7.57561083984375,-0.02233012020587921,0.004623400047421455,-0.07375301420688629
1782836485396540000,7.585539794921875,-0.03511595353484154,0.009409898892045021,-0.06228464096784592
1782836485406468900,7.59546875,-0.025714416056871414,-0.006718216463923454,-0.04743306338787079
1782836485416398000,7.605398193359375,-0.006458432413637638,-0.021709416061639786,-0.025244401767849922
1782836485426328000,7.615328125,0.005645871628075838,-0.030281977728009224,-0.009062792174518108
1782836485436256800,7.6252568359375,0.018440762534737587,-0.03511188551783562,0.0036218436434865
1782836485446186000,7.63518603515625,0.02831410989165306,-0.009941776283085346,0.011046158149838448
1782836485456115000,7.645114990234375,0.03198234736919403,0.021488584578037262,0.019455621019005775
1782836485466044000,7.6550439453125,0.02157706953585148,0.032854609191417694,0.017946267500519753
1782836485475972900,7.664972900390625,-0.0029863305389881134,0.012928838841617107,0.009367693215608597
1782836485485902000,7.674902099609375,-0.009797388687729836,-0.003642345778644085,-0.00995190255343914
1782836485495831000,7.6848310546875,-0.007696419954299927,-0.00830420944839716,-0.030847331508994102
1782836485505761000,7.694760986328125,-0.009737934917211533,-0.0008060680702328682,-0.054866544902324677
1782836485515689700,7.704689697265625,-0.002966315485537052,0.020973529666662216,-0.0669434517621994
1782836485525619000,7.714618896484375,0.003168141469359398,0.03251999616622925,-0.07646584510803223
1782836485535548000,7.7245478515625,0.011826344765722752,0.03874513506889343,-0.07676811516284943
1782836485545476900,7.734476806640625,0.028215067461133003,0.027251776307821274,-0.06251006573438644
1782836485555405800,7.74440576171875,0.033350177109241486,-0.006125354673713446,-0.027827180922031403
1782836485565335000,7.7543349609375,0.04552850127220154,-0.03387690335512161,0.028063908219337463
1782836485575264000,7.764263916015625,0.048708584159612656,-0.02490151859819889,0.08608779311180115
1782836485585193000,7.77419287109375,0.034241002053022385,-0.03161473572254181,0.12052073329687119
1782836485595123000,7.784123046875,0.020267397165298462,-0.030804600566625595,0.12611284852027893
1782836485605052000,7.794052001953125,0.007745975628495216,-0.023749519139528275,0.09889952838420868
1782836485614980900,7.80398095703125,-0.004802039824426174,-0.019977683201432228,0.05068299174308777
1782836485624909800,7.813909912109375,-0.011864185333251953,0.00504637137055397,-0.01323690265417099
1782836485634839000,7.823839111328125,-0.004909073933959007,0.01773100718855858,-0.07067196071147919
1782836485644768000,7.83376806640625,-0.0007449155673384666,0.013086535036563873,-0.10967674851417542
1782836485654697000,7.843697021484375,0.002722785808146,0.003577984869480133,-0.11923190206289291
1782836485664626000,7.8536259765625,0.0026940535753965378,0.007126759737730026,-0.09299442172050476
1782836485674556000,7.863555908203125,-0.010130398906767368,0.023528367280960083,-0.03976741433143616
1782836485684484900,7.87348486328125,-0.028401196002960205,0.030706990510225296,0.008306171745061874
1782836485694413800,7.883413818359375,-0.03229233995079994,0.026375625282526016,0.037324775010347366
1782836485704343000,7.893343017578125,-0.02519717440009117,-0.013750067912042141,0.05047730356454849
1782836485714272000,7.90327197265625,-0.017206359654664993,-0.057069048285484314,0.04771054536104202
1782836485724201000,7.913200927734375,0.0015769144520163536,-0.08095014840364456,0.0426044687628746
1782836485734130000,7.9231298828125,0.025268927216529846,-0.06665030121803284,0.041048116981983185
1782836485744059000,7.933058837890625,0.04482649266719818,-0.02568182349205017,0.04350171983242035
1782836485753988900,7.94298876953125,0.04920153319835663,0.027018671855330467,0.0287584587931633
1782836485763917800,7.952917724609375,0.034395523369312286,0.06172475591301918,-0.0026466804556548595
1782836485773846800,7.9628466796875,0.01829778030514717,0.06498579680919647,-0.04732386767864227
1782836485783776000,7.97277587890625,0.0038168015889823437,0.06116195023059845,-0.0870935246348381
1782836485793705000,7.982705078125,-0.01599258929491043,0.040323249995708466,-0.10495241731405258
1782836485803634000,7.992634033203125,-0.04442031681537628,-0.002552201971411705,-0.09936245530843735
1782836485813563000,8.00256298828125,-0.05279596149921417,-0.02472648024559021,-0.05675693601369858
1782836485823492000,8.0124921875,-0.04127347469329834,-0.03255826234817505,0.013700971379876137
1782836485833421000,8.022421142578125,-0.029805900529026985,-0.051798801869153976,0.0773041844367981
1782836485843350800,8.032350830078125,-0.02101966366171837,-0.058551643043756485,0.11417847126722336
1782836485853280000,8.042280029296874,0.006182127632200718,-0.05244767665863037,0.09936702996492386
1782836485863209000,8.052208984375,0.04482150450348854,-0.037749480456113815,0.04132847487926483
1782836485873138000,8.062137939453125,0.07412506639957428,-0.01823250576853752,-0.02487371303141117
1782836485883067000,8.07206689453125,0.07355689257383347,0.0018048835918307304,-0.07494794577360153
1782836485892996000,8.08199609375,0.042302295565605164,0.021777259185910225,-0.0887090340256691
1782836485902925000,8.091925048828125,-0.0005354061722755432,0.027379028499126434,-0.07647246867418289
1782836485912854000,8.10185400390625,-0.03216283768415451,0.02776918187737465,-0.03442168980836868
1782836485922783700,8.11178369140625,-0.0479472354054451,0.02592393197119236,0.00027612410485744476
1782836485932713000,8.121712890625,-0.04667530953884125,0.00834573619067669,0.022015774622559547
1782836485942642000,8.131641845703125,-0.023237597197294235,-0.021807260811328888,0.020723897963762283
1782836485952571000,8.14157080078125,0.009282795712351799,-0.05705792456865311,0.019058890640735626
1782836485962499800,8.151499755859374,0.040692608803510666,-0.05578235536813736,0.01314334012567997
1782836485972429000,8.161428955078126,0.04932737350463867,-0.031310029327869415,0.015362551435828209
1782836485982358000,8.17135791015625,0.034942470490932465,-0.020337548106908798,0.01739371009171009
1782836485992287000,8.181286865234375,0.015974102541804314,0.011260058730840683,0.023558128625154495
1782836486002217000,8.191217041015625,-0.014491579495370388,0.03335326910018921,0.011957142502069473
1782836486012146000,8.20114599609375,-0.037737514823675156,0.023709697648882866,-0.006888183765113354
1782836486022075000,8.211074951171875,-0.04533327370882034,-0.007672985550016165,-0.03245076537132263
1782836486032003800,8.22100390625,-0.022431951016187668,-0.02113553136587143,-0.04474072530865669
1782836486041933000,8.23093310546875,0.011708841659128666,-0.012604299932718277,-0.03251068294048309
1782836486051862000,8.240862060546876,0.034122537821531296,0.011907700449228287,0.00040305592119693756
1782836486061791000,8.250791015625,0.0380515530705452,0.03712308406829834,0.03849050775170326
1782836486071720000,8.260719970703125,0.030392033979296684,0.038298606872558594,0.06750218570232391
1782836486081649200,8.270649169921874,0.0076977564021945,0.007967513985931873,0.06531129777431488
1782836486091579000,8.280578857421874,-0.013441883027553558,-0.035807132720947266,0.03876517713069916
1782836486101507800,8.2905078125,-0.012953685596585274,-0.024905666708946228,0.020292561501264572
1782836486111437000,8.30043701171875,-0.015732161700725555,0.0035938844084739685,0.007661454379558563
1782836486121366000,8.310365966796875,-0.030399758368730545,0.021963149309158325,0.005020155571401119
1782836486131295000,8.320294921875,-0.03024902194738388,0.02976248413324356,0.005529885180294514
1782836486141224000,8.330223876953125,-0.005590437911450863,0.023966915905475616,0.008080961182713509
1782836486151153000,8.34015283203125,0.016512466594576836,-0.02265411615371704,0.006755505688488483
1782836486161082000,8.35008203125,0.024757826700806618,-0.04831664264202118,0.0033392151817679405
1782836486171011800,8.36001171875,0.03170521557331085,-0.026979930698871613,0.010637341067194939
1782836486180940800,8.36994091796875,0.030251702293753624,-0.013130084611475468,0.011066514998674393
1782836486190870000,8.3798701171875,0.0021620113402605057,-0.021708127111196518,0.005825414322316647
1782836486200799000,8.389799072265625,-0.03115379810333252,-0.020105775445699692,-0.007151741534471512
1782836486210728000,8.39972802734375,-0.04644700139760971,-0.009588953107595444,-0.03553704172372818
1782836486220657000,8.409656982421875,-0.050057269632816315,-0.0031905127689242363,-0.05592307820916176
1782836486230586000,8.419586181640625,-0.035368338227272034,0.04502654820680618,-0.05426632612943649
1782836486240515000,8.42951513671875,-0.009766124188899994,0.05619844049215317,-0.035735055804252625
1782836486250444800,8.43944482421875,0.002895609475672245,0.023761939257383347,-0.004257293418049812
1782836486260374000,8.4493740234375,0.009749392047524452,-0.016949951648712158,0.03144163638353348
1782836486270303000,8.459302978515625,0.02075170911848545,-0.03603815659880638,0.053697142750024796
1782836486280232000,8.46923193359375,0.038729824125766754,-0.030697133392095566,0.06101597845554352
1782836486290161000,8.479160888671874,0.037583332508802414,-0.02856287732720375,0.0574907511472702
1782836486300090000,8.489090087890625,0.01566658914089203,-0.024207761511206627,0.04516835883259773
1782836486310019000,8.49901904296875,-0.0025872495025396347,0.007228458300232887,0.029721759259700775
1782836486319948000,8.508947998046875,-0.014551113359630108,0.014582489617168903,0.008060288615524769
1782836486329877800,8.518877685546874,-0.029841918498277664,0.014415244571864605,-0.018998760730028152
1782836486339807000,8.528806884765626,-0.02893681824207306,0.013451970182359219,-0.05130986124277115
1782836486349736000,8.53873583984375,-0.013310190290212631,0.0079232482239604,-0.08387020230293274
1782836486359665000,8.548664794921875,0.006263192277401686,0.0019007259979844093,-0.09979269653558731
1782836486369594000,8.558593994140624,0.013790350407361984,-0.0028953608125448227,-0.10324175655841827
1782836486379523000,8.568523193359376,0.01588740572333336,-0.009870817884802818,-0.08478923887014389
1782836486389452000,8.5784521484375,0.015493790619075298,-0.013912963680922985,-0.03981216996908188
1782836486399381200,8.58838134765625,0.01634172908961773,0.0030234409496188164,0.018412936478853226
1782836486409310200,8.598310302734374,0.006563134025782347,-0.004984418395906687,0.07792472839355469
1782836486419240000,8.608239990234376,-0.012911983765661716,-0.028086017817258835,0.11010976135730743
1782836486429169200,8.618169189453125,-0.02306448668241501,-0.05388619005680084,0.10833130776882172
1782836486439098000,8.62809814453125,-0.01617305725812912,-0.06149912625551224,0.08505146205425262
1782836486449027000,8.638027099609374,-0.0005858438089489937,-0.0016999728977680206,0.07678554207086563
1782836486458956000,8.6479560546875,0.015948181971907616,0.06124086678028107,0.06970904022455215
1782836486468885200,8.65788525390625,0.015324736945331097,0.06829238682985306,0.05740790069103241
1782836486478814200,8.667814208984375,0.013095306232571602,0.047962039709091187,0.03046371415257454
1782836486488743200,8.6777431640625,0.02234259992837906,0.020679818466305733,-0.002431116998195648
1782836486498673200,8.687673095703126,0.029450925067067146,-0.002303897403180599,-0.0353190153837204
1782836486508602000,8.69760205078125,0.022650010883808136,-0.010566353797912598,-0.05910184234380722
1782836486518531000,8.707531005859375,0.0033465800806879997,-0.02047206275165081,-0.07011441886425018
1782836486528460000,8.7174599609375,-0.02189592644572258,-0.04219386726617813,-0.07855451107025146
1782836486538389200,8.72738916015625,-0.03280654177069664,-0.056925076991319656,-0.07117429375648499
1782836486548318200,8.737318115234375,-0.023631155490875244,-0.06313823163509369,-0.0505603551864624
1782836486558247200,8.7472470703125,-0.006525654345750809,-0.03908441588282585,-0.019923971965909004
1782836486568176000,8.757176025390624,0.0073044076561927795,0.0023304009810090065,0.006102834828197956
1782836486578105000,8.76710498046875,0.023257847875356674,0.03141539543867111,0.014951059594750404
1782836486588035000,8.77703515625,0.034160297363996506,0.04181823506951332,0.01455717720091343
1782836486597964000,8.786964111328125,0.026870548725128174,0.04673866182565689,0.00364528875797987
1782836486607893000,8.79689306640625,0.004285344388335943,0.034316882491111755,-0.010985584929585457
1782836486617822200,8.806822265625,-0.016197148710489273,0.015087820589542389,-0.023065032437443733
1782836486627751200,8.816751220703125,-0.021364746615290642,0.015076635405421257,-0.02883264049887657
1782836486637680000,8.82668017578125,-0.024234499782323837,0.012509273365139961,-0.03052704781293869
1782836486647609000,8.836609130859374,-0.023138873279094696,-0.000056585296988487244,-0.024607906118035316
1782836486657538000,8.8465380859375,-0.013939431868493557,0.003613588400185108,-0.01777363196015358
1782836486667468000,8.856468017578125,0.0018603038042783737,0.00009502004832029343,-0.011499489657580853
1782836486677397000,8.86639697265625,0.02071555331349373,0.00506014097481966,-0.0032392675057053566
1782836486687326200,8.876326171875,0.03527798503637314,0.010082595981657505,0.013048093765974045
1782836486697255200,8.886255126953126,0.0312483087182045,0.0032784976065158844,0.023817451670765877
1782836486707184000,8.89618408203125,0.0188723336905241,-0.010113208554685116,0.03503841161727905
1782836486717113000,8.906113037109375,0.0047004674561321735,-0.019020387902855873,0.03364303708076477
1782836486727042300,8.916042236328124,-0.00424455851316452,-0.016085583716630936,0.019721094518899918
1782836486736971300,8.92597119140625,-0.002927682362496853,-0.0129150515422225,0.007787955924868584
1782836486746901000,8.93590087890625,-0.00793282687664032,-0.02215355634689331,-0.007639470510184765
1782836486756830000,8.945829833984375,-0.0008213883265852928,-0.015260230749845505,-0.005844499915838242
1782836486766759200,8.95575927734375,0.005978205241262913,-0.0004922365769743919,0.002680126577615738
1782836486776688000,8.965688232421876,0.004940371494740248,-0.01471271738409996,0.02502591162919998
1782836486786617000,8.9756171875,0.003776303492486477,-0.024371203035116196,0.04222913458943367
1782836486796546000,8.985546142578125,0.0026761116459965706,-0.030481640249490738,0.05584839731454849
1782836486806475300,8.995475341796874,-0.0005178172141313553,-0.04823320358991623,0.04741070792078972
1782836486816404200,9.005404296875,0.0037719961255788803,-0.04029928892850876,0.028280630707740784
1782836486826333000,9.0153330078125,0.005104375537484884,-0.020582575350999832,0.006292506121098995
1782836486836263200,9.02526318359375,-0.007243392989039421,-0.01596725918352604,-0.014646828174591064
1782836486846192000,9.035192138671874,-0.01463526301085949,0.0052120620384812355,-0.027066746726632118
1782836486856121000,9.04512109375,-0.00904636550694704,0.03261948376893997,-0.03651149570941925
1782836486866050000,9.055050048828125,-0.0007410310208797455,0.05212102085351944,-0.04298936575651169
1782836486875979300,9.064979248046875,0.0032435040920972824,0.06683570891618729,-0.03649052605032921
1782836486885908200,9.074908203125,-0.003837308846414089,0.0574193000793457,-0.024873284623026848
1782836486895837200,9.084837158203126,-0.013137402944266796,0.028751781210303307,-0.006788186728954315
1782836486905766000,9.094765869140625,-0.017976101487874985,0.00488399900496006,0.004555015824735165
1782836486915696000,9.104696044921875,-0.01182752288877964,-0.010324397124350071,0.021039508283138275
1782836486925625000,9.114625,0.010075113736093044,-0.018747176975011826,0.039388686418533325
1782836486935554000,9.124553955078126,0.03502807021141052,-0.015134075656533241,0.055861569941043854
1782836486945483300,9.134483154296875,0.050747111439704895,-0.00595043133944273,0.06494081765413284
1782836486955412200,9.144412109375,0.04590984061360359,-0.01148542482405901,0.053154587745666504
1782836486965341200,9.154341064453124,0.030691739171743393,-0.017876479774713516,0.02297857776284218
1782836486975270100,9.164270263671876,0.015140307135879993,-0.002601880580186844,-0.012795745395123959
1782836486985198800,9.17419873046875,-0.0006035016849637032,0.00957622192800045,-0.042290784418582916
1782836486995128000,9.184128173828125,-0.017254440113902092,0.006787403486669064,-0.06491358578205109
1782836487005058000,9.19405810546875,-0.017892800271511078,0.011618909426033497,-0.08815286308526993
1782836487014987000,9.203987060546876,-0.005137324333190918,0.01254355814307928,-0.08104994893074036
1782836487024916200,9.213916259765625,0.0016524046659469604,0.02214904874563217,-0.048598531633615494
1782836487034845200,9.22384521484375,-0.003456813283264637,0.010851344093680382,0.0026772208511829376
1782836487044774100,9.233774169921874,-0.002584894187748432,0.003992373123764992,0.05205649137496948
1782836487054703000,9.243703125,0.005973411723971367,-0.023835375905036926,0.08761125802993774
1782836487064632000,9.253632080078125,0.00993220042437315,-0.04369696229696274,0.08117572963237762
1782836487074561000,9.26356103515625,0.01168785523623228,-0.043472155928611755,0.05003530904650688
1782836487084491000,9.273490966796874,0.014284171164035797,-0.025890499353408813,0.012326814234256744
1782836487094420200,9.283420166015626,0.013179977424442768,0.0013310154899954796,-0.026178166270256042
1782836487104349200,9.29334912109375,0.02442357689142227,0.02977224439382553,-0.04819851368665695
1782836487114278100,9.303278076171875,0.03533460572361946,0.03307052701711655,-0.056830041110515594
1782836487124207000,9.31320703125,0.03671279177069664,0.016491280868649483,-0.047384604811668396
1782836487134136300,9.32313623046875,0.029532480984926224,0.0033541200682520866,-0.03552956134080887
1782836487144062000,9.33306201171875,0.014973511919379234,-0.0048936898820102215,-0.021717343479394913
1782836487153991000,9.342990966796876,-0.006601247936487198,-0.014527595601975918,-0.002590117510408163
1782836487163920100,9.352920166015625,-0.02941627986729145,-0.01950531080365181,0.011241542175412178
1782836487173849000,9.36284912109375,-0.027045436203479767,0.0012197140604257584,0.018721748143434525
1782836487183778000,9.372778076171874,-0.0022141244262456894,0.04039907455444336,0.02026265487074852
1782836487193707000,9.38270703125,0.025980450212955475,0.0505414679646492,0.01317951176315546
1782836487203637200,9.39263720703125,0.04231122136116028,0.04097699373960495,0.01251105684787035
1782836487213566000,9.40256591796875,0.03811062127351761,0.017391681671142578,0.00394079927355051
1782836487223495000,9.412494873046874,0.02301768958568573,-0.0027330275624990463,0.002125055529177189
1782836487233424100,9.422424072265626,0.002281147986650467,-0.021570580080151558,0.0062396591529250145
1782836487243353000,9.43235302734375,-0.010887916199862957,-0.038337573409080505,0.010921762324869633
1782836487253282000,9.442281982421875,-0.022011488676071167,-0.03583329916000366,0.0012659309431910515
1782836487263211000,9.4522109375,-0.027414776384830475,-0.013892048969864845,-0.004855610430240631
1782836487273140200,9.46214013671875,-0.018847277387976646,0.019046198576688766,-0.01819774881005287
1782836487283070200,9.4720703125,-0.004175124689936638,0.03764145448803902,-0.024696925655007362
1782836487292999000,9.4819990234375,0.0067467824555933475,0.037205640226602554,-0.025294363498687744
1782836487302928100,9.49192822265625,0.005620531737804413,0.020722538232803345,-0.017905689775943756
1782836487312857000,9.501857177734376,0.005254637449979782,0.008582187816500664,-0.010337023064494133
1782836487322786000,9.5117861328125,0.00891275517642498,0.0002464940771460533,-0.008362289518117905
1782836487332715000,9.521715087890625,0.018726984038949013,-0.03754088282585144,-0.004308146424591541
1782836487342644000,9.53164404296875,0.028672024607658386,-0.04977145045995712,0.017294883728027344
1782836487352573200,9.5415732421875,0.02817652001976967,-0.04717379808425903,0.04155391827225685
1782836487362502100,9.551502197265625,0.01163909025490284,-0.03865141421556473,0.05839468538761139
1782836487372432000,9.561431884765625,-0.001032843254506588,-0.010016733780503273,0.061304446309804916
1782836487382361000,9.571361083984375,-0.01148974522948265,0.016676662489771843,0.044930264353752136
1782836487392290000,9.5812900390625,-0.018434692174196243,0.02152441069483757,0.004728981293737888
1782836487402219000,9.591218994140625,-0.016834929585456848,0.033479608595371246,-0.0417514368891716
1782836487412148000,9.60114794921875,-0.00806876365095377,0.029246337711811066,-0.07802265137434006
1782836487422077200,9.6110771484375,0.004906423389911652,0.019138574600219727,-0.09282743185758591
1782836487432006100,9.621006103515626,0.017097730189561844,0.017261572182178497,-0.08468963950872421
1782836487441935000,9.63093505859375,0.026265662163496017,0.017311906442046165,-0.04916493594646454
1782836487451865000,9.640864990234375,0.011292543262243271,0.016315240412950516,-0.004645963199436665
1782836487461794000,9.6507939453125,-0.026292115449905396,-0.007584234233945608,0.015007100068032742
1782836487471723000,9.660722900390626,-0.06007000058889389,-0.032724954187870026,0.01084243506193161
1782836487481652000,9.67065185546875,-0.058293938636779785,-0.011707022786140442,-0.014712992124259472
1782836487491581200,9.680581298828125,-0.04303080216050148,0.01589994877576828,-0.04808690398931503
1782836487501510100,9.69051025390625,-0.04326729103922844,0.007779170759022236,-0.09126260131597519
1782836487511439000,9.700439208984376,-0.05200476944446564,0.0016214782372117043,-0.12121723592281342
1782836487521368000,9.7103681640625,-0.037004515528678894,0.04910857230424881,-0.13623666763305664
1782836487531297300,9.72029736328125,-0.032489947974681854,0.04118262603878975,-0.1475524604320526
1782836487541227000,9.73022705078125,-0.03168727457523346,0.041451338678598404,-0.143430694937706
1782836487551156000,9.740156005859374,-0.020284753292798996,-0.01868622936308384,-0.13689306378364563
1782836487561085000,9.7500849609375,0.005589187145233154,-0.1661587804555893,-0.10666777193546295
1782836487571014100,9.76001416015625,0.012189606204628944,-0.20547494292259216,0.028683265671133995
1782836487580943000,9.769943115234375,-0.013282463885843754,-0.38019242882728577,0.11722191423177719
1782836487590872000,9.7798720703125,-0.019688401371240616,-0.4448344111442566,0.12730653584003448
1782836487600801000,9.789801025390625,0.009886534884572029,-0.32627901434898376,0.09009738266468048
1782836487610730200,9.799730224609375,0.03173729032278061,-0.2115611582994461,0.035203225910663605
1782836487620660000,9.809659912109375,0.0355280339717865,-0.03413098677992821,0.004815492779016495
1782836487630589000,9.8195888671875,0.016159331426024437,0.12601764500141144,-0.021988525986671448
1782836487640518100,9.82951806640625,0.02616935595870018,0.1699182689189911,-0.03476530686020851
1782836487650447000,9.839447021484375,0.05031668767333031,0.17816990613937378,-0.01835518516600132
1782836487660376000,9.8493759765625,0.0448545441031456,0.14571183919906616,0.0231656264513731
