time,seconds_elapsed,z,y,x
1782835587508322800,0.08532275390625,-0.09331716612279414,-0.023158971898513844,0.011170140246674417
1782835587518253600,0.095253662109375,-0.07880407212376594,-0.028647171218367292,0.05767696681246161
1782835587528183800,0.105183837890625,-0.11203004989922045,-0.04912114638318307,0.03878364843521267
1782835587538113500,0.115113525390625,-0.07028934175670147,-0.08782134518548845,-0.01677157698292285
1782835587548043800,0.125043701171875,-0.0982774188786745,-0.11443911120179108,-0.035634061830490824
1782835587557973500,0.134973388671875,-0.07867781539559364,-0.11251418015435337,0.021219277106784284
1782835587567903700,0.14490380859375,-0.10352058022916316,-0.09588378347409889,0.0757287928642705
1782835587577834500,0.15483447265625,-0.10950725342333316,-0.08306832370581105,0.06689608258921653
1782835587587764700,0.1647646484375,-0.08751344828009605,-0.0642305257749278,0.036777569309808314
1782835587597694700,0.17469482421875,-0.08078618585169314,-0.05076596358129754,0.01470383079815656
1782835587607624400,0.18462451171875,-0.07735153522789477,-0.03392497919055167,0.006987301604077219
1782835587617554700,0.1945546875,-0.08797522057294845,-0.028321350497216916,0.015923216525278984
1782835587627485700,0.204485595703125,-0.07225801148116588,-0.03864585196629632,0.043911257114633916
1782835587637415700,0.214415771484375,-0.0887228240698576,-0.03792965053793741,0.07608239207491278
1782835587647345700,0.224345703125,-0.09113046973347663,-0.06380689353537745,0.031283264476153996
1782835587657275600,0.234275634765625,-0.07992050893306732,-0.10084060216387733,-0.019214549688249826
1782835587667205600,0.24420556640625,-0.09788637373447417,-0.10337355470759793,-0.026006657513789833
1782835587677136600,0.25413671875,-0.09729133045077323,-0.09262282718308269,0.025584979769308118
1782835587687066600,0.264066650390625,-0.0904085851997137,-0.07226548240156844,0.06146419373359531
1782835587696996600,0.27399658203125,-0.10612228716015815,-0.057445692506968044,0.03566120556574315
1782835587706926600,0.283926513671875,-0.07829553807973862,-0.04296495270784944,0.010664857605658471
1782835587716856800,0.29385693359375,-0.08114917394518852,-0.020529226183122955,-0.007682590391859412
1782835587726787600,0.30378759765625,-0.06903437325954437,-0.026213384183205197,-0.012772460876777768
1782835587736717800,0.3137177734375,-0.08878653695583343,-0.03305149342480581,0.010805453386437147
1782835587746647600,0.3236474609375,-0.08713701618313789,-0.045135309883719305,0.055877424843516196
1782835587756577800,0.333577880859375,-0.0923784239679575,-0.05694688983908854,0.062495089417602866
1782835587766507500,0.343507568359375,-0.10017068527936934,-0.07925819083312526,0.02346338450545445
1782835587776438800,0.353438720703125,-0.08371873217225075,-0.10828004971593617,-0.024529588964860884
1782835587786368500,0.363368408203125,-0.07818564796447754,-0.10387983286245725,0.01105950121274218
1782835587796298800,0.373298828125,-0.08716390419006347,-0.08205431522452272,0.05688925050087273
1782835587806228700,0.383228759765625,-0.09195230751037597,-0.05474577219877392,0.049753516869433224
1782835587816158500,0.393158447265625,-0.10093348634541034,-0.04690732452492229,0.02705669628968462
1782835587826089700,0.40308984375,-0.07490881825089454,-0.028959573052229824,0.010415303291380405
1782835587836019700,0.413019775390625,-0.08435469198822974,-0.026559176830016074,-0.003844181272760033
1782835587845949700,0.42294970703125,-0.07748013004362583,-0.024398564730025826,-0.008150865490734576
1782835587855879400,0.43287939453125,-0.09393968193531035,-0.03442885989234783,0.013601696508843452
1782835587865809700,0.4428095703125,-0.0976893898576498,-0.038180526876333165,0.057090837487578386
1782835587875736800,0.45273681640625,-0.09591770401000976,-0.06251515495809726,0.047463835029676556
1782835587885667000,0.4626669921875,-0.09369301369786262,-0.09659154815096407,-0.007544515361730009
1782835587895597000,0.47259716796875,-0.08412672845125198,-0.10252312102387659,-0.016129059561993925
1782835587905527000,0.482527099609375,-0.09131693221628666,-0.07874706297321245,0.014449618575070053
1782835587915457000,0.49245703125,-0.09086860392689704,-0.06442347279745153,0.04033016549116
1782835587925388000,0.502387939453125,-0.08638006033599376,-0.03227047171548474,0.03485093036247417
1782835587935318000,0.512318115234375,-0.08892799125313758,-0.01996779290807899,0.009256561710312961
1782835587945248000,0.522248046875,-0.07322773329615592,-0.00954694579190109,-0.0007240582245402038
1782835587955178000,0.532177978515625,-0.07892682172060013,-0.010467476436612196,-0.0017873035418801008
1782835587965108000,0.54210791015625,-0.08521393916606902,-0.020260505944071337,0.00964479384291917
1782835587975039000,0.5520390625,-0.08356792552471161,-0.03704466384735424,0.03354835986392572
1782835587984969200,0.56196923828125,-0.10092588756084442,-0.04800096498052589,0.05694032310098409
1782835587994899000,0.57189892578125,-0.0900076031833887,-0.06576478157092351,0.03116460653254762
1782835588004829000,0.581828857421875,-0.08178454923927783,-0.0848833372385241,-0.00462753193648532
1782835588014759200,0.59175927734375,-0.08253449082374573,-0.0885437229095958,-0.005314673950430005
1782835588024690000,0.60168994140625,-0.08148761211931704,-0.06496459850340616,0.03055325143486261
1782835588034620200,0.6116201171875,-0.08822188881039619,-0.03821613704583142,0.040128998629562554
1782835588044550000,0.6215498046875,-0.10363397747576236,-0.02642999749239534,0.02222231666948646
1782835588054480100,0.631480224609375,-0.094809450507164,-0.013419138449593446,0.0021114939949475227
1782835588064409900,0.641409912109375,-0.08359598257541656,-0.008999504509591498,-0.011332746929861604
1782835588074341000,0.651341064453125,-0.08105740400850772,-0.014830548750632442,-0.021409118856769053
1782835588084270800,0.661270751953125,-0.09108546154797077,-0.019218513477314264,-0.0012798106774687765
1782835588094201000,0.671201171875,-0.0955763432264328,-0.032262863797764295,0.03536410404900089
1782835588104131000,0.681131103515625,-0.09543547345101833,-0.05429204164848197,0.04209680983750149
1782835588114061000,0.69106103515625,-0.08377601531744003,-0.07204180231406353,0.012293865313287824
1782835588123991000,0.700990966796875,-0.09081482791304588,-0.08163357819495722,-0.005787552159186453
1782835588133922000,0.710922119140625,-0.08662848213911056,-0.07248473290912806,0.013470873203407972
1782835588143852000,0.72085205078125,-0.09470657465457916,-0.05209382835130673,0.04213410964058712
1782835588153782000,0.730781982421875,-0.09440262327194213,-0.02626006601927802,0.03751269691763445
1782835588163712000,0.7407119140625,-0.09215864373743533,-0.01814838632803876,0.019841248485539108
1782835588173642000,0.75064208984375,-0.07795709990561007,-0.007912070032488554,-0.0017365597353316841
1782835588183573000,0.760572998046875,-0.07662555904090404,-0.014248680042335763,-0.0037641748391091822
1782835588193503000,0.7705029296875,-0.08546236096918583,-0.020419336067861876,-0.010856818247493356
1782835588203433000,0.780432861328125,-0.09474106144607067,-0.03442943984766025,0.006359251099918037
1782835588213363000,0.790363037109375,-0.09115618869662284,-0.04410094360099174,0.03553310394035652
1782835588223293200,0.800293212890625,-0.10239362202584743,-0.05870197161179967,0.017406185092031956
1782835588233224000,0.810223876953125,-0.08968319353461265,-0.06176349177400116,-0.005171484353765845
1782835588243154200,0.820154296875,-0.09522679913640021,-0.05991708302260376,-0.02051196908764541
1782835588253084000,0.830083984375,-0.09507716153264045,-0.04917421914413571,0.014491265759710222
1782835588263014100,0.84001416015625,-0.09013912060856819,-0.03196445623992476,0.029779490583389995
1782835588272943900,0.84994384765625,-0.0962736778408289,-0.014590109324571676,0.019883005268033594
1782835588282875100,0.859875244140625,-0.08116144890487194,-0.010818993288022466,0.013947496005520223
1782835588292804900,0.869804931640625,-0.08671148424744606,-0.010116484741587191,-0.001698584078811109
1782835588302735000,0.879735107421875,-0.09988602311909198,-0.01820661475472152,-0.0005659267870709299
1782835588312665000,0.8896650390625,-0.08896423161029815,-0.02630185933439061,0.005186353129334747
1782835588322595000,0.899594970703125,-0.09195406107604503,-0.03410764684765599,0.03846234405897558
1782835588332526000,0.909526123046875,-0.09465455220639706,-0.04411601330596022,0.04853360141934827
1782835588342456000,0.9194560546875,-0.0888315451413393,-0.04613884720334317,0.011312160799559205
1782835588352386000,0.929385986328125,-0.08569558520317078,-0.056067864815122444,-0.015191504717245697
1782835588362316000,0.93931591796875,-0.08689736220836639,-0.043352463321248064,-0.007070029717776924
1782835588372246000,0.94924609375,-0.08839256920218468,-0.020263958276482297,0.0025766272886656224
1782835588382176000,0.959176025390625,-0.08749591262340545,-0.00905219824463129,0.013250270988978444
1782835588392107000,0.96910693359375,-0.09004501258432865,-0.0038797366433311253,0.010995295136421918
1782835588402037000,0.979037109375,-0.08661737622320652,0.009969103026995435,-0.002039269008953124
1782835588411967000,0.988967041015625,-0.0810977360188961,-0.00740525302151218,-0.00453740596761927
1782835588421897000,0.99889697265625,-0.07975801184773444,-0.01932617053629365,0.0027045645172707735
1782835588431828000,1.008827880859375,-0.08110416575968266,-0.028849927248852325,0.006093750297836959
1782835588441758000,1.018758056640625,-0.08529752579629421,-0.039499057562416416,0.037000052954070266
1782835588451688000,1.02868798828125,-0.08649404210448265,-0.05563000312082003,0.037679577917139974
1782835588461618000,1.038617919921875,-0.08215572063922881,-0.05829308941680938,0.014432137717306613
1782835588471548200,1.048548095703125,-0.07512450682818889,-0.050372676247661,-0.0033328890160657463
1782835588481478000,1.058477783203125,-0.08485153559446335,-0.03029507998928893,0.0005887779396958649
1782835588491409200,1.0684091796875,-0.0968225438952446,-0.008387222396722063,0.012871263342443854
1782835588501339000,1.0783388671875,-0.0903910495430231,0.00021677998926024884,0.02732327480399981
1782835588511269000,1.08826904296875,-0.08500760293900966,0.002578403687220998,0.0042311164974235
1782835588521199000,1.09819921875,-0.09055120854079723,0.004809624204854481,-0.017246135692112148
1782835588531129000,1.108129150390625,-0.07724106059074401,-0.009930994939734228,-0.01977760866479948
1782835588541060000,1.11806005859375,-0.09669804073274135,-0.027335389933479018,-0.008497395639773458
1782835588550990000,1.127989990234375,-0.09415712407827377,-0.034574492607847784,0.011257434937637298
1782835588560920000,1.137920166015625,-0.08188917865753173,-0.04665166469684336,0.02824685592232272
1782835588570850000,1.14785009765625,-0.09296586846709251,-0.05210685679623857,0.01968498021159321
1782835588580780000,1.157780029296875,-0.08983107757270335,-0.04912237935904413,-0.0076688358611427246
1782835588590711000,1.1677109375,-0.07905658558011054,-0.036671693215961566,-0.009918386619910598
1782835588600641000,1.17764111328125,-0.08279752567410469,-0.01886960870809853,0.01312900096317753
1782835588610571000,1.187571044921875,-0.088783614346385,0.0013646942156367004,0.02777881828546524
1782835588620501000,1.1975009765625,-0.08563947110176086,0.009040288611128926,0.015677662532683462
1782835588630431000,1.207430908203125,-0.07950842100083827,0.009474962834501638,0.012863719356805085
1782835588640362000,1.217362060546875,-0.08161094623804092,-0.012427971987775526,-0.0025317834999412296
1782835588650292000,1.2272919921875,-0.08804887033104895,-0.013363302909396588,-0.0007535035147331655
1782835588660222000,1.237221923828125,-0.08146481576561927,-0.022095922943996264,0.00875717908712104
1782835588670152000,1.24715185546875,-0.10480769743025302,-0.035607785744918505,0.018318952555395663
1782835588680082200,1.257082275390625,-0.09957271938621998,-0.04287834300347604,0.012883720965217798
1782835588690012000,1.267011962890625,-0.08491057230532169,-0.051438784808944905,-0.005362714343238622
1782835588699943200,1.276943115234375,-0.08625906430482864,-0.0353443718686467,-0.010594495783187448
1782835588709873000,1.286872802734375,-0.08700725232362747,-0.02079400546599645,-0.0058435383964329955
1782835588719803100,1.29680322265625,-0.08311842819154262,-0.0035201689162058752,0.009356734149158
1782835588729732900,1.30673291015625,-0.08371697860658169,0.009182930218521505,0.02375454947175458
1782835588739663000,1.3166630859375,-0.0886573576182127,0.008034847028786317,0.010030523491185158
1782835588749593900,1.32659375,-0.09075696024596691,0.002562740327208303,-0.0030879195453599093
1782835588759524000,1.336524169921875,-0.08327858718931674,-0.007669013957655988,-0.011819233538862318
1782835588769454000,1.3464541015625,-0.08462591014504432,-0.024610974504845215,0.00730486138695851
1782835588779384000,1.356384033203125,-0.09001111031472682,-0.025909375718352383,0.01921093295905739
1782835588789314000,1.36631396484375,-0.10482464856505394,-0.032029306203639134,0.02085113791413605
1782835588799245000,1.3762451171875,-0.08567454241514205,-0.028944405165850184,0.015477134991902857
1782835588809175000,1.386175048828125,-0.0853805279046297,-0.03727706153085455,0.0016666911032050848
1782835588819105000,1.39610498046875,-0.07790215484797954,-0.019522423760755917,-0.01006111955884844
1782835588829035000,1.406034912109375,-0.0828407802939415,-0.002939149591280147,-0.002464033759664744
1782835588838965000,1.415965087890625,-0.08837503354549407,0.006443522716732695,0.020428017131239175
1782835588848896000,1.42589599609375,-0.09960194548070431,0.016907953246310354,0.009841960382834075
1782835588858826000,1.435825927734375,-0.09212824859917164,0.012524783425754867,-0.00001927095605060458
1782835588868756000,1.445755859375,-0.09004559710621833,-0.010436496776458807,-0.005569854287896305
1782835588878690300,1.455690185546875,-0.0972363853931427,-0.013355795456375927,-0.012097319827880709
1782835588888620000,1.4656201171875,-0.088861940279603,-0.02796483324370347,0.0028654176347889006
1782835588898551300,1.47555126953125,-0.09125731098353862,-0.030923833746346642,0.014132953841332346
1782835588908481000,1.48548095703125,-0.09320376887619494,-0.0397920765590854,0.01332686162283644
1782835588918411300,1.495411376953125,-0.0924561653792858,-0.04499950900906697,0.009206219762563705
1782835588928341200,1.50534130859375,-0.0833282715499401,-0.030509613222535696,-0.0018023549805395304
1782835588938271200,1.515271240234375,-0.07808920185267924,-0.014040307121817022,-0.00578625525124371
1782835588948201200,1.525201171875,-0.07524433381557465,0.004457618729677051,0.0024901911142282186
1782835588958132200,1.53513232421875,-0.086465400531888,0.009225760146672837,0.012059344171360134
1782835588968062200,1.545062255859375,-0.08302490468919277,0.0083133808423765,0.011429923694022
1782835588977992200,1.5549921875,-0.07958791597783565,0.003031129590515047,0.003066968088876456
1782835588987922200,1.564922119140625,-0.0833329477250576,-0.0073969509840477255,-0.010692348400782793
1782835588997852200,1.57485205078125,-0.08453121759891509,-0.024528429054236037,0.005539404350705444
1782835589007783200,1.584783203125,-0.08004559661746025,-0.031146107328054493,0.008765727719757706
1782835589017713200,1.594713134765625,-0.09561024549603461,-0.036257349394564514,0.012346801076922565
1782835589027643100,1.60464306640625,-0.08932488161623478,-0.03375636745826341,0.009118340549711137
1782835589037573000,1.614572998046875,-0.08363982171714306,-0.02666673799087293,-0.0025038177807815373
1782835589047503400,1.62450341796875,-0.09276946911215782,-0.024777298381924627,-0.011151746073458342
1782835589057434000,1.63443408203125,-0.08094868293702602,-0.0029513560523046177,0.005127426016330719
1782835589067364000,1.644364013671875,-0.09217033417522907,0.014501421827543525,0.012944310312345624
1782835589077294000,1.654294189453125,-0.09426642967164515,0.014411752516403793,0.02387978328661993
1782835589087224300,1.664224365234375,-0.08469371468424797,0.007333717588684521,0.004058225882239639
1782835589097154000,1.674154052734375,-0.08963526273965836,-0.0000843949144007638,0.006560874619241803
1782835589107085300,1.684085205078125,-0.09412789798378944,-0.019066108527733012,-0.0086620664158836
1782835589117015000,1.69401513671875,-0.08799392527341843,-0.03167171580446884,0.002622767985332757
1782835589126945300,1.7039453125,-0.09711772744953631,-0.03783707916694693,0.013500300227291881
1782835589136875300,1.713875244140625,-0.09113280782103537,-0.030268516209349033,0.028326953687518832
1782835589146805200,1.72380517578125,-0.09472411031126976,-0.02712714944370091,0.01284207378057763
1782835589156735200,1.7337353515625,-0.08724690629839897,-0.02444891581092961,0.0009285678206942975
1782835589166666200,1.743666259765625,-0.08051613673865794,-0.011385605061682872,-0.006303337927907705
1782835589176596200,1.75359619140625,-0.08081833455562591,0.002869107429217547,0.0035643962169997394
1782835589186526200,1.763526123046875,-0.08441139061152934,0.01587718999304343,0.010932367701735347
1782835589196456200,1.773456298828125,-0.09144611155390739,0.021673048756271598,-0.0010349325383082033
1782835589206386200,1.78338623046875,-0.09234569074213504,0.0018587796092033385,-0.0006543174565769731
1782835589216317200,1.793317138671875,-0.09025310237705707,-0.017522792642447164,-0.005735182651132345
1782835589226247200,1.8032470703125,-0.09220072931349277,-0.013788063093530945,0.002566507753450423
1782835589236177200,1.81317724609375,-0.08891162464022635,-0.03624103758058045,0.005164945015124977
1782835589246107100,1.823107177734375,-0.09025836307406425,-0.02979356020793784,0.017201383234933018
1782835589256037000,1.833037109375,-0.07963584677278995,-0.024727938248286955,0.012617763505410402
1782835589265968000,1.842968017578125,-0.08682078984081745,-0.016301493519451468,0.008628620804008096
1782835589275898000,1.852898193359375,-0.08143032897412776,-0.013520671728462911,0.00004336421769112348
1782835589285828000,1.862828125,-0.07648936544060707,-0.004266534870676696,-0.0024940635717473924
1782835589295758300,1.87275830078125,-0.07978431533277035,0.010691590348957105,0.01211399696804583
1782835589305688000,1.88268798828125,-0.08023731979727744,0.014459153588395566,0.010762819821108133
1782835589315618300,1.892618408203125,-0.0946048678457737,0.010611743745510466,0.008011603150516747
1782835589325549000,1.902549072265625,-0.09027239159941673,-0.00906792553672567,-0.0026357918636873362
1782835589335479300,1.912479248046875,-0.08877776912748814,-0.01992690834184177,-0.008752064520586281
1782835589345409300,1.9224091796875,-0.09102408674955367,-0.026448912255419416,-0.00016116364477202297
1782835589355339300,1.93233935546875,-0.08608546130359172,-0.03205961001035757,-0.0038412769296206533
1782835589365269200,1.942269287109375,-0.09027472968697547,-0.02542921381886117,0.010538820073194802
1782835589375200300,1.9522001953125,-0.08862988508939743,-0.022417154254997147,0.004643697619996965
1782835589385130200,1.962130126953125,-0.0841430950641632,-0.008800981696229428,-0.004073478250298649
1782835589395060200,1.972060302734375,-0.07606441802680491,-0.003526292696315795,-0.010038085743132977
1782835589404990200,1.981990234375,-0.07995791833400726,0.004851586483325809,-0.004973934221360832
1782835589414920200,1.991920166015625,-0.08160451649725436,0.013751361512066795,-0.00021030001612380145
1782835589424851200,2.001851318359375,-0.06873568257391452,0.010753914995444938,0.0030517887860536572
1782835589434781200,2.01178125,-0.09073299484848976,0.004447617925470695,0.011663695917278527
1782835589444711200,2.021711181640625,-0.08564940797388552,-0.01786929995859973,-0.000099204324465245
1782835589454641200,2.03164111328125,-0.08624854291081428,-0.02643242691149935,-0.0005280607284046709
1782835589464571100,2.041571044921875,-0.0899859758734703,-0.025988966593472284,0.0047333851974457495
1782835589474501000,2.051501220703125,-0.09147884477972984,-0.03416671095797792,0.015865933380089698
1782835589484432100,2.06143212890625,-0.08339666061103343,-0.021348967901058495,0.012641564506106078
1782835589494362000,2.071362060546875,-0.0881862329751253,-0.01032821866297163,-0.005303111376799643
1782835589504292400,2.081292236328125,-0.0772632724225521,0.004144652923522517,-0.0026620405497960746
1782835589514222000,2.09122216796875,-0.09716741181015967,0.005500880704913288,-0.009135456081293522
1782835589524152300,2.10115234375,-0.09028408203721046,0.011196114938147365,-0.008773837960977107
1782835589534083000,2.1110830078125,-0.0943260509043932,0.01362436499837786,0.002606310040876269
1782835589544013300,2.121013427734375,-0.08818974010646342,0.005847173391934484,0.009750665370188653
1782835589553943000,2.130943115234375,-0.09103402362167835,-0.011995329891284927,0.004270863985922187
1782835589563873300,2.140873291015625,-0.091933602809906,-0.01920339810657315,-0.002801120226923376
1782835589573803300,2.15080322265625,-0.08968670066595077,-0.02697088116975501,0.002262318908795714
1782835589583734300,2.160734375,-0.08878653695583343,-0.025571663630008696,0.010586440340895205
1782835589593664300,2.170664306640625,-0.08564297823309898,-0.031463068889314307,0.01749844821905717
1782835589603594200,2.18059423828125,-0.08369359773099422,-0.014206156074861065,0.009760328247677533
1782835589613524200,2.190524169921875,-0.08788345063626765,-0.01329789125667885,0.0031008338258601722
1782835589623454200,2.2004541015625,-0.0744143127322197,0.0009756035665050148,-0.0036427038839086886
1782835589633384200,2.21038427734375,-0.0886310541331768,0.0038911348201800134,-0.00824694627635181
1782835589643315200,2.220315185546875,-0.09027765229642391,0.012772670939331874,-0.0033307701242156324
1782835589653245200,2.2302451171875,-0.08803601084947585,0.009790906049031763,0.006808547503687441
1782835589663175200,2.240175048828125,-0.09582067337632179,0.001706246795458719,0.00698953009378165
1782835589673105200,2.250105224609375,-0.07996142546534538,-0.01697477140482515,-0.0010020349157042802
1782835589683035100,2.26003515625,-0.08924187950789927,-0.025513951226556673,-0.008111556393653154
1782835589692966100,2.269966064453125,-0.08235913425683974,-0.02695705357380211,-0.0027527875731699165
1782835589702896000,2.279896240234375,-0.09208440945744514,-0.023231804239284247,0.0113286552766338
1782835589712826400,2.289826416015625,-0.08609539817571639,-0.02610675688739866,0.01416910286694765
1782835589722756000,2.299756103515625,-0.09387713809311389,0.002802983390446752,0.003785108029283583
1782835589732686300,2.309686279296875,-0.10330489165186882,-0.0014774338751100003,0.00873030934650451
1782835589742617000,2.3196171875,-0.08879004408717155,0.010890227326750756,0.002133724093064666
1782835589752547300,2.32954736328125,-0.08699497736394404,0.010573663057712837,0.0016962459912523626
1782835589762477000,2.33947705078125,-0.07876257106959819,0.008571675585536285,0.012710757284797727
1782835589772407300,2.3494072265625,-0.08594400700628757,0.0004414692903403193,0.010619228365644813
1782835589782337300,2.359337158203125,-0.09013502895534038,-0.006550207094755023,0.0028662578850053248
1782835589792267000,2.36926708984375,-0.09298106603622436,-0.019824781407928094,-0.003120524907018989
1782835589802198300,2.3791982421875,-0.08924129498600959,-0.023965306145604697,0.002826583461742848
1782835589812128300,2.389128173828125,-0.09597557167708873,-0.02047002050890587,0.0006443075192160904
1782835589822058200,2.399058349609375,-0.10121054972112178,-0.01302721195598133,0.007276877401489764
1782835589831988200,2.40898828125,-0.09477262562811374,-0.007595368766132741,0.0028729068215005097
1782835589841918200,2.418918212890625,-0.08549217158555984,-0.0012266009191982446,-0.0014004048498347402
1782835589851849000,2.428848876953125,-0.08878595243394374,0.005214766373066232,-0.013624401530995964
1782835589861779200,2.438779296875,-0.08609481365382671,0.010484185542818159,-0.011122501712664962
1782835589871709200,2.448709228515625,-0.09641980831325053,0.013753115077735856,-0.005985467617772519
1782835589881635000,2.458635009765625,-0.09746610249578952,-0.0004094027847982943,0.011374467179737984
1782835589891565000,2.46856494140625,-0.0914800138235092,0.0033578133947681633,0.01014530897727236
1782835589901496000,2.47849609375,-0.08894085073471068,-0.016920821861037983,-0.0017377105128020048
1782835589911426000,2.488426025390625,-0.08310673775374888,-0.022096799726830794,0.0017109686363488434
1782835589921356000,2.49835595703125,-0.09612345571517944,-0.027194771319814025,0.0005356595129705965
1782835589931286000,2.5082861328125,-0.09537059152126312,-0.018724172355420888,0.010344466544874012
1782835589941216000,2.518216064453125,-0.09282382964789866,-0.012542990369303151,0.0068689724540337916
1782835589951146200,2.528146240234375,-0.09356909505724906,0.001719060611259192,0.0036854470470920205
1782835589961077000,2.538076904296875,-0.08788578872382641,0.003387313483888283,0.004143913138005882
1782835589971007200,2.54800732421875,-0.10270049601793288,0.01377188371028751,-0.008588928114436567
1782835589980937000,2.55793701171875,-0.08818798654079436,0.01317077601198107,-0.0016165135522373019
1782835589990867200,2.5678671875,-0.08743862947821616,0.007950584545126184,0.00038194852229207754
1782835590000797000,2.577796875,-0.09073357937037944,-0.0046322172447573395,0.005995696750842034
1782835590010728200,2.587728271484375,-0.09208265589177608,-0.010302052175253628,0.010128248244617133
1782835590020658000,2.597657958984375,-0.08998948300480843,-0.017323740106122566,0.0017061097981408238
1782835590030588200,2.607588134765625,-0.08983926087915897,-0.01980352855734527,0.00201892034066841
1782835590040518100,2.61751806640625,-0.08939034806787967,-0.022657895075157284,0.011738843512721359
1782835590050448100,2.6274482421875,-0.08429857788681984,-0.004837101300247013,0.018341876773256806
1782835590060378000,2.637378173828125,-0.09357318671047687,-0.00457737265182659,0.008089746420644223
1782835590070309000,2.64730908203125,-0.09895604879260063,0.003726053052116185,0.001176496433466673
1782835590080239000,2.657239013671875,-0.09715922850370406,0.01366643230812624,0.008216149279288947
1782835590090168800,2.6671689453125,-0.08129998059272765,0.0025332813372835514,0.0031349004922434686
1782835590100099000,2.67709912109375,-0.09057692750394344,-0.0003217062350362539,0.003389843367692083
1782835590110029000,2.687029052734375,-0.09371990170478821,0.0037504477078560737,0.009874401347711682
1782835590119960000,2.6969599609375,-0.09641571666002273,-0.012864404343394562,0.004268288436345756
1782835590129890000,2.70689013671875,-0.08908347407579421,-0.022542506800871342,0.011848331769183278
1782835590139820000,2.716820068359375,-0.07785890022814274,-0.026959656522842122,0.002559511757083237
1782835590149750000,2.72675,-0.08653437411487103,-0.022691742545831946,0.0030023601537570357
1782835590159680300,2.73668017578125,-0.08100012086331844,-0.016098317363858222,0.004011062272265553
1782835590169611000,2.746611083984375,-0.07935527626574039,-0.011903861348703504,0.013817366819828748
1782835590179541000,2.756541015625,-0.08444178574979305,-0.0035373346801381555,0.00541340335085988
1782835590189471000,2.766470947265625,-0.0811497584670782,0.0077598112133797255,0.005151811538916081
1782835590199401200,2.776401123046875,-0.09327215793728828,0.013817558616073802,0.0041237653991207475
1782835590209331000,2.7863310546875,-0.08384498890042305,0.009894220293033867,0.0013170556816272437
1782835590219261200,2.79626123046875,-0.08504325877428054,-0.0011786518579348921,0.004628390453010797
1782835590229192000,2.80619189453125,-0.09043079703152179,-0.0028042620320804417,0.005325560670625418
1782835590239122200,2.8161220703125,-0.07562018139064311,-0.008339940055739134,0.005892857430875301
1782835590249052200,2.82605224609375,-0.09447861111760139,-0.022714392769057304,0.0027242555984295902
1782835590258982000,2.83598193359375,-0.08235913425683974,-0.021606194065138695,0.0036628881554119285
1782835590268912000,2.845912109375,-0.09058978698551655,-0.013960757345892489,0.0017108042395673692
1782835590278843100,2.855843017578125,-0.0881909091502428,-0.012734448687639087,0.010368267545569687
1782835590288773000,2.865773193359375,-0.08265022615790367,-0.006353816872974857,0.009900978827383368
1782835590298702800,2.875702880859375,-0.09611936406195164,-0.0005817636770196259,0.009629925067350267
1782835590308633000,2.885633056640625,-0.090133859911561,0.004940981799829751,0.003482417021971196
1782835590318563000,2.89556298828125,-0.09477554823756218,0.007792462240811437,0.0033974421522580084
1782835590328493000,2.9054931640625,-0.08893734360337256,0.012237449817778542,0.002972659135237336
1782835590338424000,2.915424072265625,-0.0804091692328453,-0.001381353089492768,0.001329074912983924
1782835590348354000,2.92535400390625,-0.08729016091823577,-0.00955321570248343,0.008141202613245696
1782835590358284000,2.935283935546875,-0.10090952094793319,-0.012086067781504242,0.005389017828274518
1782835590368214000,2.945214111328125,-0.0850496885150671,-0.021843619550205765,0.00221645220676437
1782835590378144000,2.95514404296875,-0.08983926087915897,-0.023591659660777076,0.0023338132424280044
1782835590388075000,2.965074951171875,-0.09911737683415413,-0.008164629154605791,0.010364833479467778
1782835590398005000,2.9750048828125,-0.08894377334415912,-0.0045200529740192,0.004691920675896108
1782835590407935200,2.984935302734375,-0.08654957168400287,-0.00028789529697969554,0.006737308898381889
1782835590417865000,2.994864990234375,-0.09403028282821178,0.01967464148066938,0.007812482115533203
1782835590427795200,3.004795166015625,-0.08744798182845115,0.01594057865203358,0.0020563845405355097
1782835590437725200,3.01472509765625,-0.09328384837508201,0.0015210264216642827,0.0011881503386422991
1782835590447656200,3.02465625,-0.09103928431868552,0.0014726207026746123,0.0019697109040804207
1782835590457586200,3.034586181640625,-0.09477963989078998,-0.01176268104603514,0.0060800870986655355
1782835590467516000,3.044515869140625,-0.0964256535321474,-0.015477938709501177,0.0026557021405547855
1782835590477446100,3.054446044921875,-0.08475450496077537,-0.02040127525478601,0.0027737755622714755
1782835590487376000,3.0643759765625,-0.09283902721703052,-0.020580613877065477,0.003809237823542207
1782835590497307100,3.07430712890625,-0.09867606280744075,-0.015387420014990492,0.011744506068527697
1782835590507236900,3.08423681640625,-0.08565408414900302,0.0006588109686039388,0.0038012554464861748
1782835590517167000,3.0941669921875,-0.08894377334415912,-0.00430271129575558,-0.004013089832570403
1782835590527097000,3.10409716796875,-0.08146072411239147,-0.00036618469757959243,0.008804963751602918
1782835590537027000,3.114027099609375,-0.08954290828108787,0.0009548347731120883,0.008612765647750348
1782835590546958000,3.1239580078125,-0.08251052542626858,0.00759056472685188,-0.003920899770781397
1782835590556888000,3.13388818359375,-0.0904436565130949,0.0131421253062319,-0.002329575458727777
1782835590566818000,3.143818115234375,-0.08715338279604912,-0.0007543894307222217,0.0070089837129227815
1782835590576748000,3.153748046875,-0.09194295516014099,-0.010195230799913406,0.010007818469032644
1782835590586678000,3.163677978515625,-0.08790273985862732,-0.01832181123276241,0.012614932227507232
1782835590596608300,3.173608154296875,-0.07832768678367137,-0.021050706473691387,0.004041694872546941
1782835590606539000,3.1835390625,-0.08940086946189403,-0.012722328991582616,-0.000017133797891438006
1782835590616469200,3.19346923828125,-0.0873024358779192,-0.004198027078574523,0.01691960715148598
1782835590626399000,3.20339892578125,-0.08984569061994552,0.003323125673877075,0.012186039290949701
1782835590636329200,3.2133291015625,-0.09044424103498458,0.007698893072688951,0.003962930547911673
1782835590646259000,3.223259033203125,-0.09463526298403739,0.0047659814259503035,0.0093266860707663
1782835590656190200,3.233190185546875,-0.08745265800356865,0.005817161846160888,0.004445014976430684
1782835590666120000,3.243119873046875,-0.0881996769785881,0.001963208098057657,0.002274064145516604
1782835590676050000,3.2530498046875,-0.08550736915469169,-0.0066700888810679315,0.0035870829728431998
1782835590685980200,3.262980224609375,-0.08670446998476981,-0.007948356055421754,0.005942231264244765
1782835590695910000,3.272909912109375,-0.0961339771091938,-0.01360520364018157,0.0031517420291900635
1782835590705840000,3.282840087890625,-0.09493746080100536,-0.014503568118857219,0.001150850535556674
1782835590715771000,3.29277099609375,-0.09134440474510193,-0.015090546827111393,-0.005626534644886851
1782835590725701000,3.302701171875,-0.08820201506614685,-0.0036944614706095305,0.004803473025280982
1782835590735631000,3.312631103515625,-0.09628536827862262,-0.0017336645253468305,0.0014843933388590813
1782835590745561000,3.32256103515625,-0.09254501270651817,0.007988176609156654,0.005733995341043919
1782835590755491000,3.332490966796875,-0.08670914615988731,0.011412872094521298,-0.00018480024868622422
1782835590765421000,3.342421142578125,-0.09568681786358356,0.0081138944812119,0.0067473736346699295
1782835590775352000,3.35235205078125,-0.08850421288311482,0.004132067436585203,0.0016748926759697497
1782835590785282000,3.362281982421875,-0.0923953751027584,-0.0027473807456903157,-0.0056332566466182465
1782835590795212000,3.3722119140625,-0.09389233566224575,-0.009005701354937628,0.0021583836102858182
1782835590805142300,3.382142333984375,-0.08431552902162075,-0.015114448292506858,0.008437518678698689
1782835590815072000,3.392072021484375,-0.08895546378195285,-0.01812590506817214,0.015607063248194754
1782835590825003300,3.402003173828125,-0.09344517641663551,-0.018861261004861442,-0.0028039149722084403
1782835590834933000,3.41193310546875,-0.09104863666892052,-0.010089624134125187,-0.0006900280907750129
1782835590844863200,3.42186328125,-0.0898509513169527,-0.00010136888208799063,0.00320802052738145
1782835590854793000,3.43179296875,-0.08102467078268527,0.0025966380302328614,0.0013919292824342846
1782835590864723000,3.441722900390625,-0.09239771319031714,0.009475136364437638,-0.005320701832417399
1782835590874653000,3.45165283203125,-0.09030337125957012,0.010702358338143677,0.0035501119633205235
1782835590884583700,3.461583740234375,-0.08985796557962894,0.007258063103165477,-0.001211677344702184
1782835590894514000,3.471513916015625,-0.07324936060607433,0.004365227738488465,-0.0022660087032243606
1782835590904443600,3.481443603515625,-0.07758768207132816,-0.002173252385854721,0.0053033671051263805
1782835590914374000,3.491373779296875,-0.08896072447896003,-0.010682237998722121,0.0073816164175979785
1782835590924304000,3.501303955078125,-0.09404840300679207,-0.013145376709243282,0.014080821795295923
1782835590934235000,3.51123486328125,-0.09045768503844738,-0.015594194633467121,-0.0012467851907014846
1782835590944164900,3.521164794921875,-0.07564414678812026,-0.0188091563582886,-0.0009463957383297383
1782835590954094800,3.5310947265625,-0.08671499137878418,-0.011214052453637123,0.006343523807823658
1782835590964024800,3.54102490234375,-0.09539280335307121,0.0032171719482168553,0.010257829441037028
1782835590973954800,3.550954833984375,-0.086112933832407,0.0019628427718766032,0.005736187298130244
1782835590983884800,3.560884765625,-0.07982756995260715,0.0048232554379850625,0.005309340188186616
1782835590993815800,3.57081591796875,-0.09030161769390106,0.013140106879081577,0.008919164715800433
1782835591003745800,3.580745849609375,-0.09644085110127926,0.0070301908977329726,-0.0039323892791755495
1782835591013676000,3.590676025390625,-0.08911094660460948,-0.01028106418615207,0.004933931004535407
1782835591023605800,3.600605712890625,-0.07639116576313972,-0.020036707125557586,0.007641363332327455
1782835591033535700,3.61053564453125,-0.08985796557962894,-0.01761875013047829,0.0016936339090578257
1782835591043466800,3.620466796875,-0.09793898070454597,-0.011754680402670055,0.006395637587551027
1782835591053396700,3.630396728515625,-0.0889578018695116,-0.01287532759620808,0.0025545067884027955
1782835591063326700,3.64032666015625,-0.08716156610250472,-0.010219260129472241,0.004969842568133026
1782835591073256700,3.650256591796875,-0.08746201035380363,-0.0015564995938446371,0.0035015601138584313
1782835591083187000,3.66018701171875,-0.08387129238545894,0.0003001611235085875,0.003263696237374097
1782835591093116700,3.67011669921875,-0.0768406630963087,0.002704966376069933,0.004343929222133011
1782835591103048000,3.6800478515625,-0.10198153409361839,0.009436283925082533,0.004164955926034599
1782835591112977700,3.689977783203125,-0.09315408451557158,0.004981414274917915,0.005172087141964584
1782835591122908000,3.699907958984375,-0.0753507167994976,0.001019579705549404,0.0003790259128436446
1782835591132838000,3.709837890625,-0.08567454241514205,0.0016732030423823744,0.009218659119028598
1782835591142767900,3.719767822265625,-0.090613167861104,-0.00686056081871502,0.004394271169882267
1782835591152697900,3.72969775390625,-0.09225684341490269,-0.017446891561755908,0.010617072941176593
1782835591162628900,3.73962890625,-0.08432605041563511,-0.00827318582930602,0.0038891163930296897
1782835591172558800,3.749558837890625,-0.0939034415781498,-0.004134853048715741,0.006970131273567676
1782835591182488800,3.75948876953125,-0.09524842644631862,-0.0012238061739131808,0.0047961847679689525
1782835591192418800,3.769418701171875,-0.07908464263081551,-0.0023670122591312975,0.00356068815626204
1782835591202348800,3.779348876953125,-0.08043196558654307,0.009728316541062668,-0.006434855353087187
1782835591212279800,3.78927978515625,-0.08522153795063495,0.013498738457867875,-0.0003635726153850555
1782835591222210000,3.7992099609375,-0.0849187556117773,0.011954486424243077,0.0013909977006725967
1782835591232139800,3.809139892578125,-0.08701251302063465,-0.0020759294912219045,0.0036395072798244654
1782835591242069800,3.81906982421875,-0.0877595319956541,-0.009254232755908741,0.009924140507262199
1782835591251999700,3.828999755859375,-0.08866028022766113,-0.011225715491967275,0.013064557424839585
1782835591261929700,3.8389296875,-0.09180500799417496,-0.010995103340176865,0.002947634291835129
1782835591271860700,3.84886083984375,-0.09375146588683128,-0.014450111765414475,0.004682093401625752
1782835591281790700,3.858790771484375,-0.10781681611835955,-0.007910115537419915,0.004963558957818895
1782835591291721000,3.868720947265625,-0.09090659784972667,-0.009172436223970725,-0.0065656969248317175
1782835591301650700,3.878650634765625,-0.09120353496968746,0.000035738033661618824,-0.008714691652264446
1782835591311581000,3.888580810546875,-0.09688801034688949,0.009385476186452434,0.000027308132033795118
1782835591321511700,3.89851171875,-0.08506839321553707,0.005404644655669108,-0.0006373480554670095
1782835591331442000,3.90844189453125,-0.08626666308939457,0.009670156613038852,-0.0038125805580988526
1782835591341371600,3.91837158203125,-0.08447393445372581,0.0032450463358312844,-0.00586523877158761
1782835591351302000,3.928302001953125,-0.08746551748514175,0.0008145677858963608,0.0036196518018841743
1782835591361232000,3.93823193359375,-0.08252923012673855,-0.013734182048402726,-0.004275394030567258
1782835591371161600,3.94816162109375,-0.09584522329568862,-0.017679823534796014,-0.001374521489907056
1782835591381092900,3.9580927734375,-0.09195230751037597,-0.013053195780608802,0.007430789321567863
1782835591391022800,3.96802294921875,-0.09330079950988292,-0.016549212069669736,0.011442381316795945
1782835591400952800,3.977952880859375,-0.09045710051655768,-0.004647551811207086,0.006414415353257209
1782835591410882800,3.9878828125,-0.08207681018412112,0.004885726214945316,-0.007792918898537755
1782835591420812800,3.997812744140625,-0.08551964411437511,0.006144667634321376,0.0038547939983196553
1782835591430742800,4.00774267578125,-0.07878653646707534,0.0008979534867219626,0.014582067582011223
1782835591440673800,4.017673828125,-0.09554594808816909,0.002482866324298084,0.011559979814477265
1782835591450603800,4.027603759765625,-0.0828273362904787,0.0038408568045124407,-0.0002772460388019681
1782835591460533800,4.03753369140625,-0.08432488137185573,-0.006495746094314381,0.0020653898308984936
1782835591470463700,4.047463623046875,-0.0882172126352787,-0.01294779917737469,-0.0019411971956491468
1782835591480394000,4.05739404296875,-0.08821662811338901,-0.010724807631969452,0.002268730383273214
1782835591490324700,4.06732470703125,-0.08656886090636252,-0.011724677990050985,-0.005402279168646783
1782835591500255000,4.0772548828125,-0.09315291547179222,-0.014536803668178618,-0.0043415180693380535
1782835591510184700,4.087184814453125,-0.08642039234638213,-0.007149725624173879,0.0006390102895908057
1782835591520115000,4.097114990234375,-0.08941372894346714,-0.010453260681591928,-0.0007864742025732994
1782835591530044700,4.107044677734375,-0.08671908303201198,-0.0025567535444162783,-0.004713913311995566
1782835591539975000,4.116974853515625,-0.09150631730854511,-0.0011948449409101157,-0.00451073715640232
1782835591549905700,4.12690576171875,-0.09046002312600612,0.003388144600950181,0.008046546599734574
1782835591559836000,4.1368359375,-0.09016250148415565,-0.0023019567994400857,0.013982348123192786
1782835591569766000,4.146765869140625,-0.08298165006935596,-0.0028689886982087042,0.0020992373015731574
1782835591579695600,4.156695556640625,-0.09121171827614306,-0.0016642068851739167,0.0044910095426253975
1782835591589625900,4.1666259765625,-0.08732172510027884,-0.008495724272495135,0.009559818973205982
1782835591599555800,4.176555908203125,-0.10168751958310604,-0.019069277732353656,0.0025330438752658663
1782835591609486800,4.18648681640625,-0.08627601543962955,-0.013858283352106808,0.0030672968824394047
1782835591619416800,4.196416748046875,-0.08597674023211002,-0.014713183148391543,0.007349412914738058
1782835591629346800,4.206346923828125,-0.082239307269454,-0.0048989144900813695,0.0012243906958028673
1782835591639276800,4.21627685546875,-0.08418401159644126,0.0032773685697000472,-0.00132870958680287
1782835591649206800,4.226206787109375,-0.09016717765927314,0.004801792524848133,-0.00418811760591343
1782835591659137800,4.2361376953125,-0.08373451426327227,0.003024480654019862,0.0008266235498711466
1782835591669067800,4.24606787109375,-0.08253741343319415,-0.002699395151808858,0.0015433569844812154
1782835591678997800,4.255997802734375,-0.08523322838842869,0.004741367574501783,0.0005193476989865303
1782835591688928000,4.265927978515625,-0.08882511540055274,-0.006580547434091567,0.00014181962348520756
1782835591698857700,4.275857666015625,-0.08523556647598743,-0.018103574505355206,0.005436875557992607
1782835591708788000,4.2857880859375,-0.09466390455663204,-0.014152663188800214,0.0012142346279695629
1782835591718718700,4.29571875,-0.0913712927520275,-0.010218228083010763,0.008191745490394533
1782835591728649000,4.30564892578125,-0.08418810324966906,-0.007176540565863252,0.007212927053496241
1782835591738578700,4.31557861328125,-0.09510931023657321,-0.0005611318809445947,0.00953030061777681
1782835591748509000,4.325509033203125,-0.08927402821183204,-0.0010159264437388628,0.0069391881460323926
1782835591758439000,4.33543896484375,-0.08822831855118274,0.0036577005236409603,0.0016295008979737757
1782835591768368600,4.34536865234375,-0.08882628444433212,0.007869299469841644,0.0036225744113326072
1782835591778300000,4.3552998046875,-0.08822422689795494,0.005000676097813994,0.003733505706209689
1782835591788229600,4.365229736328125,-0.08657587516903877,-0.005500917237531393,0.007942245975043625
1782835591798160000,4.375159912109375,-0.09675064770281314,-0.008533206738671287,-0.0007849946315400302
1782835591808089900,4.38508984375,-0.09435527699887752,-0.010822285790229216,0.0023009704187512397
1782835591818019800,4.395019775390625,-0.09450316103696822,-0.0179396435147617,0.002656286662444472
1782835591827949800,4.40494970703125,-0.0904611921697855,-0.013200193902710452,-0.0036864151614718135
1782835591837880800,4.414880859375,-0.09330547568500042,-0.01526146468091756,0.0004351765468716621
1782835591847810800,4.424810791015625,-0.0907616364210844,-0.003311581366555765,-0.0035110403282567855
1782835591857740800,4.43474072265625,-0.08193184875547885,-0.004471053599985316,0.006895458602160215
1782835591867670800,4.4446708984375,-0.07744330516457557,0.00243096260712482,0.007915047440864145
1782835591877601300,4.454601318359375,-0.0822305394411087,0.0037851810945197938,0.0007810673750936985
1782835591887532500,4.464532470703125,-0.09420213226377963,0.004632308576302603,0.007091017706878483
1782835591897462300,4.474462158203125,-0.09689794721901417,0.0015550656885839997,0.003262581992521882
1782835591907392500,4.484392578125,-0.09914543388485908,-0.013026819230336694,-0.0010486870690248906
1782835591917322500,4.494322509765625,-0.0939069487094879,-0.006194205864472314,0.001684117162041366
1782835591927252200,4.504252197265625,-0.07639876454770565,-0.009334220923250541,0.005895962703414261
1782835591937182500,4.514182373046875,-0.08777063791155815,-0.017638304214319212,0.0006679989220574498
1782835591947113500,4.524113525390625,-0.09046236121356487,-0.014783517571398987,0.0003184365657158196
1782835591957043500,4.53404345703125,-0.09450082294940948,-0.014270517414808273,0.0037216508716344833
1782835591966973200,4.54397314453125,-0.09360533541440963,-0.006614312706375494,-0.0028142537031322717
1782835591976903400,4.5539033203125,-0.08866846353411674,-0.002140464361105114,-0.0034844080496579406
1782835591986833400,4.56383349609375,-0.09330664472877978,0.0050150608161929995,-0.008125511853769422
1782835591996763400,4.573763427734375,-0.09225742793679237,0.000015215835440903902,-0.0043085473814979194
1782835592006694400,4.5836943359375,-0.08148468950986862,0.006650178604200482,-0.007481368731334805
1782835592016624400,4.593624267578125,-0.0859732331007719,-0.003877782148262486,0.005452127926051617
1782835592026554400,4.603554443359375,-0.09151157800555229,-0.008477174835652112,0.0017851663837209343
1782835592036484400,4.613484375,-0.0841828425526619,-0.007063581710681319,-0.0010722871403209865
1782835592046414300,4.623414306640625,-0.09376023371517658,-0.009152854740666225,-0.0028981325943022965
1782835592056344600,4.633344482421875,-0.08687748846411704,-0.01609857309218496,0.008945011543110013
1782835592066275300,4.643275390625,-0.09405833987891674,-0.010028559862961991,0.007899722007568924
1782835592076205600,4.65320556640625,-0.09405775535702705,-0.009574605550384148,0.006665120445005595
1782835592086135300,4.66313525390625,-0.08417933542132378,-0.0057399410246405744,-0.00018076339438557624
1782835592096065300,4.673065185546875,-0.08851941045224666,-0.0009536383298691362,0.0019520656495355068
1782835592105995500,4.68299560546875,-0.09180909964740276,-0.003642292891955003,0.007603533806279301
1782835592115925200,4.69292529296875,-0.094652798640728,0.0051617210115771734,0.008517433780804277
1782835592125856500,4.7028564453125,-0.08597498666644096,0.002479413991887122,-0.000738945266418159
1782835592135786200,4.7127861328125,-0.09046586834490299,-0.004712150613171979,-0.002714592720940709
1782835592145716500,4.722716552734375,-0.0769978994846344,-0.004932159172557294,0.0020609693841077384
1782835592155646200,4.732646240234375,-0.08403086686134338,-0.014667636106768623,0.012234390211012214
1782835592165576400,4.742576416015625,-0.09794482592344284,-0.012282412337511777,0.009888977862335741
1782835592175507200,4.752507080078125,-0.08313245671689509,-0.012487095463601872,-0.00010786255495622753
1782835592185437400,4.7624375,-0.08253449082374573,-0.011063446735497563,0.001340874948631972
1782835592195367400,4.772367431640625,-0.08942191224992274,-0.010154049406154081,-0.0002306669507175684
1782835592205297400,4.78229736328125,-0.09106617232561111,-0.0003617094518616795,-0.006082626115623861
1782835592215227400,4.792227294921875,-0.08178630280494689,0.0002150218570139259,0.012200561006646602
1782835592225157400,4.802157470703125,-0.0822346310943365,-0.006183830600930378,0.007744001722894608
1782835592235087400,4.81208740234375,-0.09091478115618229,0.0005389383154455572,0.005449899436347186
1782835592245018400,4.822018310546875,-0.09316051425635814,-0.013793803281150758,0.0039943303331732745
1782835592254948400,4.8319482421875,-0.07685118449032306,-0.014530693587800488,0.007072641799971461
1782835592264878600,4.841878662109375,-0.08852759375870227,-0.008319262593891472,0.007289115828555077
1782835592274808300,4.851808349609375,-0.10229542234838009,-0.016319805494276807,0.008605824450310318
1782835592284738300,4.86173828125,-0.09017536096572876,-0.01151333679431118,0.007684362223837524
1782835592294669300,4.87166943359375,-0.08599076875746249,-0.006516222626762464,-0.005200235524214804
1782835592304599300,4.881599365234375,-0.0964648164987564,-0.009820908461650834,0.0003574899344705045
1782835592314529500,4.891529541015625,-0.0889800137013197,0.0037614440259058027,-0.007068038690090179
1782835592324459300,4.901459228515625,-0.08329495380222797,0.005606514770165085,-0.0033602519470266995
1782835592334389500,4.911389404296875,-0.09706044430434703,0.007174366875085979,-0.0026517383514903484
1782835592344319200,4.9213193359375,-0.08598550806045532,-0.0006083411566913128,0.003704772802069783
1782835592354250500,4.93125048828125,-0.09227028741836547,-0.0019646602696273474,0.006706749363336712
1782835592364180200,4.94118017578125,-0.09047697426080703,-0.0019101992691867053,-0.007533738239388912
1782835592374110500,4.9511103515625,-0.07476677943170071,-0.009278042889758944,0.0073655603319406505
1782835592384040400,4.96104052734375,-0.08464403032362461,-0.012834328865539282,0.008759699837770312
1782835592393970400,4.970970458984375,-0.08853694610893725,-0.013359658780740573,0.007405490483529865
1782835592403900400,4.980900390625,-0.08853402349948883,-0.008309316588612272,-0.004875277886167168
1782835592413831400,4.99083154296875,-0.07641220855116844,-0.00508888410422951,-0.003360599006898701
1782835592423761400,5.000761474609375,-0.08868073849380016,-0.006099504185188561,-0.0005373582797124981
1782835592433691400,5.01069140625,-0.07910568541884422,-0.006905267610121518,0.0018878230405971407
1782835592443621400,5.020621337890625,-0.08448971654474735,0.006190561735816299,-0.00044345118487253783
1782835592453551400,5.03055126953125,-0.09496201072037219,0.0037380996829364447,0.000850442816875875
1782835592463481300,5.0404814453125,-0.09840309108495712,-0.0005802293070591986,-0.005109050109423697
1782835592473412600,5.05041259765625,-0.09540800092220306,-0.006662444430729374,-0.0013376600782386958
1782835592483342300,5.06034228515625,-0.0913672010987997,-0.010888875619880854,0.002927486552949995
1782835592493272300,5.070272216796875,-0.09869769011735915,-0.01379061581022106,-0.001328143331222236
1782835592503202600,5.08020263671875,-0.08717384106218815,-0.0153233418028336,0.011914967264607548
1782835592513132300,5.09013232421875,-0.09376081823706627,-0.011709096828429027,0.0007544168301858008
1782835592523062500,5.1000625,-0.09032090691626071,-0.009753916773200035,-0.0074178750410676
1782835592532993300,5.1099931640625,-0.08179214802384376,-0.006089028456946834,0.002248436513915658
1782835592542923500,5.119923583984375,-0.09585808277726172,-0.003537581275310367,-0.0013213665305636822
1782835592552853200,5.129853271484375,-0.08133855903744697,-0.00026879787086509166,-0.0013878376292064784
1782835592562783500,5.139783447265625,-0.08732289414405822,0.001521738807717338,0.0037512240259908137
1782835592572713500,5.14971337890625,-0.08103577669858932,-0.0059443592892494046,0.00464623663695529
1782835592582643500,5.1596435546875,-0.09540390926897525,-0.002564708522008732,0.0025032149925827978
1782835592592574500,5.169574462890625,-0.08837152641415595,-0.005096117562614381,0.003422010337933898
1782835592602504400,5.17950439453125,-0.0783481450498104,-0.01859444502852857,0.002148611134942621
1782835592612434400,5.189434326171875,-0.09002221623063086,-0.009011345644434914,0.0015239216316491366
1782835592622364200,5.1993642578125,-0.08852233306169509,-0.0018865169994998722,-0.0078053399886935946
1782835592632294400,5.20929443359375,-0.08507949913144111,-0.010470020020147785,-0.0002923888090066612
1782835592642224400,5.219224365234375,-0.0758037212640047,-0.0061432702616788445,0.009644428516738116
1782835592652155400,5.2291552734375,-0.08148878116309642,0.0053492794729303565,-0.0018477467585355043
1782835592662085400,5.23908544921875,-0.08657645969092845,-0.0016800985740497707,-0.004227974692266434
1782835592672015400,5.249015380859375,-0.08777356052100659,-0.0017954777151811866,0.0007324424603953957
1782835592681945300,5.2589453125,-0.09405775535702705,-0.005233799867099151,0.004631331328768283
1782835592691875600,5.26887548828125,-0.09061492142677306,-0.006758159890165552,0.009046608754061162
1782835592701805300,5.278805419921875,-0.08761983126401901,-0.006223404559493065,-0.004238222091645002
1782835592711736300,5.288736328125,-0.08298048102557659,-0.01220755700301379,-0.007367423495464026
1782835592721666300,5.298666259765625,-0.09390519514381886,-0.015761413559690116,-0.0029250571338459846
1782835592731596500,5.308596435546875,-0.0910620806723833,-0.010659176783543079,0.009346084890980273
1782835592741526300,5.3185263671875,-0.0802916803330183,-0.009682385906949639,0.016549111604969947
1782835592751456500,5.32845654296875,-0.09046762191057205,0.0022561631626449525,0.008568013190571218
1782835592761386500,5.338386474609375,-0.09271160144507884,-0.0005210921315010636,-0.00012854001680389046
1782835592771317500,5.3483173828125,-0.0970528455197811,-0.0030634335580747574,0.0036856297101825475
1782835592781247500,5.35824755859375,-0.08268646651506424,-0.003359640025673434,-0.0029978301091119646
1782835592791177500,5.368177490234375,-0.0898679024517536,-0.004813282033242285,0.002755326590128243
1782835592801107500,5.378107421875,-0.09241349528133869,-0.006308571225451305,-0.0020383739598095417
1782835592811037200,5.388037109375,-0.09091887280941009,-0.003302777005592361,0.007216635114233941
1782835592820967400,5.397967529296875,-0.08418518064022064,-0.009293267858354375,0.0011396167554892599
1782835592830898200,5.407898193359375,-0.08523205934464931,-0.009376699224952607,0.0025565708813257513
1782835592840828400,5.417828369140625,-0.0874766234010458,-0.011193511989107355,0.00943133375532925
1782835592850758400,5.42775830078125,-0.08179331706762313,-0.007927541596256195,0.0024243958690203724
1782835592860688400,5.4376884765625,-0.08344342236220836,-0.005201148839667439,-0.003982238036580384
1782835592870618400,5.447618408203125,-0.09436872100234031,0.0017000271172262727,0.0028978403333574532
1782835592880548600,5.457548583984375,-0.09766074828505515,-0.002492063410906121,0.003952555284369737
1782835592890479600,5.467479736328125,-0.0886830765813589,0.004769652954069897,0.0032792408663779495
1782835592900409600,5.47740966796875,-0.09915946241021156,-0.004248597355186939,0.008044080648012458
1782835592910339600,5.487339599609375,-0.08898527439832687,0.00011430142889730632,-0.00009838234055787324
1782835592920269800,5.497269775390625,-0.09886077172458171,0.0007028053739573806,0.0020331132628023624
1782835592930199600,5.507199462890625,-0.10170388619601727,-0.006311667364835739,0.007429309750534594
1782835592940129800,5.5171298828125,-0.08958324029147624,-0.012798791761277243,0.0014095928032882511
1782835592950060500,5.527060546875,-0.08988076193332671,-0.008688397300383075,-0.0006238309867680073
1782835592959990800,5.53699072265625,-0.08464344580173493,-0.009159841603878885,0.004294719785545021
1782835592969920500,5.54692041015625,-0.08658873465061187,-0.005529997201543301,-0.0024915062884800134
1782835592979850500,5.5568505859375,-0.08599018423557281,0.002420550810964778,0.006866908361110836
1782835592989780700,5.56678076171875,-0.08793547308444977,-0.006393199035292491,0.0026849465013481675
1782835592999710500,5.57671044921875,-0.0841951175123453,-0.006042933426052332,-0.006666800945438444
1782835593009640700,5.586640625,-0.08374737374484538,-0.0048957818180788305,0.0016246968586929142
1782835593019571500,5.596571533203125,-0.09915946241021156,0.00010014503938145935,0.005801635483466089
1782835593029501700,5.606501708984375,-0.09452011217176913,-0.0012889712314587086,0.008805146414693444
1782835593039431700,5.616431640625,-0.08973112432956695,-0.006834111203206703,0.0064238042361103
1782835593049361700,5.626361572265625,-0.08928279604017735,-0.010449552620854228,-0.0011574629394337534
1782835593059291600,5.636291748046875,-0.08105331235527992,-0.012244875072408467,0.0034993133578449485
1782835593069221600,5.6462216796875,-0.09302548969984054,-0.013060310507984832,-0.0012215411515906452
1782835593079152600,5.656152587890625,-0.09272562997043132,-0.008913301230594516,-0.00033072979170829054
1782835593089082600,5.66608251953125,-0.08658990369439125,-0.008872887021815403,-0.0007910590461455285
1782835593099012600,5.6760126953125,-0.08539280286431312,-0.0017663246859330683,0.002187901965714991
1782835593108942800,5.68594287109375,-0.0791068544626236,0.001819580109976232,0.003434212232381105
1782835593118872600,5.69587255859375,-0.10050269371271132,0.005652271874342113,0.0019626966414041814
1782835593128802600,5.705802490234375,-0.0907785875558853,0.004826031916961074,-0.006514058069139719
1782835593138733600,5.715733642578125,-0.09182838886976241,0.004146936212154105,0.004382836460415274
1782835593148663800,5.725663818359375,-0.0868921015113592,-0.001589908673102036,0.006713928022794425
1782835593158593500,5.735593505859375,-0.07851064213514328,-0.00996620781701058,0.005543843063805252
1782835593168523500,5.7455234375,-0.08599135327935219,-0.012909394262591377,-0.0016185411125421523
1782835593178453800,5.755453857421875,-0.09048223495781421,-0.01606787655982189,-0.004398216692637652
1782835593188383500,5.765383544921875,-0.083598905184865,-0.007156831218395381,-0.0051868463196791705
1782835593198314800,5.775314697265625,-0.08868483014702797,-0.0023463347972836343,0.00569086858537048
1782835593208244500,5.785244384765625,-0.0822480750977993,-0.0025032241257373243,0.005443707157578319
1782835593218174700,5.7951748046875,-0.08105155878961086,-0.003685766707500443,-0.0025902174226008355
1782835593228104700,5.805104736328125,-0.08224865961968898,-0.0010739493744447827,0.0014861103719100354
1782835593238034700,5.81503466796875,-0.09601707273125648,-0.0007397033182438463,0.005621018219552934
1782835593247964700,5.824964599609375,-0.08793722665011883,-0.004241674424055964,0.0033145131091587244
1782835593257895700,5.834895751953125,-0.09227437907159328,-0.006379426238266751,-0.004075487544294446
1782835593267825700,5.84482568359375,-0.08449322367608547,-0.00916072751986794,0.01195818535182625
1782835593277755600,5.854755615234375,-0.08434417059421538,-0.018489779077656567,0.0036631438837386667
1782835593287685600,5.864685546875,-0.09496960950493812,-0.010169749298784881,-0.002272255780920386
1782835593297615600,5.87461572265625,-0.08853577706515789,-0.006002939342381432,0.008378445435222238
1782835593307545600,5.884545654296875,-0.0849450590968132,-0.010287092068139462,0.00312680851733312
1782835593317475600,5.8944755859375,-0.09272738353610038,-0.003088704996649176,0.006826521551795303
1782835593327406600,5.904406494140625,-0.0880903713852167,-0.00047967327572405336,-0.003943988385424018
1782835593337336600,5.914336669921875,-0.08554711664319038,-0.0029064437649212777,0.007971873928327112
1782835593347266600,5.9242666015625,-0.08614566705822944,0.0009083378834184258,0.005332081742957234
1782835593357196500,5.934196533203125,-0.08510054191946982,0.0010569069080986083,-0.0007931231390684842
1782835593367126800,5.944126708984375,-0.08719663741588592,-0.005976389262173324,-0.005650189515110105
1782835593377056500,5.954056396484375,-0.08914192626476287,-0.004188501198403537,-0.00010130495000630617
1782835593386990600,5.963990478515625,-0.0901864668816328,-0.012397033426817505,0.0036429778785444793
1782835593396921600,5.973921630859375,-0.08435176937878132,-0.010506662236107512,0.005135152665060014
1782835593406851600,5.9838515625,-0.09677169049084186,-0.005741877253400161,0.003457885368913412
1782835593416781600,5.993781494140625,-0.0858469763725996,-0.0080050364124123,0.0021770883107557894
1782835593426711600,6.003711669921875,-0.08300210833549498,-0.0019263375532347707,0.00777094452874735
1782835593436641800,6.013641845703125,-0.07417056710422039,-0.0031120676059275864,0.0025580504523590205
1782835593446571500,6.023571533203125,-0.09347323346734046,-0.0002888360118959099,0.004595072705298662
1782835593456502800,6.033502685546875,-0.08239888174533844,0.0077668528755195435,0.010919727415870875
1782835593466432500,6.0434326171875,-0.08524141169488429,0.001990223969146609,0.002000179107580334
1782835593476362800,6.05336279296875,-0.09152677557468414,-0.0007449366157874465,0.0018213336756452917
1782835593486292500,6.06329248046875,-0.08224865961968898,-0.007819258916191757,0.0027086561704985795
1782835593496222700,6.07322265625,-0.0936199484616518,-0.009540137025201692,0.007089483336918056
1782835593506152700,6.083152587890625,-0.09661094697117804,-0.0075856510897167025,0.0046494515073485666
1782835593516082700,6.093082763671875,-0.09571370587050915,-0.0053073126278817655,0.0077735748772509395
1782835593526013700,6.103013671875,-0.09676292266249656,-0.0103322281178087,0.0015796886731870472
1782835593535943700,6.112943603515625,-0.08449088558852672,-0.006083274569595233,-0.0018311426836065947
1782835593545873700,6.122873779296875,-0.09855448225438594,-0.006561906665703282,0.006005030834767967
1782835593555803600,6.1328037109375,-0.08389175065159797,-0.0016086590393446386,0.00015643267072737216
1782835593565733600,6.142733642578125,-0.08015139507949352,-0.002200533118424937,-0.005777523955516517
1782835593575663600,6.15266357421875,-0.07865384999811649,-0.004123820198047906,0.0032071437445469198
1782835593585594600,6.1625947265625,-0.09257014714777469,-0.0029745588313788173,0.0011173501247540116
1782835593595524600,6.172524658203125,-0.08479016079604625,-0.0030481994563248006,-0.002223649132531136
1782835593605454600,6.18245458984375,-0.08613631470799446,-0.015322574617853387,0.0009421031557023525
1782835593615384600,6.192384521484375,-0.09137421536147594,-0.011785915791150181,0.010788447452709078
1782835593625314800,6.202314697265625,-0.08838146328628063,-0.012200506207719444,0.0035311698008328673
1782835593635244500,6.21224462890625,-0.0918202055633068,-0.007687412697449326,0.002452544251270592
1782835593645174800,6.2221748046875,-0.10244330638647078,-0.005359673002781346,0.005102803031727671
1782835593655105500,6.23210546875,-0.09062135116755962,-0.0052672637452837075,0.008121073140669614
1782835593665035800,6.242035888671875,-0.0874766234010458,-0.006209604363003746,0.010296937608718871
1782835593674965500,6.251965576171875,-0.0856815566778183,-0.0013108634028583764,-0.0008922909309156239
1782835593684895700,6.261895751953125,-0.08373685235083103,0.0008886650685686618,0.0013601459046825766
1782835593694825700,6.27182568359375,-0.09121814801692962,0.00308188253021799,0.005461681205686181
1782835593704755500,6.28175537109375,-0.08104279096126556,-0.003385523385601118,0.011443057170230895
1782835593714686700,6.291686767578125,-0.09511106380224227,-0.007675238202465698,0.0005592595842666924
1782835593724616400,6.301616455078125,-0.09825696061253547,-0.011736377560999245,0.0059883171619847415
1782835593734546700,6.311546630859375,-0.09586158990859985,-0.01235813532168977,0.00997545056939125
1782835593744476700,6.3214765625,-0.08927928890883922,-0.01878812270341441,0.005551496647298336
1782835593754406700,6.33140673828125,-0.0954150151848793,-0.0019881872756872324,-0.001202306728158146
1782835593764336600,6.341336669921875,-0.09347264894545078,-0.009754026371054351,0.0003118972270749509
1782835593774266600,6.3512666015625,-0.08464344580173493,-0.0037226372523233293,-0.006684373134747147
1782835593784197600,6.36119775390625,-0.09092880968153476,0.009109134329948573,0.0050895599576644595
1782835593794127600,6.371127685546875,-0.08763912048637866,-0.00544941537915729,0.0041261400192975995
1782835593804057600,6.3810576171875,-0.09347440251111984,-0.006001057912549004,-0.008474069563113152
1782835593813987800,6.39098779296875,-0.08464403032362461,-0.005870791729539632,-0.006878324804268777
1782835593823917600,6.40091748046875,-0.07910802350640296,-0.002151305415527895,0.0063075757116079325
1782835593833847800,6.410847900390625,-0.08868424562513828,-0.00842143519357778,0.006209960556030273
1782835593843778600,6.420778564453125,-0.07701309705376624,-0.009945119363209232,0.005849511479493231
1782835593853708800,6.430708740234375,-0.1014016883790493,-0.01714800907988101,0.0077715838495641945
1782835593863638500,6.440638427734375,-0.07805646862685679,-0.010591290045948698,0.000653276276960969
1782835593873568500,6.450568603515625,-0.08658581204116345,-0.008564743521250784,-0.007158603050373494
1782835593883498000,6.460498046875,-0.09736030403375626,-0.0029652704132255166,0.011505253952555358
1782835593893428000,6.470427978515625,-0.07416647545099259,0.00017754852399230002,0.006403510366752743
1782835593903359000,6.48035888671875,-0.0906266118645668,0.006015725758718326,-0.002732968627847731
1782835593913289000,6.4902890625,-0.08628770587742328,0.0037328115864656863,-0.004107069992646575
1782835593923219000,6.500218994140625,-0.08853226993381977,-0.0015679891022387892,0.0033326698203571137
1782835593933149200,6.510149169921875,-0.08868249205946922,-0.012032794091152026,0.005403576076589524
1782835593943079000,6.520078857421875,-0.09286825331151485,-0.010790109686832874,-0.0037101978958584366
1782835593953009200,6.530009033203125,-0.09241875597834587,-0.01407013600450009,0.0010443031548522412
1782835593962939100,6.539939208984375,-0.08688099559545516,-0.01615021194787696,0.00666974182119593
1782835593972870100,6.5498701171875,-0.09032266048192977,-0.004618535779276863,0.0010357727885246277
1782835593982800100,6.559800048828125,-0.08164426398575306,-0.010846726111741737,-0.0008927110560238361
1782835593992729900,6.569729736328125,-0.07595978860855102,-0.004782603767188266,0.011918255200237034
1782835594002660000,6.57966015625,-0.09675883100926876,-0.003170127069251612,0.0035516098006628453
1782835594012589800,6.58958984375,-0.09571312134861945,-0.0015699344641529024,-0.005989906330872327
1782835594022520000,6.59952001953125,-0.09735504333674908,0.003113273182325065,0.001957709939032793
1782835594032450000,6.609449951171875,-0.08882569992244244,0.0022385361744090915,0.004971669199038297
1782835594042381000,6.619381103515625,-0.08329027762711047,-0.0006450747041963041,-0.00289133752733469
1782835594052311000,6.62931103515625,-0.09241934050023555,-0.002232882751757279,-0.003389478041511029
1782835594062241000,6.639240966796875,-0.08942717294692992,-0.00905628076470457,0.004984419082757085
1782835594072171000,6.6491708984375,-0.08299567859470844,-0.006311256372882053,0.0008175634605810045
1782835594082101000,6.65910107421875,-0.08718670054376125,-0.015055557712120934,0.003912259806599468
1782835594092031000,6.669031005859375,-0.09107727824151515,-0.009513970537483691,0.0010221278556622564
1782835594101962000,6.6789619140625,-0.08075286810398101,-0.00021920484178699552,0.004296217622887343
1782835594111892000,6.68889208984375,-0.07925707658827304,-0.013640832075988873,-0.0010339278913103044
1782835594121822200,6.698822265625,-0.08419453299045562,-0.0036409685845486817,-0.0019070026651024816
1782835594131752000,6.708751953125,-0.0888315451413393,0.0008241393318399787,-0.005866005956567824
1782835594141682000,6.718681884765625,-0.09795885444879532,-0.002865582031570375,0.0025675306667573747
1782835594151612200,6.728612060546875,-0.0880821880787611,-0.003305316022550687,0.0014047339650802312
1782835594161542000,6.7385419921875,-0.10379530551731586,-0.003390829748380929,0.009379366106074302
1782835594171473200,6.74847314453125,-0.0773071115642786,-0.003285067818965763,0.005592741973139345
1782835594181403000,6.75840283203125,-0.08942483485937118,-0.0043497561747208235,0.003797273391112685
1782835594191333000,6.7683330078125,-0.08418810324966906,-0.004739203016879036,0.012943323931656777
1782835594201262800,6.778262939453125,-0.0898725786268711,-0.011907194950105622,0.0012171572374179958
1782835594211193000,6.788193115234375,-0.08433774085342884,-0.002186614190926775,-0.00006630670186132192
1782835594221123000,6.798123046875,-0.08867781588435172,-0.0011957217237446457,-0.0005823481989093124
1782835594231053000,6.808052978515625,-0.08658522751927375,-0.002774122622143477,0.005596650963276624
1782835594240984000,6.817984130859375,-0.10020458754897117,0.0022596794271375984,0.007242865534033626
1782835594250914000,6.8279140625,-0.09272738353610038,0.004188674728339538,-0.005374843172449619
1782835594260844000,6.837843994140625,-0.07791384528577328,-0.01386619266392663,-0.001783997339941561
1782835594270774000,6.84777392578125,-0.09033201283216476,-0.008281232138443739,-0.0005458155808039009
1782835594280704000,6.8577041015625,-0.07880991734266281,-0.0058113257604185484,0.003829422095045447
1782835594290634000,6.867634033203125,-0.08749065192639827,0.001737591781793162,-0.0023566643950529396
1782835594300565000,6.87756494140625,-0.08509411217868328,-0.008154874945571646,-0.0016405702812597154
1782835594310495200,6.8874951171875,-0.08224924414157866,-0.013618620244180783,-0.002409709756541997
1782835594320425000,6.897425048828125,-0.09302373613417148,-0.003979982147412375,0.002143770563043654
1782835594330355000,6.90735498046875,-0.08539280286431312,0.006338034781953319,-0.00026097075743600727
1782835594340285200,6.91728515625,-0.08165420085787772,0.0017568718709982931,0.009570084638893604
1782835594350215000,6.92721484375,-0.0841997936874628,0.0007964750067796558,0.004223207185603678
1782835594360145200,6.937145263671875,-0.09362930081188678,0.002709003230370581,0.0030997195810079574
1782835594370076000,6.947075927734375,-0.0948269861638546,-0.007742357755079865,-0.001271590838395059
1782835594380006100,6.957006103515625,-0.09048749565482139,-0.004671252347202971,-0.0007833689300343394
1782835594389935900,6.966935791015625,-0.0865963334351778,-0.0038640915496274825,0.01692081272788346
1782835594399866000,6.9768662109375,-0.08809329399466514,-0.010096245671156794,0.005981175035145133
1782835594409796000,6.986796142578125,-0.09048574208915233,-0.008538266506278886,0.004105170296505093
1782835594419726000,6.99672607421875,-0.08794014925956725,-0.0046062882190570234,0.006687661070376634
1782835594429656000,7.006656005859375,-0.0936246246367693,-0.005554976379172876,-0.0028032756513915956
1782835594439587000,7.016587158203125,-0.09152911366224288,-0.006336034621112048,0.009237345553189516
1782835594449517000,7.02651708984375,-0.0809054283171892,-0.006404167953878641,-0.0018295900473371148
1782835594459446800,7.03644677734375,-0.08733867623507977,0.003706252373103052,-0.00981457918556407
1782835594469377000,7.046376953125,-0.08180266941785812,-0.0017588446323759852,0.002925550324190408
1782835594479307000,7.05630712890625,-0.08434943129122256,-0.0024675408910028633,0.0006704283411614597
1782835594489237000,7.066237060546875,-0.09392389984428882,-0.011487572165392338,0.005876034160237759
1782835594499168000,7.07616796875,-0.09362345559298992,-0.014156325583765282,0.005441770928818732
1782835594509098000,7.086097900390625,-0.08584230019748211,-0.011299365250067785,-0.002341740820556879
1782835594519028000,7.096028076171875,-0.09287409853041172,-0.0006720449095126241,0.0028083719516173
1782835594528958200,7.105958251953125,-0.10364742147922515,-0.0040747568919323384,0.0006706110042519867
1782835594538888000,7.115887939453125,-0.0909276406377554,-0.007607031804462894,0.00882206101687625
1782835594548818200,7.125818115234375,-0.08673837225437164,-0.003250964619964361,-0.012319511211197823
1782835594558748000,7.135747802734375,-0.08329846093356609,0.0032768845125101505,0.0036402561984956263
1782835594568679200,7.14567919921875,-0.07342179456353187,0.002212643681326881,0.0034560587380081413
1782835594578609000,7.15560888671875,-0.08479717505872249,0.0019922241299878806,-0.003552906708605587
1782835594588539100,7.1655390625,-0.08404606443047523,0.0035128486928530035,0.0019849267395213245
1782835594598469000,7.17546923828125,-0.08180091585218906,-0.006449459267174825,-0.0005699453750625253
1782835594608398800,7.18539892578125,-0.10095511365532875,-0.010461891512619332,0.000021883038245141504
1782835594618329000,7.1953291015625,-0.09796586871147155,-0.006867511149309575,0.0018625790014863014
1782835594628258800,7.2052587890625,-0.08943769434094428,-0.012426241254992783,0.004036543773394078
1782835594638190000,7.215190185546875,-0.08689327055513858,-0.009596680384874344,-0.003797218592185527
1782835594648119800,7.225119873046875,-0.08614566705822944,-0.0029163806370459495,0.012152100488729774
1782835594658050000,7.235050048828125,-0.0834504366248846,-0.002857270860951394,0.0021922676135785876
1782835594667980000,7.24497998046875,-0.08763970500826836,-0.0036043355017434803,-0.0010667524486780166
1782835594677910000,7.254909912109375,-0.08270341764986515,-0.002838392630545422,-0.001986570707336068
1782835594687840000,7.264840087890625,-0.08300269285738468,-0.0021182707956060765,-0.000135335083771497
1782835594697770200,7.274770263671875,-0.08794073378145695,-0.0069666058759205035,0.003337820919509977
1782835594707701000,7.284700927734375,-0.0880903713852167,-0.0073498695724643764,0.0014279321775771676
1782835594717631000,7.294630859375,-0.09093231681287288,-0.006051262862980365,-0.005556921741086989
1782835594727561000,7.30456103515625,-0.08898761248588562,-0.009230650950921699,0.002014189366623759
1782835594737491200,7.3144912109375,-0.08569324711561202,-0.010774017068557441,0.0014366634733043611
1782835594747421000,7.3244208984375,-0.0825531955242157,-0.0005544555449858308,0.0021573241643607615
1782835594757351000,7.334350830078125,-0.08165420085787772,0.0010937500534579157,-0.009092457189783453
1782835594767281200,7.34428125,-0.0894365252971649,0.00022214571754448114,0.010535112012457102
1782835594777212000,7.3542119140625,-0.09243161545991897,0.0006538790651597083,-0.0030679179369471963
1782835594787142100,7.36414208984375,-0.09602116438448428,-0.005412855361588299,-0.008541070384718477
1782835594797072000,7.37407177734375,-0.09467325690686702,-0.0003167286658193916,0.004395147952716797
1782835594807002000,7.384002197265625,-0.09751812494397163,0.0034150600073393433,-0.0002839132416062057
1782835594816931800,7.393931884765625,-0.09572364274263381,-0.0013658358599524943,0.0010074782758019863
1782835594826862000,7.403862060546875,-0.08689619316458702,-0.008517680375976487,-0.0020314144960604606
1782835594836792800,7.413792724609375,-0.08599602945446967,-0.0016179017917253076,0.0012481186312623322
1782835594846723000,7.42372314453125,-0.09063479517102241,-0.00008802534332498907,0.008145166402310132
1782835594856653000,7.433653076171875,-0.08973580050468444,-0.005846935929916799,0.0018089308517985044
1782835594866583000,7.4435830078125,-0.0837508808761835,-0.002861627375660464,-0.00002354527236893773
1782835594876513300,7.45351318359375,-0.08180559202730656,0.0004140698267612606,0.005821929352823644
1782835594886443300,7.463443359375,-0.08554711664319038,-0.005515347621683031,-0.0006286898249760269
1782835594896373200,7.473373291015625,-0.08734452145397663,0.001749026491260156,0.002304660213179886
1782835594906304300,7.48330419921875,-0.08525076404511928,-0.004013884417014196,0.0016724815231747925
1782835594916234200,7.493234130859375,-0.08539981712698937,-0.0008884002070873975,0.0031880006526596844
1782835594926164500,7.50316455078125,-0.08360416588187217,-0.0011564308929722755,0.00822966634798795
1782835594936094200,7.51309423828125,-0.08360475040376186,-0.00784561720015481,-0.005537595986109227
1782835594946024200,7.523024169921875,-0.09677285953462124,-0.005167502298392355,0.0025155630175024268
1782835594955954400,7.532954345703125,-0.10036299298107623,-0.007572371483035385,0.008034490835759788
1782835594965884200,7.54288427734375,-0.08435293842256068,-0.0008797328434418886,0.0022024967466481027
1782835594975814400,7.552814453125,-0.08734802858531475,-0.003468297165073454,-0.0016155637041665612
1782835594985745200,7.5627451171875,-0.0882476077735424,-0.008508465023059398,0.0031735154695808885
1782835594995675400,7.57267529296875,-0.08809855469167233,0.0029278975449036804,0.003149403941631317
1782835595005605000,7.582605224609375,-0.08914426435232162,0.0007014719333965331,0.00034866730719804764
1782835595015535400,7.592535400390625,-0.07777180646657943,-0.00011004537888802587,0.003165058168489486
1782835595025465300,7.60246533203125,-0.07866846304535866,-0.0023722729561384765,0.0056050351991318165
1782835595035395300,7.612395263671875,-0.08974106120169162,-0.0022097028055693955,-0.0017441402535885572
1782835595045326300,7.622326416015625,-0.0915372969686985,-0.0024545261458028106,0.013339538441319018
1782835595055256300,7.63225634765625,-0.09288461992442608,-0.002711925839819014,0.009732435593754052
1782835595065186300,7.642186279296875,-0.09408230527639388,0.000990207480592653,-0.007656981026567518
1782835595075116000,7.652115966796875,-0.096325700289011,-0.008337985560670495,0.0010538016355596481
1782835595085046300,7.66204638671875,-0.0862999808371067,-0.006637702715117484,0.0004934095401316881
1782835595094976300,7.671976318359375,-0.0927349823206663,-0.0022270557991694658,0.002803476580791175
1782835595104906200,7.68190625,-0.09632628481090068,-0.001741391174076125,0.004303999070543796
1782835595114837200,7.691837158203125,-0.08136135539114475,0.000005909150978550315,0.002690261997282505
1782835595124767200,7.701767333984375,-0.08734802858531475,0.0000021280250046402217,0.0068265946170315145
1782835595134697200,7.711697265625,-0.08585223706960678,-0.0004879479137249291,0.008275277321692556
1782835595144627500,7.72162744140625,-0.09498188446462154,-0.010134139129286632,0.005228402172774076
1782835595154557200,7.73155712890625,-0.08450842124521732,-0.004422794011468068,-0.00021002602148801087
1782835595164487400,7.7414873046875,-0.08884908079802989,-0.0032741080335341394,0.001854158233013004
1782835595174417200,7.751417236328125,-0.09468319377899169,-0.003892879252694547,0.003894797215145081
1782835595184348400,7.761348388671875,-0.08435936816334724,-0.010979787040036172,0.008303736231196672
1782835595194278100,7.771278076171875,-0.09483224686086177,-0.00458087978316471,0.006515555906482041
1782835595204208400,7.78120849609375,-0.08690145386159419,-0.0034777225805446505,0.008715659766644238
1782835595214138400,7.791138427734375,-0.09782558345794677,-0.007949835626455024,-0.0011957673895172775
1782835595224068000,7.801068115234375,-0.08705167598724364,-0.0026735574576538055,-0.0058066769847646355
1782835595233998300,7.810998291015625,-0.08929624004364013,0.004278088311152533,-0.0010489245310425757
1782835595243928300,7.82092822265625,-0.08929740908741951,-0.0029356059273239225,0.005355060759745538
1782835595253859300,7.830859375,-0.08660568578541278,-0.007388146623084321,-0.008029449334461241
1782835595263789000,7.8407890625,-0.08570902920663356,-0.0022507106693927196,-0.0016994060627184807
1782835595273719300,7.85071923828125,-0.08765548709928989,0.0007054996545426547,-0.0029630693229846655
1782835595283649300,7.860649169921875,-0.08780454018115996,-0.006964413918834179,-0.005067549055255949
1782835595293579300,7.870579345703125,-0.09274258110523223,-0.0054685128052718935,-0.0007210260172374546
1782835595303509200,7.88050927734375,-0.09618249242603778,0.00270359640289098,-0.005663213393464684
1782835595313439500,7.890439453125,-0.0810673408806324,-0.0012322543418500573,0.0091322594772093
1782835595323369200,7.900369140625,-0.08405950843393802,0.0008248517178930342,0.005098254720773548
1782835595333300500,7.910300537109375,-0.08525544022023678,0.003929366205027327,-0.007423062672838568
1782835595343230200,7.920230224609375,-0.0996194811373949,0.00011991831893101334,-0.0014062135361135005
1782835595353160400,7.930160400390625,-0.09378478363454341,-0.0010732004557736218,-0.0032499417066574094
1782835595363090200,7.940090087890625,-0.08121756300628184,0.0000615026625804603,-0.00482100868197158
1782835595373020200,7.950020263671875,-0.08615735749602317,-0.009505887695727869,0.011400770664773881
1782835595382950400,7.959950439453125,-0.09049801704883575,-0.012654615783924236,0.005928348869364709
1782835595392880000,7.969880126953125,-0.08511164783537388,-0.008841761231189594,0.006319668008200824
1782835595402811400,7.979811279296875,-0.08182020507454872,-0.003543243831116706,0.003990330011490732
1782835595412741000,7.9897412109375,-0.08391513152718544,-0.000060735477600246664,0.002588774384185672
1782835595422671400,7.99967138671875,-0.08256839309334754,-0.0009195625303313135,0.003760137984808534
1782835595432601000,8.00960107421875,-0.09139876528084277,0.0013771061726380138,-0.00022043781764805316
1782835595442531300,8.01953125,-0.09050210870206356,-0.002501945484103635,-0.0026559030699543655
1782835595452461300,8.02946142578125,-0.08496493284106255,0.005272761904308572,-0.0002288951187394559
1782835595462391300,8.039391357421875,-0.09424363331794738,-0.006887238763086497,-0.0033111155756749213
1782835595472322300,8.049322265625,-0.09499415942430496,-0.008379011690802872,-0.004470259015541524
1782835595482252300,8.059252197265625,-0.09305003961920738,-0.010105835483409464,-0.0009877689283341168
1782835595492182300,8.069182373046875,-0.0969394482731819,-0.003758430084912106,-0.0025487163684330878
1782835595502112500,8.079112548828125,-0.08916004644334316,-0.006631985360383987,0.00573481732495129
1782835595512042200,8.089042236328124,-0.07719137623012065,-0.005775459862593561,0.004396992849931121
1782835595521972200,8.09897216796875,-0.087218849247694,-0.00860354116167873,0.0053394247991964214
1782835595531902200,8.108902099609375,-0.08961305090785027,-0.0075962181495036925,0.0052504130751825865
1782835595541833200,8.118833251953125,-0.10143559064865111,0.003578698736988008,0.003356507353670895
1782835595551763200,8.12876318359375,-0.07106266421675682,0.0028373423177748915,-0.00948985900953412
1782835595561693200,8.138693115234375,-0.08528115918338298,-0.004341353672556579,-0.008656915316730737
1782835595571623400,8.14862353515625,-0.09156652306318283,0.0010880052992608398,0.008975881605409086
1782835595581553200,8.15855322265625,-0.08363689910769462,0.0026822978865355253,-0.004266096479259431
1782835595591483400,8.1684833984375,-0.09216858060956001,-0.0016712394141592084,0.004565280355233699
1782835595601413400,8.178413330078126,-0.08827741838991641,-0.007885985743161291,0.0073353661230765276
1782835595611344400,8.188344482421876,-0.0840863964408636,-0.006779686735384166,-0.00014941840805113315
1782835595621274000,8.198274169921875,-0.08902443736493587,-0.004853367448458447,0.002551712043117732
1782835595631204400,8.208204345703125,-0.07121697799563408,-0.004494562339736149,-0.008992924071755259
1782835595641134300,8.21813427734375,-0.08453414020836353,-0.0030584194562397896,-0.007934227065369486
1782835595651064000,8.22806396484375,-0.10009528195559977,-0.006344117462867871,0.0014854162521660327
1782835595660994300,8.237994384765624,-0.09515957911908626,-0.005433039633091539,0.008788177013583481
1782835595670924300,8.24792431640625,-0.0837906283646822,0.0016605810228269547,-0.005888510049320757
1782835595680854300,8.257854248046876,-0.08723580038249493,-0.0010625237981323151,-0.0034137174336239693
1782835595690785300,8.267785400390625,-0.08229717493653296,0.004042032799264416,0.0005352211215533315
1782835595700715300,8.27771533203125,-0.08798457292318343,-0.001524268691521138,-0.002783127912506461
1782835595710645200,8.287645263671875,-0.08993103081583977,-0.0003562295591458678,-0.006456829722877592
1782835595720575200,8.2975751953125,-0.09023089054524898,-0.008218441701075063,0.008890066485479473
1782835595730505200,8.307505126953124,-0.09262392316162586,-0.015190883662737905,0.0035234066194854675
1782835595740435500,8.317435546875,-0.08828326360881328,-0.009572833718406035,-0.005344064441695809
1782835595750365200,8.327365234375,-0.08259820370972155,-0.0029544841577298937,-0.0022365451467223465
1782835595760296400,8.33729638671875,-0.09038052814900875,-0.008380135068809613,-0.003749452194012701
1782835595770226200,8.34722607421875,-0.09112871616780757,-0.006467972171399742,-0.005701024653203785
1782835595780156400,8.357156494140625,-0.08663958805501461,0.00026936412644572554,-0.006165810887049883
1782835595790086100,8.367086181640625,-0.08589315360188483,0.0004803673954680562,-0.00729055886697024
1782835595800016100,8.37701611328125,-0.08918342731893063,-0.0027004728640429676,0.0002278722054325044
1782835595809946400,8.3869462890625,-0.09157587541341781,-0.0011617007231339812,-0.0014625833658501505
1782835595819876000,8.3968759765625,-0.08184943116903305,-0.0017734211470000446,0.006824146931618451
1782835595829806300,8.406806396484376,-0.08768412867188453,0.0006842102713417262,-0.0020647139774635434
1782835595839737000,8.416737060546875,-0.08558920221924782,-0.002187801501015201,0.0012753536980599164
1782835595849667300,8.426667236328125,-0.08798574196696281,-0.008742556906724349,0.0011655001154169439
1782835595859597300,8.436597412109375,-0.09965922862589359,-0.005830121792433783,0.005897971997410058
1782835595869527300,8.44652734375,-0.09008476007282733,-0.00019225290277972816,0.006858487592637539
1782835595879457300,8.456457275390624,-0.08679097922444343,-0.004449325825367122,-0.004089844863209873
1782835595889387300,8.46638720703125,-0.09172960467040538,-0.006059848028235137,0.000842058581020683
1782835595899317200,8.476317138671876,-0.07781389204263686,-0.0010466595087200402,0.001288797701522708
1782835595909248300,8.486248291015626,-0.08858721499145031,-0.0005365271626506001,0.004501421338785439
1782835595919178200,8.49617822265625,-0.09263035290241241,-0.007206807839963585,0.002119348507840186
1782835595929108500,8.5061083984375,-0.09023556672036648,0.00034480398283340036,-0.002749791898485273
1782835595939038200,8.5160380859375,-0.08903963493406772,-0.0034891664231661706,0.0024686551358550786
1782835595948968200,8.52596826171875,-0.09622399348020554,-0.00030021592243574557,0.005237937186099589
1782835595958898400,8.5358984375,-0.08006254775226115,-0.0022884488638956098,-0.000448839746043086
1782835595968828200,8.545828125,-0.08066051364541053,-0.0051350887329783285,0.0039068529791198665
1782835595978758400,8.55575830078125,-0.08320552195310592,0.0006409191188868135,0.009135109021421521
1782835595988689200,8.565689208984375,-0.08635141876339912,0.0020815372481010853,-0.005058744694292545
1782835595998619400,8.575619384765625,-0.09727671740353107,0.0035163923568092286,-0.0015351006127893923
1782835596008549000,8.585549072265625,-0.08365852641761302,0.00528145666741766,0.006362082377821206
1782835596018479400,8.595479248046875,-0.0844090525239706,0.006161481771804392,0.008380034604109823
1782835596028409300,8.605409423828124,-0.09293781141638756,0.005632626458955929,-0.0024772768337279556
1782835596038339300,8.61533935546875,-0.08276245436072349,0.002490565573563799,-0.0009723886961117386
1782835596048269300,8.625269287109376,-0.0820130972981453,0.0006508377247024328,-0.0004792531506158411
1782835596058199000,8.635198974609375,-0.09488017765581608,-0.0007497954539954662,0.00856099892789498
1782835596068130300,8.64513037109375,-0.09203589414060115,0.0005867412462364882,0.003376545494701713
1782835596078060300,8.655060302734375,-0.08889350446164608,-0.006475251295557245,-0.0009103745768778025
1782835596087990300,8.664990234375,-0.07991583275794982,-0.011333824642095714,0.004581683500763029
1782835596097920300,8.674920166015625,-0.09098901543617248,0.0047679085215553635,-0.003975497768539935
1782835596107850200,8.684850341796874,-0.09951777432858944,-0.005038094631908461,-0.0035235527499578893
1782835596117780200,8.6947802734375,-0.08694763109087944,-0.002094214066583663,0.0011269034043885767
1782835596127710500,8.70471044921875,-0.08425473874509334,0.0010950560945551843,0.0029919848902150987
1782835596137640200,8.71464013671875,-0.0882955385684967,-0.003303398060100153,0.0031498423330485817
1782835596147571200,8.7245712890625,-0.09413082059323787,-0.008080850728135556,0.01215031039044261
1782835596157501200,8.734501220703125,-0.08530337101519107,-0.01001328922859393,0.0014748217929154634
1782835596167431400,8.744431396484375,-0.08530337101519107,-0.004003536552935839,0.0002766067179851234
1782835596177361200,8.754361083984374,-0.08590133690834045,-0.004997662156820297,-0.00375113269444555
1782835596187291400,8.76429150390625,-0.09846797301471233,-0.00874833819353953,-0.002859499350655824
1782835596197221400,8.774221435546876,-0.09098726187050342,-0.0029852811547927557,-0.002080057677067816
1782835596207151000,8.784151123046875,-0.08814414739906787,-0.005547669855551794,-0.005299366783443838
1782835596217082400,8.794082275390625,-0.09771920047402381,-0.004117289992561564,-0.008183945776429027
1782835596227012000,8.80401220703125,-0.09771803143024443,0.0009161832631565629,-0.002366637799795717
1782835596236942300,8.8139423828125,-0.10475158332884311,0.004214229294704273,-0.0013488025267608464
1782835596246872000,8.8238720703125,-0.08739479033648967,-0.00037732714610174296,-0.01081120727378875
1782835596256802300,8.83380224609375,-0.08380056523680686,-0.00030490123070776463,-0.006065565382968634
1782835596266732300,8.843732177734376,-0.09097849404215812,0.0038389571083709594,0.0034282026167027652
1782835596276662300,8.853662353515626,-0.08798457292318343,-0.0030128358819987624,-0.0032248072654008863
1782835596286592300,8.86359228515625,-0.08678688757121562,-0.0036819581820629536,0.005516900257952511
1782835596296523300,8.873523193359375,-0.08588672386109829,0.010458704041689634,0.0014435133391991256
1782835596306453200,8.883453369140625,-0.08199439259767533,0.0017696126215625554,-0.0061075596274808045
1782835596316383500,8.893383544921875,-0.09247077842652797,-0.0017402221302967517,0.0017511910488829017
1782835596326313200,8.903313232421874,-0.07900047147870064,-0.0011415529842488468,0.0009568075344897806
1782835596336243200,8.9132431640625,-0.09097206430137157,-0.0009659315558616071,0.007061426286213099
1782835596346173200,8.923173095703126,-0.09112053286135197,-0.0042497298663482065,0.008464753745496273
1782835596356103200,8.933103271484375,-0.08528408179283141,0.004225527006853372,-0.000044953386578708885
1782835596366033400,8.943033447265625,-0.08872574667930602,-0.0010899871937930584,-0.0033641792034730315
1782835596375964200,8.952964111328125,-0.0885743555098772,-0.007574691304285079,-0.004739723606687039
1782835596385894400,8.962894287109375,-0.0927659619808197,-0.007563475790526717,0.00032654680693522094
1782835596395824000,8.97282421875,-0.08558511056602,-0.005660089854616672,0.0008931859800592064
1782835596405754400,8.98275439453125,-0.08932663518190384,0.0020630791428033262,0.004802395313046872
1782835596415684000,8.99268408203125,-0.09082125765383244,-0.002571631453139707,0.0031785569708794354
1782835596425614300,9.0026142578125,-0.08663140474855899,-0.00038608584129251535,0.0027658297178335487
1782835596435544300,9.01254443359375,-0.08678162687420844,-0.005386844137497246,0.007511124548781663
1782835596445474300,9.022474365234375,-0.08289163369834422,0.0011598649590741843,-0.0029595804579555986
1782835596455405300,9.0324052734375,-0.0861865835905075,0.0010500844416674226,-0.006213394622132181
1782835596465335300,9.042335205078125,-0.08499006728231906,-0.0015600432578008621,0.0013986512841656802
1782835596475265300,9.052265380859374,-0.0816992090433836,0.0007303966337814927,-0.0010929280695505439
1782835596485195300,9.0621953125,-0.08184826212525367,0.004226001930888742,0.004775324643030762
1782835596495125200,9.072125244140626,-0.08918050470948219,0.000660473202727735,0.0008325966329313815
1782835596505055200,9.08205517578125,-0.07975333567261696,-0.001403455323446542,-0.005959456393681466
1782835596514985200,9.091985107421875,-0.09337035761475562,-0.004459436227427795,-0.004638637852389365
1782835596524915200,9.101915283203125,-0.0876852977156639,-0.001593845062702894,0.0031088710018433627
1782835596534846200,9.11184619140625,-0.08723930751383305,-0.00021377061484381554,0.012147588710393755
1782835596544776200,9.121776123046875,-0.08469605277180671,-0.0014787399162072687,0.008667856835853308
1782835596554706400,9.13170654296875,-0.08499415893554688,0.003999928956897929,0.007479907426610589
1782835596564636200,9.14163623046875,-0.08918050470948219,-0.0026371527037117627,-0.0007397124513983726
1782835596574566400,9.15156640625,-0.08229425232708454,-0.004320594012318179,-0.004782503302488476
1782835596584496400,9.161496337890625,-0.08169277930259704,0.006944174848403781,0.005648837808240205
1782835596594426000,9.171426025390625,-0.08184241690635681,-0.003670861399313435,0.00041586905820295214
1782835596604356400,9.1813564453125,-0.07959785284996032,0.005971128565166145,0.006886471578106284
1782835596614287400,9.191287353515625,-0.08438800973594188,0.0006213285024277865,0.002088514978159219
1782835596624217300,9.20121728515625,-0.09651099372804164,-0.009605165085429326,0.001575542221032083
1782835596634147000,9.21114697265625,-0.0960638344824314,-0.0006486731670796871,0.00348325727218762
1782835596644077300,9.221077392578126,-0.09486731817424297,-0.0001243661651853472,0.013893829589523374
1782835596654007300,9.23100732421875,-0.08453998542726039,-0.003399734574044123,0.00031582448352128267
1782835596663937300,9.240937255859375,-0.0857382553011179,0.010972425717487931,-0.00465655710157007
1782835596673867300,9.2508671875,-0.09472060317993164,0.0016811306205112486,0.004158434853702784
1782835596683797200,9.26079736328125,-0.09158230515420436,0.0015072810241021214,-0.005651778683997691
1782835596693728300,9.270728271484375,-0.08125847953855991,0.0037208562871906903,-0.004909600280877203
1782835596703658200,9.280658203125,-0.08230535824298858,-0.0026381573507096617,0.007878332159668208
1782835596713588200,9.290588134765626,-0.09397767585813999,-0.011837371983751654,-0.00022063874704763293
1782835596723518500,9.3005185546875,-0.08724398368895053,-0.0018003456865437327,-0.0013892806676216423
1782835596733448200,9.3104482421875,-0.08395312545001506,-0.007595761491777375,-0.0007005860174074768
1782835596743374300,9.320374267578124,-0.0863438199788332,-0.007608867568522692,-0.0018614099577069282
1782835596753305000,9.33030517578125,-0.08813713313639164,-0.0032992424747906625,-0.0038523645792156455
1782835596763235300,9.3402353515625,-0.08095452815592288,-0.005206838794937357,0.000808722566999495
1782835596773165300,9.350165283203125,-0.08394611118733883,-0.003180237471312284,0.0015055639910511673
1782835596783095300,9.36009521484375,-0.08828735526204108,0.0059992769474163645,0.007793247692100704
1782835596793025300,9.370025390625,-0.09382453112304211,0.0021031006259378043,0.00910330737736076
1782835596802955300,9.379955322265625,-0.09247662364542483,0.0034368608471937474,0.006408643199596554
1782835596812885200,9.38988525390625,-0.08708966991007328,0.002064878374245018,0.006103157446999102
1782835596822815200,9.399815185546874,-0.09591770401000976,-0.005422837899485603,-0.0014580350548960268
1782835596832745200,9.4097451171875,-0.09577040449380875,0.005908118932088837,0.002954886016529053
1782835596842676200,9.41967626953125,-0.0776683460921049,0.0008638594208750873,0.00734462714176625
1782835596852606200,9.429606201171875,-0.08275544009804725,0.0005375500759575516,0.0036818303178995843
1782835596862536200,9.4395361328125,-0.09233283126056194,0.0010732004557736218,-0.0021405739589594303
1782835596872466400,9.449466552734375,-0.09308218832314014,-0.0016691205223090945,0.008098203721735626
1782835596882396200,9.459396240234375,-0.08111351810991764,-0.004017090154252946,0.0012713351100683212
1782835596892326100,9.469326171875,-0.0948790086120367,0.0020947163900826124,-0.0037889439541846513
1782835596902256000,9.479256103515626,-0.08665186301469803,0.0025597218196373433,-0.00010778948972001672
1782835596912186000,9.48918603515625,-0.09009645051062107,-0.00024957258058711884,0.003493833465129137
1782835596922117000,9.4991171875,-0.0893500160574913,0.005023810378229245,-0.0028054676084779203
1782835596932047000,9.509047119140625,-0.09758242235183716,0.000710815150476992,0.0056823199527338145
1782835596941977300,9.518977294921875,-0.09548983398675918,-0.0008876786878798156,0.015757705498952418
1782835596951907000,9.528906982421875,-0.08262158458530902,-0.0027321283776313063,0.007397855166345834
1782835596961837300,9.53883740234375,-0.09219839122593403,0.005418828444648534,-0.002210807917267084
1782835596971767300,9.548767333984374,-0.09339373849034309,0.009067459745844825,0.007418331698793917
1782835596981697000,9.558697021484376,-0.08321779691278934,0.006304041180806234,0.0040249264008365565
1782835596991627300,9.568627197265625,-0.07753156796991825,0.005878518378268927,-0.0037316242763772603
1782835597001558300,9.578558349609375,-0.09084931470453739,-0.0021974461121950298,0.011676427534688264
1782835597011488300,9.58848828125,-0.09758592948317527,-0.003064493003999814,-0.001018364995997399
1782835597021418000,9.59841796875,-0.09295067089796066,0.0029729605293367057,-0.004630198817607015
1782835597031348200,9.60834814453125,-0.08187573465406894,0.0018833751943428069,-0.00037513518901541825
1782835597041278200,9.6182783203125,-0.0892062236726284,-0.0013157405073754489,0.0026850195665843782
1782835597051208200,9.628208251953126,-0.09578910919427872,-0.0009834946120157837,-0.0008163761504925787
1782835597061138200,9.63813818359375,-0.08276713053584098,-0.0024156371738296,0.002232161232549697
1782835597071068200,9.648068115234375,-0.09728197810053825,-0.003936024274677038,-0.0031630854071117934
1782835597080999200,9.657999267578125,-0.09653963530063629,0.001525775662017986,-0.003363192822784185
1782835597090929200,9.66792919921875,-0.08352233281731605,0.0031382066941820085,0.0026754662869498133
1782835597100859100,9.677859130859375,-0.08696399770379067,-0.0006660261606797576,0.004652045323234051
1782835597110789400,9.687789306640624,-0.08576631235182285,-0.00014396591479890047,-0.003647928048297763
1782835597120719000,9.697718994140626,-0.07648527378737927,-0.0024160025000106544,0.005951875875424594
1782835597130649000,9.707649169921876,-0.0832195504784584,0.001686446116445586,0.00716282256776467
1782835597140579300,9.717579345703125,-0.0826221691071987,0.006818283446412533,0.00023364435909315942
1782835597150509000,9.727509033203125,-0.08501929337680339,0.0016549093338660895,0.003232022457476705
1782835597160439300,9.737439208984375,-0.08936170649528503,0.006154860234772786,-0.006571176817547529
1782835597170370000,9.7473701171875,-0.08981412643790244,-0.004864966554706916,0.003090933486353606
1782835597180300300,9.75730029296875,-0.09011457068920135,-0.0013975005066953598,0.0017585706377401947
1782835597190230000,9.76722998046875,-0.08517652976512909,0.003397652214812115,0.0008694032456725836
1782835597200160300,9.77716015625,-0.07350655023753642,-0.002853754596458748,-0.00652655222453177
1782835597210090200,9.78709033203125,-0.09535597847402096,-0.012988131187763064,-0.0026712285032495856
1782835597220020200,9.797020263671875,-0.08967033405303955,-0.0019498371598310768,0.002952602727897465
1782835597229950200,9.8069501953125,-0.09251578661203384,0.004261758230859413,-0.0017637582695111632
1782835597239880200,9.816880126953125,-0.08390987083017826,0.002152154798898846,-0.011641063960362226
1782835597249811200,9.826811279296875,0.1548749198913574,0.0166843279577326,-0.023566516086366025
1782835597259741200,9.8367412109375,-0.33818799875974653,-0.011311201818333939,0.010392726133391261
1782835597269671200,9.846671142578124,-0.07841711863279342,-0.0007549100205302238,0.0076798321791924536
1782835597279601200,9.85660107421875,-0.0875333220243454,-0.0058760798260103905,0.012819295693188905
1782835597289531100,9.86653125,-0.19460954890847204,-0.013440907323407008,0.0017814948556013404
1782835597299461000,9.876461181640625,-0.11139175199568271,-0.0039268728538416325,0.023125804847851393
1782835597309391400,9.886391357421875,0.06713233903050422,0.003960391530953348,-0.01614029334206134
1782835597319321000,9.896321044921875,-0.14714754050970077,-0.0019502664180938154,-0.010856233725603669
1782835597329251300,9.906251220703124,-0.06050795245468616,0.0005225169036071748,-0.002325794332753867
1782835597339182000,9.91618212890625,-0.12201309925317763,0.005971082899393514,0.016636917752586303
