time,seconds_elapsed,z,y,x
1782835587508322800,0.08532275390625,0.0007028989493846893,0.001048976555466652,-0.00005552079528570175
1782835587518253600,0.095253662109375,0.0016310103237628937,-0.0008815489709377289,0.0029557151719927788
1782835587528183800,0.105183837890625,0.000669366680085659,-0.00131236482411623,0.0013430425897240639
1782835587538113500,0.115113525390625,0.0019362326711416245,0.0016013998538255692,-0.0007989378646016121
1782835587548043800,0.125043701171875,-0.0018479805439710617,0.003086499869823456,-0.000452960841357708
1782835587557973500,0.134973388671875,-0.0012378506362438202,0.0002760663628578186,0.0008599776774644852
1782835587567903700,0.14490380859375,-0.0012080566957592964,0.0016243532299995422,0.002527971751987934
1782835587577834500,0.15483447265625,0.00011233892291784286,0.003062726929783821,0.0009151613339781761
1782835587587764700,0.1647646484375,0.0006316015496850014,-0.00007972400635480881,-0.0017479779198765755
1782835587597694700,0.17469482421875,0.0029357681050896645,-0.0004144841805100441,-0.0012137475423514843
1782835587607624400,0.18462451171875,0.00004418380558490753,-0.0012547681108117104,-0.0008302722126245499
1782835587617554700,0.1945546875,0.001135546714067459,0.000044854357838630676,0.0016999971121549606
1782835587627485700,0.204485595703125,-0.0008677234873175621,-0.003642902709543705,-0.0018672090955078602
1782835587637415700,0.214415771484375,-0.0004847608506679535,-0.000988529995083809,0.00010779127478599548
1782835587647345700,0.224345703125,-0.00022295303642749786,0.00018811039626598358,0.0031839078292250633
1782835587657275600,0.234275634765625,0.0009738709777593613,0.003269920125603676,0.0010571079328656197
1782835587667205600,0.24420556640625,0.001623496413230896,0.0017606830224394798,-0.005346506834030151
1782835587677136600,0.25413671875,-0.002871386706829071,-0.0003482745960354805,-0.0001203194260597229
1782835587687066600,0.264066650390625,-0.0014551477506756783,0.0004031676799058914,-0.0016498775221407413
1782835587696996600,0.27399658203125,0.0006372984498739243,0.00039118342101573944,0.0013786694034934044
1782835587706926600,0.283926513671875,-0.001534472219645977,-0.0006311722099781036,0.0008510155603289604
1782835587716856800,0.29385693359375,-0.00036401301622390747,0.0005488749593496323,0.00035433657467365265
1782835587726787600,0.30378759765625,-0.0005193464457988739,0.0017151618376374245,-0.002718956209719181
1782835587736717800,0.3137177734375,-0.00314202718436718,0.0006834529340267181,-0.0010137339122593403
1782835587746647600,0.3236474609375,0.0019649602472782135,-0.0025466028600931168,-0.0010456228628754616
1782835587756577800,0.333577880859375,-0.0005724998190999031,-0.0018906667828559875,-0.00174363749101758
1782835587766507500,0.343507568359375,-0.0007824208587408066,-0.0006996039301156998,-0.0028185355477035046
1782835587776438800,0.353438720703125,0.0007600821554660797,0.0015539629384875298,-0.00015990156680345535
1782835587786368500,0.363368408203125,-0.0013124942779541016,0.0010899826884269714,-0.0009940974414348602
1782835587796298800,0.373298828125,-0.0007415125146508217,0.0005221972241997719,-0.0006976872682571411
1782835587806228700,0.383228759765625,-0.000940149649977684,-0.0034678950905799866,0.0014624744653701782
1782835587816158500,0.393158447265625,-0.001089552417397499,-0.0005482714623212814,-0.000618253368884325
1782835587826089700,0.40308984375,0.0006661415100097656,0.0008532116189599037,-0.0002829241566359997
1782835587836019700,0.413019775390625,0.0017045075073838234,-0.0010602697730064392,-0.0003593568690121174
1782835587845949700,0.42294970703125,-0.0005340520292520523,-0.0013111233711242676,0.000584624707698822
1782835587855879400,0.43287939453125,0.0010428056120872498,0.0006572194397449493,-0.0003067352809011936
1782835587865809700,0.4428095703125,0.0006559295579791069,0.000646800734102726,-0.0007067904807627201
1782835587875736800,0.45273681640625,-0.0016064262017607689,0.0030697453767061234,-0.00040052691474556923
1782835587885667000,0.4626669921875,0.0038386965170502663,0.001103089191019535,0.0006201379001140594
1782835587895597000,0.47259716796875,0.0008620806038379669,0.002873293124139309,0.0009482391178607941
1782835587905527000,0.482527099609375,-0.0018703341484069824,0.0011674948036670685,-0.0010456060990691185
1782835587915457000,0.49245703125,-0.0009382283315062523,0.0010638982057571411,-0.001172638963907957
1782835587925388000,0.502387939453125,-0.0012966655194759369,-0.0009200740605592728,0.001651514321565628
1782835587935318000,0.512318115234375,0.0013236189261078835,-0.001895057037472725,-0.0012683756649494171
1782835587945248000,0.522248046875,-0.0009742612019181252,-0.00215290579944849,0.0004074610769748688
1782835587955178000,0.532177978515625,-0.0002285754308104515,-0.00012996792793273926,0.000045804306864738464
1782835587965108000,0.54210791015625,0.0020831171423196793,0.00019353069365024567,-0.0013464819639921188
1782835587975039000,0.5520390625,0.00031025055795907974,-0.0013993056491017342,0.001463153399527073
1782835587984969200,0.56196923828125,0.00006455089896917343,-0.004016845487058163,0.0019673528149724007
1782835587994899000,0.57189892578125,-0.0010190894827246666,0.0006705848500132561,-0.00018528010696172714
1782835588004829000,0.581828857421875,-0.002113834023475647,0.0038841934874653816,0.0008599637076258659
1782835588014759200,0.59175927734375,0.0004800846800208092,0.001230352558195591,-0.00036189425736665726
1782835588024690000,0.60168994140625,-0.0008608344942331314,0.0003114938735961914,0.0016691247001290321
1782835588034620200,0.6116201171875,0.0015551857650279999,0.00026808399707078934,0.0005806898698210716
1782835588044550000,0.6215498046875,0.0008038561791181564,0.0009353430941700935,-0.0014093341305851936
1782835588054480100,0.631480224609375,-0.0010409150272607803,-0.0016228891909122467,0.00020134542137384415
1782835588064409900,0.641409912109375,0.0004913462325930595,-0.0006064828485250473,-0.00015205424278974533
1782835588074341000,0.651341064453125,-0.0007486222311854362,-0.0015037013217806816,-0.0008370191790163517
1782835588084270800,0.661270751953125,-0.0009585367515683174,-0.002361922524869442,0.0016548214480280876
1782835588094201000,0.671201171875,-0.0005705142393708229,-0.0007270080968737602,0.0005637248978018761
1782835588104131000,0.681131103515625,-0.001475740224123001,0.0012039877474308014,0.0019462676718831062
1782835588114061000,0.69106103515625,-0.00026639923453330994,0.00279096607118845,-0.0019528670236468315
1782835588123991000,0.700990966796875,-0.0011574169620871544,-0.0006661377847194672,0.0006977608427405357
1782835588133922000,0.710922119140625,-0.0016168123111128807,0.002706756815314293,-0.0012255744077265263
1782835588143852000,0.72085205078125,-0.002149428240954876,-0.002705519087612629,-0.00022884737700223923
1782835588153782000,0.730781982421875,0.00029402226209640503,0.0006450042128562927,-0.0007790564559400082
1782835588163712000,0.7407119140625,-0.001177813857793808,0.0012016184628009796,0.0003252476453781128
1782835588173642000,0.75064208984375,0.0016406094655394554,0.001752360723912716,0.0003955550491809845
1782835588183573000,0.760572998046875,-0.002052921801805496,0.0016631651669740677,-0.0013081016950309277
1782835588193503000,0.7705029296875,0.0014533959329128265,-0.0005874717608094215,-0.0009714779444038868
1782835588203433000,0.780432861328125,0.0004729758948087692,-0.0005505327135324478,-0.0011584935709834099
1782835588213363000,0.790363037109375,-0.0007712533697485924,-0.0001971311867237091,-0.0011960440315306187
1782835588223293200,0.800293212890625,-0.0009879302233457565,-0.00020346511155366898,0.0009513571858406067
1782835588233224000,0.810223876953125,-0.00010349508374929428,-0.00010279752314090729,-0.0018779854290187359
1782835588243154200,0.820154296875,-0.0010721851140260696,0.0009986506775021553,-0.0011087232269346714
1782835588253084000,0.830083984375,0.002050371840596199,0.00035256706178188324,-0.0019159270450472832
1782835588263014100,0.84001416015625,-0.0009342273697257042,0.000019161030650138855,0.0014771735295653343
1782835588272943900,0.84994384765625,0.0005683274939656258,-0.0016021709889173508,0.0016436213627457619
1782835588282875100,0.859875244140625,0.0006907414644956589,0.0013563204556703568,0.0004604896530508995
1782835588292804900,0.869804931640625,0.00017834920436143875,0.00034405291080474854,-0.0006210198625922203
1782835588302735000,0.879735107421875,0.0017863428220152855,-0.0024241292849183083,-0.0010054586455225945
1782835588312665000,0.8896650390625,0.001287532038986683,0.0008765924721956253,0.0005972320213913918
1782835588322595000,0.899594970703125,0.0009625684469938278,-0.00012490153312683105,0.0020131589844822884
1782835588332526000,0.909526123046875,0.002818525768816471,-0.0007882947102189064,0.0028153033927083015
1782835588342456000,0.9194560546875,0.0011159982532262802,-0.0001392671838402748,0.00021627731621265411
1782835588352386000,0.929385986328125,0.0004083961248397827,0.0012935129925608635,-0.0016988017596304417
1782835588362316000,0.93931591796875,0.0005128420889377594,-0.00003890972584486008,-0.0012013227678835392
1782835588372246000,0.94924609375,0.0006262930110096931,-0.0005505029112100601,0.00017766188830137253
1782835588382176000,0.959176025390625,0.0015693176537752151,-0.0013084383681416512,-0.00003965198993682861
1782835588392107000,0.96910693359375,0.0005874102935194969,-0.000808030366897583,-0.0003043701872229576
1782835588402037000,0.979037109375,0.0006714733317494392,-0.0009776894003152847,0.00007257703691720963
1782835588411967000,0.988967041015625,0.0023223664611577988,0.002317706122994423,-0.00037403497844934464
1782835588421897000,0.99889697265625,-0.0004424396902322769,-0.0017313696444034576,0.002743915654718876
1782835588431828000,1.008827880859375,0.0004566432908177376,-0.0002791481092572212,-0.0008015506900846958
1782835588441758000,1.018758056640625,-0.0006857607513666153,0.00023565441370010376,0.0002822456881403923
1782835588451688000,1.02868798828125,-0.0005933484062552452,-0.0026051392778754234,-0.0008993986994028091
1782835588461618000,1.038617919921875,0.00044414959847927094,0.0020802300423383713,-0.0009580058977007866
1782835588471548200,1.048548095703125,0.001521664671599865,0.001963317394256592,-0.0009020795114338398
1782835588481478000,1.058477783203125,-0.0005769236013293266,0.0011398056522011757,-0.002798686735332012
1782835588491409200,1.0684091796875,-0.0005851797759532928,0.0003448519855737686,0.0018330831080675125
1782835588501339000,1.0783388671875,-0.0009219767525792122,-0.0011672768741846085,-0.00022432021796703339
1782835588511269000,1.08826904296875,0.0004751170054078102,-0.0002972222864627838,0.0036441879346966743
1782835588521199000,1.09819921875,-0.0020791087299585342,-0.001790415495634079,0.00006403680890798569
1782835588531129000,1.108129150390625,-0.0014298297464847565,-0.001705726608633995,-0.001725341659039259
1782835588541060000,1.11806005859375,0.0017825467512011528,0.0002991277724504471,0.001070430502295494
1782835588550990000,1.127989990234375,0.0007873242720961571,0.00012788642197847366,0.0005553755909204483
1782835588560920000,1.137920166015625,0.0006366875022649765,0.0006584208458662033,-0.0016219024546444416
1782835588570850000,1.14785009765625,0.0010353624820709229,0.0008464399725198746,0.00026042014360427856
1782835588580780000,1.157780029296875,-0.002303382381796837,-0.0004112161695957184,0.00040156301110982895
1782835588590711000,1.1677109375,-0.0017643580213189125,0.0003674924373626709,0.001472686417400837
1782835588600641000,1.17764111328125,-0.001323816366493702,0.001341620460152626,0.0009327125735580921
1782835588610571000,1.187571044921875,-0.0032602008432149887,0.001841229386627674,-0.0007706447504460812
1782835588620501000,1.1975009765625,0.00013347715139389038,0.0010865302756428719,-0.0007941448129713535
1782835588630431000,1.207430908203125,0.0001246882602572441,0.001382407732307911,-0.0023757964372634888
1782835588640362000,1.217362060546875,-0.0005598654970526695,-0.0004536248743534088,0.00035685114562511444
1782835588650292000,1.2272919921875,0.0004822295159101486,-0.0019074445590376854,-0.0017603617161512375
1782835588660222000,1.237221923828125,-0.0016688825562596321,-0.000029938295483589172,-0.0018613305874168873
1782835588670152000,1.24715185546875,-0.0008417041972279549,-0.0016046660020947456,-0.0005193636752665043
1782835588680082200,1.257082275390625,0.001042565330862999,-0.002067573368549347,0.00013525690883398056
1782835588690012000,1.267011962890625,-0.0006781034171581268,0.0003851987421512604,-0.00010282965376973152
1782835588699943200,1.276943115234375,-0.0006299549713730812,-0.00511593371629715,-0.00027111172676086426
1782835588709873000,1.286872802734375,-0.0016952194273471832,-0.0012144027277827263,0.0006857616826891899
1782835588719803100,1.29680322265625,-0.0013599079102277756,0.0010322518646717072,-0.0007652207277715206
1782835588729732900,1.30673291015625,-0.0006043696776032448,-0.000010907649993896484,-0.0003076898865401745
1782835588739663000,1.3166630859375,0.001483461819589138,0.0013693496584892273,-0.0028659049421548843
1782835588749593900,1.32659375,0.0016837315633893013,0.0007717357948422432,0.004191737622022629
1782835588759524000,1.336524169921875,0.0027303583920001984,0.002688060514628887,-0.002880508080124855
1782835588769454000,1.3464541015625,-0.000876360572874546,-0.000990297645330429,-0.0007084342651069164
1782835588779384000,1.356384033203125,-0.00018234364688396454,-0.00151923019438982,-0.0006528706289827824
1782835588789314000,1.36631396484375,0.0005247248336672783,-0.00017167069017887115,0.0012217285111546516
1782835588799245000,1.3762451171875,-0.002196437679231167,0.0007577892392873764,-0.000414279755204916
1782835588809175000,1.386175048828125,0.0001551331952214241,0.001213190145790577,-0.0006174789741635323
1782835588819105000,1.39610498046875,0.00028281286358833313,0.001919473521411419,0.0002992246299982071
1782835588829035000,1.406034912109375,0.00005351472645998001,0.00009733811020851135,0.001850249245762825
1782835588838965000,1.415965087890625,0.000003080815076828003,-0.0025262273848056793,-0.0012264400720596313
1782835588848896000,1.42589599609375,-0.001369778998196125,-0.001316087320446968,-0.0012613274157047272
1782835588858826000,1.435825927734375,-0.00005239434540271759,0.0011087479069828987,0.0008348925039172173
1782835588868756000,1.445755859375,0.0014469651505351067,0.0005564074963331223,0.0016468903049826622
1782835588878690300,1.455690185546875,0.0013557001948356628,0.0003750203177332878,0.002747529186308384
1782835588888620000,1.4656201171875,0.0013527702540159225,0.000531880185008049,0.002219158224761486
1782835588898551300,1.47555126953125,-0.0024006683379411697,0.002907048910856247,0.00047218985855579376
1782835588908481000,1.48548095703125,-0.0024254359304904938,0.001638585701584816,0.00035287998616695404
1782835588918411300,1.495411376953125,0.00014599133282899857,0.0009913640096783638,-0.0015683723613619804
1782835588928341200,1.50534130859375,-0.00125962495803833,0.0015500951558351517,0.002929440699517727
1782835588938271200,1.515271240234375,0.000622723251581192,-0.0020104097202420235,-0.0010414524003863335
1782835588948201200,1.525201171875,-0.0019602766260504723,0.0015129521489143372,0.0019024061039090157
1782835588958132200,1.53513232421875,-0.0007396843284368515,-0.0011255135759711266,-0.000399536918848753
1782835588968062200,1.545062255859375,0.0022084349766373634,-0.0016994243487715721,-0.0009494796395301819
1782835588977992200,1.5549921875,-0.002431596629321575,0.00017907004803419113,0.0010952316224575043
1782835588987922200,1.564922119140625,0.0006406260654330254,-0.0021163085475564003,-0.000824375543743372
1782835588997852200,1.57485205078125,-0.0002427259460091591,-0.0010500364005565643,0.0013089925050735474
1782835589007783200,1.584783203125,-0.0010073194280266762,0.0005486598238348961,-0.000678790733218193
1782835589017713200,1.594713134765625,0.0002517411485314369,0.0009079193696379662,0.0003120526671409607
1782835589027643100,1.60464306640625,0.00258520245552063,-0.002704126760363579,0.0005418835207819939
1782835589037573000,1.614572998046875,-0.0005159210413694382,-0.0013594934716820717,0.0003977688029408455
1782835589047503400,1.62450341796875,-0.0007042065262794495,-0.001162152737379074,0.0011522416025400162
1782835589057434000,1.63443408203125,0.0010790778324007988,0.0018347334116697311,-0.0007104701362550259
1782835589067364000,1.644364013671875,-0.0020237714052200317,0.0031591225415468216,-0.0016758660785853863
1782835589077294000,1.654294189453125,0.0004910528659820557,-0.00015607569366693497,0.002793010324239731
1782835589087224300,1.664224365234375,-0.0018930090591311455,-0.0011659469455480576,0.0004323842003941536
1782835589097154000,1.674154052734375,0.0007857037708163261,-0.00032671261578798294,-0.0008707172237336636
1782835589107085300,1.684085205078125,0.0009260522201657295,-0.0008830465376377106,-0.0004270346835255623
1782835589117015000,1.69401513671875,-0.000548284500837326,-0.00024100858718156815,-0.001970150973647833
1782835589126945300,1.7039453125,0.0011348333209753036,-0.0029017729684710503,-0.0013035619631409645
1782835589136875300,1.713875244140625,-0.001912320964038372,-0.00034005194902420044,-0.0007157600484788418
1782835589146805200,1.72380517578125,-0.00042174942791461945,-0.0010191574692726135,-0.00010855961591005325
1782835589156735200,1.7337353515625,0.0000329846516251564,0.001149902120232582,0.0001294221729040146
1782835589166666200,1.743666259765625,-0.00005117151886224747,0.0004412345588207245,0.00016777217388153076
1782835589176596200,1.75359619140625,-0.0011629974469542503,0.002360571175813675,-0.00014378223568201065
1782835589186526200,1.763526123046875,-0.0026932498440146446,-0.00013694167137145996,0.002608061768114567
1782835589196456200,1.773456298828125,-0.0011247051879763603,0.0013615712523460388,-0.0020404658280313015
1782835589206386200,1.78338623046875,-0.001170244999229908,-0.0005423231050372124,-0.003972589038312435
1782835589216317200,1.793317138671875,-0.001093861646950245,0.0002839174121618271,-0.0015413346700370312
1782835589226247200,1.8032470703125,0.00024224631488323212,0.002528696320950985,-0.0003208080306649208
1782835589236177200,1.81317724609375,0.0003333538770675659,0.0009156623855233192,0.0013716081157326698
1782835589246107100,1.823107177734375,-0.0023468509316444397,0.0008112667128443718,0.0006048837676644325
1782835589256037000,1.833037109375,0.00018104538321495056,0.00025502126663923264,0.0042851390317082405
1782835589265968000,1.842968017578125,-0.0020019477233290672,0.000004950910806655884,0.00024938490241765976
1782835589275898000,1.852898193359375,-0.000832374207675457,-0.0033527109771966934,0.0008169356733560562
1782835589285828000,1.862828125,0.000033153221011161804,0.0007181968539953232,-0.0007806946523487568
1782835589295758300,1.87275830078125,-0.0017856638878583908,0.0013458533212542534,0.000802457332611084
1782835589305688000,1.88268798828125,0.0018072063103318214,-0.0014920104295015335,-0.0006391112692654133
1782835589315618300,1.892618408203125,0.003236939199268818,-0.0008537136018276215,0.0042899856343865395
1782835589325549000,1.902549072265625,-0.0009751161560416222,-0.002038021571934223,0.002132291905581951
1782835589335479300,1.912479248046875,-0.000621473416686058,0.00023435335606336594,-0.00058024562895298
1782835589345409300,1.9224091796875,-0.0010723462328314781,-0.001150224357843399,-0.002682811114937067
1782835589355339300,1.93233935546875,0.002103898674249649,0.0017666714265942574,-0.002024407498538494
1782835589365269200,1.942269287109375,0.0006868308410048485,0.0006974115967750549,-0.0002475464716553688
1782835589375200300,1.9522001953125,-0.001771407201886177,0.0015134457498788834,0.0012073926627635956
1782835589385130200,1.962130126953125,-0.00022943783551454544,-0.000018404796719551086,0.0008838186040520668
1782835589395060200,1.972060302734375,0.00010369904339313507,-0.0005173329263925552,0.001376858912408352
1782835589404990200,1.981990234375,0.0001772027462720871,0.0010515348985791206,0.00041918642818927765
1782835589414920200,1.991920166015625,0.0023645879700779915,0.00044087786227464676,-0.0018186946399509907
1782835589424851200,2.001851318359375,-0.0004088282585144043,-0.0027690306305885315,-0.0005515627562999725
1782835589434781200,2.01178125,0.00008292216807603836,-0.0007957154884934425,0.00029906630516052246
1782835589444711200,2.021711181640625,-0.0005218815058469772,-0.0011070389300584793,0.0010285060852766037
1782835589454641200,2.03164111328125,-0.0007844148203730583,-0.0007530581206083298,0.0010002264752984047
1782835589464571100,2.041571044921875,-0.00042621884495019913,-0.001945088617503643,-0.0009353593923151493
1782835589474501000,2.051501220703125,0.0007980065420269966,-0.0015891306102275848,0.002330821007490158
1782835589484432100,2.06143212890625,-0.0005322424694895744,0.0016974760219454765,0.0006639482453465462
1782835589494362000,2.071362060546875,-0.0011151423677802086,0.0018739588558673859,0.001191975548863411
1782835589504292400,2.081292236328125,0.0008492050692439079,0.0007034996524453163,-0.001781177707016468
1782835589514222000,2.09122216796875,0.0003460431471467018,0.0003709159791469574,-0.00042925914749503136
1782835589524152300,2.10115234375,0.0008541746065020561,0.0017475038766860962,-0.0016854722052812576
1782835589534083000,2.1110830078125,-0.0033071106299757957,-0.00003866385668516159,0.000029257498681545258
1782835589544013300,2.121013427734375,-0.0008048051968216896,0.0004497598856687546,-0.000411229208111763
1782835589553943000,2.130943115234375,0.0035033151507377625,0.00032027717679739,0.001509152352809906
1782835589563873300,2.140873291015625,-0.00021445844322443008,-0.0008389968425035477,-0.0013646651059389114
1782835589573803300,2.15080322265625,0.0020223306491971016,-0.00016068946570158005,0.0022399229928851128
1782835589583734300,2.160734375,0.0008430704474449158,-0.0002653328701853752,-0.0010039214976131916
1782835589593664300,2.170664306640625,-0.0022461041808128357,-0.0015861103311181068,0.0015237918123602867
1782835589603594200,2.18059423828125,0.00017950311303138733,-0.0001469375565648079,-0.0017012963071465492
1782835589613524200,2.190524169921875,0.0021577905863523483,-0.00025739800184965134,-0.0010283216834068298
1782835589623454200,2.2004541015625,-0.0009525148198008537,-0.0021346602588891983,-0.0006102058105170727
1782835589633384200,2.21038427734375,0.0010322928428649902,-0.0007141446694731712,0.002409962937235832
1782835589643315200,2.220315185546875,-0.0022292807698249817,0.00012235436588525772,0.0010434957221150398
1782835589653245200,2.2302451171875,0.0005114991217851639,0.001756099984049797,-0.00008957739919424057
1782835589663175200,2.240175048828125,-0.000458691269159317,-0.0018881699070334435,-0.003978324588388205
1782835589673105200,2.250105224609375,0.0002198871225118637,0.000345633365213871,-0.0007004891522228718
1782835589683035100,2.26003515625,0.0009637083858251572,0.0019110394641757011,-0.0010632118210196495
1782835589692966100,2.269966064453125,-0.0024959780275821686,0.0013833651319146156,-0.001464929897338152
1782835589702896000,2.279896240234375,-0.00012842845171689987,0.00045924820005893707,-0.000044133514165878296
1782835589712826400,2.289826416015625,-0.0022583194077014923,0.0005369056016206741,0.0006132414564490318
1782835589722756000,2.299756103515625,-0.0007009031251072884,0.00033929944038391113,-0.0028198398649692535
1782835589732686300,2.309686279296875,-0.000028575770556926727,0.0003655310720205307,-0.0006067468784749508
1782835589742617000,2.3196171875,-0.0027886759489774704,0.0009437026455998421,-0.0007087457925081253
1782835589752547300,2.32954736328125,0.0006068283692002296,-0.0032231220975518227,-0.00019700545817613602
1782835589762477000,2.33947705078125,0.002181556075811386,-0.0024590613320469856,-0.0007429537363350391
1782835589772407300,2.3494072265625,0.0002850787714123726,-0.0010332362726330757,-0.0011790599673986435
1782835589782337300,2.359337158203125,-0.0022071069106459618,0.0012283194810152054,0.00021457206457853317
1782835589792267000,2.36926708984375,-0.00012172013521194458,0.00034202076494693756,0.0016290303319692612
1782835589802198300,2.3791982421875,0.0020178640261292458,0.0016799932345747948,0.00018426496535539627
1782835589812128300,2.389128173828125,-0.0003343215212225914,0.0015836982056498528,-0.0021099275909364223
1782835589822058200,2.399058349609375,0.0007075071334838867,0.00027129240334033966,0.0007492424920201302
1782835589831988200,2.40898828125,-0.0002729622647166252,0.0004690764471888542,-0.0006781779229640961
1782835589841918200,2.418918212890625,-0.0009259693324565887,-0.0017610546201467514,-0.00022757146507501602
1782835589851849000,2.428848876953125,-0.001923874020576477,-0.0007170327007770538,0.0009235981851816177
1782835589861779200,2.438779296875,-0.0020623579621315002,0.0003554224967956543,-0.0019139996729791164
1782835589871709200,2.448709228515625,-0.0022586211562156677,-0.0013301437720656395,-0.0008414508774876595
1782835589881635000,2.458635009765625,-0.00018854625523090363,-0.002621777355670929,-0.000231853686273098
1782835589891565000,2.46856494140625,0.0006645955145359039,-0.0005523944273591042,-0.0005409563891589642
1782835589901496000,2.47849609375,0.0004981476813554764,0.003005855716764927,-0.0016637449152767658
1782835589911426000,2.488426025390625,-0.000011086463928222656,-0.0005583427846431732,-0.0024430877529084682
1782835589921356000,2.49835595703125,-0.0008739503100514412,0.0007711071521043777,-0.001425227615982294
1782835589931286000,2.5082861328125,0.0016872435808181763,-0.0007517188787460327,-0.0004527270793914795
1782835589941216000,2.518216064453125,0.0014289161190390587,-0.0005527809262275696,0.00008816085755825043
1782835589951146200,2.528146240234375,-0.0004670480266213417,0.0012323325499892235,0.0023416373878717422
1782835589961077000,2.538076904296875,-0.0009517427533864975,0.0019985241815447807,-0.001851776149123907
1782835589971007200,2.54800732421875,0.001222267746925354,0.0010379329323768616,0.0007605729624629021
1782835589980937000,2.55793701171875,0.0005207918584346771,0.0018030591309070587,-0.0017550489865243435
1782835589990867200,2.5678671875,0.0003123432397842407,0.0003861198201775551,-0.002485868986696005
1782835590000797000,2.577796875,-0.0011470690369606018,-0.000703912228345871,-0.00039209192618727684
1782835590010728200,2.587728271484375,-0.004996936768293381,-0.001543290913105011,0.00044719502329826355
1782835590020658000,2.597657958984375,0.0013405876234173775,0.00043117720633745193,-0.0005765240639448166
1782835590030588200,2.607588134765625,0.0012857811525464058,-0.0016751186922192574,-0.0011749458499252796
1782835590040518100,2.61751806640625,-0.000651136040687561,-0.0007653823122382164,-0.0010154224000871181
1782835590050448100,2.6274482421875,0.0008188867941498756,0.0007356014102697372,-0.0010331114754080772
1782835590060378000,2.637378173828125,-0.00020429957658052444,-0.0023193107917904854,0.0010414915159344673
1782835590070309000,2.64730908203125,0.0004658196121454239,-0.00014014262706041336,0.00038125552237033844
1782835590080239000,2.657239013671875,-0.0011432617902755737,0.001557089388370514,-0.0037434478290379047
1782835590090168800,2.6671689453125,-0.0028306255117058754,0.0005015097558498383,-0.00011564511805772781
1782835590100099000,2.67709912109375,0.0009204363450407982,-0.00009530503302812576,0.0018532304093241692
1782835590110029000,2.687029052734375,-0.00254195649176836,0.0015705013647675514,0.0003544064238667488
1782835590119960000,2.6969599609375,0.0012104371562600136,0.0013609109446406364,-0.0013982197269797325
1782835590129890000,2.70689013671875,0.0003804415464401245,-0.0009394017979502678,-0.0014854082837700844
1782835590139820000,2.716820068359375,0.0021988479420542717,-0.0007654968649148941,0.0011308817192912102
1782835590149750000,2.72675,-0.002333414740860462,-0.0008628461509943008,0.00006989482790231705
1782835590159680300,2.73668017578125,-0.0003248583525419235,0.0012687472626566887,-0.0011839214712381363
1782835590169611000,2.746611083984375,0.0016735773533582687,-0.00135120190680027,0.0003734417259693146
1782835590179541000,2.756541015625,0.0010037915781140327,-0.0025927675887942314,0.0020530978217720985
1782835590189471000,2.766470947265625,-0.0007081851363182068,0.0008194893598556519,0.001697983592748642
1782835590199401200,2.776401123046875,0.0008457694202661514,-0.0006865281611680984,0.000800764188170433
1782835590209331000,2.7863310546875,-0.0007879044860601425,-0.0019313348457217216,0.00024280790239572525
1782835590219261200,2.79626123046875,-0.00007737334817647934,0.00011530425399541855,-0.001321533229202032
1782835590229192000,2.80619189453125,-0.00023368839174509048,0.00016495957970619202,0.0006899284198880196
1782835590239122200,2.8161220703125,0.0004888270050287247,0.0021095992997288704,-0.00012579839676618576
1782835590249052200,2.82605224609375,-0.0001482926309108734,0.0035235686227679253,-0.00035015447065234184
1782835590258982000,2.83598193359375,-0.0008534975349903107,0.002645525150001049,-0.00018530478700995445
1782835590268912000,2.845912109375,0.0007084468379616737,-0.0009328098967671394,-0.0010505439713597298
1782835590278843100,2.855843017578125,-0.0012412536889314651,-0.0006262799724936485,-0.0015637348406016827
1782835590288773000,2.865773193359375,-0.000921390950679779,-0.00036262162029743195,-0.0011408436112105846
1782835590298702800,2.875702880859375,-0.00005479808896780014,0.0007705530151724815,-0.00081300875172019
1782835590308633000,2.885633056640625,-0.0020440518856048584,0.0005445880815386772,-0.00021514063701033592
1782835590318563000,2.89556298828125,0.0019818488508462906,-0.0022546611726284027,0.0022277766838669777
1782835590328493000,2.9054931640625,0.000291396863758564,-0.0009853169322013855,-0.0007573333568871021
1782835590338424000,2.915424072265625,-0.0005688043311238289,-0.0011989027261734009,-0.0017197998240590096
1782835590348354000,2.92535400390625,0.000562002882361412,-0.0022253207862377167,-0.0004904721863567829
1782835590358284000,2.935283935546875,-0.0032428549602627754,0.0024799518287181854,0.001333792693912983
1782835590368214000,2.945214111328125,-0.0015871068462729454,-0.00007934309542179108,0.0011244406923651695
1782835590378144000,2.95514404296875,0.0005695205181837082,0.001048506237566471,0.00103842094540596
1782835590388075000,2.965074951171875,0.00017016567289829254,0.0019620098173618317,0.0010730680078268051
1782835590398005000,2.9750048828125,0.0008873548358678818,0.0004450725391507149,-0.00012215878814458847
1782835590407935200,2.984935302734375,0.00042213406413793564,0.0002155657857656479,-0.0008123237639665604
1782835590417865000,2.994864990234375,0.0003310535103082657,0.00008586980402469635,-0.0012884968891739845
1782835590427795200,3.004795166015625,0.001290690153837204,0.0005134120583534241,-0.00005314033478498459
1782835590437725200,3.01472509765625,-0.00032425113022327423,-0.00016223173588514328,-0.000046749599277973175
1782835590447656200,3.02465625,0.00021898653358221054,-0.0021624015644192696,-0.0012195114977657795
1782835590457586200,3.034586181640625,0.0029987944290041924,-0.0003780834376811981,0.0007134107872843742
1782835590467516000,3.044515869140625,0.00041990168392658234,-0.0025414498522877693,-0.001703120768070221
1782835590477446100,3.054446044921875,0.0014023417606949806,0.00028975680470466614,0.0016913441941142082
1782835590487376000,3.0643759765625,-0.0021345093846321106,0.00095350481569767,0.0006446819752454758
1782835590497307100,3.07430712890625,-0.0004412718117237091,-0.0000859266147017479,0.00015759002417325974
1782835590507236900,3.08423681640625,0.001409236341714859,-0.001284996047616005,-0.002180623821914196
1782835590517167000,3.0941669921875,0.00015142560005187988,-0.0021952642127871513,-0.0010620960965752602
1782835590527097000,3.10409716796875,0.00020558107644319534,0.000048383139073848724,0.0011765100061893463
1782835590537027000,3.114027099609375,0.003611498512327671,-0.0010496387258172035,-0.0014022286050021648
1782835590546958000,3.1239580078125,-0.0002771010622382164,0.000655611976981163,0.0009919824078679085
1782835590556888000,3.13388818359375,-0.0012699272483587265,0.000716065987944603,-0.0017864936962723732
1782835590566818000,3.143818115234375,0.001889149658381939,0.0011307820677757263,-0.0007177288644015789
1782835590576748000,3.153748046875,-0.0010187560692429543,-0.0010080020874738693,0.0039563849568367004
1782835590586678000,3.163677978515625,-0.0012285858392715454,0.00015650130808353424,0.0011344263330101967
1782835590596608300,3.173608154296875,-0.0010496210306882858,-0.0002805236726999283,-0.0008051539771258831
1782835590606539000,3.1835390625,0.0001587970182299614,-0.0005341563373804092,-0.0005561378784477711
1782835590616469200,3.19346923828125,0.0004205862060189247,-0.0025254013016819954,0.001294492743909359
1782835590626399000,3.20339892578125,-0.0012783147394657135,-0.0005253953859210014,0.00019976217299699783
1782835590636329200,3.2133291015625,0.0016109487041831017,-0.0005070194602012634,0.00003304891288280487
1782835590646259000,3.223259033203125,0.001423930749297142,-0.0011022398248314857,0.002017473801970482
1782835590656190200,3.233190185546875,0.0017714733257889748,-0.0024308906868100166,-0.0010957615450024605
1782835590666120000,3.243119873046875,0.00014115404337644577,0.0009953100234270096,0.0011852020397782326
1782835590676050000,3.2530498046875,-0.0013462221249938011,0.0014637606218457222,-0.004687867127358913
1782835590685980200,3.262980224609375,-0.0004282621666789055,-0.0003193989396095276,-0.0003719637170433998
1782835590695910000,3.272909912109375,-0.0006756698712706566,-0.00029969122260808945,-0.0011083278805017471
1782835590705840000,3.282840087890625,0.0007750941440463066,-0.0003891531378030777,0.0016770604997873306
1782835590715771000,3.29277099609375,0.00013114139437675476,-0.0007585342973470688,0.00008768588304519653
1782835590725701000,3.302701171875,0.0002881297841668129,-0.000611589290201664,-0.0038780272006988525
1782835590735631000,3.312631103515625,0.0006636353209614754,0.001073659397661686,-0.0007405569776892662
1782835590745561000,3.32256103515625,0.0003190813586115837,0.0011214297264814377,-0.0021490524522960186
1782835590755491000,3.332490966796875,-0.0005283365026116371,-0.0013534454628825188,-0.0006025549955666065
1782835590765421000,3.342421142578125,0.0018341615796089172,-0.0008808132261037827,0.0005457913503050804
1782835590775352000,3.35235205078125,0.00018406659364700317,-0.0014126459136605263,0.002710143104195595
1782835590785282000,3.362281982421875,0.0007533645257353783,0.0014758780598640442,-0.00048466725274920464
1782835590795212000,3.3722119140625,0.0005730679258704185,-0.0010370807722210884,0.0012389309704303741
1782835590805142300,3.382142333984375,-0.0007494296878576279,0.0008829282596707344,0.00046913232654333115
1782835590815072000,3.392072021484375,-0.00038457661867141724,-0.0016377540305256844,0.0011117523536086082
1782835590825003300,3.402003173828125,0.002077394165098667,0.0011178404092788696,-0.0008286796510219574
1782835590834933000,3.41193310546875,-0.0011293180286884308,-0.00113679189234972,0.00009357277303934097
1782835590844863200,3.42186328125,0.0033386442810297012,0.0017083026468753815,-0.001144528854638338
1782835590854793000,3.43179296875,0.00043766293674707413,0.0029613198712468147,0.0011540455743670464
1782835590864723000,3.441722900390625,-0.0003512641414999962,-0.0008257534354925156,0.0014459528028964996
1782835590874653000,3.45165283203125,0.00026818737387657166,0.0016880044713616371,0.002571936696767807
1782835590884583700,3.461583740234375,-0.00120627973228693,0.00003205891698598862,0.0000782376155257225
1782835590894514000,3.471513916015625,0.0015940340235829353,-0.0027030082419514656,0.00006944872438907623
1782835590904443600,3.481443603515625,0.0014286329969763756,-0.001873076893389225,-0.001357069704681635
1782835590914374000,3.491373779296875,0.0005769543349742889,-0.001956433989107609,-0.0013549388386309147
1782835590924304000,3.501303955078125,0.0005223173648118973,0.00010264385491609573,-0.0022608768194913864
1782835590934235000,3.51123486328125,0.0015031592920422554,0.0014448771253228188,0.0007825838401913643
1782835590944164900,3.521164794921875,0.00038461294025182724,0.0011230045929551125,-0.00003174971789121628
1782835590954094800,3.5310947265625,0.0012091277167201042,-0.000028279609978199005,0.0005632005631923676
1782835590964024800,3.54102490234375,-0.00021443329751491547,0.0004075160250067711,-0.0010951380245387554
1782835590973954800,3.550954833984375,0.0016753459349274635,-0.0010905126109719276,0.00012618768960237503
1782835590983884800,3.560884765625,-0.00019389204680919647,-0.0009583216160535812,-0.0008716173470020294
1782835590993815800,3.57081591796875,-0.00005354359745979309,0.0008153440430760384,-0.00045350100845098495
1782835591003745800,3.580745849609375,0.0002989713102579117,0.000760955736041069,0.00118151493370533
1782835591013676000,3.590676025390625,-0.000625944696366787,0.0019513890147209167,-0.0006560664623975754
1782835591023605800,3.600605712890625,0.001031036488711834,0.0008553666993975639,0.0003172578290104866
1782835591033535700,3.61053564453125,-0.0025943247601389885,0.0004843883216381073,-0.001139224972575903
1782835591043466800,3.620466796875,-0.0006765620782971382,-0.00009970832616090775,0.000871771015226841
1782835591053396700,3.630396728515625,0.0000760471448302269,-0.0018800320103764534,-0.0019514462910592556
1782835591063326700,3.64032666015625,0.0002492135390639305,0.001020975410938263,-0.0009897858835756779
1782835591073256700,3.650256591796875,-0.0002557216212153435,0.0009013991802930832,-0.002736020367592573
1782835591083187000,3.66018701171875,-0.0007654614746570587,0.0010909847915172577,-0.0007722475565969944
1782835591093116700,3.67011669921875,-0.0018602870404720306,-0.00003579910844564438,-0.0005477429367601871
1782835591103048000,3.6800478515625,-0.001571030355989933,0.0009193792939186096,0.0005590291693806648
1782835591112977700,3.689977783203125,0.001389339566230774,-0.0002241823822259903,0.0007923217490315437
1782835591122908000,3.699907958984375,0.0024072425439953804,0.0018338384106755257,-0.0008124834857881069
1782835591132838000,3.709837890625,-0.00026417430490255356,0.0015302374958992004,-0.0007022283971309662
1782835591142767900,3.719767822265625,-0.0005928454920649529,-0.0007672514766454697,-0.0006870836950838566
1782835591152697900,3.72969775390625,-0.0022320207208395004,0.00028975680470466614,-0.000020761042833328247
1782835591162628900,3.73962890625,0.0008739391341805458,0.0005774702876806259,0.001134234480559826
1782835591172558800,3.749558837890625,0.0005125487223267555,0.00006268080323934555,0.00311349518597126
1782835591182488800,3.75948876953125,-0.001124577596783638,0.00038471631705760956,-0.001283999066799879
1782835591192418800,3.769418701171875,0.000059730373322963715,-0.0006368719041347504,-0.0005188728682696819
1782835591202348800,3.779348876953125,-0.0013867346569895744,-0.0009571947157382965,-0.0007698689587414265
1782835591212279800,3.78927978515625,-0.001277012750506401,-0.0017327070236206055,-0.0018380628898739815
1782835591222210000,3.7992099609375,-0.00046479515731334686,-0.0020158449187874794,-0.0006397995166480541
1782835591232139800,3.809139892578125,-0.0011689355596899986,0.000011353753507137299,-0.0018219766207039356
1782835591242069800,3.81906982421875,-0.0013230768963694572,-0.0004656529054045677,-0.0022637094371020794
1782835591251999700,3.828999755859375,0.00006709340959787369,0.0036923401057720184,-0.000038372352719306946
1782835591261929700,3.8389296875,-0.0014386167749762535,-0.0013003386557102203,0.00015318859368562698
1782835591271860700,3.84886083984375,0.0012730136513710022,0.0015015732496976852,0.000271698459982872
1782835591281790700,3.858790771484375,-0.0013282550498843193,0.0004924805834889412,-0.0010375240817666054
1782835591291721000,3.868720947265625,-0.00019747670739889145,0.0007675858214497566,0.0005076415836811066
1782835591301650700,3.878650634765625,0.0002456493675708771,-0.000737224705517292,-0.0013881898485124111
1782835591311581000,3.888580810546875,-0.0005959095433354378,0.0033081164583563805,-0.0006196014583110809
1782835591321511700,3.89851171875,-0.0007646651938557625,-0.0018342658877372742,-0.0008568279445171356
1782835591331442000,3.90844189453125,0.0003410791978240013,-0.0017831334844231606,0.0011424068361520767
1782835591341371600,3.91837158203125,0.00025608018040657043,0.00017727073282003403,-0.0019137924537062645
1782835591351302000,3.928302001953125,0.0017133615911006927,0.0008939271792769432,0.0011917194351553917
1782835591361232000,3.93823193359375,-0.0016995593905448914,-0.00037845876067876816,-0.005607663653790951
1782835591371161600,3.94816162109375,-0.0010713199153542519,-0.0018360065296292305,-6.444752216339111e-7
1782835591381092900,3.9580927734375,-0.001060844399034977,-0.0018345899879932404,0.0006901305168867111
1782835591391022800,3.96802294921875,-0.0017620548605918884,0.003254711627960205,-0.00016660895198583603
1782835591400952800,3.977952880859375,-0.000014268793165683746,-0.0009540421888232231,-0.0015563378110527992
1782835591410882800,3.9878828125,0.0017516734078526497,-0.0004120888188481331,-0.0016133291646838188
1782835591420812800,3.997812744140625,-0.0007642526179552078,0.001422930508852005,0.000986260361969471
1782835591430742800,4.00774267578125,0.0006506852805614471,0.0005853669717907906,-0.0009147045202553272
1782835591440673800,4.017673828125,0.0012509291991591454,0.0008741831406950951,-0.0022760527208447456
1782835591450603800,4.027603759765625,0.000840003602206707,0.002160489559173584,0.00006246939301490784
1782835591460533800,4.03753369140625,0.0018096473067998886,0.0011627981439232826,0.001811770722270012
1782835591470463700,4.047463623046875,-0.0007355362176895142,0.0010354993864893913,0.0002855127677321434
1782835591480394000,4.05739404296875,-0.0010806471109390259,0.000034904107451438904,-0.000875682570040226
1782835591490324700,4.06732470703125,0.0011550765484571457,-0.00002448447048664093,0.0008724164217710495
1782835591500255000,4.0772548828125,0.00023262668401002884,-0.0002442542463541031,-0.00006984733045101166
1782835591510184700,4.087184814453125,-0.00012663379311561584,-0.0004581063985824585,-0.0008197929710149765
1782835591520115000,4.097114990234375,0.0035649118945002556,-0.0001051630824804306,-0.0016051745042204857
1782835591530044700,4.107044677734375,0.0005645947530865669,-0.0024335645139217377,0.00045904144644737244
1782835591539975000,4.116974853515625,0.00010640081018209457,-0.0003712577745318413,-0.0014028744772076607
1782835591549905700,4.12690576171875,-0.0005956077948212624,-0.0006077466532588005,0.0028826845809817314
1782835591559836000,4.1368359375,0.000849762000143528,0.00010525714606046677,0.0006467290222644806
1782835591569766000,4.146765869140625,-0.0032027699053287506,0.0017612110823392868,-0.001619621179997921
1782835591579695600,4.156695556640625,-0.0005323830991983414,-0.00037510041147470474,-0.0011181198060512543
1782835591589625900,4.1666259765625,0.0008663088083267212,-0.00011677388101816177,-0.0003458033315837383
1782835591599555800,4.176555908203125,0.00048070400953292847,0.0009671114385128021,-0.0008982024155557156
1782835591609486800,4.18648681640625,-0.001680983230471611,0.0002584438771009445,-0.0017538759857416153
1782835591619416800,4.196416748046875,-0.00021966826170682907,0.0018466422334313393,0.0008255653083324432
1782835591629346800,4.206346923828125,0.0001699524000287056,-0.0005126520991325378,0.0009587239474058151
1782835591639276800,4.21627685546875,0.0005991430953145027,-0.00172372255474329,0.00045584049075841904
1782835591649206800,4.226206787109375,0.0012729233130812645,-0.0018432987853884697,0.0005607688799500465
1782835591659137800,4.2361376953125,-0.0003344612196087837,-0.0019551655277609825,0.0019218558445572853
1782835591669067800,4.24606787109375,0.0005566328763961792,0.00047789793461561203,-0.0013471744023263454
1782835591678997800,4.255997802734375,-0.0034178197383880615,-0.0018169907853007317,-0.0009100479073822498
1782835591688928000,4.265927978515625,0.001838727854192257,0.00021340325474739075,-0.0017257737927138805
1782835591698857700,4.275857666015625,-0.000624215230345726,0.0000929543748497963,0.0009396690875291824
1782835591708788000,4.2857880859375,-0.0022753747180104256,-0.0005038594827055931,0.0003175539895892143
1782835591718718700,4.29571875,0.00018751341849565506,-0.0011698491871356964,0.0016354992985725403
1782835591728649000,4.30564892578125,0.0007078954949975014,0.00017051957547664642,-0.0023435293696820736
1782835591738578700,4.31557861328125,-0.000364706851541996,0.0006343508139252663,0.0014767348766326904
1782835591748509000,4.325509033203125,0.0009903088212013245,0.0006481995806097984,0.0025491900742053986
1782835591758439000,4.33543896484375,0.00010508671402931213,0.000761822797358036,0.0023689577355980873
1782835591768368600,4.34536865234375,0.0006174789741635323,0.0009125573560595512,-0.0038865413516759872
1782835591778300000,4.3552998046875,-0.000627344474196434,-0.002826191484928131,-0.0008218111470341682
1782835591788229600,4.365229736328125,0.0006025033071637154,-0.0002245502546429634,0.00010283850133419037
1782835591798160000,4.375159912109375,0.0006870236247777939,-0.003041318617761135,-0.00014867261052131653
1782835591808089900,4.38508984375,-0.0004573371261358261,-0.0003400743007659912,0.002002628520131111
1782835591818019800,4.395019775390625,0.0008082408457994461,-0.0033549796789884567,-0.0003887997008860111
1782835591827949800,4.40494970703125,-0.00006767269223928452,-0.00039008166640996933,-0.0002061072736978531
1782835591837880800,4.414880859375,-0.0013594301417469978,0.0015240311622619629,-0.0016162553802132607
1782835591847810800,4.424810791015625,-0.0022052498534321785,-0.0019564544782042503,-0.001293480396270752
1782835591857740800,4.43474072265625,0.0003752829506993294,0.0007675886154174805,0.0014475341886281967
1782835591867670800,4.4446708984375,-0.0008574938401579857,0.0002882201224565506,-0.0036444300785660744
1782835591877601300,4.454601318359375,0.0010412856936454773,-0.0018700230866670609,0.0013428283855319023
1782835591887532500,4.464532470703125,0.00027083326131105423,0.0005931342020630836,0.0006349598988890648
1782835591897462300,4.474462158203125,0.0008021946996450424,0.003159536048769951,0.0017734551802277565
1782835591907392500,4.484392578125,-0.00006493087857961655,0.0016982592642307281,-0.0022913278080523014
1782835591917322500,4.494322509765625,-0.001215037889778614,0.0019028903916478157,0.0009386260062456131
1782835591927252200,4.504252197265625,-0.0017026625573635101,0.0017676018178462982,-0.0006874999962747097
1782835591937182500,4.514182373046875,-0.0012977933511137962,-0.00022768694907426834,-0.0016925232484936714
1782835591947113500,4.524113525390625,-0.0010759523138403893,-0.001652211882174015,0.0006321500986814499
1782835591957043500,4.53404345703125,-0.000013899058103561401,-0.0009896066039800644,-0.002115698531270027
1782835591966973200,4.54397314453125,-0.0007108487188816071,-0.0014673778787255287,0.0020934278145432472
1782835591976903400,4.5539033203125,0.000024868175387382507,-0.00046508386731147766,-0.00033400487154722214
1782835591986833400,4.56383349609375,-0.000591387040913105,-0.0008171536028385162,-0.0001931237056851387
1782835591996763400,4.573763427734375,-0.0020656632259488106,0.0004283180460333824,-0.0012504286132752895
1782835592006694400,4.5836943359375,0.00017352309077978134,-0.0014521395787596703,0.00005452055484056473
1782835592016624400,4.593624267578125,-0.00001102406531572342,0.0013568028807640076,-0.0017699701711535454
1782835592026554400,4.603554443359375,0.001267293468117714,0.00014692917466163635,-0.00003039371222257614
1782835592036484400,4.613484375,-0.0009954096749424934,0.002056283876299858,-0.0004031858406960964
1782835592046414300,4.623414306640625,-0.00043827667832374573,0.001248813234269619,-0.0006266250275075436
1782835592056344600,4.633344482421875,0.00033290404826402664,0.002091464586555958,0.0010915519669651985
1782835592066275300,4.643275390625,0.0004173256456851959,0.0001822449266910553,-0.0010256608948111534
1782835592076205600,4.65320556640625,0.0018559731543064117,0.0019966186955571175,-0.0020482372492551804
1782835592086135300,4.66313525390625,-0.0009118504822254181,-0.00123699102550745,0.0001874864101409912
1782835592096065300,4.673065185546875,0.0023400280624628067,-0.0019630221650004387,0.0008184844627976418
1782835592105995500,4.68299560546875,-0.0006752032786607742,-0.0006985533982515335,0.000489317812025547
1782835592115925200,4.69292529296875,-0.00119025819003582,0.0008301008492708206,0.0006653526797890663
1782835592125856500,4.7028564453125,0.0014431336894631386,-0.0013236692175269127,0.004388314671814442
1782835592135786200,4.7127861328125,-0.0009031873196363449,-0.0009617600589990616,-0.0023507499136030674
1782835592145716500,4.722716552734375,-0.000891469419002533,0.001033480279147625,0.0008314615115523338
1782835592155646200,4.732646240234375,0.0022521503269672394,0.00041604507714509964,0.000047973357141017914
1782835592165576400,4.742576416015625,0.00022628344595432281,-0.0009320471435785294,-0.0018210331909358501
1782835592175507200,4.752507080078125,0.0007583126425743103,0.0019864942878484726,-0.0019093286246061325
1782835592185437400,4.7624375,0.0014733709394931793,0.004065358079969883,0.0009730104357004166
1782835592195367400,4.772367431640625,0.0007272455841302872,0.0005530016496777534,-0.00039017200469970703
1782835592205297400,4.78229736328125,0.0007725190371274948,-0.0017871176823973656,0.00015258044004440308
1782835592215227400,4.792227294921875,-0.000048422254621982574,-0.000700363889336586,0.0001814328134059906
1782835592225157400,4.802157470703125,-7.515773177146912e-7,0.0010770298540592194,-0.0005852910690009594
1782835592235087400,4.81208740234375,-0.0012763123959302902,0.0004460141062736511,-0.0013455115258693695
1782835592245018400,4.822018310546875,-0.001883513294160366,-0.0008986154571175575,-0.0006493609398603439
1782835592254948400,4.8319482421875,0.0007919799536466599,0.0005760528147220612,-0.0005551534704864025
1782835592264878600,4.841878662109375,-0.0014541298151016235,-0.0004284912720322609,0.00039426330476999283
1782835592274808300,4.851808349609375,-0.0013071764260530472,-0.001160324551165104,-0.0016523562371730804
1782835592284738300,4.86173828125,0.001834820955991745,-0.0009797625243663788,0.004430836066603661
1782835592294669300,4.87166943359375,-0.00010110437870025635,-0.00050367321819067,0.0006786538287997246
1782835592304599300,4.881599365234375,-0.0006385305896401405,0.0009482819586992264,-0.0010982071980834007
1782835592314529500,4.891529541015625,-0.0022734133526682854,0.0005212295800447464,-0.0014273528940975666
1782835592324459300,4.901459228515625,-0.000055266544222831726,0.0022924980148673058,0.0005385931581258774
1782835592334389500,4.911389404296875,-0.001059155911207199,-0.0017141792923212051,-0.0007674060761928558
1782835592344319200,4.9213193359375,0.0006194347515702248,0.0007348628714680672,0.0012387530878186226
1782835592354250500,4.93125048828125,-0.0009400155395269394,-0.0004662368446588516,-0.0007007257081568241
1782835592364180200,4.94118017578125,-0.0027533620595932007,0.001880275085568428,0.0021110400557518005
1782835592374110500,4.9511103515625,-0.0012613339349627495,-0.00022730231285095215,-0.001632691826671362
1782835592384040400,4.96104052734375,-0.00020885281264781952,0.0003689788281917572,-0.0015304265543818474
1782835592393970400,4.970970458984375,0.0001386171206831932,-0.0006411327049136162,-0.00002876482903957367
1782835592403900400,4.980900390625,0.0004022708162665367,-0.0013500666245818138,-0.0004261080175638199
1782835592413831400,4.99083154296875,-0.00014498550444841385,-0.0009998744353652,-0.0019529405981302261
1782835592423761400,5.000761474609375,-0.0006792154163122177,-0.0028132209554314613,0.0004809219390153885
1782835592433691400,5.01069140625,0.00020695291459560394,0.00032942090183496475,-0.003676082007586956
1782835592443621400,5.020621337890625,0.002046397887170315,-0.002948397770524025,-0.002602029126137495
1782835592453551400,5.03055126953125,-0.0005216151475906372,-0.0006194440647959709,-0.0009218477644026279
1782835592463481300,5.0404814453125,0.0009487159550189972,0.0008322447538375854,-0.00141613045707345
1782835592473412600,5.05041259765625,-0.001253567636013031,0.0009830789640545845,-0.0019328640773892403
1782835592483342300,5.06034228515625,0.0006804196164011955,0.0011886749416589737,-0.002778417896479368
1782835592493272300,5.070272216796875,0.002872205339372158,-0.0016173627227544785,-0.0004207002930343151
1782835592503202600,5.08020263671875,0.0016831038519740105,-0.0009518386796116829,0.0018400568515062332
1782835592513132300,5.09013232421875,0.0008892668411135674,0.00041058845818042755,0.0020532654598355293
1782835592523062500,5.1000625,0.0011345446109771729,0.0010662581771612167,-0.0002708751708269119
1782835592532993300,5.1099931640625,-0.001005314290523529,0.0013640597462654114,0.0015604253858327866
1782835592542923500,5.119923583984375,-0.001286810263991356,-0.0018397225067019463,-0.0016534770838916302
1782835592552853200,5.129853271484375,0.0016440078616142273,-0.001281343400478363,0.00123614352196455
1782835592562783500,5.139783447265625,-0.0014431290328502655,-0.002097868360579014,-0.0008866619318723679
1782835592572713500,5.14971337890625,0.0006367284804582596,0.0008775722235441208,-0.000028937123715877533
1782835592582643500,5.1596435546875,-0.000726010650396347,-0.00021725334227085114,0.001142054796218872
1782835592592574500,5.169574462890625,-0.0013617053627967834,-0.0014329133555293083,0.0009913528338074684
1782835592602504400,5.17950439453125,-0.001022152602672577,0.0019730040803551674,-0.00012451224029064178
1782835592612434400,5.189434326171875,-0.0003286106511950493,0.0011374680325388908,-0.003202499821782112
1782835592622364200,5.1993642578125,-0.0013161106035113335,-0.0017150435596704483,-0.0013111229054629803
1782835592632294400,5.20929443359375,0.0007926337420940399,0.001534242182970047,-0.00019173556938767433
1782835592642224400,5.219224365234375,-0.0033155586570501328,0.0003033289685845375,-0.0001864093355834484
1782835592652155400,5.2291552734375,0.0018466869369149208,0.0029741227626800537,-0.0007498925551772118
1782835592662085400,5.23908544921875,-0.0022734887897968292,0.0005106991156935692,-0.0007887748070061207
1782835592672015400,5.249015380859375,-0.00013571884483098984,0.0002963067963719368,0.00020598154515028
1782835592681945300,5.2589453125,0.00009144935756921768,-0.0007186233997344971,-0.0005703303031623363
1782835592691875600,5.26887548828125,-0.0023028990253806114,-0.0027894005179405212,-0.0023814975284039974
1782835592701805300,5.278805419921875,-0.0009854333475232124,-0.0006980197504162788,-0.001172688789665699
1782835592711736300,5.288736328125,0.00001840014010667801,0.0018641920760273933,-0.0006820503622293472
1782835592721666300,5.298666259765625,-0.00038746558129787445,0.00011209864169359207,-0.0002519497647881508
1782835592731596500,5.308596435546875,0.0006069736555218697,0.00009777303785085678,-0.0005684397183358669
1782835592741526300,5.3185263671875,-0.0019624438136816025,0.000048770569264888763,-0.0019583432003855705
1782835592751456500,5.32845654296875,-0.00042382441461086273,0.001010592095553875,0.001728021539747715
1782835592761386500,5.338386474609375,-0.0014379555359482765,-0.00027038902044296265,0.00021428056061267853
1782835592771317500,5.3483173828125,-0.0010811099782586098,-0.0001687845215201378,-0.0008533033542335033
1782835592781247500,5.35824755859375,-0.0011740541085600853,0.0008472120389342308,0.0010023871436715126
1782835592791177500,5.368177490234375,-0.00012491364032030106,0.001402081921696663,-0.0005334848538041115
1782835592801107500,5.378107421875,-0.002201380208134651,0.001186898909509182,0.0011706715449690819
1782835592811037200,5.388037109375,0.0014719702303409576,0.00044103898108005524,0.0020225942134857178
1782835592820967400,5.397967529296875,-0.002004786394536495,-0.0017880266532301903,0.0004270942881703377
1782835592830898200,5.407898193359375,-0.0003444058820605278,0.0008668694645166397,0.0014326898381114006
1782835592840828400,5.417828369140625,0.00046173296868801117,-0.0008580600842833519,0.0013719694688916206
1782835592850758400,5.42775830078125,-0.0020885076373815536,0.0018077502027153969,-0.000713056419044733
1782835592860688400,5.4376884765625,-0.0009667845442891121,0.0015821801498532295,-0.0025021680630743504
1782835592870618400,5.447618408203125,0.00031781475991010666,0.001401553861796856,-0.0010610385797917843
1782835592880548600,5.457548583984375,-0.0022036656737327576,-0.0011793151497840881,-0.0013736938126385212
1782835592890479600,5.467479736328125,-0.00017402786761522293,0.0018361322581768036,0.001047126017510891
1782835592900409600,5.47740966796875,-0.0009860256686806679,0.0012531662359833717,-0.0001835208386182785
1782835592910339600,5.487339599609375,0.001077301800251007,-0.0010638730600476265,0.0005879104137420654
1782835592920269800,5.497269775390625,0.0026160767301917076,0.002018735744059086,0.00014342833310365677
1782835592930199600,5.507199462890625,0.0008074333891272545,0.003884371370077133,-0.0019851243123412132
1782835592940129800,5.5171298828125,0.000857500359416008,-0.00006749387830495834,0.0011131968349218369
1782835592950060500,5.527060546875,-0.0042346445843577385,0.0013477979227900505,-0.0025363597087562084
1782835592959990800,5.53699072265625,-0.0009704092517495155,0.0008657658472657204,0.0008122995495796204
1782835592969920500,5.54692041015625,0.00013147760182619095,0.0007111290469765663,0.0030604032799601555
1782835592979850500,5.5568505859375,0.00014452729374170303,0.00004853494465351105,0.0019754311069846153
1782835592989780700,5.56678076171875,-0.000697416253387928,0.0007117651402950287,0.00013403408229351044
1782835592999710500,5.57671044921875,0.000559595413506031,0.0012811487540602684,-0.002604227978736162
1782835593009640700,5.586640625,0.00041907932609319687,0.0007218858227133751,-0.0005120611749589443
1782835593019571500,5.596571533203125,0.00007100403308868408,-0.0020427415147423744,-0.0006263107061386108
1782835593029501700,5.606501708984375,-0.001986786723136902,-0.00024156365543603897,-0.0015796264633536339
1782835593039431700,5.616431640625,0.001070256344974041,-0.0009374478831887245,0.0007069641724228859
1782835593049361700,5.626361572265625,0.00005894433706998825,-0.0028462475165724754,0.0021131932735443115
1782835593059291600,5.636291748046875,-0.0005815457552671432,0.0010805828496813774,0.0023938901722431183
1782835593069221600,5.6462216796875,0.00017431285232305527,0.0006608869880437851,-0.00042416900396347046
1782835593079152600,5.656152587890625,0.0018808664754033089,0.0021232282742857933,0.0009819800034165382
1782835593089082600,5.66608251953125,0.0019481051713228226,0.0011111227795481682,-0.0005949512124061584
1782835593099012600,5.6760126953125,0.00015979260206222534,0.0013606613501906395,-0.0009046769700944424
1782835593108942800,5.68594287109375,-0.0007711136713624001,-0.0019886326044797897,0.0009017251431941986
1782835593118872600,5.69587255859375,-0.0007575312629342079,0.00006386544555425644,-0.0003222636878490448
1782835593128802600,5.705802490234375,0.00062518659979105,0.0021487027406692505,0.002920432947576046
1782835593138733600,5.715733642578125,0.000027572736144065857,0.0020799925550818443,0.0038512079045176506
1782835593148663800,5.725663818359375,-0.0011795470491051674,-0.001983468420803547,0.00018965452909469604
1782835593158593500,5.735593505859375,0.0021238382905721664,-0.0022335387766361237,0.0005260119214653969
1782835593168523500,5.7455234375,-0.0003541586920619011,0.0005968203768134117,-0.00022464850917458534
1782835593178453800,5.755453857421875,-0.0007802648469805717,-0.0015046801418066025,-0.0005990886129438877
1782835593188383500,5.765383544921875,-0.0009116213768720627,0.0004314761608839035,-0.0011465097777545452
1782835593198314800,5.775314697265625,-0.0003997618332505226,-0.002725169062614441,0.000921434722840786
1782835593208244500,5.785244384765625,0.0015531675890088081,0.001312248408794403,-0.0012378562241792679
1782835593218174700,5.7951748046875,0.0004197265952825546,-0.0014076381921768188,0.000459110364317894
1782835593228104700,5.805104736328125,-0.0017035352066159248,-0.0002729911357164383,-0.0010503730736672878
1782835593238034700,5.81503466796875,0.0019678985700011253,0.0046551888808608055,0.00019758380949497223
1782835593247964700,5.824964599609375,-0.002931630238890648,0.00022886693477630615,0.00007827766239643097
1782835593257895700,5.834895751953125,0.0012721698731184006,0.0005074329674243927,-0.0016647614538669586
1782835593267825700,5.84482568359375,0.00039542466402053833,0.001187652349472046,0.0014447662979364395
1782835593277755600,5.854755615234375,-0.0006293589249253273,0.0004475601017475128,0.0023417193442583084
1782835593287685600,5.864685546875,-0.0021599968895316124,0.001132153905928135,0.0015186900272965431
1782835593297615600,5.87461572265625,0.0007569640874862671,0.000782480463385582,0.0016007153317332268
1782835593307545600,5.884545654296875,-0.0009478749707341194,-0.0017587486654520035,0.00006367452442646027
1782835593317475600,5.8944755859375,0.0010971659794449806,0.0004351641982793808,0.0016911327838897705
1782835593327406600,5.904406494140625,-0.0010561607778072357,-0.0006731124594807625,-0.002680794335901737
1782835593337336600,5.914336669921875,0.0003092419356107712,-0.000641687773168087,0.00036932434886693954
1782835593347266600,5.9242666015625,0.0018843412399291992,-0.00031036417931318283,0.0009629325941205025
1782835593357196500,5.934196533203125,0.00011227373033761978,0.0004566265270113945,-0.000994490459561348
1782835593367126800,5.944126708984375,0.00132850743830204,0.0015082480385899544,-0.000806308351457119
1782835593377056500,5.954056396484375,-0.0015836600214242935,-0.0019709058105945587,-0.00142948841676116
1782835593386990600,5.963990478515625,-0.001335076056420803,-0.0007972633466124535,-0.000013492070138454437
1782835593396921600,5.973921630859375,0.0011539142578840256,0.00007785111665725708,0.00008850637823343277
1782835593406851600,5.9838515625,-0.0020375018939375877,0.0008253883570432663,-0.001225047279149294
1782835593416781600,5.993781494140625,-0.0009602531790733337,-0.00014613289386034012,-0.00036324840039014816
1782835593426711600,6.003711669921875,-0.0021602269262075424,-0.0002820640802383423,-0.00038809003308415413
1782835593436641800,6.013641845703125,-0.0001825634390115738,-0.002967861481010914,0.002282794564962387
1782835593446571500,6.023571533203125,-0.00020145438611507416,-0.0006216783076524734,0.0002936115488409996
1782835593456502800,6.033502685546875,-0.00003580562770366669,-0.0005788011476397514,-0.00045739952474832535
1782835593466432500,6.0434326171875,-0.0016099531203508377,-0.0020263856276869774,-0.001086837612092495
1782835593476362800,6.05336279296875,0.0017570815980434418,0.00018057599663734436,0.0012695267796516418
1782835593486292500,6.06329248046875,0.0012530414387583733,-0.001500672660768032,-0.0018472624942660332
1782835593496222700,6.07322265625,0.0028011370450258255,-0.0010143797844648361,0.0006984537467360497
1782835593506152700,6.083152587890625,0.0010614190250635147,-0.001648993231356144,0.0002648942172527313
1782835593516082700,6.093082763671875,-0.001865394413471222,0.00015050452202558517,0.0013493327423930168
1782835593526013700,6.103013671875,0.0010482026264071465,0.0013014590367674828,0.0012042708694934845
1782835593535943700,6.112943603515625,0.0005888072773814201,-0.0006951130926609039,-0.004246687516570091
1782835593545873700,6.122873779296875,0.0001499103382229805,-0.0004140809178352356,-0.0016285153105854988
1782835593555803600,6.1328037109375,0.00029718317091464996,0.003675469197332859,-0.00133583415299654
1782835593565733600,6.142733642578125,0.001390436664223671,0.0004244251176714897,0.0005492493510246277
1782835593575663600,6.15266357421875,-0.0006567351520061493,0.00014665815979242325,-0.0006086928769946098
1782835593585594600,6.1625947265625,0.0003740312531590462,0.002177715301513672,0.0011448031291365623
1782835593595524600,6.172524658203125,-0.0010638097301125526,-0.0015139589086174965,0.0001258784905076027
1782835593605454600,6.18245458984375,-0.0006110165268182755,0.0009630965068936348,-0.0010923445224761963
1782835593615384600,6.192384521484375,-0.0022331485524773598,0.0015516551211476326,-0.0003509204834699631
1782835593625314800,6.202314697265625,-0.0021741967648267746,-0.00032997410744428635,-0.0008922242559492588
1782835593635244500,6.21224462890625,0.0010583484545350075,-0.00047325249761343,-0.0033306144177913666
1782835593645174800,6.2221748046875,-0.0019700266420841217,0.0004278793931007385,-0.0004975008778274059
1782835593655105500,6.23210546875,0.0008417386561632156,-0.0028028013184666634,-0.0005534272640943527
1782835593665035800,6.242035888671875,0.0006362264975905418,-0.00017495080828666687,-0.0006969133391976357
1782835593674965500,6.251965576171875,-0.0011081434786319733,-0.0007778909057378769,0.0005630282685160637
1782835593684895700,6.261895751953125,-0.0010271314531564713,0.0006691599264740944,0.0018857084214687347
1782835593694825700,6.27182568359375,-0.0007954360917210579,0.0014577219262719154,-0.00011006463319063187
1782835593704755500,6.28175537109375,-0.00037263426929712296,0.0008652796968817711,-0.00021456368267536163
1782835593714686700,6.291686767578125,-0.00011910125613212585,0.00281737744808197,0.0022962642833590508
1782835593724616400,6.301616455078125,-0.0017997268587350845,-0.0019778888672590256,0.002189861610531807
1782835593734546700,6.311546630859375,0.0010248217731714249,0.0006927289068698883,-0.00009592948481440544
1782835593744476700,6.3214765625,-0.0011769365519285202,-0.002064356580376625,-0.00017611822113394737
1782835593754406700,6.33140673828125,0.0006939340382814407,0.002123730257153511,0.0012625213712453842
1782835593764336600,6.341336669921875,0.00029533635824918747,0.0011185798794031143,0.0009411470964550972
1782835593774266600,6.3512666015625,-0.0001209154725074768,-0.0009544249624013901,-0.0011169440113008022
1782835593784197600,6.36119775390625,-0.0004170341417193413,-0.0017203344032168388,0.0021022092550992966
1782835593794127600,6.371127685546875,-0.0016585998237133026,0.00040273740887641907,0.0021964851766824722
1782835593804057600,6.3810576171875,0.00013699382543563843,-0.0009574741125106812,-0.0016746511682868004
1782835593813987800,6.39098779296875,0.0008523184806108475,-0.0007681241258978844,0.00088544562458992
1782835593823917600,6.40091748046875,0.0032291878014802933,0.0009252596646547318,-0.0006424374878406525
1782835593833847800,6.410847900390625,0.0010376721620559692,0.0006269859150052071,0.0014702482149004936
1782835593843778600,6.420778564453125,-0.00032257381826639175,0.0008310861885547638,-0.0009453929960727692
1782835593853708800,6.430708740234375,-0.00139582809060812,-0.000001950189471244812,0.00012386590242385864
1782835593863638500,6.440638427734375,-0.0031418660655617714,0.0010944744572043419,-0.001466288696974516
1782835593873568500,6.450568603515625,-0.00013941805809736252,0.0037086335942149162,0.0015324307605624199
1782835593883498000,6.460498046875,-0.00022389274090528488,0.00005266815423965454,0.00034549273550510406
1782835593893428000,6.470427978515625,-0.0001314813271164894,0.0010902360081672668,-0.0007149782031774521
1782835593903359000,6.48035888671875,0.003646162338554859,-0.00013010110706090927,0.0010841237381100655
1782835593913289000,6.4902890625,-0.001583486795425415,0.00019373930990695953,-0.0021590739488601685
1782835593923219000,6.500218994140625,-0.0011661406606435776,0.0001713670790195465,-0.0007773283869028091
1782835593933149200,6.510149169921875,-0.0012305891141295433,-0.001841716468334198,0.0006005913019180298
1782835593943079000,6.520078857421875,-0.0006427085027098656,-0.0012392615899443626,-0.001859006006270647
1782835593953009200,6.530009033203125,-0.001374279148876667,0.0007043136283755302,-0.0004760264419019222
1782835593962939100,6.539939208984375,-0.003555813804268837,-0.00110727921128273,0.0010501667857170105
1782835593972870100,6.5498701171875,-0.0008250083774328232,-0.0010926323011517525,0.002323158085346222
1782835593982800100,6.559800048828125,-0.0011748159304261208,0.002550463192164898,-0.0006381976418197155
1782835593992729900,6.569729736328125,0.0019605234265327454,-0.001869850791990757,0.0014417311176657677
1782835594002660000,6.57966015625,0.0014712130650877953,0.0040365224704146385,-0.00040816655382514
1782835594012589800,6.58958984375,0.0010259328410029411,0.00157895777374506,-0.002874786499887705
1782835594022520000,6.59952001953125,-0.0005085086449980736,-0.000998934730887413,-0.0017997240647673607
1782835594032450000,6.609449951171875,-0.0009665722027420998,0.00042958464473485947,-0.0018380736000835896
1782835594042381000,6.619381103515625,-0.001352161169052124,0.0009090453386306763,0.0003488333895802498
1782835594052311000,6.62931103515625,0.000814853236079216,-0.0005450407043099403,0.0019991938024759293
1782835594062241000,6.639240966796875,0.0017080176621675491,0.0006646346300840378,0.00028010550886392593
1782835594072171000,6.6491708984375,-0.001974601298570633,0.0007160333916544914,0.0026069097220897675
1782835594082101000,6.65910107421875,-0.0016507292166352272,0.0005278894677758217,-0.0004959176294505596
1782835594092031000,6.669031005859375,0.001600991003215313,-0.0005043521523475647,0.00016294792294502258
1782835594101962000,6.6789619140625,-0.0011348789557814598,-0.0003075161948800087,-0.00036842143163084984
1782835594111892000,6.68889208984375,-0.0007471218705177307,0.0008730627596378326,0.0003812583163380623
1782835594121822200,6.698822265625,0.0005456870421767235,0.0003285761922597885,-0.00040185777470469475
1782835594131752000,6.708751953125,-0.0011129295453429222,-0.0010205814614892006,0.001278064213693142
1782835594141682000,6.718681884765625,-0.001889481209218502,0.0012535527348518372,0.00030711665749549866
1782835594151612200,6.728612060546875,-0.0013520549982786179,0.001245562918484211,-0.0017171520739793777
1782835594161542000,6.7385419921875,0.0006681354716420174,0.0019065793603658676,0.0004729628562927246
1782835594171473200,6.74847314453125,0.00025268271565437317,-0.002484440803527832,-0.00038803694769740105
1782835594181403000,6.75840283203125,-0.0001698024570941925,0.00010802410542964935,-0.000014576595276594162
1782835594191333000,6.7683330078125,0.0007958598434925079,-0.0004709465429186821,-0.00043908460065722466
1782835594201262800,6.778262939453125,0.0022897180169820786,-0.0017585763707756996,0.0025660842657089233
1782835594211193000,6.788193115234375,0.0006646569818258286,-0.00012632552534341812,0.0007977457717061043
1782835594221123000,6.798123046875,0.0016809478402137756,0.0007897559553384781,-0.0026689888909459114
1782835594231053000,6.808052978515625,-0.0011324156075716019,-0.0016326550394296646,0.001674892846494913
1782835594240984000,6.817984130859375,-0.00015769992023706436,0.0028263041749596596,0.0005371859297156334
1782835594250914000,6.8279140625,-0.00018885917961597443,-0.0008472604677081108,0.0034054098650813103
1782835594260844000,6.837843994140625,-0.0018712254241108894,0.0009865360334515572,-0.0006731562316417694
1782835594270774000,6.84777392578125,0.00008273590356111526,0.0014131749048829079,-0.0005730213597416878
1782835594280704000,6.8577041015625,-0.0020435992628335953,0.00030631665140390396,0.00332060968503356
1782835594290634000,6.867634033203125,-0.0014859335497021675,-0.0003253854811191559,-0.0007194057106971741
1782835594300565000,6.87756494140625,0.003110085614025593,-0.002889888361096382,0.0010457527823746204
1782835594310495200,6.8874951171875,-0.0005339169874787331,0.0002558371052145958,-0.0002536037936806679
1782835594320425000,6.897425048828125,-0.0007565068081021309,0.0011909445747733116,0.0005728318355977535
1782835594330355000,6.90735498046875,0.002454466186463833,0.0009339498355984688,0.0017704549245536327
1782835594340285200,6.91728515625,0.00012327171862125397,0.00032320525497198105,-0.0009001325815916061
1782835594350215000,6.92721484375,0.0004138229414820671,0.0007708827033638954,-0.0005416711792349815
1782835594360145200,6.937145263671875,0.00015486404299736023,0.0010136226192116737,0.0004631178453564644
1782835594370076000,6.947075927734375,0.0000171782448887825,0.00030202604830265045,0.0002990672364830971
1782835594380006100,6.957006103515625,0.0010290741920471191,-0.0018849512562155724,0.0011547831818461418
1782835594389935900,6.966935791015625,-0.0004979828372597694,0.0006834007799625397,-0.0005539008416235447
1782835594399866000,6.9768662109375,0.0012819357216358185,-0.001590547151863575,-0.0017357459291815758
1782835594409796000,6.986796142578125,0.0012995125725865364,-0.0008696289733052254,-0.0020484011620283127
1782835594419726000,6.99672607421875,-0.0009268736466765404,0.0007383143529295921,-0.001792126800864935
1782835594429656000,7.006656005859375,0.0017543965950608253,-0.0010958043858408928,0.001648943405598402
1782835594439587000,7.016587158203125,-0.0010437211021780968,0.00040198303759098053,-0.0002066921442747116
1782835594449517000,7.02651708984375,-0.0002466375008225441,0.00041236914694309235,0.0023552682250738144
1782835594459446800,7.03644677734375,-0.0013286387547850609,-0.0006653526797890663,-0.0004903506487607956
1782835594469377000,7.046376953125,0.000806683674454689,0.0015160422772169113,0.0019576270133256912
1782835594479307000,7.05630712890625,-0.0009093843400478363,-0.00159441027790308,-0.00037415511906147003
1782835594489237000,7.066237060546875,-0.0010513309389352798,-0.0018639219924807549,-0.000705452635884285
1782835594499168000,7.07616796875,-0.0005715852603316307,0.0005763843655586243,0.00042106909677386284
1782835594509098000,7.086097900390625,0.0013616038486361504,-0.0008638529106974602,0.0026717069558799267
1782835594519028000,7.096028076171875,0.0015107905492186546,-0.0009723324328660965,0.0010976665653288364
1782835594528958200,7.105958251953125,0.0007896069437265396,-0.0020517120137810707,0.0036431164480745792
1782835594538888000,7.115887939453125,0.0011163251474499702,-0.00029662996530532837,-0.0009095198474824429
1782835594548818200,7.125818115234375,-0.0013984981924295425,0.00003120489418506622,-0.0012104571796953678
1782835594558748000,7.135747802734375,-0.00036062486469745636,-0.001074034720659256,0.0035446686670184135
1782835594568679200,7.14567919921875,0.0036996304988861084,0.0019273478537797928,0.000798417255282402
1782835594578609000,7.15560888671875,-0.0011247973889112473,-0.00006599817425012589,-0.0012551173567771912
1782835594588539100,7.1655390625,-0.00013410206884145737,-0.00011979416012763977,0.0005987090989947319
1782835594598469000,7.17546923828125,-0.0012674694880843163,0.0010761283338069916,-0.0004047015681862831
1782835594608398800,7.18539892578125,-0.0009438954293727875,0.0005602743476629257,0.0015135728754103184
1782835594618329000,7.1953291015625,0.0005194051191210747,0.0017978372052311897,-0.0019415649585425854
1782835594628258800,7.2052587890625,0.001989469863474369,0.0013379091396927834,-0.000693341251462698
1782835594638190000,7.215190185546875,0.000166221521794796,-0.00033983588218688965,-0.0002674018032848835
1782835594648119800,7.225119873046875,0.001981964334845543,-0.0005323821678757668,-0.0007102852687239647
1782835594658050000,7.235050048828125,-0.00022899173200130463,-0.0027835527434945107,-0.0023963325656950474
1782835594667980000,7.24497998046875,-0.0010896902531385422,-0.002216111868619919,0.0026687574572861195
1782835594677910000,7.254909912109375,-0.002036064863204956,-0.000855443999171257,0.0017545060254633427
1782835594687840000,7.264840087890625,0.00167185440659523,-0.0013619773089885712,-0.00017415545880794525
1782835594697770200,7.274770263671875,-0.000919233076274395,0.0007288157939910889,0.00013918615877628326
1782835594707701000,7.284700927734375,-0.000011361204087734222,0.0001567695289850235,0.0008936598896980286
1782835594717631000,7.294630859375,0.003072206862270832,0.001206965185701847,-0.0009086872451007366
1782835594727561000,7.30456103515625,0.0004892069846391678,-0.0007904050871729851,0.001745152287185192
1782835594737491200,7.3144912109375,-0.003140476532280445,-0.00029884371906518936,0.0021701082587242126
1782835594747421000,7.3244208984375,0.0018809139728546143,0.0019744299352169037,0.0007008425891399384
1782835594757351000,7.334350830078125,0.00021933019161224365,0.0009266557171940804,-0.0016617001965641975
1782835594767281200,7.34428125,0.0016696872189640999,0.003465980291366577,-0.0027986038476228714
1782835594777212000,7.3542119140625,0.003110961988568306,0.0005425214767456055,-0.0006778324022889137
1782835594787142100,7.36414208984375,-0.0010161381214857101,0.0009595723822712898,-0.0021614795550704002
1782835594797072000,7.37407177734375,-0.0019354671239852905,-0.000581664964556694,0.0021651308052241802
1782835594807002000,7.384002197265625,0.00037455931305885315,0.000550445169210434,0.0006838799454271793
1782835594816931800,7.393931884765625,-0.0005627572536468506,-0.0007596639916300774,-0.0015111113898456097
1782835594826862000,7.403862060546875,0.00018479209393262863,-0.00037190690636634827,-0.001145459245890379
1782835594836792800,7.413792724609375,-0.004272213205695152,-0.0008286405354738235,0.0012428639456629753
1782835594846723000,7.42372314453125,0.0003414470702409744,-0.0018568877130746841,0.00025030411779880524
1782835594856653000,7.433653076171875,0.0004969211295247078,0.0023048873990774155,0.0012885755859315395
1782835594866583000,7.4435830078125,0.00005590170621871948,-0.0001486828550696373,0.0005024108104407787
1782835594876513300,7.45351318359375,-0.0011614644899964333,-0.0002637989819049835,-0.0016462425701320171
1782835594886443300,7.463443359375,-0.0002059219405055046,0.0007274290546774864,0.0013335682451725006
1782835594896373200,7.473373291015625,-0.0009064674377441406,0.0018299156799912453,0.0003769812174141407
1782835594906304300,7.48330419921875,0.0012272577732801437,0.0006117857992649078,-0.0005394122563302517
1782835594916234200,7.493234130859375,-0.0007796455174684525,-0.000280085951089859,-0.0023193717934191227
1782835594926164500,7.50316455078125,-0.00013596005737781525,-0.001080365851521492,0.0001456504687666893
1782835594936094200,7.51309423828125,0.000737885944545269,-0.00040605664253234863,0.0010981136001646519
1782835594946024200,7.523024169921875,-0.003263513557612896,0.0011255275458097458,-0.0014412105083465576
1782835594955954400,7.532954345703125,0.00024588871747255325,-0.0012523792684078217,0.0004778406582772732
1782835594965884200,7.54288427734375,0.00041286833584308624,-0.0013578403741121292,-0.0011149956844747066
1782835594975814400,7.552814453125,-0.0019047977402806282,-0.0006717471405863762,0.0023561781272292137
1782835594985745200,7.5627451171875,0.0014182943850755692,-0.0004994412884116173,0.0014320611953735352
1782835594995675400,7.57267529296875,0.0013295607641339302,-0.00009546056389808655,0.00040218979120254517
1782835595005605000,7.582605224609375,0.00015084538608789444,-0.0014020074158906937,-0.0009040902368724346
1782835595015535400,7.592535400390625,-0.000333419069647789,-0.0010421453043818474,0.0008126958273351192
1782835595025465300,7.60246533203125,-0.0003648446872830391,0.0005546854808926582,0.0003937804140150547
1782835595035395300,7.612395263671875,0.0008926400914788246,0.003140724264085293,0.0008157510310411453
1782835595045326300,7.622326416015625,0.0003213919699192047,-0.00022657588124275208,-0.000714767724275589
1782835595055256300,7.63225634765625,-0.0022022873163223267,0.001532386988401413,-0.0005574538372457027
1782835595065186300,7.642186279296875,0.0015050992369651794,-0.00005538947880268097,-0.0008924794383347034
1782835595075116000,7.652115966796875,-0.0017778882756829262,-0.0009155413135886192,-0.001200913917273283
1782835595085046300,7.66204638671875,0.000533735379576683,-0.00045854318886995316,0.0013128439895808697
1782835595094976300,7.671976318359375,-0.0012031113728880882,0.0021357955411076546,0.0014203316532075405
1782835595104906200,7.68190625,-0.0005074935033917427,-0.0011915583163499832,0.0009337724186480045
1782835595114837200,7.691837158203125,0.0012082979083061218,-0.002016601152718067,-0.0006770328618586063
1782835595124767200,7.701767333984375,0.00021227635443210602,-0.00032442808151245117,-0.0015944917686283588
1782835595134697200,7.711697265625,-0.0032477257773280144,0.0008742008358240128,0.0015390668995678425
1782835595144627500,7.72162744140625,0.0006636595353484154,0.0009064245969057083,0.0012245471589267254
1782835595154557200,7.73155712890625,-0.0011161575093865395,0.0000018561258912086487,0.0030928482301533222
1782835595164487400,7.7414873046875,0.000607706606388092,0.0011203838512301445,0.0013663205318152905
1782835595174417200,7.751417236328125,0.001100524328649044,-0.0003399727866053581,-0.00020611891523003578
1782835595184348400,7.761348388671875,0.00038360152393579483,0.002346890978515148,-0.0007608556188642979
1782835595194278100,7.771278076171875,-0.0029520587995648384,0.0002350974828004837,-0.00019865715876221657
1782835595204208400,7.78120849609375,-0.0004135333001613617,0.0019903872162103653,-0.002486045937985182
1782835595214138400,7.791138427734375,-0.0007430212572216988,0.0007200101390480995,0.0011045504361391068
1782835595224068000,7.801068115234375,0.0004604607820510864,-0.000831015408039093,-0.0011841701343655586
1782835595233998300,7.810998291015625,0.001216617412865162,0.002266421914100647,0.0007034959271550179
1782835595243928300,7.82092822265625,0.00022112857550382614,-0.0014196587726473808,0.0015999162569642067
1782835595253859300,7.830859375,0.0009242752566933632,0.001505090855062008,-0.0003192308358848095
1782835595263789000,7.8407890625,-0.0002951864153146744,0.0006888322532176971,-0.0024841143749654293
1782835595273719300,7.85071923828125,-0.0011295657604932785,-0.0016053440049290657,-0.0016783112660050392
1782835595283649300,7.860649169921875,-0.00039906054735183716,-0.0019153356552124023,0.0003480878658592701
1782835595293579300,7.870579345703125,-0.0006250394508242607,-0.001302303746342659,0.0020088087767362595
1782835595303509200,7.88050927734375,-0.0003243684768676758,-0.0014879265800118446,-0.0009387782774865627
1782835595313439500,7.890439453125,0.0004934491589665413,0.00034056417644023895,0.00116021279245615
1782835595323369200,7.900369140625,-0.000023470260202884674,0.0006375070661306381,0.0006803106516599655
1782835595333300500,7.910300537109375,-0.002369212917983532,0.0019573569297790527,-0.001127325464040041
1782835595343230200,7.920230224609375,0.00030247028917074203,0.0024748090654611588,0.0006769662722945213
1782835595353160400,7.930160400390625,-0.0005211224779486656,0.00007798802107572556,0.0012171934358775616
1782835595363090200,7.940090087890625,-0.00001379009336233139,0.002174695022404194,-0.0005700541660189629
1782835595373020200,7.950020263671875,-0.0009957943111658096,0.00021993089467287064,0.0008545140735805035
1782835595382950400,7.959950439453125,0.0013943929225206375,0.00003404170274734497,0.001351993065327406
1782835595392880000,7.969880126953125,-0.0014638882130384445,-0.00031083449721336365,-0.0028570303693413734
1782835595402811400,7.979811279296875,-0.00006413087248802185,-0.0009233616292476654,-0.0012061367742717266
1782835595412741000,7.9897412109375,0.00071750208735466,0.0007534222677350044,-0.0008533070795238018
1782835595422671400,7.99967138671875,0.0015579955652356148,0.0014173481613397598,-0.0017622439190745354
1782835595432601000,8.00960107421875,0.000441734679043293,-0.0010080104693770409,0.001954257022589445
1782835595442531300,8.01953125,0.0000750180333852768,-0.000838899053633213,-0.0009272834286093712
1782835595452461300,8.02946142578125,0.00025410018861293793,0.0006377138197422028,-0.0008469508029520512
1782835595462391300,8.039391357421875,0.0013784868642687798,0.001349044032394886,-0.0007047378458082676
1782835595472322300,8.049322265625,0.0005750972777605057,0.002825416624546051,0.00010347319766879082
1782835595482252300,8.059252197265625,0.0007399469614028931,0.00110687967389822,-0.0011942856945097446
1782835595492182300,8.069182373046875,-0.0015744324773550034,0.0021328628063201904,0.0006658090278506279
1782835595502112500,8.079112548828125,-0.0011789528653025627,0.002197044901549816,-0.0005347440019249916
1782835595512042200,8.089042236328124,0.00011545605957508087,0.0017282739281654358,0.0003129863180220127
1782835595521972200,8.09897216796875,0.00038922950625419617,0.0006337147206068039,0.0017052874900400639
1782835595531902200,8.108902099609375,-0.001773165538907051,-0.0005675172433257103,0.000516579020768404
1782835595541833200,8.118833251953125,0.0017224997282028198,0.00016644969582557678,0.0023530940525233746
1782835595551763200,8.12876318359375,-0.00288322102278471,-0.0004885280504822731,0.0015337467193603516
1782835595561693200,8.138693115234375,0.0004435991868376732,-0.00014711078256368637,0.0028813062235713005
1782835595571623400,8.14862353515625,-0.00019064359366893768,-0.0010005813091993332,-0.0003124936483800411
1782835595581553200,8.15855322265625,-0.0006002373993396759,0.0016359472647309303,-0.0005215518176555634
1782835595591483400,8.1684833984375,0.0012644212692975998,0.00004962645471096039,0.00028565432876348495
1782835595601413400,8.178413330078126,0.0016495147719979286,-0.000922161154448986,0.0002883169800043106
1782835595611344400,8.188344482421876,-0.001994180493056774,-0.0011530527845025063,-0.0012954133562743664
1782835595621274000,8.198274169921875,-0.000013055279850959778,0.00141103845089674,-0.003441920969635248
1782835595631204400,8.208204345703125,-0.0008287802338600159,-0.0011360077187418938,0.001583330798894167
1782835595641134300,8.21813427734375,-0.000084693543612957,-0.00022786948829889297,-0.0004840814508497715
1782835595651064000,8.22806396484375,0.0012844773009419441,0.0012016957625746727,0.001424041111022234
1782835595660994300,8.237994384765624,0.0009758174419403076,0.00020194519311189651,0.0008786260150372982
1782835595670924300,8.24792431640625,0.0006558038294315338,0.004338421858847141,-0.0011405032128095627
1782835595680854300,8.257854248046876,-0.0007186541333794594,-0.0007980167865753174,0.0010219840332865715
1782835595690785300,8.267785400390625,-0.0020510703325271606,-0.0012134360149502754,0.00021393271163105965
1782835595700715300,8.27771533203125,0.0007319338619709015,-0.0002858564257621765,0.0006213956512510777
1782835595710645200,8.287645263671875,-0.0017650844529271126,-0.0001810053363442421,0.00007518380880355835
1782835595720575200,8.2975751953125,0.0005878182128071785,0.0009361915290355682,-0.0015517417341470718
1782835595730505200,8.307505126953124,0.00024838466197252274,-0.0026081353425979614,0.0009435387328267097
1782835595740435500,8.317435546875,-0.0007692091166973114,-0.0009322082623839378,-0.00046261074021458626
1782835595750365200,8.327365234375,0.0005672238767147064,0.00019955448806285858,0.0013575786724686623
1782835595760296400,8.33729638671875,0.002003466710448265,0.0007889121770858765,0.001102181151509285
1782835595770226200,8.34722607421875,-0.0016283253207802773,0.0005471548065543175,-0.0018181363120675087
1782835595780156400,8.357156494140625,0.0006207143887877464,0.0011109458282589912,0.00338008813560009
1782835595790086100,8.367086181640625,0.00043488573282957077,0.0007865810766816139,-0.003037228249013424
1782835595800016100,8.37701611328125,0.0007067946717143059,0.0006539551541209221,-0.0007197456434369087
1782835595809946400,8.3869462890625,-0.00005338713526725769,-0.0014055268839001656,0.0003426377661526203
1782835595819876000,8.3968759765625,0.0008081449195742607,-0.00035970378667116165,0.002722704317420721
1782835595829806300,8.406806396484376,-0.0006519090384244919,0.00022609904408454895,0.000707719475030899
1782835595839737000,8.416737060546875,0.0006509087979793549,-0.000868726521730423,0.001266450621187687
1782835595849667300,8.426667236328125,-0.0013589952141046524,0.0021447250619530678,0.0002486403100192547
1782835595859597300,8.436597412109375,0.0019294759258627892,0.0003561461344361305,0.0026827692054212093
1782835595869527300,8.44652734375,-0.00030585844069719315,-0.0022269850596785545,0.001159108243882656
1782835595879457300,8.456457275390624,-0.0010467497631907463,-0.0001332070678472519,-0.0013868734240531921
1782835595889387300,8.46638720703125,0.002477896399796009,0.0002926904708147049,0.0006197593174874783
1782835595899317200,8.476317138671876,-0.0008289506658911705,-0.0008985418826341629,0.0009768889285624027
1782835595909248300,8.486248291015626,0.000531182624399662,-0.0008265413343906403,0.0026482893154025078
1782835595919178200,8.49617822265625,0.00019162986427545547,0.0022153211757540703,-0.0006569600664079189
1782835595929108500,8.5061083984375,0.000058788806200027466,-0.0018169814720749855,0.001280244905501604
1782835595939038200,8.5160380859375,0.0015445658937096596,0.0026219747960567474,-0.0027778795920312405
1782835595948968200,8.52596826171875,-0.0020753322169184685,0.0005847122520208359,-0.0003620646893978119
1782835595958898400,8.5358984375,-0.0013951612636446953,0.0018209517002105713,0.0008755065500736237
1782835595968828200,8.545828125,0.0019200509414076805,-0.0017573162913322449,0.0007337788119912148
1782835595978758400,8.55575830078125,-0.0018083741888403893,0.0015159742906689644,0.0017268713563680649
1782835595988689200,8.565689208984375,0.0008034631609916687,0.001077338121831417,0.000026688911020755768
1782835595998619400,8.575619384765625,-0.00033929944038391113,-0.001451866701245308,0.0020136735402047634
1782835596008549000,8.585549072265625,-0.0015332391485571861,0.0006059287115931511,0.001976547297090292
1782835596018479400,8.595479248046875,0.002912108786404133,-0.0012939712032675743,0.0016401899047195911
1782835596028409300,8.605409423828124,-0.000304369255900383,-0.0000011511147022247314,0.002679651603102684
1782835596038339300,8.61533935546875,0.0007350621744990349,0.0006345454603433609,-0.00010095443576574326
1782835596048269300,8.625269287109376,0.0005510887131094933,-0.00105968676507473,0.00039484724402427673
1782835596058199000,8.635198974609375,0.00011805910617113113,-0.0019324049353599548,-0.0008163587190210819
1782835596068130300,8.64513037109375,0.0017732437700033188,0.0005319835618138313,0.002346582245081663
1782835596078060300,8.655060302734375,0.0001391284167766571,-0.00018840190023183823,0.0005063381977379322
1782835596087990300,8.664990234375,-0.0001929067075252533,0.002134181559085846,-0.0011596372351050377
1782835596097920300,8.674920166015625,0.0011666370555758476,0.00017622578889131546,-0.0013495208695530891
1782835596107850200,8.684850341796874,-0.0011147083714604378,0.0015735113993287086,0.00023132236674427986
1782835596117780200,8.6947802734375,-0.0008936664089560509,0.0017290404066443443,0.0004281303845345974
1782835596127710500,8.70471044921875,0.0005890103057026863,-0.00039894599467515945,-0.0010387743823230267
1782835596137640200,8.71464013671875,-0.00024322699755430222,-0.0020418502390384674,0.0013514128513634205
1782835596147571200,8.7245712890625,-0.0006516342982649803,0.001972219906747341,0.00014152750372886658
1782835596157501200,8.734501220703125,-0.00045349542051553726,-0.001909603364765644,-0.0022047176025807858
1782835596167431400,8.744431396484375,0.00048549752682447433,0.000025121495127677917,-0.00003737909719347954
1782835596177361200,8.754361083984374,0.0009443601593375206,-0.0019291061908006668,-0.00047014281153678894
1782835596187291400,8.76429150390625,0.0008314009755849838,-0.0019104676321148872,0.001016437541693449
1782835596197221400,8.774221435546876,-0.00021202582865953445,-0.0001485208049416542,0.002118720207363367
1782835596207151000,8.784151123046875,0.0010319817811250687,0.000560651533305645,0.0011698431335389614
1782835596217082400,8.794082275390625,0.0001241099089384079,-0.0019283387809991837,-0.00058411480858922
1782835596227012000,8.80401220703125,0.00025643501430749893,0.0011964309960603714,0.0006973501294851303
1782835596236942300,8.8139423828125,0.0020332960411906242,0.0027093738317489624,-0.0011040116660296917
1782835596246872000,8.8238720703125,0.0007647387683391571,-0.0006925538182258606,-0.0008008484728634357
1782835596256802300,8.83380224609375,0.0017650220543146133,0.0005050702020525932,0.0012013162486255169
1782835596266732300,8.843732177734376,0.00002374127507209778,-0.0014404430985450745,-0.00221596984192729
1782835596276662300,8.853662353515626,0.0012698350474238396,-0.0007978221401572227,0.0014133863151073456
1782835596286592300,8.86359228515625,0.00195970106869936,0.0002059331163764,0.00038863765075802803
1782835596296523300,8.873523193359375,0.0008558211848139763,-0.0017104782164096832,-0.0003977939486503601
1782835596306453200,8.883453369140625,0.0007934477180242538,-0.0007358919829130173,0.0011632228270173073
1782835596316383500,8.893383544921875,0.0017604418098926544,-0.00159369595348835,-0.000619497150182724
1782835596326313200,8.903313232421874,-0.002748650498688221,0.0005068173632025719,-0.0023798863403499126
1782835596336243200,8.9132431640625,-0.0010492876172065735,-0.001857270486652851,-0.0002381722442805767
1782835596346173200,8.923173095703126,0.0011030398309230804,0.00024132151156663895,-0.0013250154443085194
1782835596356103200,8.933103271484375,-0.00007620826363563538,-0.0019944021478295326,-0.0007284670136868954
1782835596366033400,8.943033447265625,0.002643151208758354,0.0009750640019774437,0.0010219532996416092
1782835596375964200,8.952964111328125,-0.001852264627814293,-0.00011230446398258209,0.00301293283700943
1782835596385894400,8.962894287109375,-0.000338883139193058,0.003804239444434643,0.0012443517334759235
1782835596395824000,8.97282421875,-0.0008424874395132065,-0.0018358025699853897,0.004478761460632086
1782835596405754400,8.98275439453125,-0.00034974608570337296,-0.0004594288766384125,0.0015877350233495235
1782835596415684000,8.99268408203125,-0.0021391240879893303,0.00020449701696634293,-0.002241624053567648
1782835596425614300,9.0026142578125,-0.0008892202749848366,0.0025323284789919853,-0.0021248823031783104
1782835596435544300,9.01254443359375,0.00035234540700912476,-0.001307683065533638,0.0007915454916656017
1782835596445474300,9.022474365234375,0.0008632978424429893,0.0016455119475722313,-0.00033367564901709557
1782835596455405300,9.0324052734375,-0.0007697520777583122,0.00094563327729702,0.002159575931727886
1782835596465335300,9.042335205078125,-0.001669313758611679,-0.000776045024394989,0.00005049770697951317
1782835596475265300,9.052265380859374,0.0005789268761873245,-0.0007297061383724213,0.0033027497120201588
1782835596485195300,9.0621953125,-0.0009653270244598389,0.0000821240246295929,-0.0005624559707939625
1782835596495125200,9.072125244140626,0.001193431206047535,0.0009556412696838379,-0.0012815091758966446
1782835596505055200,9.08205517578125,-0.0012675998732447624,0.0007629767060279846,-0.0020882394164800644
1782835596514985200,9.091985107421875,0.0002903500571846962,0.0006335470825433731,0.00019914936274290085
1782835596524915200,9.101915283203125,0.000765935517847538,0.000017365440726280212,-0.0003512701950967312
1782835596534846200,9.11184619140625,-0.0006601875647902489,0.0031228773295879364,0.0012018857523798943
1782835596544776200,9.121776123046875,-0.00022516027092933655,0.0013245800510048866,-0.0025819954462349415
1782835596554706400,9.13170654296875,0.0009727291762828827,-0.00004481710493564606,-0.0005161813460290432
1782835596564636200,9.14163623046875,0.00023656804114580154,0.00019774772226810455,0.00010092882439494133
1782835596574566400,9.15156640625,-0.0012462800368666649,-0.0007716426625847816,-0.0014066863805055618
1782835596584496400,9.161496337890625,0.0014106594026088715,-0.0011047665029764175,0.0008365283720195293
1782835596594426000,9.171426025390625,0.00020131748169660568,-0.001812102273106575,0.001761178020387888
1782835596604356400,9.1813564453125,0.0018930761143565178,-0.0017734961584210396,-0.0003843884915113449
1782835596614287400,9.191287353515625,0.0012469934299588203,0.001094995066523552,-0.0007902542129158974
1782835596624217300,9.20121728515625,-0.0010113315656781197,-0.0009380998089909554,0.0018282984383404255
1782835596634147000,9.21114697265625,0.0011658025905489922,-0.0016771266236901283,-0.000935796182602644
1782835596644077300,9.221077392578126,-0.0012271050363779068,0.0005301861092448235,-0.002477779518812895
1782835596654007300,9.23100732421875,-0.0000712936744093895,-0.00010817404836416245,0.0020677042193710804
1782835596663937300,9.240937255859375,-0.0007641604170203209,0.0010186396539211273,0.00008912384510040283
1782835596673867300,9.2508671875,-0.0009553758427500725,0.003352368250489235,0.0018699802458286285
1782835596683797200,9.26079736328125,0.0007166340947151184,0.0005136430263519287,0.0030496190302073956
1782835596693728300,9.270728271484375,0.00021942146122455597,-0.00003070756793022156,-0.00037600472569465637
1782835596703658200,9.280658203125,-0.00008519180119037628,0.0004772460088133812,0.00178487878292799
1782835596713588200,9.290588134765626,0.002264781855046749,-0.0012849681079387665,0.0004501026123762131
1782835596723518500,9.3005185546875,-0.0013317074626684189,0.0018869321793317795,0.0019812146201729774
1782835596733448200,9.3104482421875,0.0015032272785902023,0.00009462423622608185,-0.00020177848637104034
1782835596743374300,9.320374267578124,-0.0011498518288135529,-0.0020340261980891228,0.0005475054495036602
1782835596753305000,9.33030517578125,0.0001835925504565239,-0.0006294753402471542,0.0022948053665459156
1782835596763235300,9.3402353515625,-0.00016362126916646957,-0.0003987252712249756,0.0007434613071382046
1782835596773165300,9.350165283203125,0.0018811533227562904,-0.0008993986994028091,0.00030217552557587624
1782835596783095300,9.36009521484375,-0.00013490580022335052,0.0011591529473662376,0.0011644517071545124
1782835596793025300,9.370025390625,-0.0022161658853292465,-0.0017958907410502434,-0.0023554484359920025
1782835596802955300,9.379955322265625,0.0006902944296598434,0.0010174056515097618,-0.000218844972550869
1782835596812885200,9.38988525390625,0.001638379879295826,0.0016376562416553497,0.002259759232401848
1782835596822815200,9.399815185546874,-0.001123335212469101,-0.0017844270914793015,-0.0006055631674826145
1782835596832745200,9.4097451171875,-0.002201116643846035,0.0022161733359098434,0.004596123471856117
1782835596842676200,9.41967626953125,0.0011311201378703117,-0.0026732077822089195,0.0007436489686369896
1782835596852606200,9.429606201171875,0.000010462477803230286,-0.0006049973890185356,-0.0004933890886604786
1782835596862536200,9.4395361328125,0.0003895573318004608,0.0021821316331624985,0.00031293416395783424
1782835596872466400,9.449466552734375,-0.0003100549802184105,0.00027797184884548187,0.0008021569810807705
1782835596882396200,9.459396240234375,-0.001873733475804329,-0.000818151980638504,-0.0017087291926145554
1782835596892326100,9.469326171875,0.001103946939110756,0.00037494394928216934,-0.000010431278496980667
1782835596902256000,9.479256103515626,-0.0022738780826330185,0.0007207971066236496,0.0018837740644812584
1782835596912186000,9.48918603515625,0.0007560001686215401,0.0022068405523896217,-0.0007407711818814278
1782835596922117000,9.4991171875,0.0018865624442696571,-0.001776237040758133,0.0022951699793338776
1782835596932047000,9.509047119140625,0.0011299587786197662,-0.00009524915367364883,0.0010408209636807442
1782835596941977300,9.518977294921875,-0.0008483603596687317,0.0007030684500932693,-0.0005670441314578056
1782835596951907000,9.528906982421875,0.0006901482120156288,0.0002761632204055786,0.0003323052078485489
1782835596961837300,9.53883740234375,0.0006879325956106186,-0.000580785796046257,-0.00046917982399463654
1782835596971767300,9.548767333984374,0.0006666276603937149,-0.001603439450263977,0.0016648112796247005
1782835596981697000,9.558697021484376,-0.0021163420751690865,0.0009450465440750122,-0.000548176933079958
1782835596991627300,9.568627197265625,0.00009248405694961548,-0.0005593728274106979,0.0014854129403829575
1782835597001558300,9.578558349609375,0.0007556397467851639,0.0008907308802008629,0.0017965296283364296
1782835597011488300,9.58848828125,-0.0028121965005993843,0.001365838572382927,0.001179475337266922
1782835597021418000,9.59841796875,0.00003193225711584091,-0.000019037164747714996,-0.0005633942782878876
1782835597031348200,9.60834814453125,0.0026772506535053253,-0.0012917611747980118,-0.0011945636942982674
1782835597041278200,9.6182783203125,0.000538296066224575,-0.001843431033194065,0.001768462359905243
1782835597051208200,9.628208251953126,0.0012235268950462341,-0.0002519255504012108,-0.0007186639122664928
1782835597061138200,9.63813818359375,-0.002091045491397381,-0.0028322478756308556,-0.002532603219151497
1782835597071068200,9.648068115234375,0.0005199173465371132,0.0016559772193431854,0.0013827765360474586
1782835597080999200,9.657999267578125,0.0002282382920384407,0.0005131140351295471,0.0044939094223082066
1782835597090929200,9.66792919921875,-0.0008958820253610611,-0.002530079334974289,-0.0003210850991308689
1782835597100859100,9.677859130859375,0.00007684621959924698,0.0029655685648322105,-0.0003911638632416725
1782835597110789400,9.687789306640624,-0.002077651210129261,-0.002948780544102192,-0.00011179829016327858
1782835597120719000,9.697718994140626,-0.0010364800691604614,0.0005768751725554466,0.0018956945277750492
1782835597130649000,9.707649169921876,-0.00022128690034151077,0.001811782829463482,0.0017241868190467358
1782835597140579300,9.717579345703125,0.0007448149845004082,0.0005400581285357475,0.0006153215654194355
1782835597150509000,9.727509033203125,0.0017917035147547722,0.001512378454208374,0.001791906077414751
1782835597160439300,9.737439208984375,0.0006734849885106087,0.0029627159237861633,0.00007938221096992493
1782835597170370000,9.7473701171875,0.0029720598831772804,-0.00020751170814037323,-0.0027073491364717484
1782835597180300300,9.75730029296875,0.0003336668014526367,0.0012773890048265457,-0.0018359865061938763
1782835597190230000,9.76722998046875,-0.0018112435936927795,0.00023209769278764725,0.00025273021310567856
1782835597200160300,9.77716015625,-0.0015459926798939705,-0.00011571124196052551,0.0016652708873152733
1782835597210090200,9.78709033203125,0.001277887262403965,-0.0003313608467578888,0.0004430897533893585
1782835597220020200,9.797020263671875,-0.0017000092193484306,-0.0008454043418169022,-0.0013223635032773018
1782835597229950200,9.8069501953125,0.0002675335854291916,0.00001612771302461624,0.0024089915677905083
1782835597239880200,9.816880126953125,0.0012518186122179031,0.059064269065856934,0.01538931019604206
1782835597249811200,9.826811279296875,-0.00102331954985857,-0.004354654811322689,-0.0010189577005803585
1782835597259741200,9.8367412109375,0.0005349535495042801,0.00015512481331825256,0.0007637310773134232
1782835597269671200,9.846671142578124,0.0007352232933044434,-0.00452111940830946,-0.0004269685596227646
1782835597279601200,9.85660107421875,-0.0018843235448002815,-0.008586958050727844,-0.0017769443802535534
1782835597289531100,9.86653125,-0.000315188430249691,-0.036206603050231934,-0.008433249779045582
1782835597299461000,9.876461181640625,-0.0008856439962983131,-0.0018949797376990318,0.002291658893227577
1782835597309391400,9.886391357421875,0.00047469791024923325,0.004373569041490555,-0.0009800344705581665
1782835597319321000,9.896321044921875,0.0011335751041769981,-0.0003144294023513794,-0.0005281115882098675
1782835597329251300,9.906251220703124,0.0007809717208147049,-0.0010222969576716423,0.001101209782063961
1782835597339182000,9.91618212890625,0.0004091355949640274,0.0010373881086707115,0.001766805537045002
