time,seconds_elapsed,z,y,x
1782831627932511500,0.083511474609375,-0.4434247352570295,-0.2135048035144806,-0.23785046901348977
1782831627942440400,0.0934404296875,-0.6972299849778414,-0.2850496982902288,-0.3204574040189385
1782831627952369700,0.10336962890625,-0.661719111135602,-0.2077282659396529,-0.31190716394707557
1782831627962298600,0.113298583984375,-0.5201216059684753,-0.04258300418555736,-0.2526319864240475
1782831627972227600,0.1232275390625,-0.3098077074497938,0.0713730453401804,-0.17582749061966313
1782831627982156500,0.133156494140625,-0.5544610979437827,0.10886924778074025,0.01373841298223706
1782831627992085800,0.143085693359375,-1.0355898331731557,0.010312427438795567,-0.053386594408471134
1782831628002014700,0.1530146484375,-1.400015265995264,-0.17731676106303929,-0.09661512995595112
1782831628011943700,0.162943603515625,-2.1928660178631545,-0.459765044683218,-0.07752404225058854
1782831628021872600,0.17287255859375,-2.4327163919895884,-0.40208880852311846,-0.31957583541143686
1782831628031801600,0.182801513671875,-2.59172446616292,-0.2387614098459482,-0.09247223973125218
1782831628041730600,0.19273046875,-2.4318191508889195,-0.0022048165678977966,0.21763971136212348
1782831628051659500,0.202659423828125,0.10328267982006073,-0.10989011526107788,0.15286869463548064
1782831628061588500,0.21258837890625,2.802682507804036,0.6850295518353581,0.9916178588472306
1782831628071517400,0.222517333984375,4.686949024963378,1.8172484521582721,1.3324519882015884
1782831628081445600,0.232445556640625,5.103332608559727,2.1466753445744513,1.630224974464625
1782831628091374600,0.24237451171875,3.651847852090001,2.1929624639749528,2.0467218091771007
1782831628101303600,0.252303466796875,-0.8746154273629188,1.6815549103379248,2.3881674945585427
1782831628111232500,0.262232421875,-3.3408518116384744,0.2818736986026168,1.131979392478615
1782831628121161700,0.27216162109375,-2.47698866443634,-0.5433697950869798,-0.013411489432677625
1782831628131090700,0.282090576171875,-1.3934201055139301,-0.23468495418727398,-0.3709104839924723
1782831628141019600,0.29201953125,-0.5752057798087596,0.07239508186429738,-0.6621722617305815
1782831628150948600,0.301948486328125,0.11610007581710814,-0.12275427300930022,-0.5595774911094457
1782831628160877600,0.311877685546875,0.7038555405974388,-0.04619739529043436,-0.5298744998283684
1782831628170806500,0.321806640625,0.9328215326160192,0.010795242519676685,-0.6906819515738636
1782831628180735500,0.331735595703125,0.9232119927495718,-0.03182254071831703,-0.630874986995384
1782831628190664400,0.34166455078125,0.1209907704681158,-0.4597442941561341,-1.1238073380693792
1782831628200593400,0.351593505859375,-0.26277532263994213,-0.4211306319929659,-1.6040239268898964
1782831628210522600,0.361522705078125,-0.11407938364446163,-0.03185571233555674,-1.498545198330283
1782831628220451600,0.37145166015625,0.3080330989927053,0.17302169421762226,-0.8865862164679914
1782831628230380500,0.381380615234375,0.4765437455266714,-0.09792904383242129,-0.10335844847001134
1782831628240309500,0.3913095703125,0.490755810752511,-0.41513636001423,0.5212405269958078
1782831628250238700,0.40123876953125,0.5030062205165624,-0.7730934736050665,1.0596928124900906
1782831628260167700,0.411167724609375,0.9540373391240835,-1.1576710292264818,1.4074077143341301
1782831628270096600,0.4210966796875,1.4072265125483274,-1.5027984718605876,1.6269798550635575
1782831628280025600,0.431025634765625,1.5264526114314794,-1.757657176157087,1.7767359706364572
1782831628289954600,0.44095458984375,1.5833458805203438,-1.8124669169701635,1.4913658082202077
1782831628299883500,0.450883544921875,1.0065765046566724,-0.4095607518389821,0.9138181414604186
1782831628309812500,0.4608125,0.4332786042958498,0.6274088452547788,-0.8318317860387265
1782831628319741400,0.470741455078125,0.7051181078791618,-0.15699921856895088,-1.8644934568054974
1782831628329670700,0.480670654296875,0.5616828658908605,-0.3564747660785913,-0.7527276349898427
1782831628339599600,0.490599609375,0.29666064110696316,-0.3968874404877424,0.4169113337974995
1782831628349528600,0.500528564453125,-0.7838578825950622,-0.38380671737939115,1.3979828833848238
1782831628359457500,0.51045751953125,-0.9351742332220077,-0.6375973540529608,1.6456170432552695
1782831628369386800,0.52038671875,-0.9642577043652534,-0.613182166981697,1.1452174981057643
1782831628379315700,0.530315673828125,-0.5055436300396919,-0.18657412649095056,-0.07725406620278955
1782831628389244700,0.54024462890625,-0.24057108961641788,0.039285570075362916,-0.6597276450574397
1782831628399173400,0.55017333984375,0.10675883149802684,0.039027065269649025,-0.7560137439884245
1782831628409102600,0.5601025390625,-0.007103694525361061,0.054134764160960906,-0.39793373467028137
1782831628419031600,0.570031494140625,-0.46624446983039375,-0.09179024881646036,-0.23135661348216235
1782831628428959500,0.57995947265625,-0.42496027328372,-0.21705080555826425,-0.21201551480479539
1782831628438888400,0.589888427734375,-0.06478197651207447,-0.33030849755629893,-0.08301489475183188
1782831628448817400,0.5998173828125,0.10189327128827572,-0.2943336594641208,0.02201154172932729
1782831628458746600,0.60974658203125,0.09702771107852458,-0.3753317345008254,0.09160478184749372
1782831628468675600,0.619675537109375,0.21096739399135112,-0.4322412240721285,0.21841232143612577
1782831628478604500,0.6296044921875,0.26666590033769605,-0.3521076569102704,0.4978891697637737
1782831628488533500,0.639533447265625,0.16826514734029768,-0.29089243296906353,0.6327593394372611
1782831628498462700,0.649462646484375,-0.3309410963714123,-0.3595467208698392,0.35546493144892155
1782831628508391700,0.6593916015625,-0.6945733329892159,-0.3515215275853872,-0.18334387586545198
1782831628518320600,0.669320556640625,-0.8251414946198463,-0.24143852010071276,-0.7380928873725235
1782831628528250600,0.679250732421875,-0.7318617378979921,-0.22147790128551423,-1.0334028445228933
1782831628538179600,0.6891796875,-0.7292915951490402,-0.02136069487147033,-0.8572088769447058
1782831628548108500,0.699108642578125,-0.6225000304251909,0.11525135003328323,-0.5654552240364253
1782831628558037500,0.70903759765625,-0.5977893675386905,0.01442651169411838,-0.4446721049696207
1782831628567966700,0.718966796875,-0.6806967833280563,-0.1867950757652521,-0.5828041990485042
1782831628577895700,0.728895751953125,-0.4298661655038595,-0.2608800104126334,-0.7059128384534269
1782831628587824600,0.73882470703125,-0.382035323792696,-0.36415194964297115,-0.5171094916056841
1782831628597753600,0.748753662109375,-0.3996370314568281,-0.5525846365474164,-0.34278734578136355
1782831628607682600,0.7586826171875,-0.1736281356781721,-0.7430168997712433,-0.34060075898990033
1782831628617611500,0.768611572265625,0.22431553586423394,-1.0037336093809455,-0.49520157464761283
1782831628627540500,0.77854052734375,0.39232758522629735,-0.7100005461584776,-0.7041333346255123
1782831628637469400,0.788469482421875,0.4258639441251755,-0.513442347400263,-0.9414886770658194
1782831628647398400,0.7983984375,0.33715164144933224,-0.4484109992370009,-1.2248293794810772
1782831628657327600,0.80832763671875,0.8318062132060527,-0.3093979576051235,-1.0297218179225922
1782831628667256600,0.818256591796875,1.2449573907524347,-0.29403124245144424,-0.5649006588935852
1782831628677185500,0.828185546875,1.371445005071163,-0.4490582841645926,-0.314039426735416
1782831628687114500,0.838114501953125,1.8255559695154426,-0.6794586198352277,-0.10426131559386849
1782831628697043700,0.848043701171875,2.140115255406499,-0.794446935018152,-0.049897747645713385
1782831628706972700,0.85797265625,2.138282194760442,-0.7292508247472346,-0.6053783248303458
1782831628716901600,0.867901611328125,2.334317977079749,-0.7147495673164724,-0.9650893328838049
1782831628726830600,0.87783056640625,1.9329320561289787,-0.7948851803049445,-0.20320074204523114
1782831628736759600,0.887759521484375,1.5774860485762356,-0.7848978931672871,-0.1361259966871701
1782831628746688500,0.8976884765625,1.2255921805471182,-0.3409003264583647,-0.8387226415310054
1782831628756617500,0.907617431640625,0.3823912976235151,-0.12941811481267212,-0.8209864207670092
1782831628766545400,0.91754541015625,0.35271745937168597,-0.34637612752094865,-0.4613927189502865
1782831628776474400,0.927474365234375,-0.01869651716351509,-0.44192558274045585,-0.34660420065578074
1782831628786403600,0.937403564453125,-0.8820710040658711,-0.29631767288818955,-0.6965510628029704
1782831628796332500,0.94733251953125,-0.8134586556106805,-0.15034334087632595,-0.8413143385246395
1782831628806261500,0.957261474609375,-0.5763584569752216,-0.21756321205981075,-0.539945738922432
1782831628816190500,0.9671904296875,-0.6089800391167401,-0.4386950763866305,-0.005698211641609668
1782831628826119700,0.97711962890625,-0.3051595893830061,-0.5360826337534934,0.045494069326668975
1782831628836048600,0.987048583984375,-0.16497195101380346,-0.44375776660367844,-0.18493359274230897
1782831628845977600,0.9969775390625,0.13511515741050242,-0.21652290922664105,-0.5524966660030186
1782831628855906600,1.006906494140625,0.6026531741827726,0.027179098826646802,-0.6979510657940059
1782831628865835800,1.016835693359375,0.9304466201782225,0.072987933190912,-0.46227278972044583
1782831628875764700,1.0267646484375,1.342601187902689,-0.04666925058588385,-0.31138606268242
1782831628885693400,1.036693359375,1.8995862513661383,0.020694266851991414,-0.3351959773369133
1782831628895622400,1.046622314453125,2.421288404524326,0.21403372275941074,-0.2997401216175407
1782831628905551600,1.056551513671875,2.8429654183536766,0.3178379422355443,-0.3028265433255583
1782831628915480600,1.06648046875,3.2669156378120183,0.32342253743484617,-0.38868477174453436
1782831628925409500,1.076409423828125,3.4843092654585837,0.5030864461459219,-0.5204370285931974
1782831628935338500,1.08633837890625,3.113672118514776,0.47439343562498687,-0.303180982786417
1782831628945267700,1.096267822265625,2.0633301218897104,0.34956016438454385,0.009089753776043654
1782831628955196700,1.10619677734375,1.568479150778055,0.38111703990399837,0.29092122067213055
1782831628965125600,1.116125732421875,0.5400689999759197,0.44913551411926744,0.2923306490786373
1782831628975054600,1.1260546875,-1.2108616444051266,0.2556574534587562,-0.20684951034374535
1782831628984983800,1.13598388671875,-3.403032081219554,0.43317426713854074,-0.3317278628349304
1782831628994912500,1.14591259765625,-5.279591092741489,0.6106225456267594,-0.026233707735314964
1782831629004841500,1.155841552734375,-6.20907032919228,0.14847805846109985,0.6462452092804014
1782831629014770400,1.1657705078125,-8.504895201748608,0.16764803835526107,0.8812528195507824
1782831629024699600,1.17569970703125,-10.329714089161158,0.13928177557066082,0.2317829491354525
1782831629034628600,1.185628662109375,-11.114199748265742,0.2842665850885212,-0.18831753609217702
1782831629044557600,1.1955576171875,-11.544029088890552,0.6106533791564405,-0.23048293592017144
1782831629054486500,1.205486572265625,-12.479550528115034,0.6425983772106468,-0.551229422546178
1782831629064415700,1.215415771484375,-12.501630257976055,0.063359834754467,-0.8648214708402753
1782831629074344700,1.2253447265625,-11.777580655133724,-0.8629794962354004,-0.42643235513027755
1782831629084273700,1.235273681640625,-10.630374613559246,-1.0812868777260183,0.3160775814995169
1782831629094202600,1.24520263671875,-10.275314974975585,-1.359912826579064,0.10190205738293007
1782831629104130600,1.255130615234375,-9.94732805223465,-1.842320787964016,-0.1993455279218033
1782831629114059800,1.265059814453125,-9.09403189175427,-1.9238456633538006,-0.28506062154304235
1782831629123988700,1.27498876953125,-6.483776328122615,-2.1782266671359536,0.4001023108810186
1782831629133917700,1.284917724609375,-3.644935880744457,-2.2936779236555096,1.3222985507167875
1782831629143846400,1.294846435546875,-1.0635299795001745,-1.0787728490784763,2.168787223139405
1782831629153775600,1.304775634765625,0.823193283161521,-0.44043760920502245,2.4584125587821006
1782831629163704600,1.31470458984375,2.3754168801873923,-0.7649813326895236,1.9419835237212477
1782831629173633500,1.324633544921875,5.1158425460428,-0.8522531542334705,2.580504276229441
1782831629183562500,1.3345625,4.037885981783271,-0.1370632958035916,1.5051581867292523
1782831629193491700,1.34449169921875,3.330041079288721,-0.19337284672036767,0.9402323933944106
1782831629203420700,1.354420654296875,4.8738364551872015,0.06021510698795318,1.2040700845688581
1782831629213349600,1.364349609375,5.061659704956412,0.4458295313764363,0.7336256057653576
1782831629223278600,1.374278564453125,5.536003310090303,0.6596591098658741,0.4358570764817297
1782831629233207800,1.384207763671875,6.239213538521528,0.7609908748138695,0.2595690374119207
1782831629243136800,1.39413671875,6.547669246840477,0.6569850683510303,0.21347665513223035
1782831629253065500,1.4040654296875,7.2901377189487215,0.5279359329812229,0.5242790909741074
1782831629262994400,1.413994384765625,8.215115552327036,0.342600700635463,0.6751655988164246
1782831629272923400,1.42392333984375,8.66746652136147,0.280467046675086,0.9407274834349751
1782831629282852600,1.4338525390625,8.848489443466066,0.6361429174609482,0.863421906240657
1782831629292781600,1.443781494140625,8.859248737889528,0.6112062637988478,0.8457804510880261
1782831629302710500,1.45371044921875,8.721873818853497,0.8028775672983378,0.9340233096212148
1782831629312639500,1.463639404296875,8.533899177914858,1.040921549589932,0.9142290603488683
1782831629322568700,1.473568603515625,8.814506509843469,1.1795117626998572,0.7295733346998691
1782831629332497700,1.48349755859375,8.63945155623257,1.3872861328035593,-0.09850783010106533
1782831629342426600,1.493426513671875,9.001903643155098,1.401507550379634,0.5555509755397215
1782831629352355600,1.50335546875,8.579303669261932,1.3551426895678043,0.6389060254987329
1782831629362284500,1.513284423828125,9.12371975853145,1.3124521333545445,0.3911173326537013
1782831629372213500,1.523213623046875,8.944154634019732,1.286181089283526,0.13717296672314405
1782831629382142500,1.533142578125,8.995821108371018,1.20720925937742,0.1894980511136353
1782831629392071400,1.543071533203125,8.933739622989297,0.9636362114660442,-0.2207168537851423
1782831629402000600,1.553000732421875,8.486322018703818,0.6583552607256918,-0.3852112504150718
1782831629411929600,1.5629296875,7.8377347763419145,0.7106457852594554,-0.5829553710222244
1782831629421858600,1.572858642578125,6.663826021280884,0.9105426269210875,-0.7683816426523029
1782831629431787500,1.58278759765625,6.101971305954456,0.9937460299823433,-1.2204239110637456
1782831629441716700,1.592716796875,4.256276803773641,1.0400407481674103,-1.0352579708702863
1782831629451645700,1.602645751953125,2.481049338003993,0.6005247838519513,-0.5758706734582781
1782831629461573600,1.61257373046875,1.1443664342343807,0.25772629562206567,-0.8611232008442282
1782831629471502600,1.622502685546875,-0.6790162828952073,0.13348777540437876,-0.7392318282745778
1782831629481431600,1.632431640625,-2.30415898565948,-0.18474829930327832,-0.4889236999545246
1782831629491360800,1.64236083984375,-4.300929015448689,-0.24204627673551438,-0.7137874442860483
1782831629501289700,1.652289794921875,-6.677010497024655,-0.35127076769471166,-0.24522782938107845
1782831629511218400,1.662218505859375,-8.239332878738642,-0.4993718826021999,-0.10318608757779002
1782831629521147400,1.6721474609375,-10.01769045922756,-1.3819368807300925,0.7157993686303495
1782831629531075800,1.682075927734375,-12.286383579230307,-2.5023539918392896,1.5370780503422021
1782831629541004800,1.6920048828125,-13.74805772128105,-2.569325295089185,1.7293490733005106
1782831629550934000,1.70193408203125,-15.271282018315791,-2.1366256597250697,1.5901866863258183
1782831629560863000,1.711863037109375,-16.23496922931671,-1.9637449814133345,1.8530409194208681
1782831629570792000,1.7217919921875,-16.722126138794422,-1.7414422466762363,1.8825440772809088
1782831629580721000,1.731720947265625,-16.888453011548517,-1.6953486040212213,1.9462240839004517
1782831629590649900,1.74164990234375,-16.423645881044862,-1.7661098010733722,1.9444044672578573
1782831629600579000,1.7515791015625,-15.859961027681827,-1.5661683896176517,1.3200062019959091
1782831629610508000,1.761508056640625,-14.77856630566716,-1.2689439771480857,1.2578811697334051
1782831629620437000,1.77143701171875,-13.224624214285612,-1.127573777930811,1.1383138561971484
1782831629630366000,1.781365966796875,-11.770849301052094,-0.9977983010478317,0.816126705776155
1782831629640295000,1.791294921875,-9.423909158286452,-0.5187853158634156,0.48749958543553945
1782831629650223900,1.801223876953125,-6.201805891147256,0.3520190287787467,-0.18104075002223252
1782831629660152800,1.81115283203125,-3.546857783830166,0.48921625316031275,-0.15901216582655905
1782831629670081800,1.821081787109375,-1.0657570078998804,0.2823598016191274,0.021414397820085286
1782831629680011000,1.831010986328125,1.1662538563936948,0.23765202383194117,0.07686389784142375
1782831629689940000,1.84093994140625,2.6423013917118308,0.029592662774398922,0.29337475130409
1782831629699869000,1.850868896484375,3.764655900624394,-0.011637885622587054,0.16509265478402374
1782831629709798000,1.8607978515625,4.196517039337754,0.18787019418347625,-0.027224618468806146
1782831629719727000,1.87072705078125,4.156450401887297,0.36767807794250545,-0.10287534112818539
1782831629729656000,1.880656005859375,4.2040111944854255,0.5259415077609941,-0.3894325944371521
1782831629739585000,1.8905849609375,3.9002188018023967,0.5552000066775828,-0.3749747377566993
1782831629749514000,1.900513916015625,3.769675190091133,0.24485897780237717,-0.13099383969679473
1782831629759443000,1.91044287109375,4.11634752407968,0.1472510374167934,-0.08860577356144786
1782831629769372000,1.920371826171875,4.516249343952536,0.05716679793377406,-0.17445917967483401
1782831629779300900,1.93030078125,4.864741879105567,-0.1702701304871589,-0.16586882678829132
1782831629789229800,1.940229736328125,5.3927457627564666,-0.30638602590542285,0.14224910094365475
1782831629799159000,1.950158935546875,5.943548922714591,-0.4479228138612583,0.23662154827304183
1782831629809088000,1.960087890625,6.417058999633789,-0.39259675755649803,0.2743027518916875
1782831629819016000,1.970015869140625,6.689917909392714,-0.2630981431198306,0.32211371985860165
1782831629828945000,1.97994482421875,6.717006407326459,-0.10043547369539738,0.07061798918917775
1782831629838873900,1.989873779296875,6.646361676260828,-0.03804724218575284,0.14797383526600896
1782831629848803000,1.999802978515625,6.6052808933317655,-0.18060405737170948,0.26384609367661177
1782831629858732000,2.00973193359375,6.7539709871083495,-0.11518146313484758,0.34520364967547357
1782831629868661000,2.019660888671875,6.906611864337325,-0.057295091355405746,0.22890753982961176
1782831629878590000,2.02958984375,6.902428441172837,-0.07749255113378167,0.2247830072455108
1782831629888519200,2.039519287109375,6.957758114206791,-0.09127309307456016,0.29473792941607535
1782831629898448000,2.04944775390625,7.215179800859093,-0.06922459860201925,0.21458485383614898
1782831629908376800,2.059376953125,7.457876212066411,-0.07939575440660118,0.18131700968034564
1782831629918305800,2.069305908203125,7.589259197211265,-0.2059229700833559,-0.010272533819824457
1782831629928235000,2.079235107421875,7.482618439134955,-0.23462072984464466,-0.30073468561284245
1782831629938164000,2.0891640625,7.198166122215985,-0.17343107873611152,-0.5995408143159001
1782831629948093000,2.099093017578125,7.024689962229132,-0.0589345656581223,-0.8070529532868415
1782831629958022000,2.10902197265625,7.0302826676696535,0.026174963285401462,-0.699741091015935
1782831629967951000,2.118951171875,6.9669164031744,-0.058293052884191274,-0.6146140994809568
1782831629977880000,2.128880126953125,6.86790307123661,0.17847784073166548,-0.6323910175815224
1782831629987809000,2.13880908203125,6.951909972700476,0.3749377667471766,-0.7159118890941143
1782831629997738000,2.148738037109375,6.97484193547666,0.45555984807834027,-0.738431325546652
1782831630007667000,2.1586669921875,6.849556098163127,0.37424313554652033,-0.6175463535405695
1782831630017596000,2.168595947265625,6.3530152742683885,0.24321648955866693,-0.7488093655675649
1782831630027524900,2.17852490234375,5.252374584513903,0.6142651399128138,-0.9829666426189243
1782831630037453800,2.188453857421875,3.480565402755141,0.8620908037673681,-1.2132682671554387
1782831630047383000,2.198383056640625,0.6805190886735916,0.7752141920860857,-1.2779298321582375
1782831630057312000,2.20831201171875,-3.1659400658905503,0.4084096821077168,-0.935719153753668
1782831630067241000,2.218240966796875,-7.4867545160263775,-0.2661026404317468,-0.41293578123003244
1782831630077170000,2.228169921875,-11.741885072374343,-1.1056419321078808,0.1334264736711979
1782831630087099100,2.23809912109375,-15.16824249960184,-1.0039711444638668,0.5488203155778348
1782831630097028000,2.248028076171875,-18.383702090942858,0.2781501480348408,0.8220574109993875
1782831630106957000,2.25795703125,-19.787894350361825,1.5046803400844335,1.6592466324180364
1782831630116886000,2.267885986328125,-19.747108750987053,1.8206858792610465,2.1433194582752884
1782831630126814700,2.277814697265625,-19.07212859174013,1.249391866068542,2.623938052025437
1782831630136744000,2.287743896484375,-17.367711861252783,0.26119543303735554,3.0052678578972816
1782831630146673000,2.2976728515625,-15.46673912396431,-0.33793767726048823,2.9117767965123056
1782831630156601900,2.307601806640625,-13.913955554968117,-0.8225790967859328,2.317390077023953
1782831630166530800,2.31753076171875,-12.458157026952504,-1.0607169679060577,1.544678003951907
1782831630176460000,2.3274599609375,-10.715586214637757,-0.9680587040834129,0.6190824040014297
1782831630186389000,2.337388916015625,-8.837168423506617,-0.7659279658898711,-0.256021975922212
1782831630196318000,2.34731787109375,-6.207489197480678,-0.6272819309394806,-0.5514199766822159
1782831630206247000,2.357246826171875,-3.727909932029247,-0.18955255777984856,-0.7064151619523763
1782831630216174800,2.3671748046875,-1.7151093894153833,-0.49799248400777574,-0.5196911055967212
1782831630226104000,2.37710400390625,-0.23294775513112545,-0.4697343577727675,-0.5736018517434597
1782831630236033000,2.387032958984375,0.3955862947613001,0.09319149391651153,-0.33696766318455335
1782831630245962000,2.3969619140625,1.0255787267684935,0.2335983279943466,-0.01026343719791621
1782831630255891000,2.406890869140625,1.0315975486665963,0.6669264705203474,0.24009890552740543
1782831630265820000,2.41681982421875,0.5922258881926536,0.48619175423998384,0.6528863277953117
1782831630275748900,2.426748779296875,0.7235603580206632,0.408980212004669,0.8374130933023989
1782831630285677800,2.436677734375,1.1875286996126175,0.5616794318247587,1.0764966477748006
1782831630295606800,2.446606689453125,2.1619138302385807,0.40662396773472426,1.1711322030197828
1782831630305536000,2.456535888671875,3.3861522580891847,-0.0182891602053307,1.2717676562666893
1782831630315465000,2.46646484375,4.741159338578582,-0.4387099086295813,1.2406006568476557
1782831630325394000,2.476393798828125,6.0309822914958,-0.5599280215801671,1.298616061834246
1782831630335323000,2.486322998046875,6.655685969445109,-0.6233247177463025,1.1416382513795047
1782831630345252000,2.496252197265625,7.240524669995904,-0.45567342798803,1.0810045536532997
1782831630355181000,2.50618115234375,7.2320415038108825,-0.13194556919736786,0.7417310977444053
1782831630365110000,2.516110107421875,7.205442835220694,0.10591485495455562,0.6122124086340889
1782831630375039000,2.5260390625,6.898813173285126,0.2267674042620696,0.7345392865441739
1782831630384968000,2.535968017578125,6.891195099496841,0.09844576118290424,0.8697674028098583
1782831630394897000,2.54589697265625,6.902248408430815,-0.004713073061779141,0.982071008953452
1782831630404825900,2.555825927734375,6.941909972211718,-0.08917155421804636,1.0736989798802883
1782831630414754800,2.5657548828125,6.759867643931508,0.08640610809270292,0.7087790415395051
1782831630424684000,2.57568408203125,6.697281716158986,0.3155855967314914,0.2679347146971151
1782831630434613000,2.585613037109375,6.4769438517540685,0.2716005254619755,-0.15506605854928493
1782831630444542000,2.5955419921875,6.408737746012211,0.14060177212804556,-0.3950899260791018
1782831630454471000,2.605470947265625,6.558752950912714,-0.002701039119623601,-0.35882227905280883
1782831630464400100,2.615400146484375,6.562189939624071,-0.20268906619604676,-0.21920454952605067
1782831630474329000,2.6253291015625,6.764539727395772,-0.43194439655002204,-0.17100450917631388
1782831630484258000,2.635258056640625,7.001696624654531,-0.5208897042641416,-0.10382518919892608
1782831630494186800,2.645186767578125,7.06587303648889,-0.4119616755008697,-0.26012634250111877
1782831630504116000,2.655115966796875,7.166853284585476,-0.14886603486537933,-0.5441036623194814
1782831630514045000,2.665044921875,7.279878190740942,0.07444580384902656,-0.8653250364482402
1782831630523974000,2.674973876953125,7.281537648385763,0.17859401445724069,-0.8623165022820234
1782831630533903400,2.6849033203125,7.286731125375628,-0.042537922934815287,-0.7159818855904042
1782831630543832600,2.69483251953125,7.177835866370796,-0.1246247430562973,-0.5412566023252904
1782831630553761500,2.704761474609375,6.504791643622517,0.0632436610288918,-0.7641485351271927
1782831630563690500,2.7146904296875,4.950417006042599,0.38759230033271014,-1.0843402739472687
1782831630573619500,2.724619384765625,2.357505375921726,0.6743729871340095,-1.269508625293523
1782831630583548700,2.734548583984375,-1.1202058064460754,0.9477193150836973,-1.3947507695958017
1782831630593477400,2.744477294921875,-5.058906606855988,1.0813184419080615,-1.0106459460526704
1782831630603406300,2.75440625,-8.80284529814422,0.47907969374507664,-0.9123829940907656
1782831630613334500,2.76433447265625,-12.016788055181502,-0.048542570177093146,-0.7555510949127375
1782831630623263200,2.77426318359375,-14.746650241446494,-0.7131795415207743,-0.6526037114616483
1782831630633192400,2.7841923828125,-16.233835256850718,-0.98308435071446,-0.7816158027566968
1782831630643121400,2.794121337890625,-16.76504173593521,-1.237672932832688,-0.291716754963994
1782831630653050400,2.80405029296875,-16.67251776601672,-1.9290891169652342,0.7767948123410343
1782831630662979300,2.813979248046875,-16.347870801353455,-2.4391180757254363,1.7686277752436697
1782831630672908500,2.823908447265625,-15.657444066649674,-2.687458630299568,2.5009666291341186
1782831630682837500,2.83383740234375,-15.31904680905342,-2.5787358052521943,2.313042257077992
1782831630692766500,2.843766357421875,-14.421670099306105,-2.4117025377944112,2.0715952614098785
1782831630702695400,2.8536953125,-13.785448417520522,-2.461321431966126,1.5859557707577943
1782831630712624600,2.863624755859375,-12.83051500633955,-2.2356132726997138,1.1134396733120082
1782831630722553600,2.8735537109375,-11.010503226947783,-1.3418240660503507,0.4325422528453171
1782831630732482600,2.883482666015625,-8.511125036048888,-0.39324228891842067,-0.04164733077064156
1782831630742411300,2.893411376953125,-5.4379269667416805,0.1514886384539306,-0.4197250760439783
1782831630752340500,2.903340576171875,-2.4828929200440646,0.3183980968689546,-0.364892538877204
1782831630762269400,2.91326953125,-0.02851473134458065,0.03893916779048741,0.059895884970948096
1782831630772198400,2.923198486328125,1.8525889378696678,-0.22902020642384885,0.5484587157238274
1782831630782127400,2.93312744140625,3.112111445069313,-0.37807036568447944,0.8935336244530975
1782831630792056600,2.943056640625,3.592864917245507,-0.37529732077457006,0.9454973281852901
1782831630801985500,2.952985595703125,4.029712027677894,-0.11966435330309905,0.9666580435052513
1782831630811914500,2.96291455078125,4.295285456603765,0.11095405469816177,0.9722091017611324
1782831630821843500,2.972843505859375,4.613816568735242,0.25594898375123737,0.983253496736288
1782831630831772700,2.982772705078125,5.120491833153367,0.3525300470408052,1.025525900602713
1782831630841701600,2.99270166015625,5.476463910406828,0.5269293132219464,1.1039821091368793
1782831630851630300,3.00263037109375,6.180522864621877,0.560244430585578,1.103536265065521
1782831630861559300,3.012559326171875,6.89287559992969,0.5757135101351887,1.0674531442932784
1782831630871488500,3.022488525390625,7.22130383669734,0.3558209418123588,0.950506973040849
1782831630881417500,3.03241748046875,7.196953823816776,0.21382417166195808,0.822797854103148
1782831630891346400,3.042346435546875,7.178802081054449,0.1701362567081116,0.7458967660564929
1782831630901275400,3.052275390625,7.066313765993714,0.2173856818021275,0.7573653047278524
1782831630911204600,3.06220458984375,6.907220351624488,0.31780097122602163,0.8754503438170999
1782831630921133600,3.072133544921875,6.582903057307004,0.5521344085618853,0.8105304201390594
1782831630931062500,3.0820625,6.512111611247063,0.6916488238446414,0.8107504195652901
1782831630940991500,3.091991455078125,6.4603142039924855,0.5265855047529563,0.8750028192453085
1782831630950920400,3.10192041015625,6.8032590418905015,0.2613098531972617,1.0522880161263048
1782831630960849400,3.111849365234375,6.952346026030183,0.007884981096163392,1.0074214310482144
1782831630970778400,3.1217783203125,6.959617478337884,-0.09718043568851426,0.713066071208939
1782831630980707300,3.131707275390625,7.100364504155516,-0.025630261949449777,0.3723028881989419
1782831630990636300,3.14163623046875,7.211925767499208,0.05908595682755112,0.12618906976357103
1782831631000565500,3.1515654296875,7.332566409355402,-0.04858980685230344,0.11560527803748845
1782831631010494500,3.161494384765625,7.484023629757761,-0.21689265585448592,0.07161277238018811
1782831631020423400,3.17142333984375,7.582906028792261,-0.22152875468991695,-0.22399740982577204
1782831631030351400,3.181351318359375,7.586127913448214,-0.28445768721383063,-0.5194686950176954
1782831631040280300,3.1912802734375,7.364568398293852,-0.32345110594220455,-0.4160167230453342
1782831631050209500,3.20120947265625,7.084736142390966,-0.3384956399368122,-0.338152123728767
1782831631060138500,3.211138427734375,6.690670189064741,-0.40217217595763505,-0.4100576685104519
1782831631070067500,3.2210673828125,6.032040276116132,-0.1589774233067408,-0.6631313160210848
1782831631079996400,3.230996337890625,5.271361024534702,0.34336277104914187,-1.2887116306744515
1782831631089925600,3.240925537109375,4.18274161196351,0.4640634725295007,-1.599386330217123
1782831631099854600,3.2508544921875,2.636901578494906,0.28672457269988955,-1.5528950665466486
1782831631109783300,3.260783203125,1.1511492262423038,-0.029406638683006164,-1.329489777395129
1782831631119712300,3.270712158203125,-1.18521107032001,-0.4047145539168268,-1.1517099288649857
1782831631129641500,3.280641357421875,-4.761352231779695,-0.39583405897729096,-1.3412202549383043
1782831631139570400,3.2905703125,-8.709797012090682,-0.5084322641532868,-1.3449579801619052
1782831631149499400,3.30049951171875,-12.728780140483378,-0.5838411408808082,-1.1000034878294915
1782831631159428400,3.310428466796875,-15.855626213347911,-0.24073585172407327,-1.1127682037912308
1782831631169357600,3.320357666015625,-17.99508972684741,0.20803528606221078,-1.5013082333028316
1782831631179286500,3.33028662109375,-18.83825203132629,-0.34234270728640254,-1.1226638671226798
1782831631189215500,3.340215576171875,-18.76934391479492,-1.0039941600132734,-0.6468656062010675
1782831631199144400,3.35014453125,-18.324857103264332,-1.4447232995107768,-0.11472345370166002
1782831631209073700,3.36007373046875,-17.259659482812882,-1.6694862868815659,0.11937420211695134
1782831631219002400,3.37000244140625,-16.098831743121146,-1.8862617826297878,0.36643297325223684
1782831631228931300,3.379931396484375,-14.793970795547962,-2.2322189540863038,0.7205001667324453
1782831631238860300,3.3898603515625,-13.54363404984474,-2.335001429299265,0.9654336162768303
1782831631248789500,3.39978955078125,-12.01673661725521,-2.0406506725698708,1.0929913440451025
1782831631258718500,3.409718505859375,-10.322219349491595,-1.1939170854754746,1.1632919378481805
1782831631268647400,3.4196474609375,-8.23178085592389,-0.2587185945950448,1.046545380821079
1782831631278576400,3.429576416015625,-5.971883621317148,0.23019566167769953,0.9386101990200578
1782831631288505600,3.439505615234375,-3.646100248348713,0.33793877323903143,0.8379217734768987
1782831631298434600,3.4494345703125,-1.339570441904664,0.14813474318245426,0.6355941244717687
1782831631308363500,3.459363525390625,0.44141924065351484,-0.2690132854477502,0.5338150541476905
1782831631318292500,3.46929248046875,1.9655442859202623,-0.8362973871454596,0.7832118397764861
1782831631328221400,3.479221435546875,3.130828420498967,-1.0995792710680514,1.0806089784644544
1782831631338150400,3.489150390625,3.89070103187263,-0.9316230435464531,1.187098126175627
1782831631348079400,3.499079345703125,4.70636158144176,-0.5176425025038421,0.9570280453726648
1782831631358008300,3.50900830078125,5.308413867121935,0.07105193276018835,0.699780253982544
1782831631367937500,3.5189375,5.897001106551289,0.3079013989044353,0.5046246154986321
1782831631377866500,3.528866455078125,6.959879344144463,0.47312173518873746,0.4117735325176269
1782831631387795500,3.53879541015625,7.758707416856288,0.5245945866640657,0.3099036421049386
1782831631397724400,3.548724365234375,8.345167581129074,0.5555967143775895,0.30496684328988194
1782831631407653600,3.558653564453125,8.70580823471546,0.6139434336777776,0.35500140559040005
1782831631417582600,3.56858251953125,8.658927825596928,0.6296158537797629,0.4228194618627429
1782831631427510500,3.578510498046875,8.624045312786102,0.842857110987231,0.22950338683091104
1782831631437439500,3.588439453125,8.526765672773122,1.264721829408407,0.04873999244533479
1782831631447368400,3.598368408203125,8.373847147646545,1.4889339048981665,-0.0355650151822716
1782831631457297700,3.608297607421875,8.398312895861267,1.5598562838613985,-0.07912256348840892
1782831631467226600,3.6182265625,8.576516668891907,1.392695006109774,0.05580656983070075
1782831631477155300,3.6281552734375,8.809062272962928,1.3057310084059834,0.18818609173223375
1782831631487084300,3.638084228515625,8.8092621794492,1.1128159153904764,0.10732179914303124
1782831631497013500,3.648013427734375,8.61462924966514,0.9730760938540101,-0.0038098406117409466
1782831631506942500,3.6579423828125,8.516918817019462,0.9494146477594971,-0.31038587266393003
1782831631516871400,3.667871337890625,8.285914597171544,0.8189395712397992,-0.5113080387853086
1782831631526800100,3.677800048828125,8.049245191168785,0.795507111595571,-0.4836993894349783
1782831631536729000,3.68772900390625,7.863475366798043,0.6782715289425104,-0.4199338234238326
1782831631546658300,3.697658203125,7.860314856940508,0.6207157042916864,-0.3849525994788855
1782831631556587300,3.707587158203125,7.855268679466843,0.4470349616434425,-0.31417540114000436
1782831631566516200,3.71751611328125,7.837335547891259,0.2492204792138189,-0.34610943940877914
1782831631576445200,3.727445068359375,7.46559949979484,0.10107589049078523,-0.5571268830869347
1782831631586374400,3.73737451171875,7.059800438576937,0.20155966030731795,-0.8929635694801807
1782831631596303000,3.74730322265625,6.203939396044611,0.25265659114234146,-1.311775110875815
1782831631606232000,3.757232177734375,4.926865450063348,0.13685630198940635,-1.4634996039122343
1782831631616161000,3.7671611328125,3.7889024531304836,-0.06240582196526229,-1.5410443236246705
1782831631626090200,3.77709033203125,2.6260867544919253,-0.26670170230343937,-1.5515873449489472
1782831631636019200,3.787019287109375,0.8769178590863943,-0.7260553897067904,-1.4113684346586466
1782831631645948200,3.7969482421875,-1.2707248692154884,-1.036946727674827,-1.1121318055838345
1782831631655877000,3.806877197265625,-4.2960517648011445,-1.0377420427709818,-0.8144374375149607
1782831631665806300,3.816806396484375,-7.777277092769742,-1.081864093092084,-0.32462665252760053
1782831631675735300,3.8267353515625,-11.638697085100413,-1.5695859429761767,0.6033056467421353
1782831631685664300,3.836664306640625,-15.3927889216125,-1.9269377841502426,1.1830736198998988
1782831631695593200,3.84659326171875,-19.178107086515425,-1.366917736905068,1.5637312255986033
1782831631705522200,3.856522216796875,-22.500933996641635,-0.5874322241753339,2.090425195694715
1782831631715451100,3.866451171875,-24.561413405275342,0.14014796394594012,2.26891479992941
1782831631725380000,3.876380126953125,-25.157003801465034,0.125318132147938,2.4610645345956086
1782831631735309000,3.88630908203125,-24.5554933675766,-0.5888341999277472,2.4365740903310478
1782831631745238300,3.89623828125,-22.994270471537114,-1.5301915056988595,2.274348661546409
1782831631755167200,3.906167236328125,-21.07706673041582,-2.3489053053587674,1.7336568534970282
1782831631765096200,3.91609619140625,-18.788809662765264,-2.8316601804852484,1.081799357292801
1782831631775025200,3.926025146484375,-15.836287891149519,-2.8689135140806434,0.4911075467996299
1782831631784954400,3.935954345703125,-12.600629561388493,-2.612200560219586,0.10118819175884126
1782831631794883300,3.94588330078125,-9.19843334647119,-2.0576029764145614,-0.2281341443043202
1782831631804812300,3.955812255859375,-5.331130725842714,-1.4460127547994255,-0.5235870901219547
1782831631814740200,3.965740234375,-1.4879133296787739,-1.1326151330988854,-0.6096709439903497
1782831631824669200,3.975669189453125,2.038272253000736,-1.2635393416255711,-0.41814913196414705
1782831631834598400,3.985598388671875,4.921049457260966,-1.1504628514133393,-0.5082320654060691
1782831631844527400,3.99552734375,6.9634151170551775,-0.9202318809602409,-0.5620241536092013
1782831631854456000,4.0054560546875,8.452555358180403,-0.6888011062633246,-0.6634839288510381
1782831631864385000,4.015385009765625,9.346323814302682,-0.334788638645038,-0.7267160455726087
1782831631874314200,4.025314208984375,10.029790062344073,0.08686901289671659,-0.7419991740960628
1782831631884243200,4.0352431640625,10.15986254941225,0.5815033455830068,-0.6808668791979551
1782831631894172200,4.045172119140625,10.274230102348326,0.9240454478990286,-0.5819326038457453
1782831631904101000,4.05510107421875,10.359261670684814,1.1753739322427659,-0.4697228865306824
1782831631914030300,4.0650302734375,10.486334391415118,1.1674122326485812,-0.18535145282819865
1782831631923959300,4.074959228515625,10.318289024305344,0.9793543704058975,0.06504040825255215
1782831631933888300,4.08488818359375,9.653864745864272,0.9594462854955345,0.3375504315085709
1782831631943817200,4.094817138671875,8.734449222788214,1.3098928042605518,0.3792277190260589
1782831631953746400,4.104746337890625,7.90620917763114,1.7669686098597943,0.40841545426137743
1782831631963675100,4.114675048828125,7.466278714230656,2.0993191346377134,0.5384130494624376
1782831631973604000,4.12460400390625,7.125495438280701,2.08115073300153,0.6739958243846893
1782831631983533000,4.134532958984375,7.113185407283901,2.0312723111107944,0.9047655048243701
1782831631993462300,4.144462158203125,7.103541965147852,1.9477195831552148,1.0961286191575228
1782831632003391200,4.15439111328125,7.360048290520906,2.0068927798748013,1.1006371826231478
1782831632013320200,4.1643203125,7.603693380755185,1.9965007113285362,1.0012805902056396
1782831632023249200,4.174249267578125,7.887431411924958,1.8001085167869924,1.0874256727419793
1782831632033178000,4.18417822265625,8.17967131398022,1.5192634305797517,0.9803126209788023
1782831632043107300,4.194107421875,8.409308921650052,1.3183768472284079,0.5984018003486097
1782831632053036300,4.204036376953125,8.679529884120821,1.0832429071646184,0.2501333562750369
1782831632062965200,4.21396533203125,8.955608924970031,0.8045455735757947,0.02917692158035934
1782831632072894200,4.223894287109375,9.417841821071505,0.4887725279808044,0.018556962562352418
1782831632082823200,4.2338232421875,9.83893080587983,0.2172774539209902,-0.16229958999939262
1782831632092752100,4.243752197265625,10.12495022598505,0.18313706471435726,-0.3194229464046657
1782831632102681000,4.25368115234375,10.077910242390631,0.04974383572563529,-0.3254466636735946
1782831632112610000,4.263610107421875,9.69637117768228,-0.0702801355369389,-0.32189408575855194
1782831632122539300,4.273539306640625,9.14640213046074,0.009712488784268497,-0.37132118368521333
1782831632132468200,4.28346826171875,8.018305863025784,0.09349223042875528,-0.47669447910897433
1782831632142397200,4.293397216796875,6.603880963405967,0.039903117451816794,-0.44863063333705067
1782831632152326100,4.303326171875,4.5698622761964796,-0.1429832604371011,-0.2432924774043262
1782831632162255400,4.31325537109375,2.100489347460866,-0.3282572641149163,-0.17406667322590946
1782831632172184300,4.323184326171875,-0.9967103596806526,-0.3776428244547918,0.028659108251333235
1782831632182112300,4.3331123046875,-4.205221739318967,-0.3481669199278578,0.13571969917491078
1782831632192041200,4.343041259765625,-7.484308291918039,-0.5857185521252453,0.3475244207732379
1782831632201970200,4.35297021484375,-11.663096197819709,-1.3007691482149064,0.996871687722206
1782831632211899400,4.3628994140625,-15.585549043262004,-2.3340433979220685,1.8047896603405476
1782831632221828000,4.372828125,-19.76470052177906,-2.4536025281518694,2.328619034785777
1782831632231757000,4.382757080078125,-23.294394404840467,-1.4802230674371122,2.2453872093476352
1782831632241686000,4.39268603515625,-25.68997319856882,-0.5876529542539268,2.223584542862326
1782831632251615200,4.402615234375,-26.832019080901144,-0.1538600437603891,2.3488835319183767
1782831632261544200,4.412544189453125,-26.685203548824784,0.051032619727426204,2.2294755005970597
1782831632271473200,4.42247314453125,-25.39384505690336,-0.29624815131593496,2.38348708165735
1782831632281402000,4.432402099609375,-23.381569999468326,-0.9108253893852233,2.620528535842895
1782831632291331300,4.442331298828125,-20.90343801021576,-1.3948299723118542,2.544177702090144
1782831632301260300,4.45226025390625,-18.04630085864663,-1.512904270811379,2.1239977949507534
1782831632311189200,4.462189208984375,-15.128310302186012,-1.6268800479508936,1.4487978554733096
1782831632321118200,4.4721181640625,-11.837756014633179,-1.70548260615319,0.8539232063375413
1782831632331047400,4.48204736328125,-8.204428738617896,-1.6428005245298147,0.3932956996060908
1782831632340976000,4.49197607421875,-4.47051342869401,-1.4124448317185043,0.1485594531342387
1782831632350905000,4.501905029296875,-1.1233166319429875,-1.2138093152295797,0.03556377307325601
1782831632360834000,4.511833984375,1.56294957370162,-0.957053033683449,-0.13565584015846252
1782831632370763300,4.52176318359375,3.895201265901327,-0.8154229414209723,-0.26857582561224697
1782831632380692200,4.531692138671875,5.57748682860136,-0.535103778783977,-0.3122236825503409
1782831632390621200,4.54162109375,6.990162254205345,-0.1932939179989509,-0.4253923810906708
1782831632400550100,4.551550048828125,8.1568433961004,-0.02164773165192455,-0.7714711331002414
1782831632410479400,4.561479248046875,9.185237764811514,0.1871569313475862,-1.0248203096166253
1782831632420408300,4.571408203125,10.020590856844187,0.31714539339412,-1.3043179267376661
1782831632430337300,4.581337158203125,10.707622688412666,0.15315246174661443,-1.4212250811539588
1782831632440266200,4.591266357421875,10.710419041132926,-0.021369325702497735,-1.2360684202454983
1782831632450195200,4.6011953125,10.701047986197471,-0.14597164686443284,-1.0217843029215932
1782831632460124200,4.611124267578125,10.19387938530445,-0.08482021800759248,-0.972994991441816
1782831632470053000,4.62105322265625,9.744650932204722,0.2882966443222016,-0.9154274763531982
1782831632479982000,4.630982177734375,9.183226424989103,0.7805825872514397,-0.8236531557582318
1782831632489911300,4.640911376953125,8.815427131819725,1.0375528038091957,-0.5336455427996813
1782831632499840300,4.65084033203125,8.563972244617343,1.10552875405699,-0.26011326382383704
1782831632509769200,4.660769287109375,8.199631567469238,1.1534724815580992,-0.031903497000038625
1782831632519698200,4.6706982421875,8.154175638195872,1.1046540901143103,0.01671703378409147
1782831632529625600,4.68062548828125,8.165877181905508,1.1361827624525873,-0.044920507222414016
1782831632539554600,4.690554443359375,8.303933653464913,1.060399572519958,-0.13064239591062068
1782831632549483500,4.7004833984375,8.518885148656368,0.8257605033010244,-0.19163257892429827
1782831632559412500,4.71041259765625,8.615363993680477,0.5966534588439389,-0.28708792611956596
1782831632569341700,4.720341796875,8.705074659743904,0.5343311869762838,-0.36997948675267395
1782831632579270700,4.730270751953125,8.776253643816709,0.5803560021787881,-0.3834383224584162
1782831632589199600,4.74019970703125,8.874097347453237,0.560850908578746,-0.5289631571371108
1782831632599128600,4.750128662109375,9.056809537819028,0.5720536724533886,-0.7432140297785401
1782831632609057800,4.760057861328125,9.146998342788219,0.6019004561193287,-0.7219032384634018
1782831632618986500,4.769986572265625,9.42590939219296,0.6222041892837733,-0.746396532272175
1782831632628915500,4.77991552734375,9.620380993935465,0.6389661581881344,-0.7132981263991445
1782831632638844400,4.789844482421875,9.797835994425416,0.5681720452470704,-0.7555979297291487
1782831632648773600,4.799773681640625,9.76770447553396,0.43001704521663486,-0.7254376961998641
1782831632658702600,4.80970263671875,9.386785004028678,0.2376395296765491,-0.5647998288676143
1782831632668631600,4.819631591796875,8.681891937077046,0.09832567846719174,-0.6294916428782046
1782831632678560500,4.829560546875,7.388064424693584,0.02295633003246039,-0.684984105258435
1782831632688489700,4.83948974609375,5.2763955115705725,-0.3073154522426426,-0.8005741857267916
1782831632698418700,4.849418701171875,2.842424151083827,-0.5300077708192169,-1.0686536061242222
1782831632708347600,4.85934765625,-0.26200083113610745,-0.4524769335016608,-0.83252473673895
1782831632718276600,4.869276611328125,-3.753967917871475,-0.3692663700472563,-0.1666132884800434
1782831632728205600,4.87920556640625,-7.236180503311753,0.24965645947828888,0.3316461759008467
1782831632738134500,4.889134521484375,-11.180503235256671,0.6024055195646361,1.188529401087761
1782831632748063500,4.8990634765625,-14.728805957198142,0.2189061328350566,1.8735883251480756
1782831632757992400,4.908992431640625,-18.446508967989683,-0.2872267866009846,2.5519033279061314
1782831632767921700,4.918921630859375,-21.21726313661337,-0.42046274266876277,2.6128800669163463
1782831632777850600,4.9288505859375,-23.38838552470207,-0.32581838306281713,2.5414134980738163
1782831632787779600,4.938779541015625,-24.659809482097625,-0.6749681034829467,2.4573724020794034
1782831632797708500,4.94870849609375,-25.008956097245214,-0.7572283804751933,2.0472199679575858
1782831632807637800,4.9586376953125,-24.51412792248726,-1.016389896532148,1.7841222814954816
1782831632817566700,4.968566650390625,-23.411591043722627,-1.5345707436963916,1.2804806856848299
1782831632827495700,4.97849560546875,-21.8169147908926,-2.2562813821971415,1.0134503359489142
1782831632837424600,4.988424560546875,-19.620704723298548,-2.625877495655417,0.7712810173556208
1782831632847353600,4.998353515625,-16.98470272399187,-2.342746636598557,0.6554106586411595
1782831632857282600,5.008282470703125,-13.590580509936808,-1.5947231607116759,0.6738323043860495
1782831632867211500,5.01821142578125,-9.78977017686963,-0.8942007831249386,0.7171098667070269
1782831632877139500,5.028139404296875,-6.098641869270801,-0.5801805360140279,1.0448942526131868
1782831632887068400,5.038068359375,-2.713121479344368,-0.376511336206831,1.2476439994879067
1782831632896997600,5.04799755859375,-0.0644271717250347,-0.29666539034731687,1.2554556961521506
1782831632906926600,5.057926513671875,1.9192402153849601,-0.29469416333958504,1.125771916140616
1782831632916855600,5.06785546875,3.4925329039245843,-0.18138386437147855,0.9692777244843542
1782831632926784500,5.077784423828125,4.736442246928811,-0.12313837695606052,0.617303923086822
1782831632936713700,5.087713623046875,5.8479965448856355,-0.13497695451620964,0.3054587184600532
1782831632946642700,5.097642578125,6.646331865644455,-0.0845407526122406,0.06862338130585849
1782831632956571600,5.107571533203125,7.585166374939679,-0.009702990303561091,-0.22975407365635037
1782831632966500600,5.11750048828125,8.380542261371016,0.12770133749004453,-0.37431057475954294
1782831632976429800,5.127429931640625,9.082346130135655,0.184357948278822,-0.36076048057377336
1782831632986358500,5.137358642578125,9.677724929401277,0.05057111686263233,-0.14003347072079778
1782831632996287500,5.14728759765625,10.085321979951859,0.15647563308626414,-0.09004895810708403
1782831633006216400,5.157216552734375,10.2942721889019,0.203913931815885,0.06139116503000259
1782831633016145400,5.1671455078125,10.217891544532776,0.31297062846012413,0.051963995993137356
1782831633026074600,5.17707470703125,10.093272646695375,0.5231421228334308,-0.09934197937026619
1782831633036003600,5.187003662109375,9.744622290632128,0.8468034374602138,-0.36501682284399867
1782831633045932500,5.1969326171875,9.599059388965367,1.0623633468735962,-0.6438928009353577
1782831633055861500,5.206861572265625,9.477990292564034,0.9420227108772844,-0.9097261959716677
1782831633065790700,5.216790771484375,9.510928685569763,0.8587344790767878,-1.004391561833024
1782831633075719700,5.2267197265625,9.494826276552677,0.7263823566388339,-0.9140157098591327
1782831633085648600,5.236648681640625,9.258577141788601,0.5809453829066827,-0.9152874833606183
1782831633095577600,5.24657763671875,8.90351808772683,0.6138588971994817,-0.8795965767763555
1782831633105506600,5.256506591796875,8.561169462156295,0.59065673917979,-0.9954286493070423
1782831633115435500,5.266435546875,8.40472510099113,0.7087954812176526,-1.055044036836177
1782831633125364500,5.276364501953125,8.439678340950607,0.7317311703208833,-1.1203590973116457
1782831633135293400,5.28629345703125,8.651395676526427,0.7290368897356092,-1.234653585011512
1782831633145222700,5.29622265625,8.986030366718769,0.6312450624167919,-1.1467248339287937
1782831633155151600,5.306151611328125,9.377920145049691,0.3382370620658621,-1.1218806077905
1782831633165080600,5.31608056640625,9.744129538679122,0.22955080616921186,-1.1979483868181704
1782831633175009500,5.326009521484375,9.969991134941578,0.21689479301264508,-1.3301964643597601
1782831633184936400,5.3359365234375,9.85267525359392,0.1867991674184799,-1.332502841605991
1782831633194865700,5.34586572265625,9.454806400853395,0.03728778385426849,-1.333510995735228
1782831633204794600,5.355794677734375,8.730936246231197,-0.06750242358506657,-1.4972756167858838
1782831633214723600,5.3657236328125,7.280578447964787,-0.36110509276036173,-1.3142748187370596
1782831633224652500,5.375652587890625,5.332207999685406,-0.8441041153736412,-1.072545498996228
1782831633234581500,5.38558154296875,2.758065367442369,-1.0765656213577837,-1.0591193234510718
1782831633244510700,5.3955107421875,-0.2849848163604736,-1.2844412598788737,-0.7792707009352743
1782831633254439700,5.405439697265625,-3.229642430472374,-0.9127561382520943,-0.5560496823094785
1782831633264368600,5.41536865234375,-5.610904529556632,-0.3887940408052876,0.12079831663593649
1782831633274297600,5.425297607421875,-8.04617586672604,-0.5447094461929053,1.3836929306171835
1782831633284226600,5.4352265625,-9.890269363451003,-1.5076692927673458,2.971105476054549
1782831633294155500,5.445155517578125,-11.8862409363389,-2.558042269052565,4.292341804367304
1782831633304084500,5.45508447265625,-14.544447753190994,-2.441602001495659,4.8041725518524645
1782831633314013400,5.465013427734375,-17.53099454400539,-1.145477025824785,4.573752853894233
1782831633323942700,5.474942626953125,-20.342694471001625,0.18810020354706794,4.060080570195615
1782831633333871600,5.48487158203125,-22.38221760084629,0.944132834899053,3.5457167971014973
1782831633343800600,5.494800537109375,-23.27314586510658,1.4747580800294875,2.5920181884124873
1782831633353729500,5.5047294921875,-23.318649725174904,1.1568266873568296,1.6770578911796212
1782831633363658800,5.51465869140625,-23.169327763235568,0.2571454635268077,1.1619608353748916
1782831633373587700,5.524587646484375,-22.616344336628913,-0.3266330969791859,0.46520255956202744
1782831633383516700,5.5345166015625,-21.311761621475217,-0.2604644518816843,-0.07703282466754317
1782831633393445400,5.5444453125,-18.34216128928661,0.2946882815880701,-0.44204570198878645
1782831633403374600,5.55437451171875,-14.408555766189098,0.755462174520269,-0.5689473039358854
1782831633413303600,5.564303466796875,-10.019680171740054,0.7965040136784315,-0.17782222636714576
1782831633423232500,5.574232421875,-5.69395749129653,0.7063108978603034,0.3943836409732699
1782831633433161500,5.584161376953125,-2.2101725419729945,0.2985446282226592,0.877860108372569
1782831633443090700,5.594090576171875,0.17215104886293411,-0.17619842455759643,1.0040095767781139
1782831633453019600,5.60401953125,1.0950333712667226,-0.5886046289555729,0.8695547829724848
1782831633462948600,5.613948486328125,1.476230490669608,-0.6992179439246654,0.5770576912857591
1782831633472877600,5.623877685546875,1.640908427172899,-0.38264410334080456,0.045975423102825874
1782831633482806800,5.633806884765625,2.3663170434087513,-0.08603234287686645,0.12867547975182533
1782831633492735700,5.64373583984375,3.3333108947396277,-0.01588401702605188,0.416440866741538
1782831633502663700,5.65366357421875,4.791546294513345,0.05500767453797161,0.3411386652588844
1782831633512592600,5.663592529296875,6.3868871487319465,-0.09892375395819544,0.38866643237024545
1782831633522521600,5.673521484375,7.946652247178554,-0.5200893841993064,0.41864992109313603
1782831633532450800,5.683450927734375,9.289256357690691,-0.7515159211125224,0.36914851582124825
1782831633542379800,5.6933798828125,10.102775803577899,-0.7152322362668811,0.204126734316349
1782831633552308700,5.703308837890625,10.469835676556825,-0.6399965241491794,-0.042996261161565776
1782831633562238000,5.713238037109375,10.465041428017615,-0.48410603400710966,-0.2814034507423639
1782831633572167000,5.7231669921875,10.098961213725804,-0.22237638449519873,-0.6543292931452394
1782831633582096000,5.733095947265625,9.672204120153188,0.024598507748916743,-0.7960575850851833
1782831633592024800,5.74302490234375,9.375613621672988,0.3424832848008722,-0.8794260425150394
1782831633601954000,5.7529541015625,9.231061942875385,0.55592335251607,-0.8934358631670475
1782831633611883000,5.762883056640625,9.17359233520329,0.6290493059381842,-0.7296148357540369
1782831633621812000,5.77281201171875,9.227087194025517,0.6755286599751561,-0.7192438099958002
1782831633631741000,5.782740966796875,9.270017988735438,0.7402541570596396,-0.881264802249521
1782831633641670000,5.792669921875,9.339663187369704,0.8455234806522727,-1.0767102174602448
1782831633651598800,5.802598876953125,9.534963641151785,0.9077832452103495,-1.1729225205026566
1782831633661527800,5.81252783203125,9.9443610191226,0.8135181307129561,-1.1227068294815719
1782831633671456800,5.822456787109375,10.297185446000098,0.6788631381601095,-1.1729961702607572
1782831633681386000,5.832385986328125,10.685511394369602,0.5407854046169668,-1.3739609334148466
1782831633691315000,5.84231494140625,10.750896012949942,0.3746310023529455,-1.3942391668118537
1782831633701244000,5.852243896484375,10.582259109687804,0.3231960352025926,-1.5153276985660193
1782831633711172900,5.8621728515625,10.282110626465082,0.29240762330498543,-1.6573963283762334
1782831633721101800,5.872101806640625,9.688969961515069,0.15615969900488852,-1.8675351625889538
1782831633731031000,5.882031005859375,8.913660127034783,-0.05555327092306688,-1.9383510124377905
1782831633740960000,5.8919599609375,8.015093330720067,-0.23141650870954616,-2.1173665402427315
1782831633750888700,5.901888671875,7.180473229137062,-0.3700578492185101,-2.280938269069791
1782831633760817700,5.911817626953125,6.001073475444317,-0.6006372312504797,-2.44381967754513
1782831633770747000,5.921746826171875,4.9952334683686495,-0.8606092599727213,-2.4288287369012833
1782831633780675800,5.93167578125,3.857137784966826,-0.9435190138496458,-2.1588187868326902
1782831633790604800,5.941604736328125,2.190097137671709,-0.7939658004377037,-1.6851903442308305
1782831633800533800,5.95153369140625,0.18155542154610155,-0.6632678018823266,-0.9969694490082561
1782831633810463000,5.961462890625,-1.849520782470703,-0.12934084832537918,-0.5182648721858859
1782831633820392000,5.971391845703125,-3.959958107972145,0.16746349383490158,0.267405466658622
1782831633830321000,5.98132080078125,-6.368969214725494,-0.24323400694904848,1.1164311102129518
1782831633840249900,5.991249755859375,-9.101515525507926,-0.4311030503550544,1.778793487688154
1782831633850179000,6.001178955078125,-12.188822199666498,-0.8442123980537056,2.9415263303488492
1782831633860107800,6.011107666015625,-15.490807397294043,-0.99685020654276,3.8286125322282314
1782831633870036000,6.021035888671875,-18.890126010948418,-0.5470728873886168,4.0696202596962445
1782831633879965000,6.03096484375,-22.004015571606157,-0.10191939211022108,4.367017398384213
1782831633889894000,6.040893798828125,-24.07584639533758,0.0943321518516168,4.244181876832246
1782831633899822800,6.05082275390625,-25.334509070837495,-0.11402463951623067,4.1654263200253245
1782831633909751800,6.060751708984375,-26.3657436314106,-0.7393062817502767,4.188011369059979
1782831633919680800,6.0706806640625,-26.77271816614866,-0.7496929434690625,3.5967414664179085
1782831633929609700,6.080609619140625,-25.98283035573959,0.2982331145880744,2.2892472477316854
1782831633939539000,6.0905390625,-23.656688086330888,1.3721576833851634,0.995305169057846
1782831633949468000,6.100468017578125,-19.586933386600016,1.4963723843358456,0.6439484766453504
1782831633959396900,6.11039697265625,-14.236231698846817,0.9592974516093731,0.9963460564129054
1782831633969325800,6.120325927734375,-8.927526155301928,0.3157932481328025,1.472596371950954
1782831633979255000,6.130255126953125,-4.633486899366974,-0.23487810213919727,1.749115265522152
1782831633989184000,6.14018408203125,-1.1303712266296149,-0.4715562029050663,1.616924909517169
1782831633999113000,6.150113037109375,1.5307441711455583,-0.5885727359799667,1.4138622973009942
1782831634009041700,6.160041748046875,3.4145284577459094,-0.9845135067347437,1.0222829000934959
1782831634018971000,6.169970947265625,5.046753227725625,-1.0987819101452827,0.5657264421932399
1782831634028899800,6.17989990234375,6.234226397758722,-1.194065627100691,0.20344795827195047
1782831634038828800,6.189828857421875,7.288891518279909,-1.1757364819448441,-0.0016487901203334331
1782831634048757800,6.1997578125,8.326452943786979,-0.8596312087208032,-0.22297025873512027
1782831634058687000,6.20968701171875,9.400165294605493,-0.45499797641187906,-0.4626239412456751
1782831634068616000,6.219615966796875,10.443893426048755,-0.1046416475478094,-0.5778644776239991
1782831634078545000,6.229544921875,11.168415322577953,0.011517063121357932,-0.6264028830826283
1782831634088473900,6.239473876953125,11.745389865624905,0.22200601681284604,-0.648739364183694
1782831634098403000,6.249403076171875,11.890926463806629,0.32540183815117923,-0.626687691373378
1782831634108332000,6.25933203125,11.63383386297822,0.3837339809367433,-0.4590807156808674
1782831634118260700,6.2692607421875,11.033671336567402,0.6098115215048193,-0.4891454529464245
1782831634128189700,6.279189697265625,10.326484021198748,0.8160942648112773,-0.6607894290700554
1782831634138119000,6.289118896484375,9.383134080305695,1.0767197159409523,-0.7845347589433193
1782831634148048000,6.2990478515625,8.548593473699688,1.264257719027996,-0.95278017866984
1782831634157976800,6.308976806640625,8.008457253706455,1.294018504910916,-1.1325506895605475
1782831634167905800,6.31890576171875,7.5342545183479785,1.118910140612349,-1.3258284784086047
1782831634177835000,6.3288349609375,7.4594485759496685,0.9431213197689503,-1.5303811830520628
1782831634187764000,6.338763916015625,7.609089102318882,0.6299358064491302,-1.419737619075179
1782831634197693000,6.34869287109375,8.059851340857147,0.2892158232600428,-1.2552192570477723
1782831634207622000,6.358621826171875,8.618207692673803,-0.16316994309313596,-1.0359242527592927
1782831634217551000,6.368551025390625,9.032496349817514,-0.41012704395223404,-0.9612253509320318
1782831634227479800,6.378479736328125,9.33905645364821,-0.5150180722843856,-0.9334230787057429
1782831634237408800,6.38840869140625,9.524145894539355,-0.578265423107706,-0.8615183376416563
1782831634247337700,6.398337646484375,9.591584523040055,-0.6120251424336806,-0.8742944517802447
1782831634257266700,6.4082666015625,9.672490535879135,-0.7065791934076696,-0.8070232157357037
1782831634267195000,6.41819482421875,9.75222692041695,-0.7159971562247723,-0.8935852085098623
1782831634277123800,6.428123779296875,9.641312138283253,-0.8015499719563871,-1.0669815081935374
1782831634287052800,6.438052734375,9.20650793185532,-0.8293797897767275,-1.1490716893158852
1782831634296981800,6.447981689453125,8.617885036590694,-0.8707674466978758,-1.1075327873557805
1782831634306911000,6.457910888671875,7.899677730035782,-0.8887466824375092,-0.8880407261252403
1782831634316840000,6.46783984375,6.971517174968123,-0.7828951019775122,-0.6998113797731698
1782831634326769000,6.477768798828125,5.594186034467816,-0.7169868979144841,-0.5994196721542626
1782831634336697900,6.48769775390625,3.73266034142673,-0.5107092326419428,-0.688445643889159
1782831634346626800,6.497626708984375,1.3288906424582003,-0.17001816502008585,-0.7346354403950274
1782831634356556000,6.50755615234375,-1.677994587507844,0.3038937341656536,-0.6555949291668832
1782831634366485000,6.517485107421875,-4.990597625261545,0.8162523779824375,-0.2986076835215091
1782831634376413700,6.52741357421875,-8.296110997015237,1.277129037169367,0.027536095570772884
1782831634386342700,6.5373427734375,-12.26109014801979,1.6677426580846308,0.3278666573621332
1782831634396271900,6.54727197265625,-16.013938121950627,1.2134384360905737,0.9989707788933068
1782831634406200800,6.557200927734375,-18.633690412724018,1.0054334721013902,1.2461392940133809
1782831634416129800,6.5671298828125,-20.050985314822196,0.9790331756275147,1.6734303483322261
1782831634426058800,6.577058837890625,-20.925603080272673,0.7400537391167133,1.98583523266837
1782831634435988000,6.586988037109375,-21.2248502307415,0.20763675173129886,2.58786428360343
1782831634445917000,6.5969169921875,-21.399215448522565,-0.29229082852490246,3.268333687916398
1782831634455846000,6.606845947265625,-21.37046632390022,-0.5356430732924491,4.22879024643302
1782831634465774800,6.61677490234375,-22.06272261211872,-0.6747681969966739,4.639031966273486
1782831634475704000,6.6267041015625,-22.55316219652891,0.42597993518766014,3.412563587413728
1782831634485633000,6.636633056640625,-22.125584434223175,1.8908048328869043,1.019532578472048
1782831634495561700,6.646561767578125,-19.858149205327035,2.925355240009725,-0.7553412515543401
1782831634505490700,6.65649072265625,-15.980618036150931,2.8834081956401465,-1.3797396629467606
1782831634515420000,6.666419921875,-10.84234095546007,1.8707300131075084,-1.1189219041153788
1782831634525348900,6.676348876953125,-5.637762141343951,0.9628568976566195,-0.2888105851937085
1782831634535277800,6.68627783203125,-0.6202770936787128,0.2766608958577737,0.3704745767932385
1782831634545207000,6.69620703125,3.3782185424804685,-0.6054580755356699,0.8815034333109855
1782831634555136000,6.706135986328125,6.128226275673509,-1.487567877241969,1.252336687348783
1782831634565065000,6.71606494140625,7.7888862820208065,-1.8100294606901703,1.171171804377809
1782831634574994000,6.725993896484375,8.529366210660339,-1.7922043195337056,1.0024508760940283
1782831634584923100,6.735923095703125,8.137045055174827,-1.551308235746622,0.903869944224134
1782831634594852000,6.74585205078125,7.62931180613637,-0.9986473190926015,0.3850380858052522
1782831634604780800,6.75578076171875,6.890391966420411,-0.33463914717175064,0.3040566696424037
1782831634614709800,6.765709716796875,6.594943623712658,-0.07697506659831851,0.19865794751644134
1782831634624639000,6.775638916015625,6.777648799815774,-0.04357778737656772,0.20386844870634377
1782831634634568000,6.78556787109375,7.285960141003131,-0.2059580413967371,0.3950632207352668
1782831634644497000,6.795496826171875,7.943027626940608,-0.3581104044564068,0.3944963806327432
1782831634654425900,6.80542578125,8.418680561107397,-0.4371745522884652,0.3779753808774054
1782831634664353800,6.815353759765625,8.95725026243627,-0.42928836561590433,0.1540856692098081
1782831634674283000,6.825282958984375,9.268590001758932,-0.37100612638667224,0.17091734234951436
1782831634684212000,6.8352119140625,9.458613976442813,-0.26918255933374163,0.09941818641163408
1782831634694141000,6.845140869140625,9.64460007391274,-0.30898722137976437,-0.03373166227526962
1782831634704070000,6.85506982421875,9.579662614578009,-0.5020045691933482,-0.1518659473337233
1782831634713999000,6.8649990234375,9.403353276991844,-0.5161902213362977,-0.3931256768014282
1782831634723928000,6.874927978515625,9.158445034953951,-0.4549802215594798,-0.6193282685212791
1782831634733857000,6.88485693359375,8.904877101120352,-0.31539851319417356,-0.7182119096647948
1782831634743786000,6.894785888671875,8.693784034922718,-0.2363084089369513,-0.6957049673676491
1782831634753715000,6.90471484375,8.665106221970916,-0.14898845566865057,-0.7873631873022764
1782831634763644000,6.914643798828125,8.70092572337091,-0.1094966954967007,-0.700238446078822
1782831634773572900,6.92457275390625,8.929065201437473,-0.08223839395400136,-0.769325353243202
1782831634783501800,6.934501708984375,9.301046164205669,-0.22759711481817066,-0.8858199082706123
1782831634793431000,6.94443115234375,9.409806983175873,-0.3161655520439148,-0.9861101282764225
1782831634803360000,6.954360107421875,9.261295168575645,-0.36648294987380503,-1.2187116272531449
1782831634813289000,6.9642890625,8.940779604628682,-0.37556437421292066,-1.413148888334632
1782831634823218000,6.974218017578125,8.366932253691553,-0.29806400509886444,-1.5802347627624869
1782831634833147100,6.984147216796875,7.571399715393781,-0.3873695974927395,-1.3618152991995214
1782831634843076000,6.994076171875,6.41500557423532,-0.3565806376058608,-1.3167623977690934
1782831634853005000,7.004005126953125,4.635196625894308,-0.07280410105660558,-1.5307628758460283
1782831634862933800,7.013933837890625,2.0518045192688703,0.26653204482495785,-1.8769604319296775
1782831634872863000,7.023863037109375,-0.6427414389431476,0.46110264996252953,-1.7314936841137707
1782831634882792000,7.0337919921875,-3.5134400828748937,0.44168001048155126,-1.2164829914182425
1782831634892721000,7.043720947265625,-5.867932248455285,0.3319640827436,-0.625396044127643
1782831634902649900,7.05364990234375,-8.376797229623794,-0.17595066034160553,0.33896117508932944
1782831634912579000,7.0635791015625,-10.92335568937063,-0.8004257171668112,0.8490650987818836
1782831634922508000,7.073508056640625,-13.608155914115905,-1.1390011078089475,1.1870344863548874
1782831634932437000,7.08343701171875,-16.507646352767942,-1.032477400241047,1.256021805602312
1782831634942366000,7.093365966796875,-19.04608814155459,-1.013892819019407,1.4508052497729658
1782831634952295200,7.103295166015625,-21.630728202414513,-1.3811647273138166,1.698155039744079
1782831634962224000,7.11322412109375,-23.779241283810137,-1.9205464756779371,2.0054932883404195
1782831634972152800,7.12315283203125,-25.046162084567545,-2.0814970622211693,1.9818126991540193
1782831634982081800,7.133081787109375,-25.64877609578371,-1.959565503771603,1.4434239073500037
1782831634992011000,7.143010986328125,-25.343400817823408,-1.8754545574113726,0.7222243601765483
1782831635001940000,7.15293994140625,-24.08672317866087,-1.9572467054352163,0.16025741664730012
1782831635011869000,7.162868896484375,-21.282168447244167,-1.730187277690321,-0.08964651478603482
1782831635021798000,7.1727978515625,-17.437889559328553,-1.5250073810592293,0.13888174340240655
1782831635031727000,7.18272705078125,-12.733601277029514,-1.6479115839332341,0.7240557403221726
1782831635041656000,7.192656005859375,-7.953217012521624,-1.8389637326210737,1.1683325623638927
1782831635051585000,7.2025849609375,-3.2811995992302894,-1.8422189350247382,1.2255508256234229
1782831635061514000,7.212513916015625,0.8017600345104933,-1.7022011002644895,1.0587285705678164
1782831635071443000,7.22244287109375,4.072769663637876,-1.2547966477215289,0.7495622297614812
1782831635081372000,7.232371826171875,6.3006801068753004,-0.5438284255746751,0.2841328757062554
1782831635091300900,7.24230078125,8.074001446762681,0.3016783231385052,-0.15214929431974886
1782831635101229800,7.252229736328125,9.359709365576505,0.9329798649828881,-0.48163303148970005
1782831635111158800,7.26215869140625,10.765090542519092,1.0383218884855507,-0.8344542434968054
1782831635121088000,7.272087890625,12.051678166776895,0.8576596894521266,-0.9170246824167668
1782831635131016000,7.282015869140625,13.050810785168409,0.6542553511261939,-1.0119837705276906
1782831635140945000,7.29194482421875,13.630124584817885,0.45385362868234513,-1.215364508782327
1782831635150873900,7.301873779296875,13.383385035699606,0.25540347869768737,-0.9911199923276901
1782831635160802800,7.311802734375,12.90675770354271,0.41012167365737257,-0.8749617565825581
1782831635170732000,7.32173193359375,11.97350771638155,0.6963418770316988,-0.8488805359952152
1782831635180661000,7.331660888671875,11.067810922056436,0.6622362668775021,-0.7000945806287229
1782831635190590000,7.34158984375,10.10036874243617,1.3994582166343927,-0.5175274978220462
1782831635200519000,7.351518798828125,9.144693572977184,1.0724524138852953,-0.22318828539997337
1782831635210448100,7.3614482421875,8.467846450814605,1.0376536338351667,-0.17199293569177387
1782831635220377000,7.371377197265625,7.8068860490918155,1.1431984133683144,-0.2713354995839298
1782831635230305800,7.381305908203125,7.179978723618388,1.0182351590726524,-0.3291868000499904
1782831635240234800,7.39123486328125,6.739293642458319,1.1778928562611342,-0.5038119839414954
1782831635250164000,7.4011640625,6.622061932262778,1.1885030976027249,-0.7860767276883125
1782831635260093000,7.411093017578125,6.642502078223228,1.083955731609091,-0.9176675103649496
1782831635270022000,7.42102197265625,6.956449954217672,0.8564962716959417,-0.8539692374363541
1782831635279950800,7.430950927734375,7.391486215835809,0.6476339602250606,-0.7047700250938534
1782831635289880000,7.440880126953125,7.861105715057254,0.6311292540173977,-0.4796593933291733
1782831635299809000,7.45080908203125,8.100862565681338,0.6601313304875046,-0.38320889761671423
1782831635309738000,7.460738037109375,8.45575035482943,0.8441060881350189,-0.6179004276752471
1782831635319667000,7.4706669921875,8.559564365047216,0.9369249493468552,-0.7613767323262989
1782831635329596200,7.48059619140625,8.7824431461066,0.7821936757098883,-0.8707185660548508
1782831635339524900,7.49052490234375,9.09542889907062,0.4956779234550893,-0.8712769305899739
1782831635349453800,7.500453857421875,9.289680136060714,0.14889518789462744,-0.8377075462043285
1782831635359382800,7.5103828125,9.26212051348388,-0.1299614279091358,-0.7397720726311207
1782831635369312000,7.52031201171875,8.962880961799621,-0.2142995340887457,-0.7855800302125513
1782831635379241000,7.530240966796875,8.032035113170743,-0.2245440839231014,-0.7819533641479909
1782831635389170000,7.540169921875,6.914035292336345,-0.15467048336043954,-1.1296141246519982
1782831635399099000,7.550098876953125,5.634254425483942,0.006434563092142343,-1.5201960352547466
1782831635409028000,7.560028076171875,3.986622243013978,-0.13428243291340766,-1.428573105829209
1782831635418957000,7.56995703125,1.890030487513542,-0.5006145030744373,-1.1491656512096524
1782831635428886000,7.579885986328125,-0.9730465754985809,-0.9762916948996484,-0.6533752072907983
1782831635438815000,7.58981494140625,-4.567883085078001,-1.255941726103425,-0.526486610955745
1782831635448744000,7.599743896484375,-8.790506625574826,-0.8962992897741496,-0.6773661776006221
1782831635458673000,7.6096728515625,-13.125449554306268,-0.41773616724908347,-0.6020223289333284
1782831635468601900,7.619601806640625,-17.522825266075134,-0.6258712604239582,0.32731296900212764
1782831635478530800,7.62953076171875,-21.799023744893073,-1.1922848080985247,1.6586771619670093
1782831635488460000,7.6394599609375,-24.831036986374855,-0.9779545135453342,2.33763996110931
1782831635498389000,7.649388916015625,-26.868350623476502,-0.7443579391166567,2.921533635894954
1782831635508318000,7.65931787109375,-27.862397901427745,-0.8516687054090202,3.5300007570534944
1782831635518247000,7.669246826171875,-27.88129666316509,-1.0750400192257017,4.0153327891916035
1782831635528176000,7.679176025390625,-27.72864994071722,-1.26936965521425,4.216667846962809
1782831635538104800,7.689104736328125,-27.52431979278326,-1.0541158160753548,3.4485780268639323
1782831635548034000,7.699033935546875,-26.681623936772343,-0.40588403608761725,2.027828308136761
1782831635557963000,7.708962890625,-24.108977096045017,0.35399748924486335,0.6397591351967304
1782831635567891700,7.7188916015625,-19.82278796908855,0.6650162529848516,-0.01995177792161703
1782831635577820700,7.728820556640625,-14.340133971869944,0.2193553561735898,0.49085211073383683
1782831635587750000,7.73875,-8.460528821277618,-0.042426352319121355,0.9457616782099008
1782831635597678800,7.748678955078125,-2.9064287134826183,-0.15329269220121203,1.3087909804984927
1782831635607607800,7.75860791015625,1.7085896322578191,-0.42283546314947307,1.8649441231824457
1782831635617536800,7.768536865234375,5.41349687436223,-0.4477371185634285,1.9864291069082916
1782831635627466000,7.778466064453125,7.997143832531571,0.04867153031900525,1.363428141223639
1782831635637395000,7.78839501953125,9.494345799559355,0.7498656696874648,0.546388850647211
1782831635647323000,7.798322998046875,10.357305860441922,0.9380498617235571,-0.07062003501579166
1782831635657251800,7.808251953125,11.109379780763387,1.137166220531985,-0.4193919716320932
1782831635667180800,7.818180908203125,11.889119122123718,1.328539052541554,-0.4204850275658071
1782831635677110000,7.828110107421875,12.508850272357463,1.1669215265221893,-0.23396606532819567
1782831635687039000,7.8380390625,12.823346429884433,0.9140390907347202,-0.06954663363061844
1782831635696968000,7.847968017578125,12.60585635612607,0.7692739883821457,0.0848877028863877
1782831635706897000,7.85789697265625,12.09782850805521,0.7977914231404661,0.3632385611250996
1782831635716825900,7.867825927734375,11.595908913731574,0.7274979897305369,0.6642931994073092
1782831635726754800,7.8777548828125,10.88490116329193,0.7596333227250724,0.8242239413835107
1782831635736683800,7.887683837890625,10.096406853067874,0.6806853851512074,0.6255354525983333
1782831635746612700,7.89761279296875,9.359969477817415,0.4809750059723854,0.46940914440639314
1782831635756542000,7.9075419921875,8.731295727193356,0.24069098966903982,0.44199028200712054
1782831635766471000,7.917470947265625,8.023062702164053,-0.13774934183899312,0.5901070694077759
1782831635776400000,7.92739990234375,7.58563106984198,-0.4137314251197502,0.6588143296048045
1782831635786328800,7.937328857421875,7.327891987803578,-0.5648650030583143,0.38977618371043354
1782831635796258000,7.947258056640625,7.133755901625752,-0.5627360282056033,0.3369740198601037
1782831635806187000,7.95718701171875,6.938928326052427,-0.5795550245268271,0.3337732875900343
1782831635816116000,7.967115966796875,6.884527458301186,-1.205669482589513,0.26800127712730315
1782831635826044700,7.977044677734375,7.4321934892773625,0.9715015380136668,0.2752384618392214
1782831635835974000,7.986973876953125,7.840240621683001,0.18801851661298422,0.2347276242852211
1782831635845902800,7.99690283203125,7.39370330736339,-0.030715346661396324,0.6571256458654999
1782831635855831800,8.006831787109375,8.032918910267949,0.5063243320886045,-0.09049052786212414
1782831635865760800,8.0167607421875,8.073282484838366,-1.0740327418792992,0.3460722492035478
1782831635875690000,8.02668994140625,8.62238877775073,-0.17093031142894177,0.34555312070026994
1782831635885619000,8.036618896484375,8.065839767616987,0.44276130291223526,-0.7560466964099556
1782831635895548000,8.0465478515625,8.043848300561308,0.9114110803186893,-0.7325473820745945
1782831635905476900,8.056476806640624,7.86521490394175,-0.8417430122654884,-1.515744462673366
1782831635915406000,8.066406005859376,6.8438137551188465,-0.8269551929783076,-2.110952435416728
1782831635925335000,8.0763349609375,6.8546391005158425,-0.9581486469004302,-1.678666933811456
1782831635935264000,8.086263916015625,6.375964188179373,-1.1396300533622503,-1.4660647782251237
1782831635945192700,8.096192626953124,5.346736291253566,-0.47417869689576325,-2.516558458280563
1782831635955122000,8.106121826171876,3.246522253602743,-0.5530334762934594,-2.177841321080178
1782831635965051000,8.11605078125,3.6017145786553617,-0.8612767839707434,-0.4045741225328296
1782831635974979800,8.125979736328125,2.6779168949723244,0.23309023234173654,-0.0805630080876872
1782831635984908800,8.13590869140625,0.19574995111525056,0.38220176640078424,-0.4024902289308607
1782831635994837800,8.145837646484376,-2.5220938805758952,-0.3971320628985762,-1.1137310574740171
1782831636004767000,8.15576708984375,-5.574150377655029,-0.22466120749674737,-0.8550721571769565
1782831636014696000,8.165696044921875,-7.344335173082351,-0.10597801985125987,0.179541305244714
1782831636024625000,8.175625,-9.925918184459208,1.2546117926739155,0.8888300498720257
1782831636034553900,8.185553955078126,-11.831957557487486,-0.057660189207596704,2.704751125884056
1782831636044483000,8.195483154296875,-16.314955204701423,0.19390494430307298,1.926203186265379
1782831636054411800,8.205411865234375,-21.297366016376017,-0.1004957525152713,2.7948449460461733
1782831636064340700,8.2153408203125,-22.37762793496847,0.925451296108961,4.224302287364006
1782831636074269700,8.225269775390625,-24.41940264313221,3.6385862194567915,3.008648147985339
1782831636084199000,8.235198974609375,-25.65440387253761,4.302833972287178,2.788727339948714
1782831636094127900,8.2451279296875,-28.75013233808279,2.9496219585210084,0.7949254392500966
1782831636104056800,8.255056884765626,-31.20710697301626,1.9206991820216177,-0.27742629073970015
1782831636113985800,8.26498583984375,-23.98777998934984,1.703781647454202,-0.4881608258232474
1782831636123915000,8.2749150390625,-15.992252359843253,2.2308758689142762,-1.6500702232718467
1782831636133844000,8.284843994140624,-9.885943901467323,1.025050684306398,-1.9934623665459452
1782831636143773000,8.29477294921875,-4.684218723216652,-0.6780211343780159,-1.1828383498392998
1782831636153702000,8.304701904296875,-1.0063841969549656,-1.1359013882279396,0.11589770337911322
1782831636163630800,8.314630859375,0.755452456843853,-1.1803675758115946,0.8874212790526449
1782831636173559800,8.324559814453124,-1.3003466850191354,-0.41780119530931115,0.5519900681877509
1782831636183488800,8.33448876953125,-2.3549697199642656,0.4286691377390176,-0.28119276713375
1782831636193417700,8.344417724609375,-0.1439870306521654,-0.3823887403402477,0.013657865409180521
1782831636203345700,8.354345703125,2.215207613530755,-1.0514480581708252,0.10796068156845867
1782831636213275000,8.36427490234375,3.768632403039932,0.18258746800757944,-1.0557027199406177
1782831636223203800,8.374203857421875,6.428502184668183,-1.2940291724354027,-1.955428842358291
1782831636233132800,8.3841328125,11.138838514959811,-3.0103537828594447,-2.4146340612016615
1782831636243061800,8.394061767578124,10.62751279438734,-2.294555875533819,-2.68494606295675
1782831636252991000,8.403990966796876,8.914652060681581,0.9588687048032879,-2.1085922821566463
1782831636262920000,8.413919921875,8.185552188712357,2.4668624072194096,-0.4438417916253209
1782831636272849000,8.423848876953125,9.002074323546886,1.9518140128619967,0.5498657329775393
1782831636282777900,8.43377783203125,10.194559768784046,-0.593778670592606,-0.14167846144884824
1782831636292707000,8.44370703125,10.551302830410004,-0.5224537752430886,-0.502323352818936
1782831636302636000,8.453635986328125,9.123493548560141,-0.35168373240977524,-1.2671576782532035
1782831636312564700,8.463564697265625,7.102978486046195,-2.3235488919146357,-2.3728550668753683
1782831636322493700,8.47349365234375,5.12533459700942,-1.0674965450435876,-1.997952079180628
1782831636332423000,8.4834228515625,5.736176922866702,-0.042401035214774306,-1.1703820422396063
1782831636342352000,8.493351806640625,5.994767068776488,0.9207794318404048,0.10522183118909596
1782831636352280800,8.50328076171875,6.275974704685807,1.565227893897146,0.965571417312324
1782831636362209800,8.513209716796876,6.462143757507205,2.2345399443797764,0.6780908386133611
1782831636372139000,8.523138916015625,6.818623199760913,2.1182105898514387,-0.8875549884349108
1782831636382068000,8.53306787109375,7.354594116768241,1.628556602860987,-1.4905100681737065
1782831636391997000,8.542996826171875,7.403451963439584,0.7805880671441554,-1.3238383275046943
1782831636401926000,8.55292578125,7.151400279387831,-1.083369310023263,-0.6643538435533642
1782831636411855000,8.562855224609375,7.958377756285667,-2.46226485029608,-0.05156885919570923
1782831636421783800,8.57278369140625,8.785308472409843,-1.962150259567797,0.2125038828436285
1782831636431712800,8.582712646484374,8.23737589945197,0.019339491242170333,0.039672304370626806
1782831636441641700,8.592641845703126,7.9148647777736185,1.2751260267838835,-0.5189522333955392
1782831636451571000,8.602571044921875,8.13329125559926,1.039866925970465,-0.9091991033576429
1782831636461500000,8.6125,8.120003904002905,0.22208251611515878,-0.8490138069860637
1782831636471428900,8.622428955078124,7.458443198299408,-0.3937457083959132,-0.3928576735150069
1782831636481357800,8.63235791015625,7.312748194685578,-0.5943325050830841,-0.020453178971959276
1782831636491287000,8.642287109375,7.520232422736287,-1.2556193622812628,0.02816259343866259
1782831636501216000,8.652216064453125,6.023963352644443,-1.1199261857870966,0.11589390398683026
1782831636511145000,8.66214501953125,4.641472052901983,-1.2151608759690076,-0.4876499536916613
1782831636521074000,8.672073974609376,3.717848556742072,-1.5593328445091843,-1.432839092710614
1782831636531003000,8.6820029296875,2.090062061470747,-1.3035890279412268,-1.6361268919847904
1782831636540932600,8.6919326171875,0.10235329001545905,-0.9432893698122352,-1.9280499831758438
1782831636550861600,8.701861572265624,-2.006537975087762,-0.5089196823440492,-2.452773383851349
1782831636560790800,8.711790771484376,-4.645560198998451,0.44234446573965247,-2.2323286980710924
1782831636570719700,8.7217197265625,-6.493286499267816,0.7350007665760815,-1.9947193808697163
1782831636580648700,8.731648681640625,-7.049038806065917,-0.9823162889514118,-1.6655853339202702
1782831636590577700,8.74157763671875,-11.368286737537384,-1.899433983413875,-0.5748688029393554
1782831636600507000,8.7515068359375,-14.968801292753218,-1.489509366698563,0.1627023621140048
1782831636610435800,8.761435791015625,-16.83695663306713,-1.2131565504092723,0.2443355201838538
1782831636620364500,8.771364501953125,-18.6462564643085,-0.3125038877312094,1.3159361760780215
1782831636630293500,8.78129345703125,-20.284412962424753,-0.4411638045877218,1.916627402538061
1782831636640222700,8.79122265625,-23.546861099433897,-0.6209650759428739,1.67899967289716
1782831636650151700,8.801151611328125,-27.928844011759757,0.20515432379841803,2.0688778191447255
1782831636660080600,8.81108056640625,-28.69477811512947,0.22620524033466352,1.9941778213389216
1782831636670009600,8.821009521484376,-25.61675364857912,0.23636945494180545,1.8791094266571104
1782831636679938800,8.830938720703125,-21.50211935815811,0.6654827014528214,1.105226190913841
1782831636689867800,8.84086767578125,-15.66722662499547,0.8423724692754447,0.25885223091207443
1782831636699796700,8.850796630859374,-11.40747776119709,-0.8212124846078455,0.09289791779741645
1782831636709725700,8.8607255859375,-8.181134956791997,-0.45745475844684985,0.9580164718881249
1782831636719655000,8.870655029296875,-4.743191721189022,-0.2535504712421447,1.7086466231420636
1782831636729583600,8.88058349609375,-1.6989590496033429,-0.998892526025325,1.8661825789362192
1782831636739512600,8.8905126953125,0.38361294837296006,-1.2545638618789612,1.936118577210605
1782831636749441500,8.900441650390626,1.7504378924280404,-1.0951595549296587,1.9973834855124353
1782831636759369700,8.91036962890625,2.60265385645628,-1.3043988830193876,1.8095955993175505
1782831636769298700,8.920298583984374,4.334113492169976,-1.526015535188466,0.8399651158727705
1782831636779227600,8.9302275390625,6.03695084451139,-1.0702295502040535,0.15781806067116558
1782831636789156600,8.940156494140625,7.4454802563518285,-0.6921867301136255,0.1357900609973818
1782831636799085600,8.95008544921875,9.193904470869898,-0.49815644239783285,-0.150895787127316
1782831636809014800,8.960014892578124,11.022944190847873,-0.2193998529024422,-0.6255407863605768
1782831636818943700,8.96994384765625,12.417017207312583,-0.09492007127478719,-0.6898738500613719
1782831636828872700,8.979872802734375,13.090589837849139,0.17893194117471575,-0.10004490347523241
1782831636838801700,8.9898017578125,12.903704161190985,0.3777113961789757,0.5310221354935318
1782831636848731000,8.99973095703125,12.328151175379752,0.3799760531753301,0.9965284272424876
1782831636858659800,9.009659912109376,11.818052950775623,0.5247345065914094,1.085834750288725
1782831636868588800,9.0195888671875,11.788406000530719,1.0555455566175282,0.6395530181653797
1782831636878517500,9.029517578125,11.439591393816471,1.2759484490826725,0.02628134626932442
1782831636888446700,9.03944677734375,10.530154828441143,1.3055635428845882,-0.3144431121654808
1782831636898375700,9.049375732421876,10.154328296160697,1.4106965267464517,-0.5793415644392371
1782831636908304600,9.0593046875,9.76992916584611,1.5183030611149966,-0.8356794013775884
1782831636918233600,9.069233642578125,9.003004882395267,1.4587790051311254,-1.077348296168074
1782831636928162800,9.079162841796874,8.38350052665472,1.350485073020309,-1.0452674698397517
1782831636938091800,9.089091796875,8.224442183598876,1.2755325617581605,-0.970995268991962
1782831636948020700,9.099020751953125,8.501846335572004,1.2019408905204385,-0.9675126875732093
1782831636957949700,9.10894970703125,8.549256321522593,1.1970638590686022,-0.8611457780022174
1782831636967879000,9.11887890625,8.242442535191774,1.2487844016946852,-0.6515064177442341
1782831636977808000,9.128807861328125,7.788874591583013,0.9971549616429954,-0.5802673009820282
1782831636987736600,9.138736572265625,7.879159842664003,0.72801682597287,-0.7416287333484739
1782831636997665500,9.14866552734375,8.033542595124244,0.6561904108420014,-0.9465490291953086
1782831637007594800,9.1585947265625,7.5953230272948735,0.5146948316793889,-0.9896280002042651
1782831637017523700,9.168523681640625,6.645754358017444,0.3547315756730735,-0.9880891732644289
1782831637027452700,9.17845263671875,5.963894960650801,0.22926987033598123,-1.0401268190156667
1782831637037381600,9.188381591796874,5.3570910965293645,0.10219145051725208,-1.1886338843755424
1782831637047310600,9.198310546875,4.5404958964586255,-0.08737959276735782,-1.5459031618326902
1782831637057239800,9.20823974609375,3.7369063084334133,-0.19135719604901968,-1.7100132353201507
1782831637067168800,9.218168701171875,3.0541853258013725,-0.19049480706602334,-1.7843898463904857
1782831637077097700,9.22809765625,3.9575674134433267,-0.30948125197440385,-1.5647003628917038
1782831637087026700,9.238026611328126,4.510846023604273,-0.25588468634337186,-0.34288287857770916
1782831637096956000,9.247955810546875,-1.3499199864834546,-0.42709399737678466,0.8288328964836895
1782831637106884600,9.257884521484375,-4.7683244088798755,-0.940054771805182,1.1513261902444063
1782831637116813600,9.2678134765625,-6.272180573099852,-0.7816057197540998,1.429840203155577
1782831637126742500,9.277742431640625,-6.925152314156294,-0.6461914332665503,1.6745650514505803
1782831637136671700,9.287671630859375,-8.980486176595091,-0.40632754207141697,2.1482309034533795
1782831637146600700,9.2976005859375,-11.633009687113761,-0.033150866712629797,2.7085557788640258
1782831637156529700,9.30752978515625,-14.064659326654672,0.37299240483306345,3.1164743164539335
1782831637166458600,9.317458740234375,-15.077143594050407,1.4547209619119763,3.6474119154691693
1782831637176387800,9.327387939453125,-17.217767968022823,2.506629769462347,4.224460108274221
