time,seconds_elapsed,z,y,x
1782831627932511500,0.083511474609375,0.051521819084882736,-0.23389321565628052,-0.08531294018030167
1782831627942440400,0.0934404296875,0.08843842893838882,-0.5024999380111694,-0.13030481338500977
1782831627952369700,0.10336962890625,0.09914779663085938,-0.6728261113166809,-0.14658311009407043
1782831627962298600,0.113298583984375,0.09875115752220154,-0.7367616295814514,-0.108939990401268
1782831627972227600,0.1232275390625,0.11658740788698196,-0.7894272208213806,-0.04183525964617729
1782831627982156500,0.133156494140625,0.15830206871032715,-0.8445347547531128,0.03654026240110397
1782831627992085800,0.143085693359375,0.22217905521392822,-0.9619079828262329,0.12098776549100876
1782831628002014700,0.1530146484375,0.31992971897125244,-1.2707810401916504,0.24927134811878204
1782831628011943700,0.162943603515625,0.43168073892593384,-1.644671082496643,0.395886093378067
1782831628021872600,0.17287255859375,0.5189604759216309,-2.104452610015869,0.5772472620010376
1782831628031801600,0.182801513671875,0.5816169381141663,-2.6008780002593994,0.7989106774330139
1782831628041730600,0.19273046875,0.6999790072441101,-2.798583507537842,1.2637385129928589
1782831628051659500,0.202659423828125,0.6579844355583191,-2.206674098968506,1.5102028846740723
1782831628061588500,0.21258837890625,0.3796653151512146,-1.0495480298995972,1.4667950868606567
1782831628071517400,0.222517333984375,-0.11073131859302521,0.19522127509117126,1.2580368518829346
1782831628081445600,0.232445556640625,-0.750115692615509,0.9541923999786377,0.9213191866874695
1782831628091374600,0.24237451171875,-1.4250227212905884,0.6077572107315063,0.3201691806316376
1782831628101303600,0.252303466796875,-1.8258941173553467,-0.06054473668336868,-0.36107906699180603
1782831628111232500,0.262232421875,-1.900649070739746,-0.38491910696029663,-0.9035983085632324
1782831628121161700,0.27216162109375,-1.7433255910873413,-0.3535918891429901,-1.2085765600204468
1782831628131090700,0.282090576171875,-1.4961488246917725,-0.11236272752285004,-1.2817809581756592
1782831628141019600,0.29201953125,-1.346960425376892,0.16906282305717468,-1.1815528869628906
1782831628150948600,0.301948486328125,-1.3384284973144531,0.44551515579223633,-1.0715047121047974
1782831628160877600,0.311877685546875,-1.424870491027832,0.6440920233726501,-1.0243397951126099
1782831628170806500,0.321806640625,-1.5280263423919678,0.9191989898681641,-1.1006989479064941
1782831628180735500,0.331735595703125,-1.5532002449035645,1.1312482357025146,-1.2382997274398804
1782831628190664400,0.34166455078125,-1.4361451864242554,1.2342288494110107,-1.3636418581008911
1782831628200593400,0.351593505859375,-1.2398961782455444,1.2624529600143433,-1.4361518621444702
1782831628210522600,0.361522705078125,-1.079367756843567,1.26754891872406,-1.5298722982406616
1782831628220451600,0.37145166015625,-0.9897682666778564,1.193416714668274,-1.614302396774292
1782831628230380500,0.381380615234375,-0.8735545873641968,1.0731960535049438,-1.6329882144927979
1782831628240309500,0.3913095703125,-0.7111192941665649,1.1049309968948364,-1.4788917303085327
1782831628250238700,0.40123876953125,-0.5434986352920532,1.1749169826507568,-1.1232784986495972
1782831628260167700,0.411167724609375,-0.37157031893730164,1.204025149345398,-0.6571322679519653
1782831628270096600,0.4210966796875,-0.21553143858909607,0.9991428256034851,-0.2083853930234909
1782831628280025600,0.431025634765625,-0.06440480798482895,0.5506814122200012,0.14915305376052856
1782831628289954600,0.44095458984375,-0.008068032562732697,-0.23784194886684418,0.3250013291835785
1782831628299883500,0.450883544921875,0.11845706403255463,-0.6358155012130737,0.3140903413295746
1782831628309812500,0.4608125,0.3162814676761627,0.021642033010721207,0.2699279487133026
1782831628319741400,0.470741455078125,0.39456555247306824,-0.015581694431602955,0.22762781381607056
1782831628329670700,0.480670654296875,0.33837950229644775,0.2255137413740158,0.030492112040519714
1782831628339599600,0.490599609375,0.0955125242471695,0.35165300965309143,-0.27908870577812195
1782831628349528600,0.500528564453125,-0.15684860944747925,0.4277421832084656,-0.5715080499649048
1782831628359457500,0.51045751953125,-0.21797671914100647,0.1972290426492691,-0.6707017421722412
1782831628369386800,0.52038671875,-0.07468773424625397,-0.04653780907392502,-0.5668088793754578
1782831628379315700,0.530315673828125,0.09865856170654297,-0.11734490841627121,-0.39959123730659485
1782831628389244700,0.54024462890625,0.2483428567647934,-0.0554589107632637,-0.2310142070055008
1782831628399173400,0.55017333984375,0.3752964437007904,-0.0687408596277237,-0.15288759768009186
1782831628409102600,0.5601025390625,0.5042373538017273,-0.26159846782684326,-0.19151833653450012
1782831628419031600,0.570031494140625,0.6157750487327576,-0.49794769287109375,-0.24449265003204346
1782831628428959500,0.57995947265625,0.6416966319084167,-0.6609430313110352,-0.2519713342189789
1782831628438888400,0.589888427734375,0.5953540802001953,-0.802920937538147,-0.21267712116241455
1782831628448817400,0.5998173828125,0.5019431710243225,-0.9528912305831909,-0.14830079674720764
1782831628458746600,0.60974658203125,0.39250272512435913,-1.0773913860321045,-0.0951547771692276
1782831628468675600,0.619675537109375,0.2728905975818634,-1.158636450767517,-0.0758439302444458
1782831628478604500,0.6296044921875,0.15786950290203094,-1.1502805948257446,-0.15354466438293457
1782831628488533500,0.639533447265625,0.09208596497774124,-1.0946202278137207,-0.32289719581604004
1782831628498462700,0.649462646484375,0.10088922828435898,-1.002462387084961,-0.44397488236427307
1782831628508391700,0.6593916015625,0.20068612694740295,-0.9377959966659546,-0.4511832594871521
1782831628518320600,0.669320556640625,0.38541385531425476,-0.862282931804657,-0.366592139005661
1782831628528250600,0.679250732421875,0.5552244782447815,-0.7541465759277344,-0.24259108304977417
1782831628538179600,0.6891796875,0.6561101675033569,-0.5790882110595703,-0.11728914082050323
1782831628548108500,0.699108642578125,0.6826602816581726,-0.3706899881362915,-0.01726161129772663
1782831628558037500,0.70903759765625,0.6389875411987305,-0.1166488528251648,0.08583662658929825
1782831628567966700,0.718966796875,0.5347192287445068,0.20831778645515442,0.19391116499900818
1782831628577895700,0.728895751953125,0.4063677489757538,0.42150071263313293,0.23959152400493622
1782831628587824600,0.73882470703125,0.23294109106063843,0.5220412015914917,0.20854970812797546
1782831628597753600,0.748753662109375,0.045634813606739044,0.5893675684928894,0.16108646988868713
1782831628607682600,0.7586826171875,-0.058100901544094086,0.6598577499389648,0.11639676988124847
1782831628617611500,0.768611572265625,-0.06078378111124039,0.7329828143119812,0.0360599085688591
1782831628627540500,0.77854052734375,0.03140287101268768,0.8292909860610962,-0.06670509278774261
1782831628637469400,0.788469482421875,0.19805003702640533,0.9485652446746826,-0.13276730477809906
1782831628647398400,0.7983984375,0.34426289796829224,1.1807372570037842,-0.052010662853717804
1782831628657327600,0.80832763671875,0.3997524380683899,1.349228858947754,0.09277068078517914
1782831628667256600,0.818256591796875,0.34854570031166077,1.3717418909072876,0.2289423644542694
1782831628677185500,0.828185546875,0.22786656022071838,1.318469762802124,0.3182242214679718
1782831628687114500,0.838114501953125,0.08756006509065628,1.1286401748657227,0.3693760931491852
1782831628697043700,0.848043701171875,-0.040840793401002884,0.6313733458518982,0.4169607162475586
1782831628706972700,0.85797265625,-0.13935884833335876,-0.08987776190042496,0.494295209646225
1782831628716901600,0.867901611328125,-0.2339058816432953,-0.49110808968544006,0.42217543721199036
1782831628726830600,0.87783056640625,-0.19445620477199554,-0.6275274157524109,0.28396910429000854
1782831628736759600,0.887759521484375,-0.018287282437086105,-0.5491814613342285,0.044910728931427
1782831628746688500,0.8976884765625,0.13677872717380524,-0.31280162930488586,-0.20108731091022491
1782831628756617500,0.907617431640625,0.1644672155380249,0.22824569046497345,-0.37338244915008545
1782831628766545400,0.91754541015625,0.14601390063762665,0.8010658025741577,-0.4967954754829407
1782831628776474400,0.927474365234375,0.13962019979953766,1.0462099313735962,-0.5271298885345459
1782831628786403600,0.937403564453125,0.0936385989189148,1.075207233428955,-0.3840225040912628
1782831628796332500,0.94733251953125,-0.015242661349475384,0.8798663020133972,-0.16547612845897675
1782831628806261500,0.957261474609375,-0.12692897021770477,0.5425971746444702,0.0380234569311142
1782831628816190500,0.9671904296875,-0.17465242743492126,0.22781452536582947,0.12000902742147446
1782831628826119700,0.97711962890625,-0.09989775717258453,-0.01162176113575697,0.05168696865439415
1782831628836048600,0.987048583984375,0.07354295253753662,-0.020064111799001694,-0.08623608201742172
1782831628845977600,0.9969775390625,0.27144455909729004,0.21182984113693237,-0.2292259931564331
1782831628855906600,1.006906494140625,0.42099612951278687,0.43716585636138916,-0.332437127828598
1782831628865835800,1.016835693359375,0.46084925532341003,0.5824471712112427,-0.33397403359413147
1782831628875764700,1.0267646484375,0.40062975883483887,0.6740313768386841,-0.2058655023574829
1782831628885693400,1.036693359375,0.3092889189720154,0.6789073348045349,-0.024184394627809525
1782831628895622400,1.046622314453125,0.22358621656894684,0.5806597471237183,0.15319325029850006
1782831628905551600,1.056551513671875,0.19780734181404114,0.42990031838417053,0.33918362855911255
1782831628915480600,1.06648046875,0.2317432314157486,0.32021626830101013,0.5081868767738342
1782831628925409500,1.076409423828125,0.2861268222332001,0.11871962994337082,0.5742018222808838
1782831628935338500,1.08633837890625,0.35926687717437744,-0.15108482539653778,0.495114803314209
1782831628945267700,1.096267822265625,0.4439396858215332,-0.2695230543613434,0.3267518877983093
1782831628955196700,1.10619677734375,0.5214177966117859,-0.19139797985553741,0.2221435010433197
1782831628965125600,1.116125732421875,0.6083758473396301,-0.05305102467536926,0.2674265503883362
1782831628975054600,1.1260546875,0.622299075126648,-0.25172677636146545,0.35727670788764954
1782831628984983800,1.13598388671875,0.5622178912162781,-0.6535934805870056,0.4741615056991577
1782831628994912500,1.14591259765625,0.5098326206207275,-0.856513500213623,0.6129148006439209
1782831629004841500,1.155841552734375,0.4832841157913208,-1.1073437929153442,0.5651139616966248
1782831629014770400,1.1657705078125,0.6525351405143738,-1.0922813415527344,0.4342142641544342
1782831629024699600,1.17569970703125,0.8835657238960266,-0.8919892311096191,0.39898839592933655
1782831629034628600,1.185628662109375,1.05120050907135,-0.4272068440914154,0.4252437651157379
1782831629044557600,1.1955576171875,1.1044187545776367,-0.2498645782470703,0.3752668797969818
1782831629054486500,1.205486572265625,1.0572868585586548,-0.3074032664299011,0.3121773302555084
1782831629064415700,1.215415771484375,0.8973853588104248,-0.23465050756931305,0.12739068269729614
1782831629074344700,1.2253447265625,0.5984422564506531,-0.06950404495000839,-0.19449493288993835
1782831629084273700,1.235273681640625,0.3518785238265991,-0.11071860045194626,-0.6792118549346924
1782831629094202600,1.24520263671875,0.24014393985271454,-0.5429711937904358,-1.2451622486114502
1782831629104130600,1.255130615234375,0.24796538054943085,-1.0201785564422607,-1.6920816898345947
1782831629114059800,1.265059814453125,0.40973034501075745,-1.1449159383773804,-1.8185700178146362
1782831629123988700,1.27498876953125,0.6178476214408875,-0.9789111018180847,-1.664377212524414
1782831629133917700,1.284917724609375,0.6188380718231201,-0.718754768371582,-1.4016046524047852
1782831629143846400,1.294846435546875,0.4713657796382904,-0.565588653087616,-1.1247129440307617
1782831629153775600,1.304775634765625,0.3508497476577759,-0.5523072481155396,-0.8669335842132568
1782831629163704600,1.31470458984375,0.1994120180606842,-0.041432760655879974,-0.5379341244697571
1782831629173633500,1.324633544921875,0.10951711237430573,-0.02172904834151268,-0.44752007722854614
1782831629183562500,1.3345625,0.14169183373451233,-0.22775810956954956,-0.4356306791305542
1782831629193491700,1.34449169921875,0.10579894483089447,-0.27613863348960876,-0.22446206212043762
1782831629203420700,1.354420654296875,0.04115204140543938,-0.2659515142440796,0.08352132886648178
1782831629213349600,1.364349609375,-0.026495572179555893,-0.05579410120844841,0.42322835326194763
1782831629223278600,1.374278564453125,-0.029151011258363724,0.4262194037437439,0.6347576379776001
1782831629233207800,1.384207763671875,0.04526257514953613,0.9056485295295715,0.6287912130355835
1782831629243136800,1.39413671875,0.10341722518205643,1.4122095108032227,0.45991167426109314
1782831629253065500,1.4040654296875,0.1650492399930954,1.7147430181503296,0.2470712959766388
1782831629262994400,1.413994384765625,0.15262053906917572,1.5615254640579224,0.030777599662542343
1782831629272923400,1.42392333984375,0.07285413146018982,1.1506640911102295,-0.07569205015897751
1782831629282852600,1.4338525390625,0.06680236011743546,0.8137883543968201,0.002727922983467579
1782831629292781600,1.443781494140625,0.11280615627765656,0.5249047875404358,0.1155318021774292
1782831629302710500,1.45371044921875,0.15005633234977722,0.23285508155822754,0.17999015748500824
1782831629312639500,1.463639404296875,0.2110128402709961,0.13036289811134338,0.2308817207813263
1782831629322568700,1.473568603515625,0.42691370844841003,0.17822682857513428,0.19094336032867432
1782831629332497700,1.48349755859375,0.5812171101570129,0.5340268611907959,0.0727991983294487
1782831629342426600,1.493426513671875,0.6507330536842346,0.735824465751648,-0.05006307363510132
1782831629352355600,1.50335546875,0.6665026545524597,0.7686098217964172,0.03411918878555298
1782831629362284500,1.513284423828125,0.6239656209945679,0.512636661529541,0.14715227484703064
1782831629372213500,1.523213623046875,0.5336040258407593,0.3178809881210327,0.2204453945159912
1782831629382142500,1.533142578125,0.4893620014190674,0.22690822184085846,0.23299339413642883
1782831629392071400,1.543071533203125,0.45453381538391113,0.18220777809619904,0.14343032240867615
1782831629402000600,1.553000732421875,0.4222072958946228,0.20681458711624146,-0.06610000133514404
1782831629411929600,1.5629296875,0.42046913504600525,0.3788442015647888,-0.23201733827590942
1782831629421858600,1.572858642578125,0.5277449488639832,0.6915131211280823,-0.19008134305477142
1782831629431787500,1.58278759765625,0.5415002703666687,0.6876078248023987,-0.11902039498090744
1782831629441716700,1.592716796875,0.413776159286499,0.6221811175346375,0.04566815495491028
1782831629451645700,1.602645751953125,0.3105384111404419,0.6086897253990173,0.2530668079853058
1782831629461573600,1.61257373046875,0.21351012587547302,0.6147508025169373,0.350744366645813
1782831629471502600,1.622502685546875,0.22564631700515747,0.8889768719673157,0.3061688542366028
1782831629481431600,1.632431640625,0.3919681906700134,1.1640385389328003,0.1490498036146164
1782831629491360800,1.64236083984375,0.6061773896217346,1.352277159690857,0.015408766455948353
1782831629501289700,1.652289794921875,0.7971601486206055,1.3937256336212158,0.08212308585643768
1782831629511218400,1.662218505859375,0.7774646878242493,1.1020194292068481,0.21938568353652954
1782831629521147400,1.6721474609375,0.628963053226471,0.5487723350524902,0.2659939229488373
1782831629531075800,1.682075927734375,0.5624157190322876,0.2229420393705368,0.19476695358753204
1782831629541004800,1.6920048828125,0.5468149185180664,-0.03131740912795067,0.018641188740730286
1782831629550934000,1.70193408203125,0.517132043838501,-0.230698823928833,-0.06598827242851257
1782831629560863000,1.711863037109375,0.5449187159538269,-0.5419624447822571,-0.08621232211589813
1782831629570792000,1.7217919921875,0.527662992477417,-0.8028651475906372,-0.16870826482772827
1782831629580721000,1.731720947265625,0.5023736357688904,-0.811255931854248,-0.38752874732017517
1782831629590649900,1.74164990234375,0.5151371359825134,-0.7452106475830078,-0.661156415939331
1782831629600579000,1.7515791015625,0.4343078136444092,-0.652169942855835,-0.8268321752548218
1782831629610508000,1.761508056640625,0.32881033420562744,-0.6793231964111328,-0.886199414730072
1782831629620437000,1.77143701171875,0.18133723735809326,-0.8314741253852844,-0.9741221070289612
1782831629630366000,1.781365966796875,-0.03175179660320282,-0.6747869253158569,-0.9401246905326843
1782831629640295000,1.791294921875,-0.13452370464801788,-0.2922949194908142,-0.7820479869842529
1782831629650223900,1.801223876953125,-0.16289770603179932,-0.0797111764550209,-0.6969602704048157
1782831629660152800,1.81115283203125,-0.1464119553565979,-0.05183427035808563,-0.7117155194282532
1782831629670081800,1.821081787109375,-0.1203121542930603,-0.16220195591449738,-0.825779378414154
1782831629680011000,1.831010986328125,-0.11789055168628693,-0.3128998577594757,-1.0140923261642456
1782831629689940000,1.84093994140625,-0.08557787537574768,-0.36425095796585083,-1.2177456617355347
1782831629699869000,1.850868896484375,-0.05451182648539543,-0.40785089135169983,-1.322266697883606
1782831629709798000,1.8607978515625,-0.09396670758724213,-0.4393186867237091,-1.186126947402954
1782831629719727000,1.87072705078125,-0.10735149681568146,-0.370213121175766,-0.8140596747398376
1782831629729656000,1.880656005859375,-0.09243357181549072,-0.3552672266960144,-0.4320710301399231
1782831629739585000,1.8905849609375,-0.06345225125551224,-0.3236384391784668,-0.1071443110704422
1782831629749514000,1.900513916015625,-0.020490098744630814,-0.22070381045341492,0.15601620078086853
1782831629759443000,1.91044287109375,0.014526207000017166,-0.04856586083769798,0.3141579031944275
1782831629769372000,1.920371826171875,0.057378750294446945,0.1480802446603775,0.39286893606185913
1782831629779300900,1.93030078125,0.09259559214115143,0.28743016719818115,0.40962234139442444
1782831629789229800,1.940229736328125,0.13876751065254211,0.2697869837284088,0.40324610471725464
1782831629799159000,1.950158935546875,0.13960745930671692,0.13773812353610992,0.4142529368400574
1782831629809088000,1.960087890625,0.13974231481552124,0.08130700886249542,0.4425291419029236
1782831629819016000,1.970015869140625,0.16986319422721863,0.16565117239952087,0.4354832172393799
1782831629828945000,1.97994482421875,0.21736469864845276,0.36073192954063416,0.3619660437107086
1782831629838873900,1.989873779296875,0.24513401091098785,0.47116973996162415,0.2524653673171997
1782831629848803000,1.999802978515625,0.23906373977661133,0.47739624977111816,0.19383685290813446
1782831629858732000,2.00973193359375,0.21178710460662842,0.4382821321487427,0.2166023552417755
1782831629868661000,2.019660888671875,0.1955527365207672,0.4031456410884857,0.27364102005958557
1782831629878590000,2.02958984375,0.1926480382680893,0.35195833444595337,0.33081188797950745
1782831629888519200,2.039519287109375,0.22397495806217194,0.2834571301937103,0.3939889073371887
1782831629898448000,2.04944775390625,0.2450176626443863,0.10411746799945831,0.4616774022579193
1782831629908376800,2.059376953125,0.18757924437522888,-0.11071065813302994,0.5233628153800964
1782831629918305800,2.069305908203125,0.06492442637681961,-0.10853804647922516,0.5194506049156189
1782831629928235000,2.079235107421875,-0.008282577618956566,0.1018836572766304,0.441262811422348
1782831629938164000,2.0891640625,-0.03402202948927879,0.4364757537841797,0.3298952579498291
1782831629948093000,2.099093017578125,-0.04304615035653114,0.6845412254333496,0.28892332315444946
1782831629958022000,2.10902197265625,-0.005761895328760147,0.7405586838722229,0.3398592174053192
1782831629967951000,2.118951171875,0.038825713098049164,0.6830785870552063,0.4420216381549835
1782831629977880000,2.128880126953125,0.09604000300168991,0.683181881904602,0.586982011795044
1782831629987809000,2.13880908203125,0.1532909870147705,0.5997955799102783,0.7153177857398987
1782831629997738000,2.148738037109375,0.16441795229911804,0.3991902768611908,0.7818925380706787
1782831630007667000,2.1586669921875,0.18331237137317657,0.13632218539714813,0.7778511643409729
1782831630017596000,2.168595947265625,0.19200146198272705,-0.11136430501937866,0.6729851961135864
1782831630027524900,2.17852490234375,0.17632392048835754,-0.24668926000595093,0.5908851027488708
1782831630037453800,2.188453857421875,0.18323563039302826,-0.2954363226890564,0.41586166620254517
1782831630047383000,2.198383056640625,0.17796964943408966,-0.19917689263820648,0.04955964535474777
1782831630057312000,2.20831201171875,0.09846258163452148,0.009826386347413063,-0.5117385387420654
1782831630067241000,2.218240966796875,-0.010980368591845036,0.47540003061294556,-1.0078704357147217
1782831630077170000,2.228169921875,-0.06165046989917755,1.0071676969528198,-1.2136938571929932
1782831630087099100,2.23809912109375,0.04787711426615715,1.2204378843307495,-1.0661284923553467
1782831630097028000,2.248028076171875,0.22523938119411469,1.0689435005187988,-0.47249042987823486
1782831630106957000,2.25795703125,0.4751250147819519,0.6621348261833191,0.24450601637363434
1782831630116886000,2.267885986328125,0.736702024936676,-0.007140967529267073,0.8416764736175537
1782831630126814700,2.277814697265625,0.9196691513061523,-0.6772803068161011,1.1168981790542603
1782831630136744000,2.287743896484375,1.0623337030410767,-1.2077397108078003,1.10347580909729
1782831630146673000,2.2976728515625,1.1055972576141357,-1.712049961090088,0.8708134293556213
1782831630156601900,2.307601806640625,0.9288360476493835,-2.007631540298462,0.5537247061729431
1782831630166530800,2.31753076171875,0.6840333938598633,-1.9554404020309448,0.18538205325603485
1782831630176460000,2.3274599609375,0.3764503002166748,-1.6682299375534058,-0.2613464593887329
1782831630186389000,2.337388916015625,0.008012632839381695,-1.1690750122070312,-0.7689199447631836
1782831630196318000,2.34731787109375,-0.3390955328941345,-0.6526845693588257,-1.363460898399353
1782831630206247000,2.357246826171875,-0.5607259273529053,-0.14230245351791382,-1.9411463737487793
1782831630216174800,2.3671748046875,-0.7105324864387512,0.048472560942173004,-2.304964303970337
1782831630226104000,2.37710400390625,-0.8758041858673096,-0.16819649934768677,-2.3143863677978516
1782831630236033000,2.387032958984375,-0.9376760721206665,-0.37938356399536133,-1.948046326637268
1782831630245962000,2.3969619140625,-0.8656330704689026,-0.5371100902557373,-1.5381048917770386
1782831630255891000,2.406890869140625,-0.5780630707740784,-0.5565138459205627,-1.2004456520080566
1782831630265820000,2.41681982421875,-0.15594300627708435,-0.4740327298641205,-0.8150844573974609
1782831630275748900,2.426748779296875,0.1795513778924942,-0.38981959223747253,-0.3317262828350067
1782831630285677800,2.436677734375,0.3320695459842682,-0.2808750867843628,0.21908430755138397
1782831630295606800,2.446606689453125,0.34018978476524353,-0.2926153838634491,0.6349363923072815
1782831630305536000,2.456535888671875,0.28499048948287964,-0.347723126411438,0.8149372339248657
1782831630315465000,2.46646484375,0.23730048537254333,-0.33936721086502075,0.7258251905441284
1782831630325394000,2.476393798828125,0.21096131205558777,-0.18870866298675537,0.42210736870765686
1782831630335323000,2.486322998046875,0.15809915959835052,0.09510761499404907,0.0827423557639122
1782831630345252000,2.496252197265625,0.08878165483474731,0.35010597109794617,-0.11828304082155228
1782831630355181000,2.50618115234375,0.027779819443821907,0.5566242337226868,-0.1358702927827835
1782831630365110000,2.516110107421875,-0.0029285848140716553,0.6123231053352356,-0.08520954102277756
1782831630375039000,2.5260390625,-0.021471643820405006,0.5163931250572205,-0.012886877171695232
1782831630384968000,2.535968017578125,-0.031844399869441986,0.303777813911438,0.0495799295604229
1782831630394897000,2.54589697265625,-0.02054433897137642,0.011990705505013466,0.1128915324807167
1782831630404825900,2.555825927734375,-0.020364681258797646,-0.22062186896800995,0.19423514604568481
1782831630414754800,2.5657548828125,-0.09805308282375336,-0.12760351598262787,0.35642457008361816
1782831630424684000,2.57568408203125,-0.15681326389312744,0.1099378913640976,0.4832732379436493
1782831630434613000,2.585613037109375,-0.17952176928520203,0.4181588590145111,0.5048658847808838
1782831630444542000,2.5955419921875,-0.16028182208538055,0.7428497672080994,0.46446511149406433
1782831630454471000,2.605470947265625,-0.14758999645709991,0.9055883288383484,0.3996104896068573
1782831630464400100,2.615400146484375,-0.15236163139343262,0.8695876598358154,0.41449177265167236
1782831630474329000,2.6253291015625,-0.16426943242549896,0.7296236753463745,0.4632616937160492
1782831630484258000,2.635258056640625,-0.20614488422870636,0.5266684293746948,0.5014739632606506
1782831630494186800,2.645186767578125,-0.3085639178752899,0.5074646472930908,0.6065607070922852
1782831630504116000,2.655115966796875,-0.3708818256855011,0.7059024572372437,0.7508598566055298
1782831630514045000,2.665044921875,-0.37244296073913574,0.9253581166267395,0.808527946472168
1782831630523974000,2.674973876953125,-0.327423095703125,0.978015124797821,0.7561105489730835
1782831630533903400,2.6849033203125,-0.26632004976272583,0.85451740026474,0.6605208516120911
1782831630543832600,2.69483251953125,-0.191524475812912,0.5424956679344177,0.5556284785270691
1782831630553761500,2.704761474609375,-0.167352557182312,0.20342335104942322,0.44017964601516724
1782831630563690500,2.7146904296875,-0.16151845455169678,-0.08668296784162521,0.31482425332069397
1782831630573619500,2.724619384765625,-0.1003754660487175,-0.2808724045753479,0.1591515839099884
1782831630583548700,2.734548583984375,0.01729901134967804,-0.49111923575401306,0.054829832166433334
1782831630593477400,2.744477294921875,0.2548907995223999,-0.5368212461471558,0.15165357291698456
1782831630603406300,2.75440625,0.3706490099430084,-0.33878791332244873,0.3548060655593872
1782831630613334500,2.76433447265625,0.36740368604660034,0.043864645063877106,0.4334063231945038
1782831630623263200,2.77426318359375,0.3245236873626709,0.5660828351974487,0.27931681275367737
1782831630633192400,2.7841923828125,0.2700662910938263,1.0827140808105469,-0.02202519401907921
1782831630643121400,2.794121337890625,0.2718624770641327,1.1863620281219482,-0.25086337327957153
1782831630653050400,2.80405029296875,0.32044920325279236,0.7760088443756104,-0.32793179154396057
1782831630662979300,2.813979248046875,0.3801652193069458,0.0832839384675026,-0.3061656951904297
1782831630672908500,2.823908447265625,0.3958805203437805,-0.6003993153572083,-0.2895132005214691
1782831630682837500,2.83383740234375,0.29748648405075073,-0.9444401860237122,-0.3122159242630005
1782831630692766500,2.843766357421875,0.17007553577423096,-1.1900606155395508,-0.4766474664211273
1782831630702695400,2.8536953125,0.025040827691555023,-1.240868091583252,-0.7192022800445557
1782831630712624600,2.863624755859375,-0.09984225034713745,-1.1199415922164917,-0.8321689963340759
1782831630722553600,2.8735537109375,-0.2568639814853668,-0.9017316699028015,-0.7719258666038513
1782831630732482600,2.883482666015625,-0.41193851828575134,-0.634579062461853,-0.6711028814315796
1782831630742411300,2.893411376953125,-0.5359067916870117,-0.41879287362098694,-0.6882340908050537
1782831630752340500,2.903340576171875,-0.6119347214698792,-0.3732975721359253,-0.8323081731796265
1782831630762269400,2.91326953125,-0.640658438205719,-0.4321797490119934,-1.0668359994888306
1782831630772198400,2.923198486328125,-0.6212255954742432,-0.5115744471549988,-1.2693750858306885
1782831630782127400,2.93312744140625,-0.613490104675293,-0.6071059107780457,-1.3094820976257324
1782831630792056600,2.943056640625,-0.5860563516616821,-0.4934843182563782,-1.151567816734314
1782831630801985500,2.952985595703125,-0.46397390961647034,-0.4003131687641144,-0.8703256845474243
1782831630811914500,2.96291455078125,-0.32154807448387146,-0.2967718839645386,-0.5282306671142578
1782831630821843500,2.972843505859375,-0.147272527217865,-0.2025197595357895,-0.16504576802253723
1782831630831772700,2.982772705078125,0.03378673642873764,-0.26840636134147644,0.14826129376888275
1782831630841701600,2.99270166015625,0.16694428026676178,-0.32783156633377075,0.38199499249458313
1782831630851630300,3.00263037109375,0.24212931096553802,-0.3273966610431671,0.48023712635040283
1782831630861559300,3.012559326171875,0.25686115026474,-0.36208418011665344,0.4455373287200928
1782831630871488500,3.022488525390625,0.1720498651266098,-0.2330436408519745,0.31697961688041687
1782831630881417500,3.03241748046875,0.09506815671920776,-0.01001716684550047,0.13943004608154297
1782831630891346400,3.042346435546875,0.036472219973802567,0.16125977039337158,-0.039687495678663254
1782831630901275400,3.052275390625,0.004854937549680471,0.21416109800338745,-0.13148322701454163
1782831630911204600,3.06220458984375,-0.007977770641446114,0.27277860045433044,-0.07350008189678192
1782831630921133600,3.072133544921875,0.010163948871195316,0.34971708059310913,0.07934007048606873
1782831630931062500,3.0820625,0.06431533396244049,0.363371878862381,0.19634497165679932
1782831630940991500,3.091991455078125,0.1207224577665329,0.26853063702583313,0.264892578125
1782831630950920400,3.10192041015625,0.17822356522083282,0.13611267507076263,0.28594380617141724
1782831630960849400,3.111849365234375,0.20368465781211853,0.04824161157011986,0.31805652379989624
1782831630970778400,3.1217783203125,0.21117213368415833,0.09411562979221344,0.4060835838317871
1782831630980707300,3.131707275390625,0.23650678992271423,0.1771654486656189,0.5132141709327698
1782831630990636300,3.14163623046875,0.2419753223657608,0.23287265002727509,0.592161238193512
1782831631000565500,3.1515654296875,0.1793266385793686,0.27860966324806213,0.5950210094451904
1782831631010494500,3.161494384765625,0.10096791386604309,0.4257279932498932,0.5645291209220886
1782831631020423400,3.17142333984375,0.04711530730128288,0.6466299891471863,0.5074040293693542
1782831631030351400,3.181351318359375,0.041584454476833344,0.8380265831947327,0.3686555027961731
1782831631040280300,3.1912802734375,0.06818385422229767,0.8932242393493652,0.23103126883506775
1782831631050209500,3.20120947265625,0.06960251927375793,0.7792116403579712,0.2015673816204071
1782831631060138500,3.211138427734375,0.056911565363407135,0.5993617177009583,0.27745112776756287
1782831631070067500,3.2210673828125,0.06324189901351929,0.5340945720672607,0.47015026211738586
1782831631079996400,3.230996337890625,0.05574583262205124,0.5149005055427551,0.6210809350013733
1782831631089925600,3.240925537109375,-0.011090720072388649,0.387549489736557,0.5916306376457214
1782831631099854600,3.2508544921875,-0.10050466656684875,0.13167330622673035,0.3878316581249237
1782831631109783300,3.260783203125,-0.15548455715179443,-0.23631057143211365,0.0012482665479183197
1782831631119712300,3.270712158203125,-0.14077171683311462,-0.6292412281036377,-0.38690385222435
1782831631129641500,3.280641357421875,0.008967719972133636,-0.7237799763679504,-0.5322413444519043
1782831631139570400,3.2905703125,0.18404808640480042,-0.6707728505134583,-0.42220544815063477
1782831631149499400,3.30049951171875,0.2986266016960144,-0.38910603523254395,-0.12301582098007202
1782831631159428400,3.310428466796875,0.3810025751590729,-0.20025043189525604,0.14799681305885315
1782831631169357600,3.320357666015625,0.4028375744819641,-0.11122815310955048,0.32626694440841675
1782831631179286500,3.33028662109375,0.4215680658817291,-0.12433789670467377,0.3060183823108673
1782831631189215500,3.340215576171875,0.3467351198196411,-0.18889744579792023,0.1777094006538391
1782831631199144400,3.35014453125,0.1318434625864029,-0.16968175768852234,0.0689171850681305
1782831631209073700,3.36007373046875,-0.14529013633728027,-0.07641493529081345,-0.15022234618663788
1782831631219002400,3.37000244140625,-0.39448559284210205,0.0021537281572818756,-0.5057500004768372
1782831631228931300,3.379931396484375,-0.592700183391571,0.032781410962343216,-0.9112727642059326
1782831631238860300,3.3898603515625,-0.721511960029602,0.06743093580007553,-1.1868271827697754
1782831631248789500,3.39978955078125,-0.7532334327697754,0.018908407539129257,-1.2333381175994873
1782831631258718500,3.409718505859375,-0.6381599307060242,-0.014604057185351849,-0.9567393064498901
1782831631268647400,3.4196474609375,-0.48913124203681946,-0.10980486869812012,-0.517259955406189
1782831631278576400,3.429576416015625,-0.395781010389328,-0.30018481612205505,-0.06634382158517838
1782831631288505600,3.439505615234375,-0.3353187143802643,-0.3678078055381775,0.19578978419303894
1782831631298434600,3.4494345703125,-0.26634564995765686,-0.2871358096599579,0.1262575089931488
1782831631308363500,3.459363525390625,-0.2456798106431961,-0.13844488561153412,-0.18559493124485016
1782831631318292500,3.46929248046875,-0.20266978442668915,-0.07795562595129013,-0.5417451858520508
1782831631328221400,3.479221435546875,-0.155666321516037,-0.09863986074924469,-0.7155473232269287
1782831631338150400,3.489150390625,-0.058947525918483734,-0.046485260128974915,-0.5768991112709045
1782831631348079400,3.499079345703125,0.11600004881620407,0.06890498101711273,-0.29873621463775635
1782831631358008300,3.50900830078125,0.28318214416503906,0.11441687494516373,0.014778349548578262
1782831631367937500,3.5189375,0.35650935769081116,0.14514361321926117,0.3143312335014343
1782831631377866500,3.528866455078125,0.3690723478794098,0.09523354470729828,0.49189767241477966
1782831631387795500,3.53879541015625,0.3530806005001068,0.029100865125656128,0.5458442568778992
1782831631397724400,3.548724365234375,0.31401100754737854,-0.02489110454916954,0.5095111131668091
1782831631407653600,3.558653564453125,0.2945704758167267,-0.1172199696302414,0.43039581179618835
1782831631417582600,3.56858251953125,0.30892282724380493,-0.12345770001411438,0.3443222939968109
1782831631427510500,3.578510498046875,0.33306729793548584,-0.03764186054468155,0.29582664370536804
1782831631437439500,3.588439453125,0.40814194083213806,0.13552157580852509,0.3093597888946533
1782831631447368400,3.598368408203125,0.48405906558036804,0.22800783812999725,0.37001729011535645
1782831631457297700,3.608297607421875,0.4965464174747467,0.17098410427570343,0.44587036967277527
1782831631467226600,3.6182265625,0.4449910819530487,0.021158669143915176,0.4912586212158203
1782831631477155300,3.6281552734375,0.3526480197906494,-0.13683782517910004,0.49184921383857727
1782831631487084300,3.638084228515625,0.2221137136220932,-0.0916796624660492,0.4158327579498291
1782831631497013500,3.648013427734375,0.12002401053905487,0.18068937957286835,0.2745243012905121
1782831631506942500,3.6579423828125,0.06761538982391357,0.5246621966362,0.13422419130802155
1782831631516871400,3.667871337890625,0.031313780695199966,0.7789294123649597,0.08652329444885254
1782831631526800100,3.677800048828125,0.010297711938619614,0.848318874835968,0.17979200184345245
1782831631536729000,3.68772900390625,-0.00267073605209589,0.735080361366272,0.3626665472984314
1782831631546658300,3.697658203125,-0.006864415481686592,0.5642497539520264,0.4901912212371826
1782831631556587300,3.707587158203125,0.018904073163866997,0.44937631487846375,0.48814448714256287
1782831631566516200,3.71751611328125,0.022822648286819458,0.3571896553039551,0.4105024039745331
1782831631576445200,3.727445068359375,0.0035327691584825516,0.408634752035141,0.34773316979408264
1782831631586374400,3.73737451171875,0.004708022344857454,0.5496768355369568,0.3003810942173004
1782831631596303000,3.74730322265625,-0.05193890631198883,0.67191082239151,0.2539524435997009
1782831631606232000,3.757232177734375,-0.15563201904296875,0.834936797618866,0.19899094104766846
1782831631616161000,3.7671611328125,-0.26616770029067993,0.9604296684265137,0.0724220722913742
1782831631626090200,3.77709033203125,-0.34397727251052856,0.8562060594558716,-0.13291136920452118
1782831631636019200,3.787019287109375,-0.3251703977584839,0.6806520819664001,-0.3888096213340759
1782831631645948200,3.7969482421875,-0.19486591219902039,0.4538932144641876,-0.670855700969696
1782831631655877000,3.806877197265625,-0.11976686120033264,0.26270392537117004,-0.9050705432891846
1782831631665806300,3.816806396484375,-0.16550585627555847,0.12977385520935059,-1.0334038734436035
1782831631675735300,3.8267353515625,-0.1528252363204956,-0.0016620010137557983,-1.0563164949417114
1782831631685664300,3.836664306640625,-0.030623961240053177,-0.16469912230968475,-1.0086355209350586
1782831631695593200,3.84659326171875,0.26098617911338806,-0.4441447854042053,-0.6969786286354065
1782831631705522200,3.856522216796875,0.6270765662193298,-0.7425330877304077,-0.11858850717544556
1782831631715451100,3.866451171875,0.9528409838676453,-0.9856829047203064,0.4825330972671509
1782831631725380000,3.876380126953125,1.1577438116073608,-1.1903926134109497,0.8776394128799438
1782831631735309000,3.88630908203125,1.231595516204834,-1.2262992858886719,0.9943096041679382
1782831631745238300,3.89623828125,1.218843936920166,-1.1142481565475464,0.8361055850982666
1782831631755167200,3.906167236328125,1.0548733472824097,-0.8869656324386597,0.5609846711158752
1782831631765096200,3.91609619140625,0.7859439849853516,-0.5508725643157959,0.29749444127082825
1782831631775025200,3.926025146484375,0.5218682289123535,-0.2610240876674652,0.052064187824726105
1782831631784954400,3.935954345703125,0.2611442506313324,0.06300857663154602,-0.11242862790822983
1782831631794883300,3.94588330078125,0.05573537200689316,0.416585236787796,-0.13103315234184265
1782831631804812300,3.955812255859375,-0.10303350538015366,0.5064623355865479,-0.007962088100612164
1782831631814740200,3.965740234375,-0.2676492929458618,0.25538283586502075,0.10398761928081512
1782831631824669200,3.975669189453125,-0.35656291246414185,-0.1276039481163025,0.09179806709289551
1782831631834598400,3.985598388671875,-0.37289729714393616,-0.3404860496520996,-0.0578995905816555
1782831631844527400,3.99552734375,-0.33126887679100037,-0.3929668366909027,-0.23640994727611542
1782831631854456000,4.0054560546875,-0.32643771171569824,-0.4671589136123657,-0.30527880787849426
1782831631864385000,4.015385009765625,-0.3482939898967743,-0.5116816163063049,-0.2504693865776062
1782831631874314200,4.025314208984375,-0.3326878249645233,-0.5341343283653259,-0.11311597377061844
1782831631884243200,4.0352431640625,-0.3009794056415558,-0.5479870438575745,0.06082066893577576
1782831631894172200,4.045172119140625,-0.3365419805049896,-0.49021995067596436,0.15679962933063507
1782831631904101000,4.05510107421875,-0.4134487509727478,-0.4111946225166321,0.16341997683048248
1782831631914030300,4.0650302734375,-0.5444368720054626,-0.4532049298286438,0.09607689082622528
1782831631923959300,4.074959228515625,-0.6636902689933777,-0.46739426255226135,-0.0927731916308403
1782831631933888300,4.08488818359375,-0.648358941078186,-0.28881698846817017,-0.2887354791164398
1782831631943817200,4.094817138671875,-0.6257410049438477,0.04379265382885933,-0.4190455377101898
1782831631953746400,4.104746337890625,-0.6500772833824158,0.36676880717277527,-0.4284858703613281
1782831631963675100,4.114675048828125,-0.6474378108978271,0.4679023325443268,-0.3548707962036133
1782831631973604000,4.12460400390625,-0.6208792924880981,0.4474170506000519,-0.2600405514240265
1782831631983533000,4.134532958984375,-0.5331105589866638,0.36730197072029114,-0.15711577236652374
1782831631993462300,4.144462158203125,-0.3798835277557373,0.3377348780632019,-0.03825150057673454
1782831632003391200,4.15439111328125,-0.1955571174621582,0.2758432924747467,0.09910129755735397
1782831632013320200,4.1643203125,-0.04980146512389183,0.12871049344539642,0.23575812578201294
1782831632023249200,4.174249267578125,0.07090338319540024,-0.07714679837226868,0.37027305364608765
1782831632033178000,4.18417822265625,0.12180168926715851,-0.1968020498752594,0.5047909617424011
1782831632043107300,4.194107421875,0.12454074621200562,-0.12916414439678192,0.5767983198165894
1782831632053036300,4.204036376953125,0.14171138405799866,0.009777331724762917,0.5434155464172363
1782831632062965200,4.21396533203125,0.09852103888988495,0.10913561284542084,0.45205339789390564
1782831632072894200,4.223894287109375,0.0285654179751873,0.1964079886674881,0.35430291295051575
1782831632082823200,4.2338232421875,-0.02555081434547901,0.3348761200904846,0.22670261561870575
1782831632092752100,4.243752197265625,-0.04473625123500824,0.43827834725379944,0.07271672785282135
1782831632102681000,4.25368115234375,-0.0705776959657669,0.4924622178077698,-0.08762766420841217
1782831632112610000,4.263610107421875,-0.07800661027431488,0.5283551216125488,-0.18435430526733398
1782831632122539300,4.273539306640625,-0.11037733405828476,0.5250938534736633,-0.21419236063957214
1782831632132468200,4.28346826171875,-0.11832086741924286,0.5430635213851929,-0.2463056594133377
1782831632142397200,4.293397216796875,-0.13267157971858978,0.5050363540649414,-0.3146527409553528
1782831632152326100,4.303326171875,-0.16187700629234314,0.40496769547462463,-0.39015913009643555
1782831632162255400,4.31325537109375,-0.17938968539237976,0.3243841826915741,-0.40507468581199646
1782831632172184300,4.323184326171875,-0.16477462649345398,0.33952340483665466,-0.36530670523643494
1782831632182112300,4.3331123046875,-0.1250583678483963,0.463039755821228,-0.42825770378112793
1782831632192041200,4.343041259765625,-0.12339352816343307,0.47107771039009094,-0.6618668437004089
1782831632201970200,4.35297021484375,-0.10410744696855545,0.5448408722877502,-0.9259690642356873
1782831632211899400,4.3628994140625,-0.06345149129629135,0.6373639106750488,-1.185606598854065
1782831632221828000,4.372828125,0.06761038303375244,0.6350866556167603,-1.2482951879501343
1782831632231757000,4.382757080078125,0.15890246629714966,0.5792578458786011,-1.031757116317749
1782831632241686000,4.39268603515625,0.2252790927886963,0.39002344012260437,-0.6034245491027832
1782831632251615200,4.402615234375,0.31943604350090027,0.18076851963996887,-0.14917966723442078
1782831632261544200,4.412544189453125,0.38045307993888855,-0.024690886959433556,0.14946375787258148
1782831632271473200,4.42247314453125,0.37551411986351013,-0.31192880868911743,0.24743646383285522
1782831632281402000,4.432402099609375,0.31915417313575745,-0.6341704726219177,0.2327461987733841
1782831632291331300,4.442331298828125,0.1973230093717575,-0.7901242971420288,0.15992172062397003
1782831632301260300,4.45226025390625,0.05838403105735779,-0.6863318681716919,0.015409267507493496
1782831632311189200,4.462189208984375,-0.16664837300777435,-0.24152812361717224,-0.22545260190963745
1782831632321118200,4.4721181640625,-0.38374578952789307,0.26067373156547546,-0.46946629881858826
1782831632331047400,4.48204736328125,-0.534544050693512,0.5411854386329651,-0.6098241209983826
1782831632340976000,4.49197607421875,-0.6380766034126282,0.4450373649597168,-0.6109498143196106
1782831632350905000,4.501905029296875,-0.6907632350921631,0.11846695840358734,-0.5225315690040588
1782831632360834000,4.511833984375,-0.6080268025398254,-0.13709503412246704,-0.3817507326602936
1782831632370763300,4.52176318359375,-0.4106815457344055,-0.31504252552986145,-0.2687888443470001
1782831632380692200,4.531692138671875,-0.17550446093082428,-0.47696220874786377,-0.09747619926929474
1782831632390621200,4.54162109375,0.032738808542490005,-0.5988601446151733,0.14365166425704956
1782831632400550100,4.551550048828125,0.11142802983522415,-0.5753441452980042,0.3643648624420166
1782831632410479400,4.561479248046875,0.07353336364030838,-0.4826464056968689,0.5738150477409363
1782831632420408300,4.571408203125,-0.004075944423675537,-0.35270971059799194,0.6904370188713074
1782831632430337300,4.581337158203125,-0.10447686165571213,-0.25089383125305176,0.5580766797065735
1782831632440266200,4.591266357421875,-0.18056203424930573,-0.08843515068292618,0.24423162639141083
1782831632450195200,4.6011953125,-0.1984918713569641,0.06733699142932892,-0.09395553171634674
1782831632460124200,4.611124267578125,-0.17975734174251556,0.27978479862213135,-0.2747516632080078
1782831632470053000,4.62105322265625,-0.12615036964416504,0.3890475928783417,-0.26857230067253113
1782831632479982000,4.630982177734375,-0.04468720033764839,0.2767556607723236,-0.11076029390096664
1782831632489911300,4.640911376953125,0.06461994349956512,0.045451849699020386,0.07695886492729187
1782831632499840300,4.65084033203125,0.1800144463777542,-0.23052114248275757,0.242243692278862
1782831632509769200,4.660769287109375,0.2722678780555725,-0.4297691583633423,0.4154646098613739
1782831632519698200,4.6706982421875,0.36377331614494324,-0.5437958240509033,0.5226758122444153
1782831632529625600,4.68062548828125,0.40788277983665466,-0.5438787937164307,0.5550103783607483
1782831632539554600,4.690554443359375,0.38480567932128906,-0.5119602680206299,0.540831446647644
1782831632549483500,4.7004833984375,0.3538495898246765,-0.4353611171245575,0.47312888503074646
1782831632559412500,4.71041259765625,0.30834734439849854,-0.30216631293296814,0.3713095784187317
1782831632569341700,4.720341796875,0.24624121189117432,-0.20005446672439575,0.28666284680366516
1782831632579270700,4.730270751953125,0.18209658563137054,-0.053507111966609955,0.2438807487487793
1782831632589199600,4.74019970703125,0.1545177400112152,0.12515927851200104,0.2091730535030365
1782831632599128600,4.750128662109375,0.13822504878044128,0.26583942770957947,0.1891024112701416
1782831632609057800,4.760057861328125,0.14695698022842407,0.3510393798351288,0.22526589035987854
1782831632618986500,4.769986572265625,0.17056696116924286,0.37024104595184326,0.27778077125549316
1782831632628915500,4.77991552734375,0.23714366555213928,0.34381476044654846,0.3079519271850586
1782831632638844400,4.789844482421875,0.2991527020931244,0.25918853282928467,0.2624017596244812
1782831632648773600,4.799773681640625,0.3318444490432739,0.14140385389328003,0.13942855596542358
1782831632658702600,4.80970263671875,0.35714152455329895,0.0842505544424057,-0.009765463881194592
1782831632668631600,4.819631591796875,0.3202134966850281,0.1056513637304306,-0.18674126267433167
1782831632678560500,4.829560546875,0.19063232839107513,0.1557246446609497,-0.3959226906299591
1782831632688489700,4.83948974609375,-0.00936111994087696,0.3824329674243927,-0.5822041630744934
1782831632698418700,4.849418701171875,-0.24805013835430145,0.7013275623321533,-0.8125039935112
1782831632708347600,4.85934765625,-0.32245832681655884,0.9925718903541565,-1.0018646717071533
1782831632718276600,4.869276611328125,-0.19585752487182617,1.0666309595108032,-1.0658361911773682
1782831632728205600,4.87920556640625,0.024729354307055473,0.8120646476745605,-0.8950486779212952
1782831632738134500,4.889134521484375,0.29353177547454834,0.3981534540653229,-0.5017037987709045
1782831632748063500,4.8990634765625,0.5310819745063782,-0.05596704035997391,-0.11442398279905319
1782831632757992400,4.908992431640625,0.774526834487915,-0.39143532514572144,0.1701158583164215
1782831632767921700,4.918921630859375,0.9452741742134094,-0.674674391746521,0.2626262903213501
1782831632777850600,4.9288505859375,1.0276869535446167,-0.8120729923248291,0.24651069939136505
1782831632787779600,4.938779541015625,0.9963623881340027,-0.8199859261512756,0.22175195813179016
1782831632797708500,4.94870849609375,0.7758579850196838,-0.7522047162055969,0.2617896497249603
1782831632807637800,4.9586376953125,0.511257529258728,-0.6264362931251526,0.16456516087055206
1782831632817566700,4.968566650390625,0.1441977620124817,-0.3868580758571625,-0.17382965981960297
1782831632827495700,4.97849560546875,-0.2382124364376068,-0.03014655038714409,-0.6559044122695923
1782831632837424600,4.988424560546875,-0.6130132079124451,0.42006054520606995,-1.0718022584915161
1782831632847353600,4.998353515625,-0.8927670121192932,0.8870876431465149,-1.2833701372146606
1782831632857282600,5.008282470703125,-1.002453327178955,1.0950298309326172,-1.30959951877594
1782831632867211500,5.01821142578125,-1.0166438817977905,0.8747873306274414,-1.1559160947799683
1782831632877139500,5.028139404296875,-0.9729836583137512,0.40213802456855774,-0.8785159587860107
1782831632887068400,5.038068359375,-0.890251100063324,-0.16191911697387695,-0.5501279234886169
1782831632896997600,5.04799755859375,-0.7484583258628845,-0.6274295449256897,-0.24815207719802856
1782831632906926600,5.057926513671875,-0.5034134387969971,-0.9260039329528809,0.046696506440639496
1782831632916855600,5.06785546875,-0.25054872035980225,-1.0091369152069092,0.2723679840564728
1782831632926784500,5.077784423828125,-0.07002201676368713,-0.7242859601974487,0.33666592836380005
1782831632936713700,5.087713623046875,-0.009224720299243927,-0.3283330500125885,0.321534126996994
1782831632946642700,5.097642578125,-0.04965730756521225,0.09344267845153809,0.3692736327648163
1782831632956571600,5.107571533203125,-0.13350240886211395,0.39252525568008423,0.44794633984565735
1782831632966500600,5.11750048828125,-0.2013782262802124,0.5126242637634277,0.5199761986732483
1782831632976429800,5.127429931640625,-0.19403882324695587,0.4859534800052643,0.5190880298614502
1782831632986358500,5.137358642578125,-0.07840622961521149,0.3982188403606415,0.4194953739643097
1782831632996287500,5.14728759765625,0.08038154244422913,0.23787681758403778,0.30152106285095215
1782831633006216400,5.157216552734375,0.24167895317077637,-0.002499735914170742,0.24065235257148743
1782831633016145400,5.1671455078125,0.3595573604106903,-0.2635957598686218,0.28286638855934143
1782831633026074600,5.17707470703125,0.41089603304862976,-0.4728292226791382,0.37770378589630127
1782831633036003600,5.187003662109375,0.3739822208881378,-0.4437224864959717,0.47552379965782166
1782831633045932500,5.1969326171875,0.34770897030830383,-0.2840028703212738,0.5081891417503357
1782831633055861500,5.206861572265625,0.31500881910324097,-0.13142211735248566,0.4532444179058075
1782831633065790700,5.216790771484375,0.2852904498577118,-0.07995482534170151,0.3359881043434143
1782831633075719700,5.2267197265625,0.24309957027435303,-0.10823626816272736,0.18069466948509216
1782831633085648600,5.236648681640625,0.17330454289913177,-0.05192149430513382,0.05036471039056778
1782831633095577600,5.24657763671875,0.15432605147361755,0.04470810666680336,-0.017407678067684174
1782831633105506600,5.256506591796875,0.13831879198551178,0.11206129938364029,0.02653953805565834
1782831633115435500,5.266435546875,0.1251787692308426,0.09244845062494278,0.17901109158992767
1782831633125364500,5.276364501953125,0.12331873178482056,0.14588777720928192,0.3092542290687561
1782831633135293400,5.28629345703125,0.12889006733894348,0.2493358552455902,0.3217204809188843
1782831633145222700,5.29622265625,0.10787054896354675,0.27650102972984314,0.27944427728652954
1782831633155151600,5.306151611328125,0.06427300721406937,0.2514830231666565,0.22669905424118042
1782831633165080600,5.31608056640625,0.06771785020828247,0.23745229840278625,0.17514537274837494
1782831633175009500,5.326009521484375,0.06385999917984009,0.21278370916843414,0.08651909232139587
1782831633184936400,5.3359365234375,0.02218322455883026,0.2720816731452942,-0.02669249102473259
1782831633194865700,5.34586572265625,-0.030462410300970078,0.3485807180404663,-0.1254315823316574
1782831633204794600,5.355794677734375,-0.1332520991563797,0.33287546038627625,-0.23237892985343933
1782831633214723600,5.3657236328125,-0.20719556510448456,0.35219430923461914,-0.40202149748802185
1782831633224652500,5.375652587890625,-0.29137754440307617,0.43400606513023376,-0.6207424402236938
1782831633234581500,5.38558154296875,-0.4642585217952728,0.6574143767356873,-0.7642878890037537
1782831633244510700,5.3955107421875,-0.6601711511611938,1.1392035484313965,-0.7093660831451416
1782831633254439700,5.405439697265625,-0.6973358392715454,1.697746753692627,-0.47360333800315857
1782831633264368600,5.41536865234375,-0.5255160927772522,1.915879726409912,-0.3057430684566498
1782831633274297600,5.425297607421875,-0.2506355345249176,1.7578469514846802,-0.2820451855659485
1782831633284226600,5.4352265625,0.012930263765156269,1.0693382024765015,-0.3305736482143402
1782831633294155500,5.445155517578125,0.17397160828113556,0.10370738804340363,-0.3287197947502136
1782831633304084500,5.45508447265625,0.3602033257484436,-0.6623421907424927,-0.2145783007144928
1782831633314013400,5.465013427734375,0.7185090780258179,-1.2657761573791504,-0.029996201395988464
1782831633323942700,5.474942626953125,1.0477632284164429,-1.702825903892517,0.1701754331588745
1782831633333871600,5.48487158203125,1.1885026693344116,-1.9774047136306763,0.4254056215286255
1782831633343800600,5.494800537109375,1.0419408082962036,-2.1133646965026855,0.578714907169342
1782831633353729500,5.5047294921875,0.6394377946853638,-1.9958181381225586,0.3317730128765106
1782831633363658800,5.51465869140625,0.21974286437034607,-1.481555700302124,-0.29635104537010193
1782831633373587700,5.524587646484375,-0.21483469009399414,-0.6134262084960938,-1.022649884223938
1782831633383516700,5.5345166015625,-0.6231291890144348,0.4278760850429535,-1.4425252676010132
1782831633393445400,5.5444453125,-0.9141210913658142,1.1660380363464355,-1.5145994424819946
1782831633403374600,5.55437451171875,-1.1260608434677124,1.4890614748001099,-1.3462615013122559
1782831633413303600,5.564303466796875,-1.2001582384109497,1.3017786741256714,-1.06187903881073
1782831633423232500,5.574232421875,-1.0866752862930298,0.6512237191200256,-0.7970892786979675
1782831633433161500,5.584161376953125,-0.8706055879592896,-0.20472291111946106,-0.6061505079269409
1782831633443090700,5.594090576171875,-0.74686199426651,-0.7800258994102478,-0.5934787392616272
1782831633453019600,5.60401953125,-0.675589919090271,-0.7400054931640625,-0.6320570111274719
1782831633462948600,5.613948486328125,-0.5061231851577759,-0.32051682472229004,-0.5750255584716797
1782831633472877600,5.623877685546875,-0.33742019534111023,0.1413663625717163,-0.30941838026046753
1782831633482806800,5.633806884765625,-0.16353853046894073,0.3254005014896393,0.21140851080417633
1782831633492735700,5.64373583984375,0.05762980878353119,0.2945272624492645,0.8502278923988342
1782831633502663700,5.65366357421875,0.24790915846824646,0.1305089145898819,1.380761981010437
1782831633512592600,5.663592529296875,0.4194023311138153,-0.12660489976406097,1.686051607131958
1782831633522521600,5.673521484375,0.5526334047317505,-0.3336756229400635,1.671979308128357
1782831633532450800,5.683450927734375,0.5865751504898071,-0.4113949239253998,1.3888617753982544
1782831633542379800,5.6933798828125,0.5294094681739807,-0.33901137113571167,0.960670530796051
1782831633552308700,5.703308837890625,0.39314913749694824,-0.13530457019805908,0.522609293460846
1782831633562238000,5.713238037109375,0.21868634223937988,0.07259058952331543,0.20804621279239655
1782831633572167000,5.7231669921875,0.021982342004776,0.24167227745056152,0.06691811978816986
1782831633582096000,5.733095947265625,-0.07501129806041718,0.36544227600097656,0.037847939878702164
1782831633592024800,5.74302490234375,-0.05809570103883743,0.41282975673675537,0.07711491733789444
1782831633601954000,5.7529541015625,0.024969609454274178,0.3429131507873535,0.1401081681251526
1782831633611883000,5.762883056640625,0.13263055682182312,0.18121692538261414,0.24378928542137146
1782831633621812000,5.77281201171875,0.21497702598571777,0.021198460832238197,0.3923875689506531
1782831633631741000,5.782740966796875,0.30817779898643494,-0.041162386536598206,0.5635793209075928
1782831633641670000,5.792669921875,0.39744460582733154,-0.04715611785650253,0.7211806178092957
1782831633651598800,5.802598876953125,0.45560669898986816,-0.0799793154001236,0.8345074653625488
1782831633661527800,5.81252783203125,0.46087148785591125,-0.11650823056697845,0.8522201776504517
1782831633671456800,5.822456787109375,0.4169783294200897,-0.08204931765794754,0.7879935503005981
1782831633681386000,5.832385986328125,0.3314528167247772,-0.042652446776628494,0.6076724529266357
1782831633691315000,5.84231494140625,0.2586393356323242,0.0688469186425209,0.34156909584999084
1782831633701244000,5.852243896484375,0.24037161469459534,0.2547948658466339,0.06347405165433884
1782831633711172900,5.8621728515625,0.26047953963279724,0.34151992201805115,-0.12573768198490143
1782831633721101800,5.872101806640625,0.27883338928222656,0.22599181532859802,-0.13911372423171997
1782831633731031000,5.882031005859375,0.31363770365715027,0.033454857766628265,-0.035335127264261246
1782831633740960000,5.8919599609375,0.33327651023864746,-0.06904410570859909,0.07788000255823135
1782831633750888700,5.901888671875,0.289523720741272,-0.05825164541602135,0.09675302356481552
1782831633760817700,5.911817626953125,0.2122710794210434,0.13569454848766327,0.07490050047636032
1782831633770747000,5.921746826171875,0.1308465152978897,0.39894989132881165,-0.014028840698301792
1782831633780675800,5.93167578125,0.06132952496409416,0.5964742302894592,-0.17926490306854248
1782831633790604800,5.941604736328125,0.07238616794347763,0.8299540877342224,-0.27443644404411316
1782831633800533800,5.95153369140625,0.20234140753746033,1.0778632164001465,-0.2537405788898468
1782831633810463000,5.961462890625,0.23761044442653656,1.0582330226898193,-0.11534091085195541
1782831633820392000,5.971391845703125,0.23729026317596436,0.6925240755081177,0.07452766597270966
1782831633830321000,5.98132080078125,0.253574401140213,0.27404987812042236,0.0821743980050087
1782831633840249900,5.991249755859375,0.3057427406311035,0.03278527781367302,-0.10397067666053772
1782831633850179000,6.001178955078125,0.4399450123310089,-0.19497784972190857,-0.28610852360725403
1782831633860107800,6.011107666015625,0.6016935706138611,-0.4517742991447449,-0.3163747787475586
1782831633870036000,6.021035888671875,0.648331880569458,-0.7404351234436035,-0.2141919583082199
1782831633879965000,6.03096484375,0.5767257809638977,-0.9138811230659485,-0.1084197536110878
1782831633889894000,6.040893798828125,0.3989584445953369,-1.0509734153747559,-0.2283155471086502
1782831633899822800,6.05082275390625,0.13131572306156158,-1.3033634424209595,-0.5947951078414917
1782831633909751800,6.060751708984375,-0.17937609553337097,-1.4211437702178955,-1.003330945968628
1782831633919680800,6.0706806640625,-0.4142186939716339,-1.0336700677871704,-1.2039891481399536
1782831633929609700,6.080609619140625,-0.5591513514518738,-0.2444307804107666,-1.1227068901062012
1782831633939539000,6.0905390625,-0.7157660126686096,0.5944287776947021,-0.8627559542655945
1782831633949468000,6.100468017578125,-0.7763856649398804,1.1161130666732788,-0.5421240925788879
1782831633959396900,6.11039697265625,-0.7241495847702026,1.0720559358596802,-0.25393199920654297
1782831633969325800,6.120325927734375,-0.5645365118980408,0.4937818646430969,0.030874168500304222
1782831633979255000,6.130255126953125,-0.35284894704818726,-0.1117277666926384,0.29436561465263367
1782831633989184000,6.14018408203125,-0.18871724605560303,-0.5607620477676392,0.45833006501197815
1782831633999113000,6.150113037109375,-0.08796293288469315,-0.8144623637199402,0.5057347416877747
1782831634009041700,6.160041748046875,-0.07074639946222305,-0.7656375765800476,0.4273933172225952
1782831634018971000,6.169970947265625,-0.0702126994729042,-0.5464143753051758,0.29376572370529175
1782831634028899800,6.17989990234375,-0.1029280349612236,-0.2754867672920227,0.21225464344024658
1782831634038828800,6.189828857421875,-0.14378085732460022,-0.01756402850151062,0.22105346620082855
1782831634048757800,6.1997578125,-0.2022407054901123,0.1568266898393631,0.32829442620277405
1782831634058687000,6.20968701171875,-0.2724978029727936,0.1512073129415512,0.46187686920166016
1782831634068616000,6.219615966796875,-0.31462687253952026,0.0736967995762825,0.5300801992416382
1782831634078545000,6.229544921875,-0.31364110112190247,-0.007613323163241148,0.4865707755088806
1782831634088473900,6.239473876953125,-0.2690674960613251,-0.08299756050109863,0.3428599536418915
1782831634098403000,6.249403076171875,-0.22390101850032806,-0.24284212291240692,0.10999996960163116
1782831634108332000,6.25933203125,-0.16178704798221588,-0.41121676564216614,-0.1319388896226883
1782831634118260700,6.2692607421875,-0.09442935883998871,-0.4492778480052948,-0.2513035833835602
1782831634128189700,6.279189697265625,-0.015454119071364403,-0.46143412590026855,-0.2652667760848999
1782831634138119000,6.289118896484375,0.052583858370780945,-0.45026564598083496,-0.183969646692276
1782831634148048000,6.2990478515625,0.03917510807514191,-0.38875994086265564,-0.03685849905014038
1782831634157976800,6.308976806640625,0.011574218049645424,-0.2639979422092438,0.08054617047309875
1782831634167905800,6.31890576171875,-0.02088891714811325,-0.028672758489847183,0.12888866662979126
1782831634177835000,6.3288349609375,-0.03735348582267761,0.1799466609954834,0.12209174036979675
1782831634187764000,6.338763916015625,-0.05614875257015228,0.20635882019996643,0.12300467491149902
1782831634197693000,6.34869287109375,-0.09213821589946747,0.03370539844036102,0.16474932432174683
1782831634207622000,6.358621826171875,-0.10394800454378128,-0.12829895317554474,0.21159406006336212
1782831634217551000,6.368551025390625,-0.09679514914751053,-0.1847231686115265,0.2277991771697998
1782831634227479800,6.378479736328125,-0.06436263769865036,-0.1703290492296219,0.19746790826320648
1782831634237408800,6.38840869140625,-0.04901596158742905,-0.1344020664691925,0.17569862306118011
1782831634247337700,6.398337646484375,-0.06288011372089386,-0.17793649435043335,0.2042194902896881
1782831634257266700,6.4082666015625,-0.09243728965520859,-0.2145325243473053,0.27500540018081665
1782831634267195000,6.41819482421875,-0.159384086728096,-0.15808816254138947,0.3049105703830719
1782831634277123800,6.428123779296875,-0.2203487753868103,0.004020649939775467,0.215381920337677
1782831634287052800,6.438052734375,-0.27212780714035034,0.20005805790424347,0.013010978698730469
1782831634296981800,6.447981689453125,-0.29946625232696533,0.31477633118629456,-0.21712985634803772
1782831634306911000,6.457910888671875,-0.2708311676979065,0.28934845328330994,-0.37581005692481995
1782831634316840000,6.46783984375,-0.2697736322879791,0.2632690370082855,-0.46314188838005066
1782831634326769000,6.477768798828125,-0.3007235825061798,0.2388017773628235,-0.4226943254470825
1782831634336697900,6.48769775390625,-0.30106404423713684,0.32277122139930725,-0.32987162470817566
1782831634346626800,6.497626708984375,-0.19974912703037262,0.3312768042087555,-0.3017289340496063
1782831634356556000,6.50755615234375,-0.01623181812465191,0.23386837542057037,-0.2699119448661804
1782831634366485000,6.517485107421875,0.18353880941867828,-0.004292786121368408,-0.18637870252132416
1782831634376413700,6.52741357421875,0.22394679486751556,-0.3335505723953247,-0.0988856852054596
1782831634386342700,6.5373427734375,0.19705446064472198,-0.4322822093963623,0.019108328968286514
1782831634396271900,6.54727197265625,0.15646861493587494,-0.10481160134077072,0.08194759488105774
1782831634406200800,6.557200927734375,0.1287323236465454,0.3808797299861908,0.025700565427541733
1782831634416129800,6.5671298828125,0.1676316261291504,0.6594992280006409,-0.12032262235879898
1782831634426058800,6.577058837890625,0.15145504474639893,0.7797345519065857,-0.3106541931629181
1782831634435988000,6.586988037109375,0.10192018002271652,0.6390539407730103,-0.4898747205734253
1782831634445917000,6.5969169921875,0.03471451252698898,-0.11447762697935104,-0.6255952715873718
1782831634455846000,6.606845947265625,-0.00234017800539732,-1.3414236307144165,-0.7648775577545166
1782831634465774800,6.61677490234375,-0.038413483649492264,-2.1609559059143066,-0.7669857144355774
1782831634475704000,6.6267041015625,-0.016414973884820938,-2.072242498397827,-0.5628035664558411
1782831634485633000,6.636633056640625,-0.093597911298275,-1.1815199851989746,-0.20382332801818848
1782831634495561700,6.646561767578125,-0.28483498096466064,-0.08644922077655792,0.13931246101856232
1782831634505490700,6.65649072265625,-0.4356471300125122,0.6879522204399109,0.39126721024513245
1782831634515420000,6.666419921875,-0.5461263060569763,1.0262945890426636,0.544264554977417
1782831634525348900,6.676348876953125,-0.5805263519287109,0.8755694627761841,0.7048249244689941
1782831634535277800,6.68627783203125,-0.6299670338630676,0.39016446471214294,0.7523130178451538
1782831634545207000,6.69620703125,-0.6447153687477112,-0.07000632584095001,0.5626464486122131
1782831634555136000,6.706135986328125,-0.5954961776733398,-0.13552232086658478,0.10459588468074799
1782831634565065000,6.71606494140625,-0.513074517250061,0.07768847793340683,-0.4594096839427948
1782831634574994000,6.725993896484375,-0.41602325439453125,0.26399341225624084,-0.8767622113227844
1782831634584923100,6.735923095703125,-0.29782259464263916,0.4083889424800873,-0.8422260880470276
1782831634594852000,6.74585205078125,-0.24071088433265686,0.38113903999328613,-0.4464642107486725
1782831634604780800,6.75578076171875,-0.18830758333206177,0.19887471199035645,0.11500311642885208
1782831634614709800,6.765709716796875,-0.11734473705291748,0.031270913779735565,0.5189741253852844
1782831634624639000,6.775638916015625,-0.030264966189861298,-0.04487711563706398,0.6764399409294128
1782831634634568000,6.78556787109375,0.06328362971544266,-0.09855856746435165,0.663823664188385
1782831634644497000,6.795496826171875,0.11395799368619919,-0.09064072370529175,0.5772029757499695
1782831634654425900,6.80542578125,0.21784713864326477,-0.06084299087524414,0.5407215356826782
1782831634664353800,6.815353759765625,0.3172435164451599,-0.061480551958084106,0.4901912212371826
1782831634674283000,6.825282958984375,0.3963497281074524,-0.07192935049533844,0.4439522325992584
1782831634684212000,6.8352119140625,0.4530705213546753,-0.09981797635555267,0.43067529797554016
1782831634694141000,6.845140869140625,0.45180463790893555,-0.17463462054729462,0.40081000328063965
1782831634704070000,6.85506982421875,0.41576701402664185,-0.12224758416414261,0.3189111351966858
1782831634713999000,6.8649990234375,0.41998371481895447,0.05307874083518982,0.22429245710372925
1782831634723928000,6.874927978515625,0.435077428817749,0.22771872580051422,0.17651374638080597
1782831634733857000,6.88485693359375,0.44853195548057556,0.3056212365627289,0.2583790421485901
1782831634743786000,6.894785888671875,0.5312396287918091,0.2676677405834198,0.44652312994003296
1782831634753715000,6.90471484375,0.6140216588973999,0.0983138233423233,0.6663099527359009
1782831634763644000,6.914643798828125,0.6549429893493652,-0.09914252907037735,0.8882991075515747
1782831634773572900,6.92457275390625,0.6706977486610413,-0.2763313353061676,1.045143961906433
1782831634783501800,6.934501708984375,0.6804787516593933,-0.34013134241104126,1.032837986946106
1782831634793431000,6.94443115234375,0.6084474325180054,-0.2028960883617401,0.9265442490577698
1782831634803360000,6.954360107421875,0.5026208758354187,0.07452113926410675,0.7731096744537354
1782831634813289000,6.9642890625,0.4075358510017395,0.39800047874450684,0.5799953937530518
1782831634823218000,6.974218017578125,0.3131009638309479,0.5329356789588928,0.36424100399017334
1782831634833147100,6.984147216796875,0.1801930069923401,0.4958060085773468,0.20712661743164062
1782831634843076000,6.994076171875,0.04977349564433098,0.4473940134048462,0.11373516172170639
1782831634853005000,7.004005126953125,0.015711888670921326,0.4969358444213867,0.10071244835853577
1782831634862933800,7.013933837890625,0.0264540147036314,0.6927828192710876,0.16741132736206055
1782831634872863000,7.023863037109375,0.07776207476854324,0.7901532053947449,0.30438032746315
1782831634882792000,7.0337919921875,0.16711698472499847,0.6753712296485901,0.4519769549369812
1782831634892721000,7.043720947265625,0.1847749650478363,0.3324202299118042,0.5511773824691772
1782831634902649900,7.05364990234375,0.19983728229999542,-0.037660907953977585,0.6685982942581177
1782831634912579000,7.0635791015625,0.26042550802230835,-0.2574600875377655,0.7043265700340271
1782831634922508000,7.073508056640625,0.29509904980659485,-0.27211305499076843,0.6100415587425232
1782831634932437000,7.08343701171875,0.3182392716407776,-0.30290862917900085,0.4416034519672394
1782831634942366000,7.093365966796875,0.33825400471687317,-0.517677366733551,0.21191488206386566
1782831634952295200,7.103295166015625,0.35466837882995605,-0.7982221245765686,0.03208106756210327
1782831634962224000,7.11322412109375,0.37033575773239136,-1.0038352012634277,-0.10073184221982956
1782831634972152800,7.12315283203125,0.31073951721191406,-1.1067219972610474,-0.18641331791877747
1782831634982081800,7.133081787109375,0.14956924319267273,-0.9083431363105774,-0.29654619097709656
1782831634992011000,7.143010986328125,-0.08417555689811707,-0.41116106510162354,-0.4311101734638214
1782831635001940000,7.15293994140625,-0.35634422302246094,0.2499588131904602,-0.4325283169746399
1782831635011869000,7.162868896484375,-0.6026865243911743,0.7677496075630188,-0.31899458169937134
1782831635021798000,7.1727978515625,-0.7435738444328308,1.027957797050476,-0.2601485848426819
1782831635031727000,7.18272705078125,-0.7725965976715088,0.9997338056564331,-0.2966057360172272
1782831635041656000,7.192656005859375,-0.7551560401916504,0.8158630728721619,-0.31869107484817505
1782831635051585000,7.2025849609375,-0.7280817031860352,0.5634162425994873,-0.2937767505645752
1782831635061514000,7.212513916015625,-0.6429979205131531,0.2206258773803711,-0.2309325635433197
1782831635071443000,7.22244287109375,-0.42342570424079895,-0.09949233382940292,-0.10636699199676514
1782831635081372000,7.232371826171875,-0.10797961056232452,-0.23576176166534424,0.07706355303525925
1782831635091300900,7.24230078125,0.10914330929517746,-0.338604211807251,0.3424990475177765
1782831635101229800,7.252229736328125,0.21166063845157623,-0.42219123244285583,0.6515064835548401
1782831635111158800,7.26215869140625,0.14980252087116241,-0.4926653206348419,0.8231958150863647
1782831635121088000,7.272087890625,0.00257311575114727,-0.416185200214386,0.7263323664665222
1782831635131016000,7.282015869140625,-0.1110074371099472,-0.12963058054447174,0.377301424741745
1782831635140945000,7.29194482421875,-0.22211585938930511,0.25897762179374695,-0.1953977644443512
1782831635150873900,7.301873779296875,-0.32222113013267517,0.601889431476593,-0.7810328006744385
1782831635160802800,7.311802734375,-0.40258920192718506,0.7305536270141602,-1.0798163414001465
1782831635170732000,7.32173193359375,-0.3607941269874573,0.7315168976783752,-0.9796145558357239
1782831635180661000,7.331660888671875,-0.3348773121833801,0.4469733238220215,-0.7638362050056458
1782831635190590000,7.34158984375,-0.235275998711586,-0.01789090782403946,-0.4541979432106018
1782831635200519000,7.351518798828125,-0.0668579563498497,-0.41407686471939087,-0.24371501803398132
1782831635210448100,7.3614482421875,0.17736776173114777,-0.5828718543052673,-0.1403951495885849
1782831635220377000,7.371377197265625,0.3811142146587372,-0.5885283946990967,-0.11632842570543289
1782831635230305800,7.381305908203125,0.45846015214920044,-0.531594455242157,-0.04918152838945389
1782831635240234800,7.39123486328125,0.37681108713150024,-0.39738789200782776,0.10832953453063965
1782831635250164000,7.4011640625,0.22802165150642395,-0.19965443015098572,0.23381918668746948
1782831635260093000,7.411093017578125,0.1169997900724411,0.05200763791799545,0.22526484727859497
1782831635270022000,7.42102197265625,0.08630991727113724,0.28569966554641724,0.10515157878398895
1782831635279950800,7.430950927734375,0.11102671921253204,0.3287917673587799,0.004676103591918945
1782831635289880000,7.440880126953125,0.16686947643756866,0.2222016453742981,0.014971031807363033
1782831635299809000,7.45080908203125,0.2225537896156311,0.15946635603904724,0.13516400754451752
1782831635309738000,7.460738037109375,0.26425400376319885,0.13322487473487854,0.2655763626098633
1782831635319667000,7.4706669921875,0.28900381922721863,0.15021078288555145,0.40272462368011475
1782831635329596200,7.48059619140625,0.25740405917167664,0.08968362957239151,0.49295639991760254
1782831635339524900,7.49052490234375,0.216800719499588,0.05760931223630905,0.45707032084465027
1782831635349453800,7.500453857421875,0.19829174876213074,0.04723417013883591,0.32207226753234863
1782831635359382800,7.5103828125,0.20664049685001373,0.049498654901981354,0.1481364518404007
1782831635369312000,7.52031201171875,0.18750540912151337,0.05847742035984993,-0.018446750938892365
1782831635379241000,7.530240966796875,0.1535266637802124,0.18079960346221924,-0.09558814018964767
1782831635389170000,7.540169921875,0.08942067623138428,0.4125489294528961,-0.10914444923400879
1782831635399099000,7.550098876953125,-0.012724868953227997,0.565755307674408,-0.11215542256832123
1782831635409028000,7.560028076171875,-0.07444155216217041,0.5282310247421265,-0.17239321768283844
1782831635418957000,7.56995703125,-0.11415088176727295,0.30816414952278137,-0.36853474378585815
1782831635428886000,7.579885986328125,-0.13162241876125336,0.08110518008470535,-0.6076547503471375
1782831635438815000,7.58981494140625,-0.17849405109882355,-0.08117427676916122,-0.7410897612571716
1782831635448744000,7.599743896484375,-0.22980976104736328,-0.048460327088832855,-0.6371477246284485
1782831635458673000,7.6096728515625,-0.2703723609447479,0.05676649510860443,-0.4737345278263092
1782831635468601900,7.619601806640625,-0.2301112413406372,0.14251530170440674,-0.3782215118408203
1782831635478530800,7.62953076171875,-0.09990369528532028,0.2179275006055832,-0.29367440938949585
1782831635488460000,7.6394599609375,0.019761312752962112,0.15564531087875366,-0.10463394224643707
1782831635498389000,7.649388916015625,0.14478793740272522,-0.09937898814678192,0.13251549005508423
1782831635508318000,7.65931787109375,0.27849555015563965,-0.5513587594032288,0.2600804567337036
1782831635518247000,7.669246826171875,0.38455143570899963,-1.1906646490097046,0.22288034856319427
1782831635528176000,7.679176025390625,0.4275754392147064,-1.6708601713180542,0.07418515533208847
1782831635538104800,7.689104736328125,0.38098451495170593,-1.6867328882217407,0.012428848072886467
1782831635548034000,7.699033935546875,0.22467869520187378,-1.0733929872512817,0.14194798469543457
1782831635557963000,7.708962890625,0.02211042121052742,-0.20911608636379242,0.30410441756248474
1782831635567891700,7.7188916015625,-0.2146686613559723,0.3898881673812866,0.40919387340545654
1782831635577820700,7.728820556640625,-0.3680739402770996,0.6258429288864136,0.45821040868759155
1782831635587750000,7.73875,-0.4086131155490875,0.5487350225448608,0.4636959135532379
1782831635597678800,7.748678955078125,-0.39152947068214417,-0.011222830042243004,0.4043753445148468
1782831635607607800,7.75860791015625,-0.37346920371055603,-0.79294353723526,0.32042598724365234
1782831635617536800,7.768536865234375,-0.25648877024650574,-1.2043734788894653,0.15789805352687836
1782831635627466000,7.778466064453125,-0.125926211476326,-1.1364903450012207,-0.06300751119852066
1782831635637395000,7.78839501953125,-0.08827762305736542,-0.8673917055130005,-0.18890976905822754
1782831635647323000,7.798322998046875,-0.13980676233768463,-0.5377687811851501,-0.17506195604801178
1782831635657251800,7.808251953125,-0.2499801516532898,-0.24116641283035278,-0.10567808151245117
1782831635667180800,7.818180908203125,-0.3466259837150574,-0.12610746920108795,-0.07648669183254242
1782831635677110000,7.828110107421875,-0.3761111795902252,-0.11909297853708267,-0.12037985026836395
1782831635687039000,7.8380390625,-0.32694122195243835,-0.21113476157188416,-0.22346600890159607
1782831635696968000,7.847968017578125,-0.27150672674179077,-0.3315280079841614,-0.3403492271900177
1782831635706897000,7.85789697265625,-0.22574801743030548,-0.45236656069755554,-0.4150887131690979
1782831635716825900,7.867825927734375,-0.21470361948013306,-0.5459066033363342,-0.4169939458370209
1782831635726754800,7.8777548828125,-0.13361907005310059,-0.4936406910419464,-0.3656937777996063
1782831635736683800,7.887683837890625,-0.06145833432674408,-0.29733723402023315,-0.3601685166358948
1782831635746612700,7.89761279296875,-0.008636778220534325,-0.08612725883722305,-0.4227057993412018
1782831635756542000,7.9075419921875,0.04957326501607895,0.0071480898186564445,-0.510370135307312
1782831635766471000,7.917470947265625,0.036444291472435,-0.030285503715276718,-0.5453848838806152
1782831635776400000,7.92739990234375,-0.010136259719729424,-0.07349662482738495,-0.5147066116333008
1782831635786328800,7.937328857421875,-0.08568473160266876,-0.1029367595911026,-0.45508435368537903
1782831635796258000,7.947258056640625,-0.13270364701747894,-0.05707206577062607,-0.36224284768104553
1782831635806187000,7.95718701171875,-0.022328559309244156,0.05305880680680275,-0.3325614035129547
1782831635816116000,7.967115966796875,-0.11588913202285767,0.03300999477505684,-0.15136922895908356
1782831635826044700,7.977044677734375,-0.05928070470690727,-0.06356938183307648,0.049769096076488495
1782831635835974000,7.986973876953125,0.0016201958060264587,-0.22303973138332367,0.17823465168476105
1782831635845902800,7.99690283203125,0.06211408972740173,-0.26779428124427795,0.3068495988845825
1782831635855831800,8.006831787109375,0.12587815523147583,-0.494783490896225,0.4136871099472046
1782831635865760800,8.0167607421875,0.10609555244445801,-0.46413272619247437,0.40839433670043945
1782831635875690000,8.02668994140625,0.08144453167915344,-0.5254706740379333,0.28219300508499146
1782831635885619000,8.036618896484375,-0.10591351240873337,-0.5071583986282349,0.2855578660964966
1782831635895548000,8.0465478515625,-0.1508208066225052,-0.4224107563495636,0.31677091121673584
1782831635905476900,8.056476806640624,-0.3900870978832245,-0.4853542745113373,0.30174338817596436
1782831635915406000,8.066406005859376,-0.7808854579925537,-0.3558407723903656,0.36396098136901855
1782831635925335000,8.0763349609375,-1.0224374532699585,-0.02149668149650097,0.3948206901550293
1782831635935264000,8.086263916015625,-1.0084335803985596,0.4674929976463318,0.3173980712890625
1782831635945192700,8.096192626953124,-0.6871427297592163,0.8642868995666504,0.15240070223808289
1782831635955122000,8.106121826171876,-0.2971869707107544,1.128735899925232,0.32261183857917786
1782831635965051000,8.11605078125,-0.10055635869503021,1.306364893913269,0.3024406135082245
1782831635974979800,8.125979736328125,-0.0016697235405445099,1.117265224456787,0.11937973648309708
1782831635984908800,8.13590869140625,0.02357645519077778,0.5487790703773499,-0.19095610082149506
1782831635994837800,8.145837646484376,-0.11576119065284729,0.13969972729682922,-0.597953200340271
1782831636004767000,8.15576708984375,-0.34895941615104675,0.38316068053245544,-1.1630674600601196
1782831636014696000,8.165696044921875,-0.6692665815353394,1.18704354763031,-1.8382072448730469
1782831636024625000,8.175625,-0.6147602796554565,1.9973849058151245,-2.142965316772461
1782831636034553900,8.185553955078126,-0.5311585664749146,1.5624686479568481,-2.0668387413024902
1782831636044483000,8.195483154296875,-0.4954882264137268,0.04395388066768646,-1.482850432395935
1782831636054411800,8.205411865234375,-0.5321298837661743,-1.4962259531021118,-0.25429773330688477
1782831636064340700,8.2153408203125,-0.6602052450180054,-2.2614846229553223,0.8076465725898743
1782831636074269700,8.225269775390625,-0.6501736640930176,-1.9536043405532837,1.4669219255447388
1782831636084199000,8.235198974609375,-0.6455708146095276,-1.7933580875396729,1.7971028089523315
1782831636094127900,8.2451279296875,-0.7383771538734436,-2.1586127281188965,1.6604446172714233
1782831636104056800,8.255056884765626,-0.8080140352249146,-1.8615734577178955,1.6948906183242798
1782831636113985800,8.26498583984375,-0.8708600997924805,-1.2213258743286133,1.9667420387268066
1782831636123915000,8.2749150390625,-0.8358438014984131,-0.44125157594680786,2.1741695404052734
1782831636133844000,8.284843994140624,-0.7234025001525879,0.19665032625198364,2.289935827255249
1782831636143773000,8.29477294921875,-0.794234037399292,0.553135871887207,1.975354552268982
1782831636153702000,8.304701904296875,-0.8526531457901001,0.9539227485656738,0.993938148021698
1782831636163630800,8.314630859375,-0.8203781843185425,1.0878101587295532,-0.5899096727371216
1782831636173559800,8.324559814453124,-0.6353686451911926,1.1600590944290161,-2.0372557640075684
1782831636183488800,8.33448876953125,-0.48428669571876526,1.6589934825897217,-2.635856866836548
1782831636193417700,8.344417724609375,-0.4317425489425659,2.428138494491577,-2.5833113193511963
1782831636203345700,8.354345703125,-0.561136782169342,3.0860071182250977,-2.1273434162139893
1782831636213275000,8.36427490234375,-0.3464375436306,3.644313335418701,-1.5036011934280396
1782831636223203800,8.374203857421875,0.33544260263442993,4.262279987335205,-0.7160200476646423
1782831636233132800,8.3841328125,1.0302361249923706,3.397918939590454,0.11001580953598022
1782831636243061800,8.394061767578124,1.1316957473754883,1.6829967498779297,0.7361084818840027
1782831636252991000,8.403990966796876,0.5649971961975098,0.11451810598373413,0.92564457654953
1782831636262920000,8.413919921875,0.051455967128276825,-0.5963606834411621,0.7025228142738342
1782831636272849000,8.423848876953125,0.044652387499809265,-0.8216094970703125,0.4339885115623474
1782831636282777900,8.43377783203125,0.13937899470329285,-0.7299203276634216,0.257064551115036
1782831636292707000,8.44370703125,0.2640141546726227,-0.6266536116600037,0.1623060703277588
1782831636302636000,8.453635986328125,0.6601649522781372,-0.31299594044685364,-0.16668951511383057
1782831636312564700,8.463564697265625,0.8347183465957642,-0.23235704004764557,-0.6979981064796448
1782831636322493700,8.47349365234375,0.8638851642608643,-0.5340816974639893,-0.6757283806800842
1782831636332423000,8.4834228515625,0.8134752511978149,-0.690089225769043,-0.4098309278488159
1782831636342352000,8.493351806640625,0.5875394940376282,-0.6402521133422852,-0.08217816799879074
1782831636352280800,8.50328076171875,0.25223982334136963,-0.64243084192276,0.27381882071495056
1782831636362209800,8.513209716796876,-0.03290387988090515,-0.685541033744812,0.6254376769065857
1782831636372139000,8.523138916015625,-0.34382233023643494,-0.8222988843917847,0.8885175585746765
1782831636382068000,8.53306787109375,-0.4999387860298157,-1.1118566989898682,1.0089595317840576
1782831636391997000,8.542996826171875,-0.4039188027381897,-1.4414658546447754,0.9805726408958435
1782831636401926000,8.55292578125,-0.12965241074562073,-1.5097205638885498,0.8258764147758484
1782831636411855000,8.562855224609375,0.1837710291147232,-1.4769275188446045,0.6375626921653748
1782831636421783800,8.57278369140625,0.3874465227127075,-1.7460250854492188,0.4659680426120758
1782831636431712800,8.582712646484374,0.43355676531791687,-2.1579060554504395,0.3766038119792938
1782831636441641700,8.592641845703126,0.3540092706680298,-2.4143872261047363,0.3391203284263611
1782831636451571000,8.602571044921875,0.28238463401794434,-2.2770636081695557,0.2637081444263458
1782831636461500000,8.6125,0.25374847650527954,-1.8648020029067993,0.12841756641864777
1782831636471428900,8.622428955078124,0.27415093779563904,-1.2510485649108887,0.017706766724586487
1782831636481357800,8.63235791015625,0.2855979800224304,-0.6594741940498352,0.05829543247818947
1782831636491287000,8.642287109375,0.2994503974914551,-0.44101113080978394,0.04126398637890816
1782831636501216000,8.652216064453125,0.427900105714798,-0.2064768522977829,-0.09816157817840576
1782831636511145000,8.66214501953125,0.6226035952568054,0.24372920393943787,-0.3411279022693634
1782831636521074000,8.672073974609376,0.7214241027832031,0.7673314213752747,-0.543749213218689
1782831636531003000,8.6820029296875,0.7518304586410522,1.0883824825286865,-0.5742088556289673
1782831636540932600,8.6919326171875,0.7159836888313293,1.2610416412353516,-0.6644240617752075
1782831636550861600,8.701861572265624,0.5306708216667175,0.9998345375061035,-0.8333441019058228
1782831636560790800,8.711790771484376,0.23626719415187836,0.5317516922950745,-0.7857049703598022
1782831636570719700,8.7217197265625,0.06201230362057686,0.6139810681343079,-0.5449203252792358
1782831636580648700,8.731648681640625,0.026273243129253387,0.8423565030097961,-0.37686148285865784
1782831636590577700,8.74157763671875,0.036305371671915054,1.1096487045288086,-0.23653660714626312
1782831636600507000,8.7515068359375,0.005924289580434561,1.1948456764221191,-0.07510945200920105
1782831636610435800,8.761435791015625,-0.1292833387851715,0.8022761344909668,-0.06873012334108353
1782831636620364500,8.771364501953125,-0.168329119682312,0.39835527539253235,-0.1343846470117569
1782831636630293500,8.78129345703125,-0.2573748528957367,0.031793512403964996,-0.5224362015724182
1782831636640222700,8.79122265625,-0.3608877956867218,-0.25245925784111023,-1.1943174600601196
1782831636650151700,8.801151611328125,-0.38642218708992004,-0.04180773347616196,-1.6192139387130737
1782831636660080600,8.81108056640625,-0.4200972616672516,0.31329113245010376,-1.4560004472732544
1782831636670009600,8.821009521484376,-0.48494309186935425,0.640852689743042,-0.7793189883232117
1782831636679938800,8.830938720703125,-0.42125892639160156,0.9731326103210449,0.2202577143907547
1782831636689867800,8.84086767578125,-0.36358949542045593,0.8997411727905273,1.10000479221344
1782831636699796700,8.850796630859374,-0.46909788250923157,0.693091869354248,1.6667790412902832
1782831636709725700,8.8607255859375,-0.6260496377944946,0.4205756187438965,1.936690092086792
1782831636719655000,8.870655029296875,-0.7114006280899048,0.19289717078208923,1.8077542781829834
1782831636729583600,8.88058349609375,-0.847739040851593,-0.0645492821931839,1.2882684469223022
1782831636739512600,8.8905126953125,-1.038544774055481,-0.40664076805114746,0.5690119862556458
1782831636749441500,8.900441650390626,-1.1068593263626099,-0.6902415752410889,-0.17506910860538483
1782831636759369700,8.91036962890625,-0.8804523348808289,-0.7697303295135498,-0.5985008478164673
1782831636769298700,8.920298583984374,-0.5269675254821777,-0.7673744559288025,-0.6411135196685791
1782831636779227600,8.9302275390625,-0.2069929838180542,-0.8029789924621582,-0.36436355113983154
1782831636789156600,8.940156494140625,0.048719488084316254,-0.8278076648712158,0.12698806822299957
1782831636799085600,8.95008544921875,0.20044897496700287,-0.7294830083847046,0.6721510291099548
1782831636809014800,8.960014892578124,0.2656332850456238,-0.5113933086395264,1.1020286083221436
1782831636818943700,8.96994384765625,0.22990942001342773,-0.1706049144268036,1.2595988512039185
1782831636828872700,8.979872802734375,0.1636156141757965,0.03262382373213768,1.1424493789672852
1782831636838801700,8.9898017578125,0.11012787371873856,0.07138828188180923,0.7875187993049622
1782831636848731000,8.99973095703125,0.013180287554860115,-0.014284544624388218,0.3137352168560028
1782831636858659800,9.009659912109376,-0.09483291953802109,0.002466060221195221,-0.11850909143686295
1782831636868588800,9.0195888671875,-0.15091003477573395,0.09447667747735977,-0.45634227991104126
1782831636878517500,9.029517578125,-0.1591949164867401,0.1836666762828827,-0.6762014031410217
1782831636888446700,9.03944677734375,-0.1229972392320633,0.36880940198898315,-0.699129581451416
1782831636898375700,9.049375732421876,-0.07235915213823318,0.5372639894485474,-0.5635085105895996
1782831636908304600,9.0593046875,0.0073790838941931725,0.5616345405578613,-0.37611255049705505
1782831636918233600,9.069233642578125,0.07146148383617401,0.44485247135162354,-0.19844365119934082
1782831636928162800,9.079162841796874,0.09149298071861267,0.31937018036842346,-0.03427014499902725
1782831636938091800,9.089091796875,0.10531271994113922,0.254422128200531,0.11625679582357407
1782831636948020700,9.099020751953125,0.10054965317249298,0.27226850390434265,0.1830986738204956
1782831636957949700,9.10894970703125,0.05293284356594086,0.271569162607193,0.12920910120010376
1782831636967879000,9.11887890625,-0.023188821971416473,0.2660854458808899,0.02359771728515625
1782831636977808000,9.128807861328125,-0.07943481206893921,0.2759154438972473,-0.02184215933084488
1782831636987736600,9.138736572265625,-0.10241708904504776,0.2702469229698181,0.02363530918955803
1782831636997665500,9.14866552734375,-0.0916278287768364,0.17515182495117188,0.08589815348386765
1782831637007594800,9.1585947265625,-0.0591549351811409,0.026644891127943993,0.11618316173553467
1782831637017523700,9.168523681640625,-0.0016633225604891777,-0.0794038400053978,0.11963021010160446
1782831637027452700,9.17845263671875,0.0832022950053215,-0.047865092754364014,0.09015034139156342
1782831637037381600,9.188381591796874,0.1801971048116684,0.03484110161662102,0.022400375455617905
1782831637047310600,9.198310546875,0.27095043659210205,0.1739686280488968,-0.07274079322814941
1782831637057239800,9.20823974609375,0.3750830888748169,0.4262332618236542,-0.12734484672546387
1782831637067168800,9.218168701171875,0.45886507630348206,0.994066059589386,0.09529434889554977
1782831637077097700,9.22809765625,0.29636988043785095,1.7591419219970703,0.4473251402378082
1782831637087026700,9.238026611328126,0.11011505126953125,1.8234565258026123,0.2810724973678589
1782831637096956000,9.247955810546875,0.039452046155929565,1.5325636863708496,-0.21527594327926636
1782831637106884600,9.257884521484375,0.016836484894156456,0.9377877116203308,-0.5421006679534912
1782831637116813600,9.2678134765625,0.07510435581207275,0.324616014957428,-0.4943506121635437
1782831637126742500,9.277742431640625,0.21207605302333832,-0.2304394543170929,-0.4322313070297241
1782831637136671700,9.287671630859375,0.3512480854988098,-0.6668274998664856,-0.5410457849502563
1782831637146600700,9.2976005859375,0.4236924648284912,-0.8128646016120911,-0.8054643869400024
1782831637156529700,9.30752978515625,0.47556185722351074,-0.6712124943733215,-0.9263198971748352
1782831637166458600,9.317458740234375,0.49444764852523804,-0.6990978717803955,-0.8079330921173096
1782831637176387800,9.327387939453125,0.42782843112945557,-0.8443116545677185,-0.39582228660583496
