time,seconds_elapsed,z,y,x
1782838050943728400,0.095728271484375,-0.09460369880199432,-0.002203853020095266,-0.012529002943146041
1782838050953657300,0.1056572265625,-0.05465221216380596,0.006658955565700307,0.004716835921443998
1782838050963587300,0.11558740234375,-0.10867138712108135,0.005799868218065239,0.005073380574421025
1782838050973516300,0.125516357421875,-0.06901742212474346,0.004387754664127714,0.008930868853325955
1782838050983445500,0.135445556640625,-0.08472878599762916,-0.009332892049266956,0.011786381582031026
1782838050993374500,0.14537451171875,-0.08667407484650612,-0.02805985001681838,0.0008378755962476134
1782838051003303200,0.15530322265625,-0.060037996855378147,-0.01605418139460962,-0.0035265392914880065
1782838051013233400,0.1652333984375,-0.09924304904043674,0.004918993730307557,-0.005513269829028286
1782838051023162400,0.175162353515625,-0.0884697260916233,0.01854650053384248,-0.00640602198424749
1782838051033091300,0.18509130859375,-0.0676695146471262,0.00272678548223339,-0.010994998308899813
1782838051043020300,0.195020263671875,-0.12468202620148658,-0.014599767635483294,-0.01251502465014346
1782838051052950300,0.2049501953125,-0.03175707426667213,-0.0040084867226891216,-0.0062491417889483265
1782838051062879200,0.214879150390625,-0.13051847727000712,0.0006315211028791964,-0.0007882095019333064
1782838051072808200,0.22480810546875,-0.052558454754948615,0.016174282376631162,0.006768672151025384
1782838051082737400,0.2347373046875,-0.11331073735952377,0.006936516698333435,0.008040281255729496
1782838051092667400,0.24466748046875,-0.08712298765778541,0.009920715574314818,0.01016723311471287
1782838051102596400,0.254596435546875,-0.061684595018625256,-0.0005551039989572018,0.009153946152632124
1782838051112525300,0.264525390625,-0.09565233107209205,-0.025448676571156827,0.0029415150783024726
1782838051122454500,0.27445458984375,-0.06033902562856674,-0.004092516310908832,-0.00207081949126441
1782838051132384300,0.28438427734375,-0.09161270029246807,0.02249434311047662,-0.003615372918988578
1782838051142313200,0.294313232421875,-0.07679799299836158,0.006125355579075403,-0.00438674088397529
1782838051152242400,0.304242431640625,-0.08607552443146706,-0.006930201121978462,-0.007119079324160702
1782838051162171400,0.31417138671875,-0.07799450930655003,-0.01779195583949331,-0.012930290920147672
1782838051172100400,0.324100341796875,-0.07979074507355689,-0.007187290288740769,-0.0013138864770065992
1782838051182030300,0.3340302734375,-0.0841302355825901,-0.009846942518628202,-0.0027710538822226225
1782838051191959300,0.343959228515625,-0.0920598595380783,-0.00473736725281924,0.00820558678607922
1782838051201888300,0.35388818359375,-0.08846621896028518,0.009452449608594178,0.010463224953180179
1782838051211817200,0.363817138671875,-0.0800865131497383,0.0014102914896095171,0.01531382505581714
1782838051221747500,0.37374755859375,-0.07095745027661324,-0.01380446167248301,0.005995870280778035
1782838051231676400,0.383676513671875,-0.08637070798575877,-0.010516037419228814,0.002292138658324256
1782838051241605400,0.39360546875,-0.06826455793082714,0.012225480818771756,0.003195946497097611
1782838051251534300,0.403534423828125,-0.09070902945101261,0.02259154270752333,-0.004527779622748494
1782838051261464300,0.41346435546875,-0.0702092622578144,0.021194544524326918,-0.009011510041216388
1782838051271393300,0.423393310546875,-0.08786649950146674,-0.010841588712320662,-0.012724315452692099
1782838051281322200,0.433322265625,-0.08397533728182316,-0.012158918388583696,-0.00965567599653732
1782838051291251500,0.44325146484375,-0.0720043289810419,0.002184171072090976,-0.0017502640336984768
1782838051301181400,0.453181396484375,-0.093254037758708,0.005900780442426912,-0.004161983084236272
1782838051311110100,0.463110107421875,-0.0637783524274826,0.005543884163000621,0.010118877628073095
1782838051321039400,0.473039306640625,-0.09879413622915745,-0.010980376128503121,-0.0011362694543553516
1782838051330968300,0.48296826171875,-0.07006254726350307,0.00452479764779564,0.014562043140712194
1782838051340898300,0.492898193359375,-0.07230652679800986,-0.010788246523309498,-0.0015980782798258586
1782838051350827300,0.5028271484375,-0.0865220991551876,-0.015355677736434153,-0.001898490565083921
1782838051360756500,0.512756591796875,-0.07514847222566604,0.013356891434919088,-0.014341847351659089
1782838051370685400,0.522685546875,-0.08861410299837588,0.014343970810086466,-0.014421040934557094
1782838051380614400,0.532614501953125,-0.06676759737133979,-0.003631323973368853,-0.0011870954592945054
1782838051390544400,0.54254443359375,-0.06272621302604675,-0.006754241766873747,0.0004977934543043375
1782838051400473300,0.552473388671875,-0.07768997340202331,0.0010807946737622842,0.00010137344866525381
1782838051410402300,0.56240234375,-0.06586801818311214,0.0046172936702612785,0.013067977791209705
1782838051420331300,0.572331298828125,-0.07679214777946472,0.004105978580680675,0.006423429776774719
1782838051430261200,0.58226123046875,-0.08756722429394721,0.000016147417202591894,0.013222844125935808
1782838051440190200,0.592190185546875,-0.08247837672233581,-0.0011779668713454157,0.007920618665125221
1782838051450119200,0.602119140625,-0.08337503330111504,-0.0035125335990218443,0.0023116790424333885
1782838051460048400,0.61204833984375,-0.08472177173495292,-0.006035663435049354,-0.000918334121047519
1782838051469978400,0.621978271484375,-0.07738836010694504,-0.002833054301724769,-0.015486838968587107
1782838051479907300,0.6319072265625,-0.07963292416334151,0.005884117001993581,-0.01368057956448756
1782838051489836300,0.641836181640625,-0.07574351550936699,0.004323763216938823,-0.007008915214263833
1782838051499765500,0.651765625,-0.07574351550936699,-0.006537210615864023,-0.006106838108273223
1782838051509695200,0.6616953125,-0.07529518721997737,-0.007747111562010832,-0.004840320737217553
1782838051519624200,0.671624267578125,-0.07679156325757502,-0.0046478943045018236,0.00687446147990413
1782838051529553400,0.681553466796875,-0.08113046924471855,0.0005222200760850683,0.007966599531588145
1782838051539482400,0.691482421875,-0.08876140251457691,-0.0021545476853847504,0.011601279939245432
1782838051549412400,0.701412353515625,-0.0811281311571598,-0.00032697606519795953,0.013216227155481465
1782838051559341300,0.71134130859375,-0.0851671774148941,0.0038118544723140073,0.006353693575388752
1782838051569270300,0.721270263671875,-0.08576514330804348,-0.001335906512569636,-0.0018569621114525943
1782838051579199200,0.73119921875,-0.08801029188632964,-0.013496053310437127,-0.005360997310187667
1782838051589129500,0.74112939453125,-0.08052841169834137,0.006829494393593631,-0.00022329192843753844
1782838051599058400,0.751058349609375,-0.08157645944654941,0.015219306039623915,0.0004766410684213042
1782838051608987400,0.7609873046875,-0.08322247308790683,0.00010016787226777523,-0.0024179250290384514
1782838051618916400,0.770916259765625,-0.07738719106316566,-0.01735829082969576,-0.00427098271693103
1782838051628846300,0.780846435546875,-0.07454407659173011,-0.010565392986289225,0.003321856165397912
1782838051638775300,0.790775390625,-0.06810965963006019,-0.0007698609944898634,0.009558024308341555
1782838051648704300,0.800704345703125,-0.07873392949700356,-0.006862369183311239,0.004615247843647375
1782838051658633200,0.81063330078125,-0.09190262314975262,-0.009233610092988237,0.003974004497774877
1782838051668562400,0.8205625,-0.07514379605054855,-0.0010451799376867711,0.004600739827682264
1782838051678492400,0.830492431640625,-0.07768705079257487,-0.0011220856653759255,-0.0014471163686597718
1782838051688421400,0.84042138671875,-0.07379764213860035,-0.00624826957269106,0.006753830774920061
1782838051698353700,0.850353759765625,-0.07005611752271652,-0.003813507573283277,-0.007663552331249229
1782838051708282600,0.86028271484375,-0.0800824214965105,0.005212789045111276,-0.006753072723094373
1782838051718212900,0.870212890625,-0.07978197724521159,0.0046255500419531016,-0.005974612863617949
1782838051728141800,0.880141845703125,-0.07813713264763354,0.0004007856535026803,-0.009474729939061217
1782838051738070800,0.89007080078125,-0.07170154664218426,-0.010204062560340389,-0.0015603355187457054
1782838051747999700,0.899999755859375,-0.07409457925856112,-0.0016480686011258513,0.004719918361096642
1782838051757929700,0.9099296875,-0.07574117742180823,0.008462182762497104,0.013260267226607537
1782838051767858700,0.919858642578125,-0.07574117742180823,-0.007233937875484116,0.009356327723781577
1782838051777787600,0.92978759765625,-0.07065291437208653,-0.009972523393365554,0.010573955318657681
1782838051787716600,0.939716552734375,-0.08262333815097808,-0.004365003976202569,0.0034361301948316395
1782838051797646800,0.949646728515625,-0.08172551252841949,-0.007199505882919765,-0.0041657824765192345
1782838051807575800,0.959575927734375,-0.07334580671787262,-0.015283827209775336,0.0016338802455691619
1782838051817504800,0.9695048828125,-0.09025485594272613,0.0003366983081912622,-0.010897004127409309
1782838051827433700,0.979433837890625,-0.076937109208107,0.008836240239278413,-0.013130558166024275
1782838051837363700,0.98936376953125,-0.08142565279901028,-0.004880291988002136,-0.0028354015224380416
1782838051847292700,0.999292724609375,-0.08576631235182285,-0.009734842179971746,-0.009367835498484783
1782838051857222000,1.009221923828125,-0.07334872932732105,-0.001935429608565755,-0.0004454056799411773
1782838051867150800,1.01915087890625,-0.07125497191846371,0.006254772378713824,0.0004608270113589242
1782838051877079800,1.029079833984375,-0.08307634261548519,-0.0007497041224502027,0.0037991000220179557
1782838051887009800,1.039009765625,-0.08262859884798526,-0.0010156433159485459,0.0076315634575206785
1782838051896938800,1.048938720703125,-0.08098258520662784,0.005038245328958146,0.006805752758402377
1782838051906867700,1.05886767578125,-0.07768997340202331,0.001172331715002656,0.007571723029064014
1782838051916796700,1.068796630859375,-0.07424889303743838,-0.00852293193982914,-0.00038645116747356947
1782838051926727000,1.078726806640625,-0.09040975424349307,-0.0037607407730072735,-0.009700949043524452
1782838051936656000,1.08865576171875,-0.08098258520662784,0.00411535833037924,-0.00922442670611199
1782838051946584600,1.09858447265625,-0.07484802797436714,0.0028825057669077067,-0.003148152699461207
1782838051956513500,1.108513427734375,-0.07499532749056816,0.001171354467468336,-0.001980643290048465
1782838051966443800,1.11844384765625,-0.0851712690681219,-0.0031838131013093513,-0.004594314653472975
1782838051976372700,1.128372802734375,-0.0913064108222723,-0.004384503261116333,-0.005068562835408374
1782838051986301700,1.1383017578125,-0.08217676342725753,-0.0077390058873686935,0.010138655474199914
1782838051996231000,1.14823095703125,-0.08651508489251136,-0.009763351321825757,0.002585655411914922
1782838052006160600,1.15816064453125,-0.07499182035923004,-0.007612666960805654,0.005578695181477814
1782838052016089600,1.168089599609375,-0.07633738974928855,-0.0016137096737977117,0.002978376489970833
1782838052026018800,1.178018798828125,-0.08606324947178363,-0.0012087684349855407,-0.00398312395256944
1782838052035947800,1.18794775390625,-0.08486614864170551,-0.0008651517622405662,-0.004530387138365768
1782838052045877800,1.197877685546875,-0.08351941020786761,-0.004322891000681556,-0.004328462224942632
1782838052055806700,1.207806640625,-0.07544014864861964,0.0007886798593914135,-0.01011692769958172
1782838052065736000,1.21773583984375,-0.08786182332634926,0.002015678070811555,-0.007555671509983949
1782838052075664600,1.22766455078125,-0.08621697872877121,-0.008156605678354389,-0.004205201171454973
1782838052085594600,1.2375947265625,-0.08053016526401043,-0.0034630867004161697,0.013271318343584425
1782838052095523800,1.24752392578125,-0.07170037759840488,0.0034846820442937312,0.010743882225197739
1782838052105452800,1.257452880859375,-0.0721481213659048,-0.002959324729628861,0.0055081552624935285
1782838052115381800,1.2673818359375,-0.08052782717645168,-0.012724708178336732,0.0050931218879297375
1782838052125311700,1.277311767578125,-0.08411912966668605,-0.004721028039371595,-0.0005303851162316277
1782838052135240700,1.28724072265625,-0.07080079841017722,-0.006520099650858901,-0.0012518358251545577
1782838052145169700,1.297169677734375,-0.08007774532139302,-0.006096248215599917,-0.0015437953758984802
1782838052155098600,1.3070986328125,-0.08142331471145152,0.0027272101739188653,-0.012043712777388282
1782838052165028900,1.31702880859375,-0.0793283882588148,-0.005554506021714769,-0.004410815879306756
1782838052174957800,1.326957763671875,-0.08277005314528942,-0.0008043888851767406,-0.0038933085109572854
1782838052184886800,1.33688671875,-0.07498831322789191,-0.0013976420705905184,-0.005605715619144029
1782838052194815700,1.346815673828125,-0.08696107509434223,-0.00358300045276992,0.012413523337314837
1782838052204744700,1.35674462890625,-0.09085340635776519,-0.0009369611897040158,0.009445375980413518
1782838052214674700,1.3666748046875,-0.089057755112648,0.005468567604199052,0.007395060421060771
1782838052224603600,1.376603759765625,-0.08277472932040691,-0.0007765099309850484,0.009719777041580528
1782838052234532900,1.386532958984375,-0.07828560120761394,0.002155159606738016,0.004063253683806397
1782838052244461800,1.3964619140625,-0.07080489006340503,0.005445387658011168,0.003623889585584402
1782838052254391600,1.4063916015625,-0.08307634261548519,0.003921265096962452,0.005204605738655664
1782838052264320800,1.41632080078125,-0.0833762023448944,0.004166275666863658,-0.008751466298964805
1782838052274249700,1.426249755859375,-0.08023381266593933,-0.010668962958618066,-0.011586694291466847
1782838052284178700,1.4361787109375,-0.08502163146436215,-0.0014120359221240506,-0.009950571856461464
1782838052294108700,1.446108642578125,-0.07574410003125667,0.0011133680693805217,0.0033631791230523955
1782838052304038000,1.456037841796875,-0.08307751165926457,-0.007018062068521976,-0.003587525930837728
1782838052313966800,1.465966796875,-0.07335223645865917,-0.00231260149104055,-0.002940072039887309
1782838052323895800,1.475895751953125,-0.07903963444530963,-0.006151782361697405,0.004984272952284664
1782838052333825800,1.48582568359375,-0.0826315214574337,-0.002321150123677216,0.004323703851434402
1782838052343754800,1.495754638671875,-0.0621311697423458,-0.006704557406250387,0.007939917020639405
1782838052353683700,1.50568359375,-0.07470072845816612,0.004995986222964711,0.003298374825110659
1782838052363612700,1.51561279296875,-0.08382862228751183,0.003497573491907678,0.004914888377347961
1782838052373543000,1.52554296875,-0.06856500218212604,0.0010756618409184739,-0.012530085221957414
1782838052383471600,1.5354716796875,-0.07514905674755573,-0.001569564571394585,-0.00021100326902233064
1782838052393400600,1.545400634765625,-0.08113397637605667,0.002018376917974092,-0.007615543904481455
1782838052403329800,1.555329833984375,-0.08083528569042682,0.007183299100212753,-0.003097486524726264
1782838052413259800,1.565259765625,-0.07978782246410847,0.002243006853549741,0.00022494959598407148
1782838052423188700,1.575188720703125,-0.07245382631421089,-0.013274633678677492,0.0005748909782385453
1782838052433117700,1.58511767578125,-0.07529577174186707,-0.007712204645411111,0.002696499941824004
1782838052443047000,1.595046875,-0.08023381266593933,-0.004707241542614065,0.007168873282638378
1782838052452976600,1.6049765625,-0.08591887256503104,0.004335056362510659,0.006862072355789132
1782838052462905600,1.614905517578125,-0.08935995292961597,0.0012236280773999168,0.006557084360113367
1782838052472834800,1.624834716796875,-0.09040683163404464,0.00040999643984250723,-0.005794278727495111
1782838052482763800,1.634763671875,-0.0893587838858366,0.002640025080810301,-0.002495214349217713
1782838052492692700,1.644692626953125,-0.07245148822665214,-0.0012641747169196604,-0.014162883188715204
1782838052502622700,1.654622802734375,-0.07454699920117855,-0.01081749088410288,-0.009776722260052337
1782838052512551700,1.6645517578125,-0.08532090667188168,0.0006162413353566079,-0.011041417566780001
1782838052522480600,1.674480712890625,-0.08023322814404964,0.001295168076804839,-0.001981109080929309
1782838052532409600,1.68440966796875,-0.07694236990511417,0.0028066183859482407,-0.001874607365997508
1782838052542339800,1.69433984375,-0.07664251017570495,-0.0040359227188862855,0.0013982996577164158
1782838052552268800,1.704268798828125,-0.08532149119377136,-0.004412715575448237,0.0022141552184009924
1782838052562197800,1.71419775390625,-0.0724532417923212,0.003212139580072835,0.00860044958887156
1782838052572126700,1.724126708984375,-0.07514730318188667,-0.009456066337786614,0.013800091458042152
1782838052582056700,1.734056640625,-0.0788888277977705,-0.007313980841753073,-0.0030855677580693733
1782838052591985700,1.743985595703125,-0.06437456475496292,0.005475778229697607,0.0007904014590196312
1782838052601914600,1.75391455078125,-0.08038578835725783,0.0020367847909219562,-0.011908332027844153
1782838052611843800,1.76384375,-0.07634615757763386,0.000987978990888223,-0.0007288850967073812
1782838052621773800,1.77377392578125,-0.07425181564688682,0.0002962521333713084,-0.0034698909005383026
1782838052631702800,1.783702880859375,-0.06108312199413776,-0.0010664464880013839,-0.006090334498044103
1782838052641631700,1.7936318359375,-0.07933890965282916,-0.004469144770689309,-0.0007169160977005958
1782838052651560700,1.803560791015625,-0.0808358702123165,-0.005984695866215042,0.004716192034049891
1782838052661490700,1.81349072265625,-0.07604688237011432,0.0039559117186581715,0.0032854696777649224
1782838052671420000,1.823419921875,-0.0808358702123165,0.00014610763953533024,0.004731010577268898
1782838052681348900,1.833348876953125,-0.08038637287914753,-0.0005816951783606782,0.0013882212216965854
1782838052691277800,1.84327783203125,-0.07470014393627643,-0.0024348259314894674,-0.004819090719521045
1782838052701204200,1.853204345703125,-0.07320435242056846,0.0020142304658191277,0.00340884489568416
1782838052711133200,1.86313330078125,-0.08637246155142783,0.006158020306238904,-0.0028614036133745684
1782838052721062100,1.873062255859375,-0.08053601048290729,0.0030554968467913566,-0.0016840943291550501
1782838052730991400,1.882991455078125,-0.08607260182201862,0.003365329980943352,-0.011227596921799704
1782838052740921300,1.89292138671875,-0.07963876938223838,0.006552129623782821,-0.0036799123554490504
1782838052750850300,1.902850341796875,-0.08113631446361541,0.0016409173411317168,0.0015304153045173734
1782838052760779300,1.912779296875,-0.08487725455760955,0.006333194210054353,-0.00572212224015966
1782838052770708200,1.922708251953125,-0.07664777087271213,-0.005832514678919687,0.0006594000570708886
1782838052780638200,1.93263818359375,-0.08532733641266822,-0.004418474029377103,-0.0032695140568073837
1782838052790567200,1.942567138671875,-0.08457914839386939,0.0010107525116996839,0.0018523407352622598
1782838052800496400,1.952496337890625,-0.09041501494050025,-0.0014863661002367733,-0.0012303226796677336
1782838052810425300,1.96242529296875,-0.08607493990957736,-0.004622837495058775,0.00024214732595719395
1782838052820355000,1.97235498046875,-0.08622399299144744,-0.0006484174387529492,-0.005649458862747997
1782838052830284300,1.9822841796875,-0.08008768219351768,-0.0011661942351609469,-0.010671689205244183
1782838052840213200,1.992213134765625,-0.06781856772899628,0.0026112054117023945,-0.006166317777126095
1782838052850142200,2.00214208984375,-0.07500292627513408,0.0020985568815609437,0.0013983270571799949
1782838052860072200,2.012072265625,-0.08742226286530494,0.0021989211166510356,-0.0035221553773153572
1782838052870001400,2.02200146484375,-0.07574994525015354,-0.005002402264019474,-0.0067476978616556145
1782838052879930400,2.031930419921875,-0.08323357900381088,0.0011122264250647276,0.0025887652510311453
1782838052889859000,2.041859130859375,-0.08592647134959697,-0.004846951407403685,0.0032305337532889094
1782838052899788000,2.0517880859375,-0.0811368989855051,0.010937464001961052,0.004004641664633527
1782838052909718300,2.06171826171875,-0.08323065639436245,0.002954109698394313,0.0017498119425494222
1782838052919647200,2.071647216796875,-0.08637246155142783,0.0006988781175110489,-0.00327573373503983
1782838052929576200,2.081576171875,-0.08128536754548549,-0.006339190126000903,-0.009080036099627613
1782838052939505400,2.09150537109375,-0.07709609916210174,0.00035924806671682743,-0.013789054040797053
1782838052949435100,2.10143505859375,-0.07365443427562714,-0.0077522124288138,-0.004679577217553742
1782838052959364000,2.111364013671875,-0.07530103243887425,-0.012457974400394596,-0.010414572639018297
1782838052969293300,2.121293212890625,-0.07949088534414768,-0.011038924215594307,-0.006615221455250867
1782838052979222300,2.13122216796875,-0.08367956920564174,0.002326136826048605,0.0007017322283005341
1782838052989152300,2.14115234375,-0.08756897785961627,0.001727883238531649,0.007287672790139913
1782838052999081200,2.151081298828125,-0.08337854043245314,-0.012705797981889918,-0.00029005072144791484
1782838053009010400,2.161010498046875,-0.08442600365877151,0.002167923190188594,0.00019792002516333014
1782838053018939100,2.170939208984375,-0.07933949417471885,0.003790779718244448,0.009984314295859076
1782838053028869000,2.180869140625,-0.07485036606192588,-0.005033313425513915,0.0002864248591009527
1782838053038798300,2.19079833984375,-0.07410276256501674,0.002305536996014416,-0.006430370974214747
1782838053048727300,2.200727294921875,-0.07320610598623752,0.005414522162289359,-0.008582786068017594
1782838053058656300,2.21065625,-0.08068857069611549,0.0012422049137065187,-0.002834068081877194
1782838053068586200,2.220586181640625,-0.07694763060212134,0.0017448663393734023,0.0018687484473688526
1782838053078515200,2.23051513671875,-0.0835334387332201,-0.0018264528087573125,0.0033618639488006007
1782838053088444200,2.240444091796875,-0.0848795926451683,-0.003735884892963804,0.001451102990610525
1782838053098373000,2.250373046875,-0.07500467984080314,0.0005328784674173221,0.0014520985044538975
1782838053108303400,2.260303466796875,-0.08488134621083736,-0.005034117143112234,0.0008832947737071662
1782838053118232300,2.270232421875,-0.08907061459422111,-0.0032985620547784492,-0.0011382148162694648
1782838053128161300,2.280161376953125,-0.07216214989125729,-0.00026134065019432453,0.005911936590680852
1782838053138090200,2.29009033203125,-0.07695172225534916,-0.00024641250912100073,-0.0010813289633020758
1782838053148020200,2.300020263671875,-0.08383505202829837,-0.006992539468198083,-0.014888763477583415
1782838053157949200,2.30994921875,-0.07575403690338134,-0.0033693074697395786,-0.0021688867379911245
1782838053167878100,2.319878173828125,-0.08248656002879143,0.012729229089827276,-0.002357559444196522
1782838053177807400,2.329807373046875,-0.07889467301666736,0.009653474906296469,-0.0008552651224657893
1782838053187737300,2.3397373046875,-0.08802315136790274,-0.0012961224914528429,-0.0036407082896446805
1782838053197666000,2.349666015625,-0.08054127117991447,0.005648522714409045,-0.00182225155767519
1782838053207595300,2.35959521484375,-0.07665069348216057,0.007428181805950589,0.0017747774204472078
1782838053217524200,2.369524169921875,-0.07560264573395252,-0.0002481249755946919,0.002884688590839505
1782838053227454200,2.3794541015625,-0.08293488831818104,0.002757509414060041,0.005600687817577272
1782838053237383200,2.389383056640625,-0.07201134324371815,0.0032686829397454856,-0.0009296592326601967
1782838053247312400,2.3993125,-0.07979249863922595,0.005523087970144115,0.0020766966762021184
1782838053257241300,2.409241455078125,-0.07649871779084205,-0.006454948293045163,0.005786474446952343
1782838053267171000,2.419171142578125,-0.07335574358999729,-0.007109178984654136,-0.004225070349127054
1782838053277100300,2.429100341796875,-0.07649871779084205,-0.0015668291916139422,-0.003225268489704467
1782838053287029200,2.439029296875,-0.07919219465851783,-0.0016986799769336356,-0.0021515109115047377
1782838053296958200,2.448958251953125,-0.08427987318634986,0.004290258239558898,-0.004085123022319749
1782838053306888400,2.458888427734375,-0.0762000271052122,-0.00258066414296627,0.0052520068106474355
1782838053316817400,2.4688173828125,-0.07979016055166721,-0.004829301586281508,0.00209498581814114
1782838053326746000,2.47874609375,-0.07844342211782931,-0.00387057152276393,0.0035205662084277717
1782838053336675000,2.488675048828125,-0.0776946495771408,-0.0037065720335114744,-0.0014506052336888387
1782838053346605300,2.498605224609375,-0.0702139384329319,-0.0031842469261493533,0.008217003229237161
1782838053356534300,2.5085341796875,-0.07066285124421119,-0.0022617526532150802,0.004462897692993283
1782838053366463200,2.518463134765625,-0.0763484956651926,0.00004728234098292887,0.006551444637193344
1782838053376392400,2.528392333984375,-0.07679799299836158,0.003511697915382683,-0.0008475658732000738
1782838053386322200,2.538322265625,-0.0796428610354662,-0.004703615680267103,-0.006771033071470447
1782838053396251100,2.548251220703125,-0.08009235836863517,0.004950603578123264,-0.0039496235417667775
1782838053406180000,2.55818017578125,-0.07994330528676509,-0.0015113407112890853,-0.0011278623856138437
1782838053416109300,2.568109375,-0.07530512409210205,0.002011860412219539,-0.010445451834471896
1782838053426039300,2.578039306640625,-0.08189034770131111,-0.0011056733866920694,0.0018295854807598515
1782838053435968300,2.58796826171875,-0.08009469645619392,0.0010511484541697426,0.005612008362612686
1782838053445897200,2.597897216796875,-0.07336100428700447,0.0004985104069346562,-0.0002100168883334845
1782838053455826200,2.607826171875,-0.07276245387196541,-0.00628691194949206,0.006535383984958752
1782838053465756200,2.617756103515625,-0.08398527415394783,-0.0012070240024710072,-0.00011081713044550269
1782838053475685400,2.627685302734375,-0.08263912024199963,0.0021672519033309073,0.0011400551469065248
1782838053485614300,2.6376142578125,-0.07635434088408946,0.005313230912014842,-0.0029495476877084
1782838053495543300,2.647543212890625,-0.07425999895334243,0.0011518460494000463,-0.00762860431545414
1782838053505473000,2.65747314453125,-0.08189034770131111,-0.008574525129748508,-0.0007289718616753816
1782838053515402200,2.66740234375,-0.08174129461944103,-0.006790468424302525,0.002205734449927695
1782838053525331200,2.677331298828125,-0.07874854254424571,0.00805154243526049,-0.002901219600532204
1782838053535260200,2.68726025390625,-0.07949614604115486,0.007009796563675627,-0.0006373526220442726
1782838053545190400,2.6971904296875,-0.07695172225534916,0.007065111514064483,-0.005451835665106773
1782838053555119400,2.707119384765625,-0.08892214603424071,-0.0030396371239563447,0.0044529151550959795
1782838053565048300,2.71704833984375,-0.08188976317942143,-0.0012561284077819436,-0.000439030738081783
1782838053574977300,2.726977294921875,-0.08338613921701908,0.0016099376809783279,0.0010959922428941354
1782838053584907300,2.7369072265625,-0.08054244022369385,0.002737526071956381,-0.004728955617500469
1782838053594836200,2.746836181640625,-0.070666942897439,-0.003529265538114123,0.003729094392573461
1782838053604765200,2.75676513671875,-0.08323708613514899,-0.006369407167751342,-0.006313795389840379
1782838053614694400,2.7666943359375,-0.07725275102853775,-0.0010680904558161273,-0.005532271357020363
1782838053624624000,2.7766240234375,-0.08308920209705829,0.0014916039643576367,0.00007828483402263372
1782838053634553000,2.786552978515625,-0.08368775251209735,-0.0026682876274921,-0.0017973089126637205
1782838053644482000,2.79648193359375,-0.07845102090239524,0.0009369566231267526,0.006598484949581325
1782838053654411300,2.806411376953125,-0.08189327031075953,0.0020949766849866136,-0.0033495433233445508
1782838053664341200,2.81634130859375,-0.08024725666940212,0.0040924112796317785,-0.0019606462482130156
1782838053674270200,2.826270263671875,-0.07890051823556422,0.0005406233824556693,-0.000779295543115586
1782838053684199400,2.836199462890625,-0.07486088745594024,0.003077530582086183,0.0006748807539930567
1782838053694128400,2.84612841796875,-0.07710486699044704,-0.0035219087821431456,-0.0007618101187748834
1782838053704058400,2.856058349609375,-0.08877718460559844,-0.005449844637420028,-0.00215552493291907
1782838053713987600,2.865987548828125,-0.09147007695138454,0.0012214361203135922,-0.000807685953960754
1782838053723916500,2.87591650390625,-0.08533435067534446,-0.007414486640738323,-0.003218039597896859
1782838053733845500,2.885845458984375,-0.07860124302804469,0.0010346402773633598,-0.0038575202449457717
1782838053743774500,2.8957744140625,-0.07860241207182407,-0.0010890053796814754,-0.003922466106782667
1782838053753704400,2.905704345703125,-0.08159574866890906,-0.003302982501569204,-0.0035585783975664526
1782838053763633400,2.91563330078125,-0.07531213835477829,-0.0075820937260286875,-0.0021864543607225642
1782838053773562400,2.925562255859375,-0.08533727328479289,0.0009607895898632705,-0.0021581552814226596
1782838053783491600,2.93549169921875,-0.07935176913440227,0.0017217137926490975,-0.0009748089820612221
1782838053793421600,2.945421630859375,-0.07665770774483681,-0.009169390316936187,-0.006832823428418487
1782838053803350500,2.9553505859375,-0.07620937945544719,0.0011931553073227404,0.00031635420648381114
1782838053813279500,2.965279541015625,-0.08862930056750774,-0.0047659311936004084,-0.002553040917101316
1782838053823209500,2.97520947265625,-0.09117372435331345,0.0009617348713567479,-0.0012081245475914328
1782838053833138400,2.985138427734375,-0.08039981688261032,0.0067684986210893834,-0.0015430236243410035
1782838053843067400,2.9950673828125,-0.07740823385119437,-0.0002799814185826108,0.0008752530311467126
1782838053852996600,3.00499658203125,-0.07441548177599906,-0.009565006604976951,-0.00418403508584015
1782838053862925600,3.014925537109375,-0.0726186614871025,0.003996056499378756,-0.0014925309795420616
1782838053872855600,3.02485546875,-0.08174655531644821,0.0013376874777022748,-0.0014551215786021202
1782838053882784500,3.034784423828125,-0.08324176231026649,-0.00003012571020517498,0.004808162900130264
1782838053892713500,3.04471337890625,-0.06917524303495884,0.0025843128381995485,0.004673978593829088
1782838053902643500,3.0546435546875,-0.08114742037951946,0.0004575299425749108,0.0034281067185802385
1782838053912572400,3.064572509765625,-0.07561141356229782,-0.004290472868690267,0.0008988713687518611
1782838053922501600,3.074501708984375,-0.09012626112699508,-0.00042974231992848214,-0.002441748862620443
1782838053932430600,3.0844306640625,-0.0908750336676836,-0.0007231129430467263,-0.005681018478213809
1782838053942359600,3.094359619140625,-0.08159750223457812,-0.005498871410917491,-0.004921003024303354
1782838053952289500,3.10428955078125,-0.08264554998278617,-0.0022735115896677597,-0.0038579814692493524
1782838053962218500,3.114218505859375,-0.07815583734810352,-0.010278589101275428,0.0013252800872782244
1782838053972147500,3.1241474609375,-0.07620937945544719,-0.008880029148655011,-0.0036267208634875713
1782838053982077700,3.13407763671875,-0.07635901705920696,-0.002751938189798966,0.0029862310028634965
1782838053992006700,3.144006591796875,-0.07680851439237595,-0.0010179266045801342,0.0007543894307222217
1782838054001935400,3.153935302734375,-0.06887830591499805,-0.0003004807839170098,-0.003258677568961866
1782838054011864300,3.1638642578125,-0.07172025134265422,0.0004525295404717326,-0.004291815442405641
1782838054021794600,3.173794677734375,-0.07845452803373336,-0.008649211500887759,-0.0022080725374864414
1782838054031723500,3.1837236328125,-0.07591127329170703,0.0012884004093008114,-0.00614425664236769
1782838054041652500,3.193652587890625,-0.07202069559395313,0.00407529118147213,-0.00859172285972163
1782838054051581400,3.20358154296875,-0.08324410039782523,-0.0006383344361558556,-0.009494526051497086
1782838054061511400,3.213511474609375,-0.07576222020983696,-0.004376260589156299,-0.009472095023980364
1782838054071440400,3.2234404296875,-0.08503916712105274,-0.01022420573264826,-0.018278620545007288
1782838054081369300,3.233369384765625,-0.08129822702705859,0.0016786327027482912,-0.018309166380320676
1782838054091298600,3.243298583984375,-0.07366612471342086,-0.0034454049132531506,-0.005419321634992957
1782838054101228500,3.253228515625,-0.08010171071887016,-0.00128271958718542,-0.008956231623445637
1782838054111157500,3.263157470703125,-0.08219663717150688,-0.0026667806569952517,-0.004079611163563095
1782838054121086700,3.273086669921875,-0.08623626795113086,-0.005039985194895416,-0.0009660457202931865
1782838054131015400,3.283015380859375,-0.0786053346812725,0.003510944430134259,0.006292569938721135
1782838054140945400,3.2929453125,-0.0648375060915947,-0.004654899434023536,-0.00001831197482533753
1782838054150874600,3.30287451171875,-0.07695698295235634,0.0046333223564550274,-0.0031088344692252576
1782838054160803600,3.312803466796875,-0.08967617927193641,-0.002330662304116413,-0.007476331796613522
1782838054170732500,3.322732666015625,-0.08668167363107204,0.003881102049932815,0.0008925649255514145
1782838054180662300,3.332662353515625,-0.08024608762562274,-0.00083302589119412,-0.004457317335577682
1782838054190591500,3.342591552734375,-0.07455927416086197,-0.0048663867602357636,-0.012014098523836583
1782838054200520400,3.3525205078125,-0.07725333555042743,-0.0018008525766199453,-0.009012701917882077
1782838054210449400,3.362449462890625,-0.08309095566272735,0.0065244926981860765,0.0019729394742054865
1782838054220379600,3.372379638671875,-0.08309095566272735,-0.00512757214680314,-0.004143935970892198
1782838054230308600,3.38230859375,-0.08159341058135032,-0.0049213181181345135,-0.008703019480779766
1782838054240237600,3.392237548828125,-0.0808446380406618,-0.003491783071937971,-0.005080353737901896
1782838054250166500,3.40216650390625,-0.08189268578886985,-0.004439242822770029,-0.006493339508096687
1782838054260096500,3.412096435546875,-0.08054536283314227,-0.010206976036634296,-0.0008482508597895503
1782838054270025500,3.422025390625,-0.08982230974435806,-0.009146370200952514,-0.00416212464813143
1782838054279954400,3.431954345703125,-0.08623100725412368,-0.0025682704522740096,-0.003853127197618596
1782838054289883600,3.441883544921875,-0.08278992688953876,-0.002227188229910098,-0.008963314384780824
1782838054299813600,3.451813720703125,-0.07860007398426533,-0.0041488861406454814,-0.009846590892178937
1782838054309742300,3.461742431640625,-0.07800093904733657,-0.002542565188859589,0.0007656095110578462
1782838054319671300,3.47167138671875,-0.09191782071888446,0.005767788012791424,-0.0008579959356691687
1782838054329600500,3.4816005859375,-0.0833890618264675,-0.00020338621814735232,-0.004117189527861774
1782838054339530500,3.491530517578125,-0.07725392007231711,-0.0001625290513737127,-0.00796097350839991
1782838054349459500,3.50145947265625,-0.08159282605946064,-0.0013581000780686736,-0.0024834873788058755
1782838054359388700,3.511388671875,-0.09042202920317649,0.0005340566443512216,0.0026113104429794473
1782838054369317600,3.521317626953125,-0.0820429079145193,-0.00019393796978984027,0.0004805865911766886
1782838054379247400,3.531247314453125,-0.08817746514678002,-0.005878340281755663,-0.007085629145707935
1782838054389176600,3.541176513671875,-0.08204115434885025,-0.0027018930695718152,-0.006294209339958615
1782838054399105500,3.55110546875,-0.07455927416086197,0.0007820491892052814,-0.008632516094413586
1782838054409034500,3.561034423828125,-0.07844926733672618,-0.0023862466825637966,0.004202136998111382
1782838054418964500,3.570964599609375,-0.09595628245472908,-0.009455016025016083,-0.0009819511089008302
1782838054428893400,3.5808935546875,-0.07859832041859627,-0.008506350697786547,-0.009140995339513756
1782838054438822400,3.590822509765625,-0.08413374271392822,-0.006005455526453442,-0.005336872082506306
1782838054448751400,3.60075146484375,-0.07919687083363533,-0.008057858011615461,-0.010871755521721206
1782838054458681600,3.610681640625,-0.08024433405995368,-0.011243570809066294,-0.004258269365830346
1782838054468610600,3.620610595703125,-0.08383563655018805,-0.0015810723460977895,0.002100831037038006
1782838054478539500,3.63053955078125,-0.07680325369536876,-0.00088745492559392,0.0011511016973061487
1782838054488468500,3.640468505859375,-0.07755377980172634,-0.0015401329809334129,-0.0008768193671479821
1782838054498398500,3.6503984375,-0.07875146515369415,0.0022987099630059674,-0.003298785817064345
1782838054508327400,3.660327392578125,-0.07800269261300563,-0.004136830376670696,0.0009501311985310166
1782838054518256400,3.67025634765625,-0.06737842274606227,0.0008419444165891036,-0.0014391339916037394
1782838054528185600,3.680185546875,-0.07201660394072532,-0.00017417382339481263,-0.006506660213973373
1782838054538115600,3.690115478515625,-0.07381225518584252,-0.0021929891327861694,-0.005503141160658561
1782838054548044500,3.70004443359375,-0.08727963952422141,-0.00442774418122135,-0.0057101304082665585
1782838054557973500,3.709973388671875,-0.0802478411912918,-0.0012440315446117893,-0.002810047885472886
1782838054567902500,3.71990234375,-0.07830255234241486,0.0018297590106958522,0.006243406167905777
1782838054577832400,3.72983251953125,-0.08832944083809852,-0.0017327375101624056,-0.006238369233184494
1782838054587761400,3.739761474609375,-0.09192191237211227,-0.005522969239135272,-0.007236787419696338
1782838054597690600,3.749690673828125,-0.07980185098946094,-0.002365756450383924,-0.0005438336862716824
1782838054607619600,3.75961962890625,-0.08354279108345508,0.002535756422160193,-0.003576369782583788
1782838054617549300,3.76954931640625,-0.07426467512845993,-0.0028247796637238935,-0.006022178332391195
1782838054627478500,3.779478515625,-0.07471183437407017,0.0002877856991253793,-0.011165359040279873
1782838054637407500,3.789407470703125,-0.07471183437407017,-0.007274767642794176,-0.010307623399514704
1782838054647336400,3.79933642578125,-0.07590951972603797,-0.007607753323670476,-0.0026367051791399716
1782838054657266400,3.809266357421875,-0.07740589576363563,-0.007039808109449222,-0.004283180044800974
1782838054667195600,3.819195556640625,-0.07875204967558383,-0.0010360056839650495,-0.006312745077069849
1782838054677124600,3.82912451171875,-0.0745621967703104,-0.002944063228415325,-0.0048860047761583696
1782838054687054300,3.839054443359375,-0.07306582073271274,0.0006394623807398603,0.004380525772320106
1782838054696983600,3.848983642578125,-0.07710545151233672,-0.006961701371939852,-0.0034170830010669304
1782838054706912500,3.85891259765625,-0.08787818993926048,-0.004733914920408279,-0.001160321616800502
1782838054716841500,3.868841552734375,-0.08234101407825946,-0.004689445591019466,-0.001134132296196185
1782838054726771500,3.878771484375,-0.08877543103992938,-0.004818602095753886,-0.0005674246244132519
1782838054736700400,3.888700439453125,-0.07949965317249298,0.0009055431381333619,-0.00778851215147879
1782838054746629400,3.89862939453125,-0.08204349243640899,-0.0050417478937190025,-0.0066971001855796195
1782838054756558300,3.908558349609375,-0.08024667214751244,0.003242342922091484,-0.0022035972917685285
1782838054766488600,3.918488525390625,-0.08174304818511009,-0.006402199759078212,-0.0015049064039252698
1782838054776417500,3.92841748046875,-0.07246551675200462,-0.0011856432877248152,-0.0061514627012889825
1782838054786346500,3.938346435546875,-0.0756079064309597,0.0010830551295075565,0.0034687538227997717
1782838054796275500,3.948275390625,-0.06707914753854274,-0.0016845509868813678,-0.006560755888232961
1782838054806205400,3.958205322265625,-0.08099602921009064,-0.000852178116235882,0.002652893695537932
1782838054816134400,3.968134521484375,-0.0789016872793436,-0.0008661335763521492,0.0003078558061970398
1782838054826063400,3.9780634765625,-0.07471183437407017,-0.00013156309095211326,-0.0070439454284496605
1782838054835992300,3.987992431640625,-0.08174421722888946,-0.0004694076100364327,-0.016058108651055954
1782838054845922600,3.997922607421875,-0.0667804568529129,-0.006508363547292537,-0.0011251407055649905
1782838054855851500,4.0078515625,-0.07919979344308375,-0.005254153101961128,0.00007211538814008235
1782838054865780500,4.017780517578125,-0.08383972820341587,0.004543712410819717,-0.012177600256167351
1782838054875709400,4.02770947265625,-0.0763572634935379,0.0022668991857906803,-0.005517635476891883
1782838054885639400,4.037639404296875,-0.0886263779580593,-0.004176089241402224,-0.003908743542106822
1782838054895568400,4.047568359375,-0.08069500043690205,-0.0029357292249100283,-0.0030795901084318756
1782838054905497600,4.05749755859375,-0.08159282605946064,-0.004628947575436905,-0.000927156748319976
1782838054915426600,4.067426513671875,-0.07470832724273205,-0.0077864708914421495,-0.000019946809485554693
1782838054925356300,4.077356201171875,-0.08563187231719493,-0.006859432874131016,0.0029789975444786247
1782838054935285500,4.087285400390625,-0.07530746217966079,0.00035285485854838044,0.0032196378999389706
1782838054945214500,4.09721435546875,-0.07800093904733657,-0.002345024189609103,0.008213395633199252
1782838054955143400,4.107143310546875,-0.07815057665109634,0.004317767300992273,-0.0016558089495869353
1782838054965073400,4.117073486328125,-0.07979600577056407,0.006014515615743584,-0.01245075007516425
1782838054975002600,4.127002685546875,-0.07829846068918704,-0.0028062439266126602,0.0022775119113503024
1782838054984931600,4.136931640625,-0.08263795119822025,-0.00409140663263388,0.0019757068200269715
1782838054994860300,4.1468603515625,-0.06931961994171142,-0.009803875128459184,0.003758398118871264
1782838055004790500,4.15679052734375,-0.07695055321156978,-0.002388096146355383,-0.0008534658910240978
1782838055014719500,4.166719482421875,-0.07784954787790775,0.0037656544101424515,0.004971929493942298
1782838055024648400,4.1766484375,-0.08563128779530525,0.001368539273692295,-0.0006926630058558658
1782838055034577400,4.186577392578125,-0.08892389959990978,-0.002902731137606315,0.004129902878962457
1782838055044507400,4.19650732421875,-0.08039455618560314,-0.00022543365317396818,-0.0033718693195842206
1782838055054436400,4.206436279296875,-0.08413374271392822,-0.005087957089045084,-0.0007584810839500278
1782838055064365300,4.216365234375,-0.08218845386505126,-0.005140244398708455,0.0014474360290681943
1782838055074294500,4.22629443359375,-0.07919687083363533,0.004733695724699646,-0.0053849946737056596
1782838055084224500,4.236224609375,-0.0721656570225954,-0.005095409743138588,-0.004964303309912793
1782838055094153500,4.246153564453125,-0.08533435067534446,-0.0020582705369452015,-0.015830167946964502
1782838055104082400,4.25608251953125,-0.0712684159219265,0.004129816113994457,-0.0141296111067757
1782838055114012400,4.266012451171875,-0.07216507250070571,0.0019431516907177865,-0.0008822764269774779
1782838055123941400,4.27594140625,-0.07934826200306415,0.003885536196455359,-0.009696966988150962
1782838055133870300,4.285870361328125,-0.07471008080840111,-0.004699473794689402,-0.0034307005344657226
1782838055143799600,4.295799560546875,-0.08249065168201923,-0.005443373797438107,-0.005414586094371043
1782838055153729500,4.3057294921875,-0.08787760541737079,-0.0032100891868816687,0.001159056674898602
1782838055163658500,4.315658447265625,-0.07665536965727805,0.003023202012386173,-0.0015026733476435764
1782838055173587500,4.32558740234375,-0.08862520891427993,0.0035344668696168807,-0.008318289912934415
1782838055183516400,4.335516357421875,-0.07635492540597916,-0.003921726321266032,-0.008746050338330678
1782838055193446400,4.3454462890625,-0.07665478513538837,0.0016713627117453142,-0.006999951023096218
1782838055203375400,4.355375244140625,-0.07605681924223899,-0.005977425875212066,-0.003771344365412369
1782838055213304600,4.3653046875,-0.07770400192737578,0.005254080036724917,0.0016720431317575274
1782838055223233500,4.375233642578125,-0.07994973502755165,-0.0025877469043014568,-0.008680350991245358
1782838055233163300,4.385163330078125,-0.08069616948068141,-0.003018521270691417,-0.0062934695544419805
1782838055243092500,4.395092529296875,-0.08174363270699977,-0.008676145173585973,-0.005271889688051305
1782838055253021400,4.405021484375,-0.07860124302804469,-0.008286200574506073,-0.004716356430831365
1782838055262950400,4.414950439453125,-0.07426233704090118,-0.0036120256178546694,0.008291411039163359
1782838055272880600,4.424880615234375,-0.09012333851754664,-0.005741059836070053,-0.0026000264305621385
1782838055282809600,4.4348095703125,-0.07889993371367454,-0.0033514521526405586,0.0016758151245769113
1782838055292738600,4.444738525390625,-0.07680383821725845,-0.0023828765485435725,-0.0013394638762576506
1782838055302667300,4.454667236328125,-0.07859890494048595,-0.00421228393279016,-0.012540405686572194
1782838055312597500,4.464597412109375,-0.07545768430531025,-0.00879066123161465,-0.01156658765177708
1782838055322526500,4.4745263671875,-0.08039572522938251,-0.010594358785869553,0.008310517598432487
1782838055332455400,4.484455322265625,-0.0848842688202858,-0.006929470469616353,-0.004868852711957879
1782838055342384400,4.49438427734375,-0.08503332190215587,-0.009012071730219758,-0.006054847626131959
1782838055352314400,4.504314453125,-0.07261398531198501,-0.0002072495425119996,-0.0039543362495023755
1782838055362243300,4.514243408203125,-0.0913192703038454,-0.0037549457864603027,-0.0014290920882020146
1782838055372172300,4.52417236328125,-0.0787491270661354,0.008630557032767683,-0.0009355866499477997
1782838055382102500,4.5341025390625,-0.07680383821725845,0.0012869984700810163,0.003829033935978077
1782838055392031500,4.544031494140625,-0.07710311342477798,-0.005569867987628095,-0.008576730786566622
1782838055401960400,4.55396044921875,-0.07396189278960227,-0.005029614497930743,-0.008097171675274148
1782838055411889700,4.5638896484375,-0.07934943104684353,-0.008162592461146414,-0.002608004241040908
1782838055421819400,4.5738193359375,-0.07650631657540798,-0.004164019777695648,-0.004774607690400444
1782838055431748400,4.583748291015625,-0.08144552654325962,-0.006066515231039375,-0.005785200371895917
1782838055441677600,4.593677490234375,-0.07755319527983665,-0.005607149524404667,-0.011776449276483617
1782838055451606500,4.6036064453125,-0.07381167066395282,-0.005032057616766542,-0.00031212098936084654
1782838055461536500,4.61353662109375,-0.07845043638050556,-0.002381917567318305,0.0026210783517453817
1782838055471465500,4.623465576171875,-0.07874971158802509,-0.0039711914861807595,0.00048306624263059345
1782838055481394400,4.63339453125,-0.07605681924223899,-0.012285919468849897,-0.0016566126671852543
1782838055491323400,4.643323486328125,-0.07949906865060329,-0.005953821237338707,0.000060762877063825726
1782838055501253400,4.65325341796875,-0.0754594378709793,-0.0032152631189208475,-0.002533550765342079
1782838055511182600,4.6631826171875,-0.08339081539213657,0.0037480091555975375,-0.003192964522144757
1782838055521111600,4.673111572265625,-0.09371581005156039,-0.002910622183117084,0.004082328277034685
1782838055531040500,4.68304052734375,-0.0759083506822586,0.013648307562968693,-0.005153300243103876
1782838055540970500,4.692970458984375,-0.07560907547473907,-0.00012331128583755344,-0.007955132856080308
1782838055550899500,4.7028994140625,-0.08413958793282508,-0.007295111744501628,-0.006393957087118179
1782838055560828400,4.712828369140625,-0.08024959475696086,0.000998281189193949,0.0008732802697690203
1782838055570757400,4.72275732421875,-0.08818038775622844,-0.00536044018776156,-0.0031571579898241903
1782838055580687600,4.7326875,-0.08129822702705859,0.0046667497020214796,-0.004155923236208036
1782838055590616600,4.742616455078125,-0.08219663717150688,0.007006412729923613,-0.005088632942480035
1782838055600545300,4.752545166015625,-0.0811497584670782,-0.004931821245839819,-0.0060094832475995645
1782838055610474200,4.76247412109375,-0.0717214203864336,-0.005760102463257499,-0.002127107122610323
1782838055620404500,4.772404541015625,-0.0769581519961357,-0.0014816807919647544,-0.0022929926082724704
1782838055630333400,4.78233349609375,-0.07770634001493454,-0.002173558346531354,-0.006405551626789383
1782838055640262400,4.792262451171875,-0.0800999571532011,-0.002110749642853625,-0.00608879099492915
1782838055650191600,4.802191650390625,-0.0769587365180254,0.00625712416600436,-0.005998185535450466
1782838055660121300,4.812121337890625,-0.08279460306465625,-0.0016367937218630686,-0.00628040001031477
1782838055670050300,4.82205029296875,-0.07995207311511039,-0.0006995905035641044,0.0053810582841048015
1782838055679979500,4.8319794921875,-0.08040157044827938,0.0014913573691854253,-0.004181135309278034
1782838055689909500,4.841909423828125,-0.07665887678861617,-0.0001937553066993132,-0.009679308033874259
1782838055699838700,4.851838623046875,-0.0830932937502861,-0.010981590838055126,-0.0003252361992606893
1782838055709767700,4.861767578125,-0.08174597079455852,-0.0047980844641104334,-0.0044439326976193115
1782838055719696600,4.871696533203125,-0.08129647346138953,0.00008966931113973259,-0.004353888927143998
1782838055729626600,4.881626708984375,-0.08189443935453891,0.0011548234577756374,-0.0028593395204516126
1782838055739555600,4.8915556640625,-0.08518529759347439,-0.004076834684587084,-0.007821482839318923
1782838055749484500,4.901484619140625,-0.07920096248686313,0.0027364483597222713,-0.01490904364720918
1782838055759413500,4.91141357421875,-0.07949906865060329,0.001045828391658142,-0.007026213408936746
1782838055769343500,4.921343505859375,-0.07381342422962188,-0.0013894359312485902,-0.013008991312701255
1782838055779272400,4.9312724609375,-0.07875204967558383,-0.005422961197071708,-0.0007102123622782527
1782838055789201400,4.941201416015625,-0.07725567363798617,-0.0006577241232153028,-0.009973550873249769
1782838055799130600,4.951130615234375,-0.08518646663725375,-0.003178630036115646,-0.0007841635144781321
1782838055809060600,4.961060546875,-0.08368833703398704,0.003241214977507479,0.003911698117596097
1782838055818989600,4.970989501953125,-0.08832651822865009,-0.0013524009896442293,0.002824765963992104
1782838055828918800,4.980918701171875,-0.08772738329172133,0.0027350601202342658,-0.002562986922380514
1782838055838847700,4.99084765625,-0.08308861757516861,-0.012128066592593677,0.0009979569622082635
1782838055848777500,5.000777587890625,-0.09101941057443619,0.004159576498018578,0.0028317893598228693
1782838055858706400,5.01070654296875,-0.09086801940500736,-0.0011076963804196565,-0.0048977774123428386
1782838055868635600,5.0206357421875,-0.08503156833648681,-0.0059533645796123885,-0.0009192794025409966
1782838055878565600,5.030565673828125,-0.08368424538075923,-0.0011289355312706902,-0.007081893685506656
1782838055888494600,5.04049462890625,-0.08158931892812252,-0.0006482347756624221,-0.006782202919456176
1782838055898423600,5.050423583984375,-0.08413374271392822,0.0009177267662715166,0.00016930585203226654
1782838055908352500,5.0603525390625,-0.07635200279653072,0.006081548403389751,-0.002261099632666446
1782838055918282500,5.070282470703125,-0.08024316501617432,0.0008452323522185907,-0.0030780694382032377
1782838055928211700,5.080211669921875,-0.08742635451853274,-0.009572683021356351,-0.001033220071834512
1782838055938140700,5.090140625,-0.07515665553212166,0.0042858195264590905,-0.006735546199558302
1782838055948069600,5.100069580078125,-0.07979659029245376,-0.0021746086593018845,-0.0028682854453101754
1782838055957999400,5.109999267578125,-0.07291267599761486,-0.004409231276996433,-0.0006745884930482134
1782838055967928600,5.119928466796875,-0.07366086401641368,-0.0004646857691463083,-0.003222108418238349
1782838055977857500,5.129857421875,-0.070666942897439,0.004193707096483558,-0.006288683781470171
1782838055987786500,5.139786376953125,-0.07455693607330321,0.0018053323889151214,-0.006661398684536106
1782838055997716700,5.149716796875,-0.08488193073272704,-0.0006956860800040886,-0.0046133846801239995
1782838056007645700,5.159645751953125,-0.0895201119273901,-0.00734306080576498,-0.005234941511414945
1782838056017574700,5.16957470703125,-0.0827881733238697,0.00033960721790790555,-0.009438672244991175
1782838056027503600,5.179503662109375,-0.07216448797881603,-0.00041079102428629994,-0.005523115369607694
1782838056037433600,5.18943359375,-0.07321312024891376,-0.005865759361395612,0.007539391662040725
1782838056047362600,5.199362548828125,-0.07830138329863548,-0.006094627080671489,0.008362713576550595
1782838056057291500,5.20929150390625,-0.07620645684599876,-0.004660904483124614,-0.004364611250557936
1782838056067221800,5.2192216796875,-0.07366086401641368,-0.0004851623015943914,-0.003533498755237087
1782838056077150500,5.229150390625,-0.08787585185170173,0.0005000950092449784,-0.005167739760410041
1782838056087079400,5.239079345703125,-0.0754553462177515,-0.0030674612792208787,-0.007248742718971334
1782838056097008400,5.24900830078125,-0.07964519912302494,0.0001631912050768733,-0.004639181275083683
1782838056106938600,5.258938720703125,-0.08323825517892837,-0.0002546780139673501,-0.005601655931957066
1782838056116867600,5.26886767578125,-0.08518412854969501,-0.00022614603922702371,-0.000949674540804699
1782838056126796500,5.278796630859375,-0.079050155839324,0.0011997311785817146,-0.006108208081452175
1782838056136725800,5.288725830078125,-0.07994915050566195,-0.002167019007890485,0.0018607660703128203
1782838056146655500,5.298655517578125,-0.07815466830432415,-0.004191994630009867,-0.00037575624352321026
1782838056156584400,5.30858447265625,-0.08653320507109165,-0.008069927475322038,-0.010092126618465407
1782838056166513700,5.318513671875,-0.07022329078316689,-0.010153227422246709,-0.008031609325506724
1782838056176440600,5.328440673828125,-0.07695639843046664,-0.004132884853915311,-0.001882370547344908
1782838056186369500,5.33836962890625,-0.07905132488310336,-0.004084428902575746,-0.0035441662797238674
1782838056196299500,5.348299560546875,-0.08518705115914345,0.0014432667440269142,-0.012265648432378656
1782838056206228500,5.358228515625,-0.0823439366877079,-0.0012219932427396996,-0.005697449023206718
1782838056216157700,5.36815771484375,-0.07875321871936321,-0.007680393868195824,-0.010638745916867628
1782838056226086700,5.378086669921875,-0.07890344084501266,-0.007744234618335031,-0.007003686483297497
1782838056236016400,5.388016357421875,-0.08159633319079876,-0.0015904109966009853,0.003666952409176156
1782838056245945600,5.397945556640625,-0.07860416563749313,-0.0032597781140822914,0.0029985242288559674
1782838056255874600,5.40787451171875,-0.0705231505125761,-0.005336757918074727,0.0011135735653573647
1782838056265803500,5.417803466796875,-0.08234452120959758,-0.005508808283042162,-0.005490441509289666
1782838056275733500,5.4277333984375,-0.07740706480741501,-0.0021637356388382613,-0.001133903967333026
1782838056285662700,5.437662841796875,-0.07770692453682422,-0.0006482393422396853,-0.0010790045754751189
1782838056295591700,5.447591796875,-0.08234627477526664,-0.0037378941869596017,-0.002548643303196877
1782838056305521400,5.457521484375,-0.07860650372505187,-0.0010008887048112227,0.0007842685457551852
1782838056315450600,5.46745068359375,-0.08414367958605289,-0.009745468605263157,0.0015340959657914935
1782838056325379600,5.477379638671875,-0.07321954998970032,-0.0033792489084415135,-0.003562533053476363
1782838056335308500,5.48730859375,-0.08384381985664367,-0.00045357985324226315,-0.007937113142199814
1782838056345238800,5.49723876953125,-0.0838426508128643,-0.001381330256606452,-0.007638682751473971
1782838056355167700,5.507167724609375,-0.0777080935806036,-0.0012397709280252457,-0.0045655132506741206
1782838056365096400,5.517096435546875,-0.08055062353014945,-0.0007620658471016213,-0.0055187679880531505
1782838056375025400,5.527025390625,-0.08144844915270805,0.0018032180636422708,-0.001913222343334928
1782838056384955600,5.53695556640625,-0.07621113302111625,-0.009408363871695474,-0.004332042421516962
1782838056394884600,5.546884521484375,-0.07905541653633118,-0.007281466811639256,-0.00519607537232805
1782838056404813600,5.5568134765625,-0.0811497584670782,0.0017386329614091664,-0.008333272852934897
1782838056414742500,5.566742431640625,-0.08204699956774711,-0.0008638183216797187,0.0002000526167452335
1782838056424672500,5.576672607421875,-0.08399111937284469,-0.009675641072331927,-0.010891222840594126
1782838056434601500,5.5866015625,-0.08114742037951946,0.005190869474248029,-0.012110800363961607
1782838056444530400,5.596530517578125,-0.08159633319079876,-0.004704830389819108,-0.0016604988244362175
1782838056454459600,5.606459716796875,-0.0700742377012968,-0.005333173154923133,-0.007981792534142731
1782838056464389600,5.6163896484375,-0.08518822020292281,-0.0014059715075185521,-0.006970469200285151
1782838056474318600,5.626318603515625,-0.08668401171863079,0.00536422131373547,-0.0033904233230045064
1782838056484247800,5.636247802734375,-0.08339139991402626,0.0020987943435786293,0.0035510481116594744
1782838056494177500,5.646177490234375,-0.07800561522245407,-0.009529990090522914,-0.0034357420357642695
1782838056504106500,5.6561064453125,-0.08832944083809852,-0.002566681283386424,-0.005432674306910485
1782838056514035500,5.666035400390625,-0.08728139308989047,-0.003940682183485478,0.0032658059960696843
1782838056523964700,5.675964599609375,-0.07680676082670689,-0.002236380749940872,-0.006364132771012373
1782838056533894700,5.685894775390625,-0.07156944469511509,-0.0037225870199734342,-0.004139807785046286
1782838056543823400,5.6958232421875,-0.07171908229887484,-0.003116045094723813,-0.007560073690465651
1782838056553752600,5.705752685546875,-0.08339139991402626,0.00759144150968641,-0.0017031734889606013
1782838056563681500,5.715681640625,-0.0809977827757597,0.001801158537296578,0.0053673402860062195
1782838056573611500,5.725611572265625,-0.0808487296938896,-0.005857471023662947,0.0010492944238008931
1782838056583540700,5.735540771484375,-0.07725684268176555,-0.0042214810193981975,-0.00465974913907703
1782838056593469700,5.7454697265625,-0.0814461110651493,-0.002922655114205554,-0.004502416852628812
1782838056603398700,5.755398681640625,-0.06962415584623813,0.003702028289134614,-0.0019248762485105544
1782838056613328600,5.76532861328125,-0.07037234386503696,-0.0030566658905707297,-0.00012774543236009775
1782838056623257600,5.775257568359375,-0.08578501705229281,-0.003853309860709123,-0.006637460686522535
1782838056633186600,5.7851865234375,-0.08309212470650672,-0.0022944173803785815,0.003235999946272932
1782838056643115500,5.795115478515625,-0.08025017927885054,0.006335682994662784,-0.010755960822058841
1782838056653045800,5.805045654296875,-0.06513619677722454,-0.0037494887266308068,-0.019766676278831437
1782838056662974700,5.814974609375,-0.07875380324125289,-0.005919544508401304,0.0032533027075231074
1782838056672903400,5.8249033203125,-0.08488894499540328,0.003863895186805166,-0.008456173146818765
1782838056682833700,5.834833740234375,-0.08114858942329883,-0.005226319813542068,-0.0022935451641213148
1782838056692762600,5.8447626953125,-0.08219722169339656,-0.006060405150661244,-0.0009408245140686631
1782838056702690800,5.85469091796875,-0.07291969026029109,0.00177296905585099,-0.0035973440719535574
1782838056712620000,5.8646201171875,-0.07905483201444148,0.003535138156474568,-0.002966033031628467
1782838056722550000,5.874550048828125,-0.09102584031522273,0.0032050568187376484,-0.004805496019008569
1782838056732479000,5.88447900390625,-0.08459142335355281,-0.002739138073730282,0.0055297460397938265
1782838056742408000,5.894407958984375,-0.07277063717842101,0.0028978631662437693,0.0031581124044721943
1782838056752337000,5.9043369140625,-0.07501578575670718,-0.0036869722838979214,-0.006564052957016974
1782838056762267000,5.914266845703125,-0.07322013451159,-0.0031323112429352475,-0.007919746448867953
1782838056772196000,5.924196044921875,-0.08444237027168273,0.0039582680725259705,-0.004158494219207205
1782838056782125000,5.934125,-0.07950374482572078,0.0004536346521694213,0.003082215890358202
1782838056792054000,5.944053955078125,-0.07890519441068172,-0.006700543384836055,-0.008263760413834824
1782838056801986800,5.95398681640625,-0.08144903367459773,0.002815436446643434,-0.000904095533140935
1782838056811915800,5.963915771484375,-0.08668693432807922,-0.008471955237840301,0.007134222094365395
1782838056821846000,5.973845947265625,-0.07576397377550602,0.002072107266052626,-0.0030662283033598215
1782838056831775000,5.98377490234375,-0.08010346428453922,0.0020142304658191277,0.0032228208042914047
1782838056841704000,5.993703857421875,-0.08040215497016906,-0.0003317527050152421,-0.006829964751051738
1782838056851634000,6.003634033203125,-0.07695990556180476,0.005380076469993218,0.003175159437395632
1782838056861563000,6.01356298828125,-0.07995148859322071,0.0010860736370785161,-0.005873572775092907
1782838056871491800,6.023491943359375,-0.07950199126005172,0.0030974225926445795,-0.0046941811316413805
1782838056881420800,6.0334208984375,-0.07037351290881633,0.0038450397892855104,0.00021521365325897931
1782838056891351000,6.04335107421875,-0.07635784801542758,0.004278179642697796,-0.008744424636824987
1782838056901280000,6.053280029296875,-0.08608487678170204,-0.0002450105699012056,-0.007885561051475814
1782838056911209000,6.063208984375,-0.08084756065011024,-0.003838212756277062,-0.004313442752324045
1782838056921138200,6.07313818359375,-0.07590951972603797,-0.006197941324673593,-0.0050613476433325555
1782838056931068000,6.08306787109375,-0.07456278129220008,0.0013179826968116686,0.0014274070211919023
1782838056940996900,6.092996826171875,-0.07875321871936321,0.004366784941335209,0.007980166832637041
1782838056950926000,6.102926025390625,-0.09251929374337196,-0.0032386622608173636,-0.001982707382971421
1782838056960855000,6.11285498046875,-0.07785480857491493,-0.0012230937878601252,-0.006793071373342536
1782838056970785000,6.122784912109375,-0.08294248710274696,0.005536271678702905,-0.004821227877680212
1782838056980713700,6.132713623046875,-0.08832827179431915,-0.004088662119698711,-0.0033830574338790027
1782838056990643000,6.142642822265625,-0.08443710957467555,-0.0035922477717278524,-0.002735480245342478
1782838057000572000,6.152572021484375,-0.0886263779580593,0.001345194930722937,-0.005228228642838076
1782838057010502000,6.162501953125,-0.08189327031075953,-0.0010870097854174673,-0.008582397908950224
1782838057020431000,6.17243115234375,-0.07650690109729766,-0.006265010644937865,-0.005960191612620838
1782838057030360000,6.182360107421875,-0.07067220359444618,-0.0017946465981192885,-0.009766913252091034
1782838057040289800,6.192289794921875,-0.07381517779529094,-0.000791250842390582,0.00043494365143124014
1782838057050219000,6.202218994140625,-0.08773030590116977,-0.00447366111560259,-0.002219584878766909
1782838057060148000,6.21214794921875,-0.07740472671985625,-0.011011748514301143,-0.0007449046497466042
1782838057070077000,6.222076904296875,-0.08802841206490992,-0.0072843437553150574,-0.0025559498268179592
1782838057080007000,6.2320068359375,-0.07456044320464134,-0.006433818740048445,-0.004468706379272044
1782838057089936100,6.24193603515625,-0.07575695951282978,-0.0006167299591237679,-0.010517480457643977
1782838057099864800,6.25186474609375,-0.08413724984526634,-0.006768366190348751,-0.002118106398824602
1782838057109793800,6.261793701171875,-0.08204232339262962,-0.0034357146363006904,-0.00596856214874424
1782838057119724000,6.27172412109375,-0.08653262054920197,-0.005821121068648062,-0.006465757381427102
1782838057129653000,6.281653076171875,-0.07800386165678501,-0.005152318428992293,0.0013093472992070018
1782838057139582000,6.29158203125,-0.08339023087024688,0.00151304404460825,0.01104335836211685
1782838057149512000,6.301511962890625,-0.07560907547473907,-0.008474156328081153,0.0092634024430532
1782838057159441000,6.31144091796875,-0.08189327031075953,-0.002328981803683564,-0.0049805146591970694
1782838057169369900,6.321369873046875,-0.08757949925363064,0.001627021246519871,0.003496609944105148
1782838057179298800,6.331298828125,-0.07740531124174595,0.0025512690851232037,-0.0034200558428652585
1782838057189229000,6.34122900390625,-0.0814461110651493,0.0026383445803774518,-0.003980799564742483
1782838057199158000,6.351157958984375,-0.07770517097115516,0.00632443551486358,0.0009642601885832846
1782838057209087000,6.3610869140625,-0.07381459327340126,-0.0030934542370028794,0.0020781625475035977
1782838057219016000,6.371015869140625,-0.08114683585762977,-0.003749082301254384,-0.0015787205588072538
1782838057228946000,6.38094580078125,-0.07680617630481719,0.006825886797555722,-0.002635312373074703
1782838057238875000,6.390875,-0.08129413537383079,-0.006196927544521167,-0.0036270724899368357
1782838057248803800,6.400803955078125,-0.07725275102853775,0.000510643802722916,-0.0015228758854558691
1782838057258733000,6.410733154296875,-0.08458440909087657,-0.00416077294126153,-0.003859059181483462
1782838057268663000,6.4206630859375,-0.08278875784575938,-0.009123290719464421,0.006649881776678375
1782838057278591700,6.430591796875,-0.06797521959543228,-0.004651319237449206,-0.0003709019718924537
1782838057288521000,6.44052099609375,-0.08458499361276627,0.005149893576465547,-0.0010513356838375329
1782838057298451000,6.450450927734375,-0.08084405351877212,-0.0040898539963644,-0.007341503602918237
1782838057308380000,6.4603798828125,-0.0775508571922779,-0.0014281650730175897,-0.0025246870388742535
1782838057318309000,6.47030908203125,-0.07949556151926516,0.002506968719093129,-0.0007484620134346186
1782838057328238000,6.480238037109375,-0.07919628631174563,0.00025161840720102187,-0.0018016836936818434
1782838057338167800,6.490167724609375,-0.08338613921701908,0.000934714433690533,-0.00441661543243099
1782838057348096800,6.5000966796875,-0.08084346899688244,-0.002306208282872103,0.002698490969510749
1782838057358026000,6.51002587890625,-0.07979600577056407,-0.009803057711129076,-0.006810597896878607
1782838057367955000,6.519954833984375,-0.08024550310373306,-0.009277645597537047,0.0007276749537326395
1782838057377885000,6.529885009765625,-0.07845102090239524,-0.01256768641914241,-0.006648415905376896
1782838057387814100,6.539814208984375,-0.07830138329863548,0.0033677867995109407,-0.006506559749273583
1782838057397743000,6.5497431640625,-0.08623159177601337,-0.0009678769177757203,-0.0034020772281801327
1782838057407671800,6.559671875,-0.0865308669835329,0.001447120935237035,0.0009506198222981765
1782838057417602000,6.56960205078125,-0.0799473969399929,0.003773253194708377,-0.0032401235655415803
1782838057427531000,6.579531005859375,-0.0808446380406618,0.0025613292548339814,-0.0022426323942141605
1782838057437460000,6.5894599609375,-0.0808446380406618,-0.005499140838976018,-0.005371842931187711
1782838057447390000,6.599389892578125,-0.06977262440621852,-0.001427448120387271,-0.008369846570235677
1782838057457319000,6.60931884765625,-0.0742611679971218,0.007341868929099291,-0.008198115865676663
1782838057467247900,6.619247802734375,-0.07830138329863548,-0.004785056019178591,0.002036364665813744
1782838057477176800,6.6291767578125,-0.08398761224150657,-0.0005232840885873883,-0.001727390048187226
1782838057487107000,6.639107177734375,-0.0854851573228836,-0.0038890067951753734,-0.0021348063718760386
1782838057497036000,6.6490361328125,-0.07725625815987587,-0.0017815724874148144,0.0032119523504050445
1782838057506965000,6.658965087890625,-0.0709714788019657,-0.0030231928792316463,0.00006968596903607249
1782838057516894000,6.66889404296875,-0.08892799125313758,0.005320866229198873,-0.00861019466475118
1782838057526824000,6.678823974609375,-0.07920096248686313,-0.0006266485649393871,0.003619414339866489
1782838057536753000,6.6887529296875,-0.08772972137928009,-0.0008356836391612887,-0.0036421558946371077
1782838057546681900,6.698681884765625,-0.0842874719709158,0.0024793911590008065,-0.0061326666692737486
1782838057556612000,6.708612060546875,-0.07530804670155047,0.0011273417958058416,0.00019007921200245618
1782838057566541000,6.718541015625,-0.08249006716012955,0.006060272719920613,-0.008226812237198464
1782838057576470000,6.728469970703125,-0.08518354402780533,0.002439675636542961,-0.0024269577188650144
1782838057586398700,6.738398681640625,-0.07725275102853775,0.004475999203161336,-0.005185211485018953
1782838057596329000,6.748328857421875,-0.07381050162017345,-0.007654305012291297,0.001769242728804238
1782838057606258000,6.7582578125,-0.08114215968251227,-0.007465344611718319,0.008835523286648094
1782838057616187000,6.768186767578125,-0.08189093222320079,0.0014278088799910618,-0.0007391370626632124
1782838057626116000,6.7781162109375,-0.07141571543812751,-0.002676735795428976,0.0022590081402799112
1782838057636045800,6.7880458984375,-0.08473404669463634,-0.007227512701274827,-0.0013427244124235584
1782838057645974800,6.797974853515625,-0.07306172907948494,-0.002246157791861333,-0.00634103958979249
1782838057655904000,6.807904052734375,-0.07754968814849852,0.002093255085358396,-0.0053610429759602994
1782838057665833000,6.8178330078125,-0.07994330528676509,0.0015772181548876687,0.003654636350297369
1782838057675763000,6.827762939453125,-0.0738087480545044,0.0025283357341075313,0.0006176158751128241
1782838057685692200,6.837692138671875,-0.08024082692861556,-0.007961932489625179,-0.00697282555415295
1782838057695621000,6.84762109375,-0.07709726820588111,-0.005756006243452429,-0.011547471959353423
1782838057705555200,6.85755517578125,-0.07380465640127658,-0.005602459649555385,-0.0014409103901591152
1782838057715484200,6.867484130859375,-0.08682371245026588,0.002159516121447086,-0.0031460292410338295
1782838057725413400,6.877413330078125,-0.07440437586009502,-0.003158203736017458,0.0017617489755153656
1782838057735342300,6.88734228515625,-0.08861994821727276,-0.0006778444626368582,0.005447027059248649
1782838057745272000,6.89727197265625,-0.09206219762563705,-0.0014009391393745318,-0.010966333903418854
1782838057755201000,6.907200927734375,-0.07979308316111564,-0.004533410212513991,0.002010663968976587
1782838057765130200,6.917130126953125,-0.07530337052643299,-0.002153319276100956,-0.0025927290400955825
1782838057775059200,6.92705908203125,-0.08173778748810291,0.0007161123801022768,-0.0019051029689610003
1782838057784989200,6.9369892578125,-0.0827840816706419,0.002986404532799497,-0.011880918864533305
1782838057794918400,6.94691845703125,-0.08098726138174533,0.0029173944171983746,-0.0065449052985524754
1782838057804847400,6.956847412109375,-0.07859305972158909,-0.002239326192275621,-0.009439014738285914
1782838057814777000,6.966777099609375,-0.07440379133820534,-0.007561772457207553,-0.004054339724988676
1782838057824706300,6.976706298828125,-0.075450670042634,0.0024485393630107864,0.0016825873586582018
1782838057834635300,6.98663525390625,-0.07066226672232151,-0.009976322785648516,0.0013910661993315442
1782838057844564200,6.996564208984375,-0.08009002028107642,-0.0032200214924290775,0.0030366551490034906
1782838057854494200,7.006494140625,-0.08278291262686252,-0.0020435250589624044,-0.0009968929497059433
1782838057864423200,7.016423095703125,-0.08607435538768768,-0.0007039150522323324,0.007858362517296337
1782838057874352000,7.02635205078125,-0.0767968239545822,-0.002779922175267711,-0.0034989936974365262
1782838057884281000,7.036281005859375,-0.07978957602977753,0.0035855486028827724,-0.0035394535719882694
1782838057894211300,7.04621142578125,-0.07874211280345916,0.004775324643030762,0.00009271521817427127
1782838057904140300,7.056140380859375,-0.08816811279654502,-0.005656372660724445,-0.007952077815891244
1782838057914069200,7.0660693359375,-0.080087097671628,0.0017167727560503407,0.0020525531822117044
1782838057923999200,7.075999267578125,-0.08427753509879111,-0.008078562872926704,-0.0025367747688898813
1782838057933928200,7.08592822265625,-0.08098375425040721,-0.0026229095492279154,0.001349286583950743
1782838057943857200,7.095857177734375,-0.08711831148266792,-0.0012041105261771008,0.013079727594507857
1782838057953786000,7.1057861328125,-0.08337795591056346,0.005478180249338038,0.00480312596540898
1782838057963716400,7.11571630859375,-0.07679448586702346,-0.008768942590150982,-0.0017056851064553484
1782838057973645300,7.125645263671875,-0.07484861249625682,0.0008805045949993655,0.0026625885390676556
1782838057983574300,7.13557421875,-0.08966215074658393,0.001855089814774692,-0.002891648054588586
1782838057993503000,7.1455029296875,-0.08741700216829776,0.005685279094800353,0.011058647262793965
1782838058003433200,7.15543310546875,-0.08008534410595894,-0.0036845200319075956,0.002799092666618526
1782838058013362200,7.165362060546875,-0.08113397637605667,-0.004439968908554874,-0.0025816824896959588
1782838058023291100,7.175291015625,-0.07739245176017284,-0.0005693106208229437,-0.0022157672201748935
1782838058033221000,7.18522119140625,-0.07365209618806838,0.0031835071406327185,-0.00715301812638063
1782838058043150000,7.195150146484375,-0.08727028717398642,0.0018422714323969556,0.006908729075687006
1782838058053079000,7.2050791015625,-0.08337970947623252,-0.002081628579646349,0.013887874772772191
1782838058063008300,7.21500830078125,-0.08128536754548549,-0.0052405812343349675,0.006181072388263419
1782838058072938200,7.224938232421875,-0.09385434173941612,-0.005006703979801386,-0.0006960468396078795
1782838058082867200,7.2348671875,-0.07649579518139361,-0.0003979224095586687,0.0007449366157874465
1782838058092796200,7.244796142578125,-0.08876549416780471,0.006618427192489616,-0.0007270904318429529
1782838058102725400,7.254725341796875,-0.08367723111808299,-0.0022579304280458015,-0.00891533335747663
1782838058112655000,7.264655029296875,-0.07440028420686721,-0.0009900841830065474,0.0016988352405605837
1782838058122584000,7.274583984375,-0.07604629784822464,-0.004387768363859504,-0.0053849946737056596
1782838058132513300,7.28451318359375,-0.0675163699120283,0.00335208690688014,-0.005792643892834894
1782838058142443300,7.294443359375,-0.0815811356216669,-0.011604289313661866,0.005031847554212435
1782838058152372200,7.304372314453125,-0.09145663294792175,0.0014719585489714518,0.006804652213281952
1782838058162301200,7.31430126953125,-0.07963584677278995,0.002667981666815467,0.0015123590580187736
1782838058172230100,7.324230224609375,-0.07589490667879581,0.0002506000604713335,-0.004241779455333016
1782838058182160100,7.33416015625,-0.07634381949007511,-0.00620772749974858,0.007899434313201345
1782838058192089300,7.34408935546875,-0.07978665342032909,-0.0025212712390813973,-0.0028421417904784902
1782838058202018300,7.354018310546875,-0.07784253361523151,0.0006250685292063281,-0.00036581023824401197
1782838058211947300,7.363947265625,-0.07933949417471885,-0.0020289485443383453,0.00002402019640430808
1782838058221877000,7.373876953125,-0.092657240909338,-0.008567711796471849,-0.0034984822407830504
1782838058231806200,7.38380615234375,-0.07933890965282916,-0.0022327685873256994,0.0015941692896885796
1782838058241735200,7.393735107421875,-0.07454933728873729,-0.0003228935451246798,-0.007684946745727211
1782838058251665200,7.4036650390625,-0.0788888277977705,-0.0035099534828681497,-0.0017742842301027848
1782838058261594400,7.413594482421875,-0.0814332515835762,-0.004343235102389008,0.00197176586384885
1782838058271523300,7.4235234375,-0.082630936935544,-0.002261035700584762,0.004709940389776602
1782838058281452300,7.433452392578125,-0.07559855408072472,0.001047408427391201,-0.0003227793806931004
1782838058291382300,7.44338232421875,-0.08188391796052455,-0.0007988222274929285,-0.002304966173856519
1782838058301311200,7.453311279296875,-0.08188508700430393,0.006326536140404641,-0.007657159123080782
1782838058311240200,7.463240234375,-0.07201017419993877,0.002771405508671887,-0.0027122546333819626
1782838058321169200,7.473169189453125,-0.07605097402334213,-0.005478481643437408,-0.004490836012689396
1782838058331099400,7.483099365234375,-0.0818862560480833,-0.012207552436436526,-0.001291103823040612
1782838058341028000,7.493028076171875,-0.07769698766469955,-0.0021592695262748745,-0.00746765986639075
1782838058350957000,7.50295703125,-0.08233575338125228,0.0051389977231156075,-0.00011820585245732218
1782838058360887300,7.51288720703125,-0.08278466619253158,-0.0028798343192087484,0.001681116920779459
1782838058370816300,7.522816162109375,-0.08682546601593494,-0.005202884139027446,0.0003226241170661524
1782838058380745200,7.5327451171875,-0.08248539098501205,-0.00015654683515895157,-0.012359811255545354
1782838058390674200,7.542674072265625,-0.08757423855662345,0.007969248146400787,0.003327943412889726
1782838058400604200,7.552604248046875,-0.08547989662587642,-0.0008131201809039339,0.002070600295555778
1782838058410533000,7.562533203125,-0.07680033108592033,0.0009125893668504431,-0.002757144087878987
1782838058420462000,7.572462158203125,-0.06438040997385978,-0.009791600168775767,0.00014373758593574167
1782838058430391300,7.582391357421875,-0.08443184887766837,-0.0035458285138476636,-0.010562027418846263
1782838058440321300,7.5923212890625,-0.07844576020538807,-0.005162045238562859,-0.00687098174802959
1782838058450250200,7.602250244140625,-0.07261047818064689,-0.010015522284875624,-0.0074118471590802065
1782838058460179200,7.61217919921875,-0.08098959946930408,-0.00164557981651742,-0.005292471251776442
1782838058470109200,7.622109130859375,-0.08308394140005111,0.0009976692678406833,-0.005542811017343774
1782838058480038100,7.6320380859375,-0.07934358582794666,0.007645331687969155,-0.0038924499944318082
1782838058489967000,7.641967041015625,-0.07470482011139393,0.003891349449311383,0.003922338242619298
1782838058499896300,7.651896240234375,-0.08248597550690173,0.004360172537458129,0.004764351157867349
1782838058509826300,7.661826416015625,-0.0769493841677904,-0.0015311961892293766,0.0005906365366419777
1782838058519755000,7.671755126953125,-0.08338321660757064,0.0014001810875488444,0.007655035664653405
1782838058529684200,7.681684326171875,-0.08861936369538306,0.00015980737132485954,-0.006737491561472415
1782838058539613200,7.69161328125,-0.07934066321849823,-0.0007239760261494666,0.0012098187477560713
1782838058549543200,7.701543212890625,-0.08876841677725314,-0.006309680903726257,-0.007235846704780124
1782838058559472400,7.711472412109375,-0.08487725455760955,0.0017684024785878136,-0.005972754266671836
1782838058569401300,7.7214013671875,-0.07874211280345916,0.002393448174907826,-0.00038673429526388643
1782838058579331000,7.7313310546875,-0.08427928866446018,0.005049844435206614,0.0009804350052494556
1782838058589260000,7.741260009765625,-0.08068623260855674,0.003660303472680971,0.00012867244754452258
1782838058599189200,7.751189208984375,-0.08307984974682331,-0.002224868408660404,0.002171886979253031
1782838058609118200,7.7611181640625,-0.09460077619254588,0.0021790382392471654,0.004252734674187377
1782838058619048200,7.771048095703125,-0.07754150484204292,-0.006937466546404175,0.00023135650388430803
1782838058628977400,7.780977294921875,-0.0702092622578144,-0.007385863334452733,0.01166096967065241
1782838058638906400,7.79090625,-0.07814005525708198,-0.0011069109291303903,-0.0031585827619303015
1782838058648836000,7.800836181640625,-0.06990998705029487,-0.004084821628220379,-0.004825415429030545
1782838058658765300,7.810765380859375,-0.08741817121207714,0.0029724582058377564,-0.0054775409285211935
1782838058668694300,7.8206943359375,-0.07380056474804877,0.0054512694095261395,0.0023133230102481317
1782838058678623200,7.830623291015625,-0.08427519701123237,0.0038690280196489765,0.0023843515529995783
1782838058688553200,7.84055322265625,-0.08337737138867378,0.0009941986691206692,0.006580136442137881
1782838058698482200,7.850482177734375,-0.07739069819450378,-0.011090015082014725,0.0013875408016843721
1782838058708407000,7.860406982421875,-0.07499649653434753,0.002826272934488952,0.006514167666994035
1782838058718336000,7.8703359375,-0.0838251151561737,0.002909170011547394,0.003037125506461598
1782838058728266000,7.880265869140625,-0.08831424326896667,0.003060784943262115,-0.00014228998094331473
1782838058738195200,7.8901953125,-0.08262859884798526,-0.002788338377163745,0.009905960963177494
1782838058748124200,7.900124267578125,-0.0754465783894062,0.0008217692782403901,-0.0009317735579330473
1782838058758053000,7.91005322265625,-0.08277823645174504,0.00042728550136089324,-0.0035090356008382513
1782838058767983000,7.919983154296875,-0.0706581750690937,0.00023559885416179894,-0.007908535501686857
1782838058777912000,7.929912109375,-0.078287354773283,-0.0037073437850689514,0.00358649388437625
1782838058787841000,7.939841064453125,-0.08517010002434253,-0.005077791888057254,-0.0016436938201077281
1782838058797771000,7.94977099609375,-0.08876081799268722,-0.0002510749845067039,0.0029390445600030943
1782838058807700200,7.9597001953125,-0.08008183697462082,-0.002864833112899214,0.011988534824317321
1782838058817629200,7.969629150390625,-0.07678922517001628,-0.006183807768044062,0.0013461082461755723
1782838058827558100,7.97955810546875,-0.07843523881137371,-0.008657157345325685,0.0031786894016200677
1782838058837488000,7.989488037109375,-0.07858487641513347,-0.009322781647206284,-0.0002259359766729176
1782838058847417000,7.9994169921875,-0.07649053448438643,-0.002360276557668112,-0.0122195351351751
1782838058857346000,8.009345947265626,-0.08427344344556331,-0.007648035101708956,-0.00012238883723039178
1782838058867276300,8.0192763671875,-0.07424713947176932,-0.006225500618456862,0.0029421361328102647
1782838058877205200,8.029205322265625,-0.08891104011833667,-0.006110523336124606,0.006566258613835089
1782838058887134000,8.039134033203124,-0.07394727974236011,-0.0003971460914239287,-0.010022390417079441
1782838058897063000,8.04906298828125,-0.08023205910027027,-0.006599320633220486,-0.007252076320373453
1782838058906993200,8.0589931640625,-0.08142974445223808,-0.0009691144602140411,-0.0018087664550170302
1782838058916922000,8.068922119140625,-0.08322422665357589,0.001542936859373003,0.00321364198399242
1782838058926851000,8.07885107421875,-0.07708850037753581,-0.0004357473690295592,-0.002083030518866144
1782838058936780000,8.088780029296874,-0.07843582333326339,-0.005201267570676282,-0.0036315157696139065
1782838058946710000,8.0987099609375,-0.09040741615593433,-0.004211411716532893,-0.003318107005464844
1782838058956639000,8.108638916015625,-0.0811281311571598,-0.0024722992645110934,-0.010937555333506316
1782838058966568000,8.11856787109375,-0.0746925451517105,0.008910880944645032,-0.00785020204372704
1782838058976497200,8.1284970703125,-0.08591478091180324,-0.0005464960008161143,-0.00301184036815539
1782838058986427100,8.13842724609375,-0.07918167326450347,-0.008282035856042057,-0.002149492484354414
1782838058996356000,8.148356201171875,-0.079480948472023,-0.0065186337795574215,-0.005624086959473788
1782838059006285300,8.158285400390625,-0.07499240488111972,-0.007853069854248315,0.0010163648351561277
1782838059016215000,8.168215087890625,-0.07499182035923004,-0.006491088185505941,0.009063970880815758
1782838059026144000,8.17814404296875,-0.07678688708245754,-0.0015039885218953713,-0.0030813162746373564
1782838059036073000,8.188072998046875,-0.06930559141635895,0.011507322612055577,0.005831879924680106
1782838059046002200,8.198002197265625,-0.07544014864861964,-0.0014905856176279484,0.0010351563005940988
1782838059055932200,8.20793212890625,-0.08606441851556301,0.0018502857754938303,0.00273890517828986
1782838059065860900,8.21786083984375,-0.07843173168003559,0.0018253157310187816,-0.005359239177941344
1782838059075790000,8.2277900390625,-0.07962824798822403,-0.0036724003358511253,0.0043862065944354975
1782838059085719000,8.237718994140625,-0.08022738292515277,0.0020647231106180695,-0.00588569703772664
1782838059095649000,8.24764892578125,-0.0791805042207241,0.006010387429897673,0.004465400177333503
1782838059105578200,8.257578125,-0.08306932835280895,-0.001807524346001446,-0.0070173770819325
1782838059115507200,8.267507080078126,-0.08276946862339973,-0.0033517809462035074,-0.0015776519797276705
1782838059125437000,8.27743701171875,-0.0811234549820423,0.0023483212583931164,0.002259364333306439
1782838059135366000,8.287365966796875,-0.07828034051060676,-0.002363377263629809,0.003638233204768039
1782838059145295000,8.297295166015624,-0.07274258012771606,0.0035907316680764776,0.003926420762692578
1782838059155224000,8.30722412109375,-0.0838163473278284,0.00024528913111425936,-0.0014020396844949573
1782838059165154000,8.317154052734375,-0.08636018659174442,-0.0005799416126916185,-0.008533476166729816
1782838059175083300,8.327083251953125,-0.08217033368647098,0.0011065136369084938,0.006309448008285835
1782838059185012200,8.33701220703125,-0.0863607711136341,-0.004495320391561836,0.001604891613102518
1782838059194941000,8.34694091796875,-0.071547232863307,0.0025420080664334817,0.0017098589580738916
1782838059204871200,8.35687109375,-0.07768237461745739,-0.002272041151789017,-0.00148995542996563
1782838059214800100,8.366800048828125,-0.08396832301914692,0.006294825827889144,0.0019701264626113698
1782838059224729000,8.37672900390625,-0.07334405315220356,-0.002139989437069744,-0.001816136910719797
1782838059234659000,8.3866591796875,-0.0779822343468666,-0.0024332961281063035,-0.00248054650304839
1782838059244588000,8.396588134765626,-0.07723404632806778,0.003281761617027223,-0.004059390359441749
1782838059254517000,8.40651708984375,-0.08710895913243294,-0.0018638211105018853,0.0021694118943763894
1782838059264446000,8.416446044921875,-0.07887889092564582,-0.010741174244880676,0.003669669522647746
1782838059274376200,8.426376220703125,-0.0755862791210413,-0.0007003850880078971,-0.002703390906914137
1782838059284305200,8.43630517578125,-0.07708265515863895,-0.0020473290178226306,-0.01107547510000877
1782838059294234000,8.446234130859375,-0.08501344815790653,0.0016197832215577362,-0.0002562489165458828
1782838059304163000,8.4561630859375,-0.08905424798130988,-0.00048239038919564335,0.001219102599332109
1782838059314093000,8.466093017578125,-0.07304243985712527,-0.00012212397574912757,-0.006442002046504057
1782838059324022000,8.47602197265625,-0.07827800242304801,-0.0016580648387549445,-0.0009705894646700471
1782838059333951000,8.485950927734375,-0.07722995467483997,-0.0015740124176489188,0.0049142353567993265
1782838059343881200,8.495881103515625,-0.08276596149206161,0.0029403551676776257,-0.004530044645071029
1782838059353810200,8.50581005859375,-0.08022270675003527,-0.003526014135102741,-0.007779105002316646
1782838059363739100,8.5157392578125,-0.09788052851557731,0.001962217150791548,0.004775543838739395
1782838059373668000,8.525668212890626,-0.07887713735997677,-0.0012583523309091106,0.010419102683663367
1782838059383598000,8.53559814453125,-0.07962590990066527,-0.0011440280691254884,0.009562440188555047
1782838059393527000,8.545527099609375,-0.08157061422765255,-0.0003966985668521374,-0.0005309924710076302
1782838059403456000,8.5554560546875,-0.08396423136591911,-0.006476329007791355,-0.0006521026666043326
1782838059413385200,8.56538525390625,-0.07438742472529411,-0.009768369990237988,0.0009481538705760613
1782838059423315000,8.57531494140625,-0.0773807613223791,0.0018512447567190975,-0.00600854253268335
1782838059433244000,8.585243896484375,-0.08486147246658801,0.0068826676192460575,-0.0044199673001421615
1782838059443173000,8.595173095703124,-0.08845335947871208,0.002025235917023383,-0.0073907130395062266
1782838059453103000,8.60510302734375,-0.08231880224645137,-0.002671269602444954,0.0001853071387624368
1782838059463032000,8.615031982421876,-0.07663315782546996,-0.0005853301738621666,0.0018849689298076555
1782838059472961300,8.624961181640625,-0.08546119192540645,0.0032088196784025055,0.00858137042906601
1782838059482890200,8.63489013671875,-0.08097147929072379,-0.0004950626411009579,0.006236419304693117
1782838059492820000,8.644820068359374,-0.08800444666743278,-0.003397474118298851,-0.004440685861185192
1782838059502749000,8.6547490234375,-0.07513561274409293,-0.003484389783348888,-0.0008332633532118052
1782838059512678100,8.66467822265625,-0.08067220408320426,-0.0036048012926243244,0.007424766006157733
1782838059522607000,8.674607177734375,-0.0784264709830284,0.00808159051365219,-0.0029679053283063694
1782838059532537000,8.684537109375,-0.07244096683263779,-0.003926703890482895,-0.00004983962425030768
1782838059542466000,8.694466064453126,-0.08067220408320426,0.004257465648232027,-0.0012663301413878797
1782838059552395000,8.70439501953125,-0.07962415633499621,-0.0038856731937732545,0.010154556296230292
1782838059562325000,8.714324951171875,-0.07842764002680779,-0.008716363019542768,0.0047118355193408205
1782838059572254200,8.724254150390625,-0.07498597514033317,-0.0012269297127611935,0.0008227282594656571
1782838059582183200,8.73418310546875,-0.08665653918981552,-0.00228941241169814,0.004735394491441548
1782838059592112000,8.744112060546875,-0.07947393420934677,-0.0008536896533099934,-0.0004904503980651498
1782838059602042000,8.7540419921875,-0.08650631706416606,-0.0040269082953687755,-0.003175141171086579
1782838059611971000,8.76397119140625,-0.08246668628454208,0.0011770261564292013,0.0002078888633288443
1782838059621900000,8.773900146484374,-0.07992401606440544,0.005161990439635701,-0.0021466383735649287
1782838059631830000,8.783830078125,-0.07588321624100208,0.0002459101856220513,0.0008961040229303761
1782838059641759200,8.79375927734375,-0.09009937312006949,-0.006460706746974028,0.0009723567300708964
1782838059651688200,8.803688232421875,-0.07154431025385856,-0.0020786694375798105,0.0058321584858931595
1782838059661617200,8.8136171875,-0.07304010176956653,-0.007098557125939987,0.011575022119982167
1782838059671547100,8.823547119140626,-0.07438567115962505,-0.0012943963252473622,0.006495444700215011
1782838059681476000,8.83347607421875,-0.07767769844233989,-0.011898646317468956,0.0034496152974897993
1782838059691405000,8.843405029296875,-0.08500935650467872,0.0007345659188227727,-0.0016122483690734952
1782838059701334500,8.85333447265625,-0.06839899796545505,0.0077268542252713806,0.006021580110769718
1782838059711264500,8.863264404296874,-0.07573124054968357,0.001391267128731124,0.004137049572379328
1782838059721193500,8.873193359375,-0.07618132240474224,0.001857450735219754,0.0069368317921645935
1782838059731122400,8.883122314453125,-0.08141922305822372,0.0004942634900799021,-0.0005133837490808219
1782838059741052400,8.893052490234375,-0.08396364684402942,-0.004521806539688259,0.004121979867410846
1782838059750981600,8.902981689453124,-0.08216741107702255,-0.002053987087472342,0.0010734424843685702
1782838059760910600,8.91291064453125,-0.07543430342972278,-0.0054347931987605985,0.0018686936484416945
1782838059770839600,8.922839599609375,-0.07184300093948841,-0.003659682418173179,0.007971526868455111
1782838059780769500,8.93276953125,-0.08560907596349716,-0.0064582270955201235,0.00325749025887344
1782838059790698500,8.942698486328124,-0.07393734287023544,-0.005443323565088212,0.0040508691262686625
1782838059800627500,8.95262744140625,-0.08022212222814559,-0.0019497503948630764,0.0018073553826427086
1782838059810556400,8.962556396484375,-0.07438625568151473,-0.000927777802827768,0.010064932650863192
1782838059820486700,8.972486572265625,-0.07663081973791122,-0.008542015666211955,-0.0016209979311097413
1782838059830415400,8.982415283203125,-0.07049567798376083,-0.0002872057438129559,0.009180309003172443
1782838059840344300,8.99234423828125,-0.07124445052444935,-0.003315065665007569,0.004234148704726249
1782838059850274600,9.002274658203126,-0.07902619044184685,-0.0005526974127395078,0.003499637584830634
1782838059860203500,9.01220361328125,-0.08127133902013302,-0.002286256906809285,0.0022609991679666563
1782838059870132500,9.022132568359375,-0.07139525717198848,-0.002607680014055222,0.005452411053841933
1782838059880061400,9.0320615234375,-0.07708148611485957,-0.007554570964863523,-0.008528617328521795
1782838059889991400,9.041991455078126,-0.07423837164342403,-0.00586347150618676,0.004486041106563061
1782838059899920400,9.05192041015625,-0.08576046713292598,-0.009624130080803296,0.01280131707850378
1782838059909849300,9.061849365234375,-0.07917699708938598,-0.008098833909397944,0.0010584778106771408
1782838059919778600,9.071778564453124,-0.07663374234735966,0.007156328894896432,-0.0027661859108600766
1782838059929708500,9.08170849609375,-0.08606091138422489,0.002666926787467673,0.006236318839993328
1782838059939637500,9.091637451171875,-0.08666004632115364,-0.0097090410184348,-0.0007045954722445458
1782838059949566700,9.101566650390625,-0.08621054898798465,0.001227258506324142,-0.0034535242876270783
1782838059959495400,9.111495361328124,-0.08875380373001097,-0.007299340395047329,0.0029060830053174867
1782838059969425400,9.12142529296875,-0.08217033368647098,-0.004691674080723896,-0.0041037866235943505
1782838059979354400,9.131354248046875,-0.0764835202217102,-0.0015288855011342092,0.0009317963908193632
1782838059989283600,9.14128369140625,-0.07558569459915161,-0.004186688267230056,0.0016838386008283122
1782838059999213600,9.151213623046875,-0.06945055284500122,-0.002390612330427393,0.002297052295459434
1782838060009142300,9.161142333984374,-0.08501227911412715,-0.00617203056528233,-0.002218543699150905
1782838060019071500,9.171071533203126,-0.08635901754796504,0.0031803105365484953,0.007362651422224007
1782838060029000400,9.18100048828125,-0.07902677496373653,0.00030231198139954354,-0.0018102277597412467
1782838060038930400,9.190930419921875,-0.08321662786900996,0.0023929047522135076,-0.004027090958459303
1782838060048859600,9.200859619140624,-0.07408873403966426,-0.009915482276771217,0.0019117656051879748
1782838060058788600,9.21078857421875,-0.08291735266149043,-0.012390279459045268,-0.004173189464840106
1782838060068718300,9.22071826171875,-0.06885141790807246,0.0001960248955991119,0.0009304949162993579
1782838060078647600,9.2306474609375,-0.07379062787592411,0.0016316334895556792,0.0020955749066080896
1782838060088576500,9.240576416015625,-0.08112287046015262,0.0033193034487077966,0.0013409662801772354
1782838060098505500,9.25050537109375,-0.07768295913934707,0.0029519725402351467,0.005954022166738286
1782838060108435500,9.260435546875,-0.06840484318435192,0.007347727847727946,-0.010439688813965767
1782838060118364700,9.27036474609375,-0.08187222752273082,0.002342704368359409,-0.0050903545421082524
1782838060128293600,9.280293701171875,-0.09010229572951793,-0.006443390285992064,0.005297293557366356
1782838060138222300,9.290222412109374,-0.078130702906847,-0.0036372376909246666,-0.0036001936161657792
1782838060148152600,9.300152587890626,-0.07319266198277473,-0.0027029844815377145,0.0018413033180171624
1782838060158081500,9.31008154296875,-0.07049860059320927,0.00013122059765737504,0.00304637282541953
1782838060168010500,9.320010498046875,-0.08351765664219855,0.00030398334867786617,-0.0002601213740650564
1782838060177936600,9.3299365234375,-0.07259411156773567,-0.004733239066973328,0.0001927689260104671
1782838060187865600,9.339865478515625,-0.07184475450515747,-0.00049791218531318,0.0038740969204111024
1782838060197795300,9.34979541015625,-0.08695815248489379,-0.00548713987392839,0.0019205562664195894
1782838060207724500,9.359724609375,-0.08261749293208122,-0.008509985693288036,0.0048318634361261496
1782838060217653500,9.369653564453126,-0.0893500160574913,-0.007384470528387464,0.001287427728343755
1782838060227582500,9.37958251953125,-0.07693067946732043,0.0004584341248730197,-0.0057164779506623745
1782838060237512700,9.3895126953125,-0.07229074470698833,0.004695135546289384,0.0024203316152561455
1782838060247441400,9.39944140625,-0.08680559227168559,-0.007697760561527684,-0.0005321569482097402
1782838060257370400,9.409370361328126,-0.07932488112747668,-0.0015813006749609484,0.004175276390649378
1782838060267300600,9.419300537109375,-0.07902677496373653,-0.0034118634032551196,0.006056002970179542
1782838060277229600,9.4292294921875,-0.07947568777501583,0.0007714136307593435,-0.0018775254088686777
1782838060287158500,9.439158447265624,-0.08142097662389278,0.00003552797110751271,0.00781591618163511
1782838060297087500,9.44908740234375,-0.08456278178095818,0.004261602967232466,0.006434878185973502
1782838060307017500,9.459017578125,-0.08067337312698364,0.0014186072268057614,-0.005701947101810947
1782838060316946400,9.468946533203125,-0.0811234549820423,0.003999586463603191,-0.0007759984743315726
1782838060326875400,9.47887548828125,-0.08246902437210082,-0.004107170457346365,0.004010925274947658
1782838060336804400,9.488804443359374,-0.08246902437210082,-0.008169255097373387,0.0022539301063632593
1782838060346734600,9.498734619140626,-0.07558511007726192,-0.0017615389129612593,-0.0011550335203297435
1782838060356663600,9.50866357421875,-0.07947627229690551,-0.0015928952146321534,-0.0023908269595587623
1782838060366592500,9.518592529296875,-0.08007540723383426,-0.0027548470995156092,-0.00237761128495913
1782838060376522500,9.5285224609375,-0.07498772870600223,-0.0006867036225274204,0.003884001826494932
1782838060386451500,9.538451416015626,-0.08561258309483527,0.0033261898472206667,-0.0021499719749670473
1782838060396380400,9.54838037109375,-0.07693301755487919,-0.001502294321730733,-0.0038019678325392305
1782838060406309600,9.5583095703125,-0.07049918511509895,-0.0005704157325206324,0.008600929079484194
1782838060416239600,9.568239501953125,-0.08202069608271122,-0.005406480419728904,0.002076792574324645
1782838060426168300,9.578168212890626,-0.0707972912788391,-0.002196491697547026,0.003086490206676535
1782838060436097300,9.58809716796875,-0.07229425183832645,0.001112285790569149,0.005683155636372976
1782838060446026500,9.598026611328125,-0.07962590990066527,0.0026098354385234415,0.007598492304980754
1782838060455956500,9.60795654296875,-0.09204583101272583,-0.0012527171745663507,0.004755857324157841
1782838060465885400,9.617885498046874,-0.0785790311962366,0.0019473986075725406,-0.0036313376731006426
1782838060475814700,9.627814697265626,-0.07573591672480105,0.0015336073420243338,0.004031684935186058
1782838060485744400,9.637744384765625,-0.08980126695632934,0.001305885833641514,-0.0023657473172293973
1782838060495673300,9.64767333984375,-0.06750467947423458,0.006985959030361846,0.0003919447599211707
1782838060505602600,9.6576025390625,-0.07723053919672966,0.002854457849357277,0.0013279789344407618
1782838060515531500,9.667531494140626,-0.08815349974930285,0.006307502646371722,-0.0007546908248215914
1782838060525461500,9.67746142578125,-0.07303951724767685,-0.0026774938472546635,0.006770001025008968
1782838060535390500,9.687390380859375,-0.07438684020340443,-0.005812846430647186,-0.0008215318162227049
1782838060545319700,9.697319580078124,-0.08216799559891223,-0.004179235613136552,0.0006594548559980466
1782838060555248400,9.707248291015626,-0.07827800242304801,0.0019718982945894823,-0.01164374454121571
1782838060565178400,9.717178466796875,-0.07947393420934677,-0.0006457505576312542,-0.0015495492632500826
1782838060575107600,9.727107666015625,-0.07737959227859974,0.0009059769629733637,0.004582592249638401
1782838060585036500,9.73703662109375,-0.07304068629145621,0.000008571465522982179,0.004497178988507948
1782838060594966500,9.746966552734374,-0.08157002970576285,-0.004512604886502959,0.006555718953511677
1782838060604895500,9.7568955078125,-0.07304068629145621,-0.0002716337153455242,0.004158083227253519
1782838060614824400,9.766824462890625,-0.07378945883214473,-0.0007199848376214504,-0.005940537064080126
1782838060624753400,9.77675341796875,-0.08411445349156856,0.001711397894611582,0.00009019903410226106
1782838060634683600,9.78668359375,-0.07813011838495731,0.0006205202182522043,0.0009058947645826265
1782838060644612600,9.796612548828126,-0.08157295231521129,-0.0016613527743844314,0.006190022879699245
1782838060654541600,9.80654150390625,-0.0818728120446205,0.0006842285376507789,0.007109868537820876
1782838060664471300,9.81647119140625,-0.08292085979282855,-0.004842398529872298,0.004584414313966408
1782838060674400500,9.826400390625,-0.06930442237257957,0.0016687369298189877,0.0030904585623182353
1782838060684329500,9.83632958984375,-0.08980535860955714,-0.0014462761184433474,-0.002636632113903761
1782838060694258400,9.846258544921875,-0.08247311602532863,-0.005544112491863779,-0.00034296365219634023
1782838060704188700,9.856188720703125,-0.08082710238397121,-0.002853421236318536,0.008047386849950999
1782838060714117600,9.86611767578125,-0.07678630256056786,-0.004497384484484792,0.008571862815204076
1782838060724046600,9.876046630859374,-0.08785831619501114,0.0064958693919004865,0.0070184319612802935
1782838060733975300,9.885975341796875,-0.08710954365432262,0.0042575615463545545,-0.00016299027567729353
1782838060743905500,9.895905517578125,-0.06885317147374152,-0.004252579410560429,0.0026149865376763042
1782838060753834500,9.90583447265625,-0.07693418659865855,-0.004115856087300926,0.005212898642965592
1782838060763763500,9.915763427734374,-0.07453940041661263,-0.002361820060783066,0.003626666064560413
1782838060773693400,9.925693359375,-0.0878594852387905,-0.005796169290482066,-0.00031317130213137715
1782838060783622400,9.935622314453125,-0.011549568018317222,0.0053723909204592924,0.0001656114910263568
1782838060793551400,9.94555126953125,-0.11180793158113955,-0.007308437016955577,-0.0007307345604989677
1782838060803480300,9.955480224609374,-0.14966799889802931,-0.011576232262956909,-0.003937933103973046
1782838060813410600,9.96541064453125,0.021967501658201216,0.019859775089495813,0.005186713888938538
1782838060823339500,9.975339599609375,-0.2345090130984783,-0.0009125254347687586,0.009507097838702612
1782838060833268500,9.9852685546875,-0.011845336094498634,0.009419611351494677,0.002389036861271597
1782838060843197400,9.995197509765624,-0.10716273612380027,-0.0122553005683003,0.009901864743372424
1782838060853127400,10.00512744140625,-0.07379296596348285,-0.023252837894158437,-0.004236610089871101
1782838060863056400,10.015056396484376,-0.02785246804356575,0.00420490891051013,0.017121659929072483
1782838060872985300,10.0249853515625,-0.14277297868728636,-0.00032437311615794896,0.00112214959745761
