time,seconds_elapsed,z,y,x
1782838050943728400,0.095728271484375,0.0005633598193526268,0.00018811598420143127,0.002119242213666439
1782838050953657300,0.1056572265625,-0.0007048370316624641,0.0017135748639702797,0.0001554274931550026
1782838050963587300,0.11558740234375,-0.0018161162734031677,0.0001835208386182785,0.0003751926124095917
1782838050973516300,0.125516357421875,0.0011266767978668213,0.0014855405315756798,-0.0014000702649354935
1782838050983445500,0.135445556640625,0.0007230723276734352,-0.002213628962635994,0.0010215723887085915
1782838050993374500,0.14537451171875,0.002417375333607197,0.002798439934849739,-0.0016136257909238338
1782838051003303200,0.15530322265625,-0.0000713597983121872,0.0015096664428710938,0.0007697166875004768
1782838051013233400,0.1652333984375,-0.0015949541702866554,0.0008846232667565346,0.0013739876449108124
1782838051023162400,0.175162353515625,0.0006786482408642769,0.0020113177597522736,-0.0008642235770821571
1782838051033091300,0.18509130859375,0.00015480443835258484,0.0015492597594857216,0.0005869325250387192
1782838051043020300,0.195020263671875,-0.0003374684602022171,0.001246401108801365,-0.00035407254472374916
1782838051052950300,0.2049501953125,0.0006034262478351593,-0.0004854528233408928,-0.0037461407482624054
1782838051062879200,0.214879150390625,0.00013295654207468033,-0.001244567334651947,0.002204463817179203
1782838051072808200,0.22480810546875,0.0015367092564702034,-0.0017172787338495255,0.002433495596051216
1782838051082737400,0.2347373046875,-0.0003276364877820015,-0.0020243460312485695,-0.0017969557084143162
1782838051092667400,0.24466748046875,-0.0011337753385305405,-0.0006437627598643303,0.0008502267301082611
1782838051102596400,0.254596435546875,0.0015016142278909683,-0.000207594595849514,-0.00011943094432353973
1782838051112525300,0.264525390625,0.0029644882306456566,-0.0010616704821586609,0.0032585225999355316
1782838051122454500,0.27445458984375,-0.0002759331837296486,-0.001233590766787529,0.0005313307046890259
1782838051132384300,0.28438427734375,0.00119040347635746,-0.00011026952415704727,-0.0007786783389747143
1782838051142313200,0.294313232421875,-0.0004846099764108658,0.001769709400832653,-0.0008525373414158821
1782838051152242400,0.304242431640625,0.001464557833969593,0.0005055069923400879,0.0009187310934066772
1782838051162171400,0.31417138671875,-0.0013504503294825554,0.001900949515402317,-0.0009738882072269917
1782838051172100400,0.324100341796875,0.00025756657123565674,0.0019936272874474525,0.0018940698355436325
1782838051182030300,0.3340302734375,0.0005061458796262741,0.0012504858896136284,-0.0009141177870333195
1782838051191959300,0.343959228515625,-0.0004549892619252205,-0.0015644757077097893,-0.0029583601281046867
1782838051201888300,0.35388818359375,-0.002526063472032547,-0.0020188046619296074,-0.0011913361959159374
1782838051211817200,0.363817138671875,-0.0005790265277028084,-0.0002733692526817322,-0.00014364905655384064
1782838051221747500,0.37374755859375,0.0007587112486362457,-0.003267766907811165,0.0010643042623996735
1782838051231676400,0.383676513671875,-0.0005006967112421989,-0.0011758534237742424,-0.00019856635481119156
1782838051241605400,0.39360546875,-0.0013348506763577461,-0.0017796261236071587,-0.0017421161755919456
1782838051251534300,0.403534423828125,-0.0004631979390978813,-0.001055247150361538,-0.0010568848811089993
1782838051261464300,0.41346435546875,0.00014061760157346725,0.0001740017905831337,0.00041134096682071686
1782838051271393300,0.423393310546875,0.0028208233416080475,0.00012473389506340027,-0.002480052877217531
1782838051281322200,0.433322265625,-0.0009192842990159988,-0.0009043058380484581,0.001783168874680996
1782838051291251500,0.44325146484375,0.0013145748525857925,0.00022061355412006378,-0.0018629650585353374
1782838051301181400,0.453181396484375,-0.0007505752146244049,0.0006011435762047768,0.002781590446829796
1782838051311110100,0.463110107421875,-0.0003276653587818146,0.00019181612879037857,0.0027158111333847046
1782838051321039400,0.473039306640625,0.0015406599268317223,0.002783576026558876,0.0010609598830342293
1782838051330968300,0.48296826171875,-0.00109001062810421,-0.0009946497157216072,0.0017571104690432549
1782838051340898300,0.492898193359375,-0.0025861579924821854,0.0021421965211629868,-0.0023203776217997074
1782838051350827300,0.5028271484375,0.00026209279894828796,0.0012564286589622498,-0.0025446158833801746
1782838051360756500,0.512756591796875,-0.0008541727438569069,0.000593935139477253,-0.0016759233549237251
1782838051370685400,0.522685546875,-0.0014400677755475044,0.00013134349137544632,-0.0008548707701265812
1782838051380614400,0.532614501953125,0.00044972170144319534,-0.000022883526980876923,-0.00038190698251128197
1782838051390544400,0.54254443359375,0.000370892696082592,0.0005560871213674545,-0.000008531846106052399
1782838051400473300,0.552473388671875,-0.00037759076803922653,-0.002845851704478264,0.0011271508410573006
1782838051410402300,0.56240234375,0.0002711554989218712,-0.0018141437321901321,-0.0008324030786752701
1782838051420331300,0.572331298828125,0.0014074631035327911,0.0014810822904109955,-0.0005186819471418858
1782838051430261200,0.58226123046875,0.0002444600686430931,-0.00125904381275177,-0.00010642502456903458
1782838051440190200,0.592190185546875,0.00001009274274110794,-0.0005687354132533073,-0.0006110984832048416
1782838051450119200,0.602119140625,-0.0008458467200398445,-0.0001916317269206047,-0.00023159803822636604
1782838051460048400,0.61204833984375,0.0008225366473197937,-0.0010603247210383415,-0.00022259168326854706
1782838051469978400,0.621978271484375,-0.0008762944489717484,-0.0007711052894592285,-0.0014130249619483948
1782838051479907300,0.6319072265625,0.0020671840757131577,-0.0015418604016304016,0.0014223270118236542
1782838051489836300,0.641836181640625,-0.001450851559638977,0.0012470018118619919,-0.0006599985063076019
1782838051499765500,0.651765625,-0.00006043724715709686,0.0010344916954636574,0.002648179419338703
1782838051509695200,0.6616953125,0.0003036167472600937,-0.00186835415661335,0.0024457797408103943
1782838051519624200,0.671624267578125,-0.0008755829185247421,0.0006923628970980644,-0.0017410083673894405
1782838051529553400,0.681553466796875,0.0006448160856962204,0.0017898520454764366,-0.0019138474017381668
1782838051539482400,0.691482421875,-0.002583736553788185,-0.00012206286191940308,-0.0027349963784217834
1782838051549412400,0.701412353515625,0.00035346299409866333,-0.0005971714854240417,-0.0007173856720328331
1782838051559341300,0.71134130859375,-0.00010688789188861847,-0.0006091557443141937,-0.0003406521864235401
1782838051569270300,0.721270263671875,0.0002939179539680481,-0.0006847893819212914,-0.0021417480893433094
1782838051579199200,0.73119921875,-0.00030830688774585724,0.0025682691484689713,-0.0008206763304769993
1782838051589129500,0.74112939453125,-0.001456662081182003,-0.0004347115755081177,-0.0008718091994524002
1782838051599058400,0.751058349609375,0.0011653006076812744,-0.0005210926756262779,0.00037589576095342636
1782838051608987400,0.7609873046875,0.0014007240533828735,0.0006959717720746994,-0.001611088402569294
1782838051618916400,0.770916259765625,-0.0004420364275574684,-0.0006016669794917107,-0.001376258209347725
1782838051628846300,0.780846435546875,0.000954790972173214,0.0011669378727674484,0.0018341820687055588
1782838051638775300,0.790775390625,-0.0004959153011441231,0.0001449109986424446,-0.001924803014844656
1782838051648704300,0.800704345703125,0.0007661571726202965,0.0000817934051156044,-0.0009924303740262985
1782838051658633200,0.81063330078125,-0.0015826048329472542,0.0019117612391710281,-0.0006498051807284355
1782838051668562400,0.8205625,0.0006187641993165016,0.002062496729195118,0.0004274435341358185
1782838051678492400,0.830492431640625,0.00022714398801326752,0.0011063385754823685,-0.0006329119205474854
1782838051688421400,0.84042138671875,0.0002124970778822899,-0.0006638653576374054,0.0009886864572763443
1782838051698353700,0.850353759765625,-0.000014240853488445282,0.0020658252760767937,-0.0003737024962902069
1782838051708282600,0.86028271484375,-0.0008219778537750244,-0.00016137678176164627,-0.001883980818092823
1782838051718212900,0.870212890625,0.0004943376407027245,-0.000603843480348587,-0.00038963835686445236
1782838051728141800,0.880141845703125,-0.0015746718272566795,-0.0005889292806386948,0.001955541782081127
1782838051738070800,0.89007080078125,-0.0024158144369721413,-0.0037206197157502174,-0.0004839957691729069
1782838051747999700,0.899999755859375,-0.0001302901655435562,0.0005337800830602646,-0.0005612275563180447
1782838051757929700,0.9099296875,-0.00007587391883134842,-0.0015882477164268494,0.0006861500442028046
1782838051767858700,0.919858642578125,-0.0003605661913752556,-0.0011134054511785507,-0.001880604773759842
1782838051777787600,0.92978759765625,-0.0010894816368818283,-0.0021152328699827194,0.00027700886130332947
1782838051787716600,0.939716552734375,-0.0010990696027874947,-0.0009676767513155937,-0.0013344702310860157
1782838051797646800,0.949646728515625,0.00029263831675052643,-0.0002023177221417427,0.002534938044846058
1782838051807575800,0.959575927734375,-0.0005907313898205757,-0.00039406493306159973,0.0018150852993130684
1782838051817504800,0.9695048828125,-0.0010805623605847359,-0.000328700989484787,-0.0004747742787003517
1782838051827433700,0.979433837890625,0.000591902993619442,0.0006662560626864433,-0.0011043455451726913
1782838051837363700,0.98936376953125,-0.003374760039150715,-0.0001190919429063797,-0.0010286099277436733
1782838051847292700,0.999292724609375,0.0007020067423582077,0.0008297916501760483,-0.000913295429199934
1782838051857222000,1.009221923828125,-0.001299646683037281,0.0032944539561867714,0.0011356426402926445
1782838051867150800,1.01915087890625,-0.0005241343751549721,0.0019173333421349525,0.0006038099527359009
1782838051877079800,1.029079833984375,0.00035834405571222305,0.00025746505707502365,-0.0015739663504064083
1782838051887009800,1.039009765625,-0.000762048177421093,0.0026079704985022545,0.0005821287631988525
1782838051896938800,1.048938720703125,-0.0008603986352682114,0.0017835265025496483,0.0007930407300591469
1782838051906867700,1.05886767578125,0.0031479252502322197,-0.0010237116366624832,-0.0027558873407542706
1782838051916796700,1.068796630859375,-0.0010953284800052643,0.00029025785624980927,0.0009554438292980194
1782838051926727000,1.078726806640625,-0.0011696312576532364,-0.002905535511672497,0.0018294928595423698
1782838051936656000,1.08865576171875,-0.0010989541187882423,-0.00018518511205911636,0.0009408537298440933
1782838051946584600,1.09858447265625,-0.0007974840700626373,-0.0022736359387636185,0.0009184833616018295
1782838051956513500,1.108513427734375,0.002609638497233391,0.0013634804636240005,-0.0018293722532689571
1782838051966443800,1.11844384765625,0.00022238120436668396,-0.00019366946071386337,0.0028641829267144203
1782838051976372700,1.128372802734375,0.0010523227974772453,-0.001506342552602291,-0.0003597787581384182
1782838051986301700,1.1383017578125,0.0008299490436911583,-0.002120201475918293,-0.0010287645272910595
1782838051996231000,1.14823095703125,0.0012213466688990593,-0.0014003533869981766,-0.00014801602810621262
1782838052006160600,1.15816064453125,0.0009888531640172005,-0.0007801037281751633,-0.003598407842218876
1782838052016089600,1.168089599609375,-0.00011257454752922058,0.0026812469586730003,-0.00044534821063280106
1782838052026018800,1.178018798828125,-0.0005477350205183029,-0.0005438411608338356,-0.0006770435720682144
1782838052035947800,1.18794775390625,0.0011884979903697968,-0.00021112896502017975,-0.0005674166604876518
1782838052045877800,1.197877685546875,-0.0014104805886745453,0.00016277842223644257,0.003007078543305397
1782838052055806700,1.207806640625,0.0007681306451559067,0.0018468154594302177,0.0002497956156730652
1782838052065736000,1.21773583984375,0.0006959587335586548,0.0010169744491577148,0.00020052772015333176
1782838052075664600,1.22766455078125,0.0000882130116224289,0.0007866397500038147,-0.0027192914858460426
1782838052085594600,1.2375947265625,0.0003529312089085579,-0.001124444417655468,-0.0007038111798465252
1782838052095523800,1.24752392578125,-0.002594929188489914,-0.00221138633787632,0.000657208263874054
1782838052105452800,1.257452880859375,-0.0006518876180052757,-0.0007876604795455933,0.0006894329562783241
1782838052115381800,1.2673818359375,-0.00021606683731079102,-0.0009985240176320076,-0.0011317608878016472
1782838052125311700,1.277311767578125,0.0005024541169404984,-0.003347698599100113,0.003045407123863697
1782838052135240700,1.28724072265625,-0.001241898164153099,-0.0004612579941749573,0.000019340775907039642
1782838052145169700,1.297169677734375,0.0006822356954216957,-0.0014969613403081894,-0.00003259163349866867
1782838052155098600,1.3070986328125,0.001438838429749012,-0.0006510866805911064,-0.0010714055970311165
1782838052165028900,1.31702880859375,-0.00005865748971700668,0.0009201783686876297,-0.0008793915621936321
1782838052174957800,1.326957763671875,-0.00047028064727783203,0.00020535383373498917,0.000746535137295723
1782838052184886800,1.33688671875,-0.0020964061841368675,-0.0014529963955283165,0.0026381779462099075
1782838052194815700,1.346815673828125,0.00039079226553440094,0.0029078591614961624,0.0009050406515598297
1782838052204744700,1.35674462890625,0.001425696536898613,-0.0008461326360702515,0.000606500543653965
1782838052214674700,1.3666748046875,-0.0010393736883997917,0.003026120364665985,0.0008983928710222244
1782838052224603600,1.376603759765625,0.0025803949683904648,-0.00000508967787027359,0.0015407465398311615
1782838052234532900,1.386532958984375,-0.0010206717997789383,0.0003239121288061142,0.00186263769865036
1782838052244461800,1.3964619140625,0.0008579213172197342,0.0003012754023075104,0.004411016590893269
1782838052254391600,1.4063916015625,0.0006986074149608612,0.002988814376294613,0.0016217436641454697
1782838052264320800,1.41632080078125,0.00021311361342668533,-0.0009185755625367165,0.00021852366626262665
1782838052274249700,1.426249755859375,0.0008709868416190147,-0.0009619472548365593,0.00010265223681926727
1782838052284178700,1.4361787109375,-0.0006262417882680893,0.0022498248144984245,0.0005753636360168457
1782838052294108700,1.446108642578125,-0.0005396204069256783,-0.0009142039343714714,0.00003220699727535248
1782838052304038000,1.456037841796875,-0.0014517530798912048,0.0003523947671055794,0.0015563340857625008
1782838052313966800,1.465966796875,0.002007679082453251,-0.0003829486668109894,-0.0013539637438952923
1782838052323895800,1.475895751953125,-0.0010112803429365158,0.0020812740549445152,0.0016711214557290077
1782838052333825800,1.48582568359375,0.0007483968511223793,-0.0015034228563308716,0.00204577948898077
1782838052343754800,1.495754638671875,-0.0020300792530179024,0.0016446998342871666,-0.002468544989824295
1782838052353683700,1.50568359375,0.00029366184026002884,0.002543896436691284,-0.0002993457019329071
1782838052363612700,1.51561279296875,-0.001251503825187683,0.00040617771446704865,-0.0004974845796823502
1782838052373543000,1.52554296875,-0.001454581506550312,-0.0012055560946464539,0.0011211428791284561
1782838052383471600,1.5354716796875,0.00003092922270298004,0.0021992959082126617,-0.0006653056479990482
1782838052393400600,1.545400634765625,0.0012216167524456978,0.00009675323963165283,0.0010343771427869797
1782838052403329800,1.555329833984375,-0.0006013177335262299,0.0007739951834082603,0.0020498400554060936
1782838052413259800,1.565259765625,0.0013438137248158455,-0.002311183139681816,-0.0004289611242711544
1782838052423188700,1.575188720703125,-0.001131860539317131,-0.00017639342695474625,-0.002921679988503456
1782838052433117700,1.58511767578125,0.0015475135296583176,-0.00024422071874141693,-0.00034584058448672295
1782838052443047000,1.595046875,0.0005272570997476578,-0.0013704709708690643,-0.003012197557836771
1782838052452976600,1.6049765625,0.0004568686708807945,-0.0035688532516360283,0.0012220731005072594
1782838052462905600,1.614905517578125,0.0007162606343626976,-0.0012958450242877007,0.0008028913289308548
1782838052472834800,1.624834716796875,-0.003188658505678177,-0.003071756102144718,-0.0014761360362172127
1782838052482763800,1.634763671875,-0.00028155185282230377,0.00011125393211841583,0.001728445291519165
1782838052492692700,1.644692626953125,0.0005208821967244148,0.00008353404700756073,-0.00039977021515369415
1782838052502622700,1.654622802734375,0.00022900011390447617,0.0007192306220531464,-0.0007446496747434139
1782838052512551700,1.6645517578125,0.0011062901467084885,-0.0008673658594489098,-0.00011670868843793869
1782838052522480600,1.674480712890625,0.0003456920385360718,0.002116173505783081,0.0008886344730854034
1782838052532409600,1.68440966796875,-0.0034625856205821037,0.0007719481363892555,0.0007618311792612076
1782838052542339800,1.69433984375,-0.00118318572640419,-0.0011521857231855392,0.0008854018524289131
1782838052552268800,1.704268798828125,-0.0005495408549904823,0.0002610534429550171,0.001004064455628395
1782838052562197800,1.71419775390625,-0.000024098902940750122,0.001934317871928215,0.0018522804602980614
1782838052572126700,1.724126708984375,-0.000021529383957386017,0.002207918092608452,-0.0007044658996164799
1782838052582056700,1.734056640625,0.0003411928191781044,0.0030862288549542427,0.0011461647227406502
1782838052591985700,1.743985595703125,-0.0031173638999462128,-0.00016729626804590225,-0.0008015497587621212
1782838052601914600,1.75391455078125,-0.000782037153840065,0.00008330680429935455,0.0010245796293020248
1782838052611843800,1.76384375,-0.0007014218717813492,-0.0000047441571950912476,0.0023285895586013794
1782838052621773800,1.77377392578125,0.00038834288716316223,0.001247473992407322,-0.0016041002236306667
1782838052631702800,1.783702880859375,-0.003426681272685528,0.0002798261120915413,-0.00306311110034585
1782838052641631700,1.7936318359375,-0.0002548564225435257,0.0005653174594044685,-0.0019158213399350643
1782838052651560700,1.803560791015625,0.0010292278602719307,-0.0011432385072112083,-0.0014076395891606808
1782838052661490700,1.81349072265625,-0.0012760041281580925,-0.0011666743084788322,0.0005894647911190987
1782838052671420000,1.823419921875,-0.0006659058853983879,0.0003953762352466583,0.0015511233359575272
1782838052681348900,1.833348876953125,0.00020548049360513687,-0.0009503187611699104,-0.000866228248924017
1782838052691277800,1.84327783203125,-0.0015863347798585892,-0.0010585002601146698,0.00027613621205091476
1782838052701204200,1.853204345703125,0.0014973394572734833,-0.0009245434775948524,0.001191197894513607
1782838052711133200,1.86313330078125,0.00016371812671422958,-0.0022811833769083023,-0.0005632149986922741
1782838052721062100,1.873062255859375,0.001399957574903965,0.00010021589696407318,-0.0008748047985136509
1782838052730991400,1.882991455078125,-0.00001693516969680786,-0.001293945126235485,0.0001916792243719101
1782838052740921300,1.89292138671875,-0.0013194875791668892,0.0036360984668135643,0.0018913084641098976
1782838052750850300,1.902850341796875,0.002475193701684475,0.001125534065067768,-0.0029977704398334026
1782838052760779300,1.912779296875,0.001614726148545742,0.001846184954047203,0.0007908428087830544
1782838052770708200,1.922708251953125,-0.00002726539969444275,0.0014523910358548164,-0.000027813948690891266
1782838052780638200,1.93263818359375,0.0005066981539130211,0.00032853707671165466,-0.0015817680396139622
1782838052790567200,1.942567138671875,-0.0023907627910375595,0.001715879887342453,-0.0004992550238966942
1782838052800496400,1.952496337890625,-0.0006080428138375282,0.0007992200553417206,-0.00010244408622384071
1782838052810425300,1.96242529296875,-0.00017055310308933258,0.00002170819789171219,-0.0030326037667691708
1782838052820355000,1.97235498046875,-0.00011009909212589264,-0.0014752550050616264,0.00020260456949472427
1782838052830284300,1.9822841796875,0.0007136594504117966,0.0007262881845235825,0.0009579984471201897
1782838052840213200,1.992213134765625,-0.000033357180655002594,-0.002274028956890106,0.002421138808131218
1782838052850142200,2.00214208984375,-0.0003544371575117111,-0.0002610767260193825,-0.0018858378753066063
1782838052860072200,2.012072265625,0.002504732459783554,-0.0011974433436989784,-0.0007651797495782375
1782838052870001400,2.02200146484375,-0.00033755507320165634,0.0014196140691637993,0.002256409265100956
1782838052879930400,2.031930419921875,0.0008997498080134392,-0.0003937315195798874,-0.0009484384208917618
1782838052889859000,2.041859130859375,-0.0002141399309039116,-0.00043344125151634216,-0.0003199661150574684
1782838052899788000,2.0517880859375,-0.0010935161262750626,-0.0011732680723071098,-0.0010925489477813244
1782838052909718300,2.06171826171875,0.0005542347207665443,0.00011039525270462036,-0.0002730628475546837
1782838052919647200,2.071647216796875,-0.0008649630472064018,-0.0012547411024570465,0.00019565317779779434
1782838052929576200,2.081576171875,-0.00005319993942975998,0.0005830945447087288,0.0016675060614943504
1782838052939505400,2.09150537109375,-0.0002702474594116211,0.0023801960051059723,-0.0010174931958317757
1782838052949435100,2.10143505859375,0.0007276730611920357,0.000025599263608455658,0.00044904742389917374
1782838052959364000,2.111364013671875,0.00002033822238445282,0.00007247086614370346,-0.001556313131004572
1782838052969293300,2.121293212890625,-0.00010663550347089767,-0.002188132144510746,0.00025005824863910675
1782838052979222300,2.13122216796875,-0.0005210237577557564,0.0008497359231114388,-0.00003170408308506012
1782838052989152300,2.14115234375,-0.00019768066704273224,-0.0013587111607193947,-0.0009237774647772312
1782838052999081200,2.151081298828125,-0.00031805597245693207,0.0006543723866343498,0.0019031679257750511
1782838053009010400,2.161010498046875,-0.00157108623534441,-0.0021438635885715485,0.0003447411581873894
1782838053018939100,2.170939208984375,0.0004166970029473305,-0.00016540102660655975,0.0022369176149368286
1782838053028869000,2.180869140625,-0.0017072046175599098,-0.00020133331418037415,-0.0015094392001628876
1782838053038798300,2.19079833984375,-0.000902131199836731,0.0007643289864063263,0.0036901161074638367
1782838053048727300,2.200727294921875,0.0002019619569182396,-0.00008109956979751587,-0.0018258681520819664
1782838053058656300,2.21065625,-0.0012787561863660812,0.00021823961287736893,-0.0002649892121553421
1782838053068586200,2.220586181640625,-0.0014023100957274437,0.000553554855287075,0.0013761278241872787
1782838053078515200,2.23051513671875,-0.001560235396027565,0.002504587173461914,-0.0003983364440500736
1782838053088444200,2.240444091796875,-0.001359076239168644,0.00017774570733308792,-0.00006863567978143692
1782838053098373000,2.250373046875,0.00006092153489589691,0.0017042700201272964,0.0006935605779290199
1782838053108303400,2.260303466796875,-0.0002325763925909996,-0.0007861675694584846,0.00008529983460903168
1782838053118232300,2.270232421875,0.00033094920217990875,-0.0006530098617076874,0.0017873262986540794
1782838053128161300,2.280161376953125,0.0012150444090366364,0.0016016392037272453,0.0015987483784556389
1782838053138090200,2.29009033203125,-0.0009208107367157936,0.0013747373595833778,0.0021747900173068047
1782838053148020200,2.300020263671875,-0.0009181303903460503,-0.000871424563229084,-0.0020040208473801613
1782838053157949200,2.30994921875,0.00018708128482103348,-0.001560916192829609,0.00006898399442434311
1782838053167878100,2.319878173828125,0.0003048917278647423,0.001762203872203827,-0.001662129070609808
1782838053177807400,2.329807373046875,0.00006946828216314316,-0.00119816605001688,-0.0007369471713900566
1782838053187737300,2.3397373046875,0.0005019558593630791,0.0004597781226038933,-0.0008245273493230343
1782838053197666000,2.349666015625,0.0032069291919469833,-0.00020627863705158234,0.0020362399518489838
1782838053207595300,2.35959521484375,-0.0001528039574623108,0.0004980312660336494,-0.0018922793678939342
1782838053217524200,2.369524169921875,0.0014365706592798233,-0.0007256912067532539,-0.000877082347869873
1782838053227454200,2.3794541015625,0.0004089614376425743,0.002977745607495308,0.0009825490415096283
1782838053237383200,2.389383056640625,0.00041348859667778015,0.0009492160752415657,0.0008778870105743408
1782838053247312400,2.3993125,-0.002033524215221405,0.00016155652701854706,-0.00038985349237918854
1782838053257241300,2.409241455078125,-0.0008862344548106194,0.0005051037296652794,0.00005862303078174591
1782838053267171000,2.419171142578125,0.0024436265230178833,0.0016986075788736343,-0.001842787954956293
1782838053277100300,2.429100341796875,0.0008111093193292618,0.0009598461911082268,0.00020731333643198013
1782838053287029200,2.439029296875,0.00019186176359653473,-0.000038739293813705444,0.0002374323084950447
1782838053296958200,2.448958251953125,0.0021876348182559013,-0.00013647694140672684,0.0003444906324148178
1782838053306888400,2.458888427734375,0.0003331173211336136,-0.0020392220467329025,-0.00031422916799783707
1782838053316817400,2.4688173828125,0.0027826931327581406,0.0008716126903891563,-0.00162530317902565
1782838053326746000,2.47874609375,-0.0007935678586363792,-0.0020115673542022705,0.0006358418613672256
1782838053336675000,2.488675048828125,-0.00027345307171344757,0.0004036528989672661,-0.00085819186642766
1782838053346605300,2.498605224609375,-0.00034614279866218567,-0.000273093581199646,-0.0003356286324560642
1782838053356534300,2.5085341796875,0.0012088771909475327,0.0017184177413582802,-0.001913551241159439
1782838053366463200,2.518463134765625,0.0025366172194480896,0.0007382119074463844,-0.00045870570465922356
1782838053376392400,2.528392333984375,0.0005051586776971817,0.0018982850015163422,0.0006523644551634789
1782838053386322200,2.538322265625,-0.001031113788485527,-0.000007936730980873108,0.0009568026289343834
1782838053396251100,2.548251220703125,0.0001361500471830368,-0.00009209290146827698,0.00030992086976766586
1782838053406180000,2.55818017578125,0.00021312199532985687,-0.0004022205248475075,0.0007661720737814903
1782838053416109300,2.568109375,0.0019010333344340324,0.0013802330940961838,0.0019241152331233025
1782838053426039300,2.578039306640625,-0.0014888830482959747,0.0006923386827111244,0.0001589721068739891
1782838053435968300,2.58796826171875,-0.0010268241167068481,0.0005914047360420227,0.00015764031559228897
1782838053445897200,2.597897216796875,0.0016126278787851334,0.0001565776765346527,0.0021820981055498123
1782838053455826200,2.607826171875,-0.0013237735256552696,0.0009952066466212273,-0.000864025205373764
1782838053465756200,2.617756103515625,0.00027895811945199966,0.0022404389455914497,-0.0001232251524925232
1782838053475685400,2.627685302734375,0.0025860536843538284,0.002867346629500389,0.00015933625400066376
1782838053485614300,2.6376142578125,0.0005936967208981514,0.0014530569314956665,0.0010825665667653084
1782838053495543300,2.647543212890625,0.001384655013680458,-0.0006527043879032135,-0.0004980191588401794
1782838053505473000,2.65747314453125,-0.0010595889762043953,0.00006564799696207047,-0.0017731883563101292
1782838053515402200,2.66740234375,0.0005132732912898064,-0.0007205167785286903,0.0013123499229550362
1782838053525331200,2.677331298828125,0.0004432573914527893,0.0006485385820269585,-0.001068443525582552
1782838053535260200,2.68726025390625,0.0016781650483608246,-0.002042585052549839,-0.001558997668325901
1782838053545190400,2.6971904296875,0.0003054169937968254,0.000013251788914203644,-0.000524597242474556
1782838053555119400,2.707119384765625,0.001289987936615944,-0.002583063207566738,0.00003839470446109772
1782838053565048300,2.71704833984375,-0.0016571730375289917,0.0008781012147665024,0.002149650827050209
1782838053574977300,2.726977294921875,0.0005841432139277458,-0.0028644390404224396,0.0001869015395641327
1782838053584907300,2.7369072265625,-0.0006955955177545547,-0.0026147831231355667,0.0018990086391568184
1782838053594836200,2.746836181640625,-0.0006359405815601349,0.0040545715019106865,0.00015863310545682907
1782838053604765200,2.75676513671875,0.00042690709233283997,0.00021778326481580734,0.002151012420654297
1782838053614694400,2.7666943359375,-0.0007065339013934135,0.0016399119049310684,-0.002952935639768839
1782838053624624000,2.7766240234375,0.00036793574690818787,0.0009785452857613564,-0.0019375164993107319
1782838053634553000,2.786552978515625,0.0027053924277424812,0.0036249281838536263,0.0005722464993596077
1782838053644482000,2.79648193359375,0.0019727088510990143,0.0013462211936712265,0.00196212250739336
1782838053654411300,2.806411376953125,-0.00022439844906330109,0.0018636733293533325,0.0006254818290472031
1782838053664341200,2.81634130859375,0.0003875410184264183,0.0019480427727103233,0.0014630518853664398
1782838053674270200,2.826270263671875,0.0015497440472245216,0.00020527001470327377,-0.0009987736120820045
1782838053684199400,2.836199462890625,0.0007584644481539726,0.0005296366289258003,-0.000876791775226593
1782838053694128400,2.84612841796875,0.0015568798407912254,-0.0005755750462412834,-0.0006400370039045811
1782838053704058400,2.856058349609375,-0.0005532130599021912,-0.00014141574501991272,-0.0004318235442042351
1782838053713987600,2.865987548828125,0.0018982263281941414,-0.0033297520130872726,-0.00022116722539067268
1782838053723916500,2.87591650390625,-0.0022900765761733055,0.0005395077168941498,-0.0016160127706825733
1782838053733845500,2.885845458984375,0.0003480510786175728,0.0006947703659534454,0.002638920210301876
1782838053743774500,2.8957744140625,0.0004220129922032356,-0.00006558839231729507,0.0010202666744589806
1782838053753704400,2.905704345703125,-0.0015266211703419685,-0.0005747852846980095,0.00042158737778663635
1782838053763633400,2.91563330078125,-0.0024408772587776184,-0.0003197668120265007,-0.0005834838375449181
1782838053773562400,2.925562255859375,-0.0013836026191711426,-0.0001834128051996231,0.0009033586829900742
1782838053783491600,2.93549169921875,-0.0010122358798980713,0.0012732623144984245,0.0008748499676585197
1782838053793421600,2.945421630859375,0.0009020445868372917,0.0005171913653612137,0.00009640771895647049
1782838053803350500,2.9553505859375,0.0016243951395154,0.0005178395658731461,0.001486598514020443
1782838053813279500,2.965279541015625,-0.0010435599833726883,-0.00011279713362455368,0.0008748704567551613
1782838053823209500,2.97520947265625,0.0018073925748467445,0.002225799486041069,-0.0007159300148487091
1782838053833138400,2.985138427734375,0.002497950568795204,0.0020638788118958473,0.0007914192974567413
1782838053843067400,2.9950673828125,0.0018154522404074669,0.001529507339000702,-0.0007309718057513237
1782838053852996600,3.00499658203125,0.0006726896390318871,-0.00272489245980978,0.0007960852235555649
1782838053862925600,3.014925537109375,-0.0006125122308731079,0.0014027776196599007,-0.0008864575065672398
1782838053872855600,3.02485546875,0.0006743269041180611,-0.0005495855584740639,-0.0020569167099893093
1782838053882784500,3.034784423828125,0.0005530696362257004,-0.0018286239355802536,0.00048674270510673523
1782838053892713500,3.04471337890625,0.0023341914638876915,0.0008465209975838661,-0.0001540137454867363
1782838053902643500,3.0546435546875,0.0014875400811433792,0.0026258332654833794,0.00023127160966396332
1782838053912572400,3.064572509765625,-0.00034071970731019974,0.0004351167008280754,-0.0010867267847061157
1782838053922501600,3.074501708984375,-0.00002856086939573288,0.0008277194574475288,0.001183551736176014
1782838053932430600,3.0844306640625,0.0013725273311138153,0.0003821728751063347,-0.0002931705676019192
1782838053942359600,3.094359619140625,-0.0014054328203201294,0.001545545645058155,-0.00021156622096896172
1782838053952289500,3.10428955078125,0.0006699683144688606,0.0010565891861915588,-0.0018984121270477772
1782838053962218500,3.114218505859375,-0.0014506960287690163,0.0005126558244228363,-0.0006118244491517544
1782838053972147500,3.1241474609375,-0.001550830900669098,0.0013845749199390411,-0.0017660381272435188
1782838053982077700,3.13407763671875,0.0017427075654268265,0.0026121996343135834,-0.0023608077317476273
1782838053992006700,3.144006591796875,0.0004958156496286392,0.0005471846088767052,0.0025828182697296143
1782838054001935400,3.153935302734375,-0.001429225318133831,0.0011955676600337029,-0.0019118515774607658
1782838054011864300,3.1638642578125,-0.001497136428952217,0.00025467295199632645,-0.0022788355126976967
1782838054021794600,3.173794677734375,-0.0015259310603141785,0.001262059435248375,0.0012042606249451637
1782838054031723500,3.1837236328125,0.000456259585916996,0.0006793597713112831,0.0015419498085975647
1782838054041652500,3.193652587890625,-0.0006955582648515701,0.002138153649866581,-0.0007239016704261303
1782838054051581400,3.20358154296875,0.0003649117425084114,0.002620185725390911,-0.001366256270557642
1782838054061511400,3.213511474609375,0.0007167998701334,-0.0017847325652837753,-0.00045628659427165985
1782838054071440400,3.2234404296875,-0.0016105370596051216,-0.0029037930071353912,0.0005924664437770844
1782838054081369300,3.233369384765625,0.0001467335969209671,-0.000003164634108543396,0.0004521366208791733
1782838054091298600,3.243298583984375,0.000940355472266674,-0.0005472488701343536,-0.00017770100384950638
1782838054101228500,3.253228515625,-0.00011295080184936523,0.00006219092756509781,-0.002198058646172285
1782838054111157500,3.263157470703125,-0.001242397353053093,-0.0013045426458120346,0.0014001382514834404
1782838054121086700,3.273086669921875,-0.0012477850541472435,-0.001582946628332138,-0.0007998999208211899
1782838054131015400,3.283015380859375,0.001522967591881752,-0.0006537698209285736,0.000038197264075279236
1782838054140945400,3.2929453125,-0.0012429989874362946,-0.001271391287446022,-0.001624944619834423
1782838054150874600,3.30287451171875,0.0014166999608278275,0.0015246616676449776,-0.0012347912415862083
1782838054160803600,3.312803466796875,-0.000763540156185627,0.00016164127737283707,0.00023515429347753525
1782838054170732500,3.322732666015625,-0.00015154574066400528,-0.001217610202729702,-0.0007800422608852386
1782838054180662300,3.332662353515625,-0.0026504797860980034,-0.0012977467849850655,0.00006344914436340332
1782838054190591500,3.342591552734375,-0.0013737604022026062,-0.0007438091561198235,0.0005587972700595856
1782838054200520400,3.3525205078125,0.0005603469908237457,0.0009648436680436134,0.0003483779728412628
1782838054210449400,3.362449462890625,-0.0014282353222370148,0.0028897766023874283,-0.0016298186965286732
1782838054220379600,3.372379638671875,0.0004556644707918167,0.0005156043916940689,0.00012427382171154022
1782838054230308600,3.38230859375,0.0008428879082202911,-0.0002604415640234947,-0.0019069192931056023
1782838054240237600,3.392237548828125,-0.000893784686923027,0.001242700032889843,-0.0014408458955585957
1782838054250166500,3.40216650390625,0.0011973297223448753,-0.0011118007823824883,-0.001124995294958353
1782838054260096500,3.412096435546875,-0.002678699791431427,0.0016715209931135178,-0.0015456830151379108
1782838054270025500,3.422025390625,0.00022787414491176605,-0.0006432989612221718,-0.0011131856590509415
1782838054279954400,3.431954345703125,0.00044933799654245377,-0.0008226772770285606,0.001037544570863247
1782838054289883600,3.441883544921875,-0.00040633510798215866,0.0012130429968237877,0.0014897491782903671
1782838054299813600,3.451813720703125,0.0002949899062514305,-0.0013435287401080132,0.002176038920879364
1782838054309742300,3.461742431640625,0.00037648342549800873,-0.0008095651865005493,0.0012223608791828156
1782838054319671300,3.47167138671875,-0.0000364379957318306,-0.0005885213613510132,0.0014830557629466057
1782838054329600500,3.4816005859375,0.0034248726442456245,0.002511131577193737,-0.0014916947111487389
1782838054339530500,3.491530517578125,0.001385210081934929,0.0006415359675884247,-0.00012248381972312927
1782838054349459500,3.50145947265625,-0.000798315741121769,0.00045005418360233307,-0.0006364742293953896
1782838054359388700,3.511388671875,0.0007067238911986351,0.001122666522860527,0.000028396956622600555
1782838054369317600,3.521317626953125,-0.001567348837852478,-0.00009679514914751053,0.0015748953446745872
1782838054379247400,3.531247314453125,0.0014346744865179062,0.00003651808947324753,0.0009036185219883919
1782838054389176600,3.541176513671875,-0.000286259688436985,-0.0018727025017142296,0.00008336454629898071
1782838054399105500,3.55110546875,-0.0006486177444458008,0.00035741087049245834,0.0007279003039002419
1782838054409034500,3.561034423828125,-0.0013538235798478127,-0.0004849471151828766,-0.0002308376133441925
1782838054418964500,3.570964599609375,0.0005438933148980141,0.0006844159215688705,-0.0006009824573993683
1782838054428893400,3.5808935546875,-0.001913139596581459,-0.002405916340649128,0.0009830659255385399
1782838054438822400,3.590822509765625,0.00021773390471935272,0.000171024352312088,-0.0009331176988780499
1782838054448751400,3.60075146484375,0.0009607560932636261,-0.001164018176496029,0.0007689082995057106
1782838054458681600,3.610681640625,0.0009978115558624268,0.00042007118463516235,-0.0026586679741740227
1782838054468610600,3.620610595703125,0.0021903757005929947,0.0003257952630519867,0.001965112052857876
1782838054478539500,3.63053955078125,-0.000317341648042202,0.0016595153138041496,0.0006258226931095123
1782838054488468500,3.640468505859375,-0.00006753671914339066,0.0011303452774882317,0.0031052259728312492
1782838054498398500,3.6503984375,0.0011991150677204132,0.002878403291106224,-0.00010493863373994827
1782838054508327400,3.660327392578125,0.0015932628884911537,0.00009832903742790222,0.0012367619201540947
1782838054518256400,3.67025634765625,0.002628370188176632,0.00035912077873945236,-0.0000980030745267868
1782838054528185600,3.680185546875,-0.0005620969459414482,-0.000280037522315979,-0.00019174674525856972
1782838054538115600,3.690115478515625,0.0023586926981806755,0.0020908592268824577,0.0010666688904166222
1782838054548044500,3.70004443359375,0.0002529313787817955,0.0024370700120925903,0.0010043513029813766
1782838054557973500,3.709973388671875,0.00021564122289419174,0.00005444232374429703,0.0007897131145000458
1782838054567902500,3.71990234375,0.0026923809200525284,-0.0021578455343842506,0.0016038408502936363
1782838054577832400,3.72983251953125,-0.0008508786559104919,0.0016532819718122482,0.001737167127430439
1782838054587761400,3.739761474609375,0.001591772772371769,0.0009954813867807388,0.0015430226922035217
1782838054597690600,3.749690673828125,-0.0009475089609622955,0.00024738721549510956,-0.0000630989670753479
1782838054607619600,3.75961962890625,-0.0014481833204627037,0.000245789997279644,-0.00007295235991477966
1782838054617549300,3.76954931640625,0.0003520697355270386,-0.0011408394202589989,-0.002126382663846016
1782838054627478500,3.779478515625,-0.00016671419143676758,-0.0006201919168233871,-0.001672846730798483
1782838054637407500,3.789407470703125,-0.0014709318056702614,0.0005483841523528099,0.00008760672062635422
1782838054647336400,3.79933642578125,-0.00018355995416641235,0.0006591714918613434,-0.0006460943259298801
1782838054657266400,3.809266357421875,0.0002833297476172447,-0.0006357235834002495,-0.001089868601411581
1782838054667195600,3.819195556640625,-0.0002756677567958832,0.00007933564484119415,0.00039777345955371857
1782838054677124600,3.82912451171875,0.0006348909810185432,-0.0005457811057567596,-0.0004498348571360111
1782838054687054300,3.839054443359375,0.00036511290818452835,-0.0003732079640030861,0.0017315605655312538
1782838054696983600,3.848983642578125,0.0004926277324557304,0.0013865632936358452,-0.0029083709232509136
1782838054706912500,3.85891259765625,0.0024902643635869026,0.00069387536495924,-0.0011059432290494442
1782838054716841500,3.868841552734375,-0.0002856384962797165,0.0005138153210282326,-0.00018757907673716545
1782838054726771500,3.878771484375,0.001623847521841526,0.0025540627539157867,-0.00034523801878094673
1782838054736700400,3.888700439453125,-0.0010554315522313118,0.0008778180927038193,0.00013905391097068787
1782838054746629400,3.89862939453125,-0.00024636369198560715,-0.000676935538649559,0.0007438575848937035
1782838054756558300,3.908558349609375,0.0001821964979171753,-0.0019930675625801086,0.0015151379629969597
1782838054766488600,3.918488525390625,-0.002143542282283306,-0.0006811944767832756,-0.0009264480322599411
1782838054776417500,3.92841748046875,0.002209167927503586,0.00024231895804405212,-0.00035381317138671875
1782838054786346500,3.938346435546875,-0.00044493842869997025,-0.00007779337465763092,-0.0039357650093734264
1782838054796275500,3.948275390625,-0.0005508121103048325,0.000856693834066391,0.003144601359963417
1782838054806205400,3.958205322265625,-0.0005207182839512825,0.0013453839346766472,0.0006372351199388504
1782838054816134400,3.968134521484375,-0.0011079581454396248,0.00027020182460546494,0.0028103645890951157
1782838054826063400,3.9780634765625,0.0019219201058149338,-0.0006552468985319138,0.00015466008335351944
1782838054835992300,3.987992431640625,0.0006255470216274261,0.00008876621723175049,0.00016318261623382568
1782838054845922600,3.997922607421875,-0.0006296010687947273,0.00005068257451057434,-0.0005516097880899906
1782838054855851500,4.0078515625,0.0015221238136291504,0.002803623676300049,-0.0003563612699508667
1782838054865780500,4.017780517578125,-0.0003663236275315285,0.0003881361335515976,-0.0002687433734536171
1782838054875709400,4.02770947265625,0.00046222563832998276,0.00006252061575651169,-0.0015658177435398102
1782838054885639400,4.037639404296875,0.003635914996266365,-0.0009169895201921463,-0.0010102824307978153
1782838054895568400,4.047568359375,-0.0007424922659993172,0.001445624977350235,-0.0008234935812652111
1782838054905497600,4.05749755859375,0.0000748317688703537,-0.0007690591737627983,-0.000627751462161541
1782838054915426600,4.067426513671875,0.0013531344011425972,-0.0008270218968391418,-0.000172298401594162
1782838054925356300,4.077356201171875,-0.000989115796983242,-0.0008461968973278999,0.0008732583373785019
1782838054935285500,4.087285400390625,-0.0002381596714258194,0.0010507479310035706,0.00011808425188064575
1782838054945214500,4.09721435546875,-0.0015668105334043503,-0.00026778317987918854,-0.0005202754400670528
1782838054955143400,4.107143310546875,-0.0012488830834627151,-0.0010326998308300972,0.0036524413153529167
1782838054965073400,4.117073486328125,0.0013682050630450249,-0.0021299226209521294,-0.0009484360925853252
1782838054975002600,4.127002685546875,-0.002123858779668808,-0.0014751404523849487,0.00013075489550828934
1782838054984931600,4.136931640625,-0.0004391428083181381,0.00015924125909805298,-0.00039442069828510284
1782838054994860300,4.1468603515625,0.002621125429868698,-0.00025077443569898605,-0.0011415346525609493
1782838055004790500,4.15679052734375,0.0002820715308189392,0.00021075084805488586,0.0004995055496692657
1782838055014719500,4.166719482421875,-0.0018452070653438568,0.0006072642281651497,0.002131132408976555
1782838055024648400,4.1766484375,0.0009202193468809128,0.0008189855143427849,0.0008783815428614616
1782838055034577400,4.186577392578125,-0.00036462675780057907,0.00027798116207122803,0.0006610807031393051
1782838055044507400,4.19650732421875,0.001519826240837574,0.0031755007803440094,-0.0017000781372189522
1782838055054436400,4.206436279296875,0.0008127633482217789,0.00040422193706035614,-0.0014813337475061417
1782838055064365300,4.216365234375,0.0002857232466340065,0.00024310126900672913,0.002818872220814228
1782838055074294500,4.22629443359375,0.0010714586824178696,0.0016109868884086609,0.0030229343101382256
1782838055084224500,4.236224609375,0.0003103269264101982,0.0024871667847037315,-0.0004162718541920185
1782838055094153500,4.246153564453125,-0.0005157934501767159,0.00043434835970401764,-0.0000781053677201271
1782838055104082400,4.25608251953125,0.000010447576642036438,-0.0010064216330647469,0.0002460004761815071
1782838055114012400,4.266012451171875,0.0003072572872042656,-0.0023780539631843567,0.002117825672030449
1782838055123941400,4.27594140625,0.0016673337668180466,0.0014560995623469353,0.0009271260350942612
1782838055133870300,4.285870361328125,0.00015508756041526794,-0.0008096331730484962,-0.0017301454208791256
1782838055143799600,4.295799560546875,0.00012179743498563766,-0.0021036630496382713,0.0011782925575971603
1782838055153729500,4.3057294921875,-0.00014267303049564362,-0.0009452076628804207,-0.0017334758304059505
1782838055163658500,4.315658447265625,0.00016625411808490753,0.0010553589090704918,-0.0008658180013298988
1782838055173587500,4.32558740234375,-0.0013080909848213196,-0.0002276608720421791,0.0007701516151428223
1782838055183516400,4.335516357421875,0.004322363995015621,-0.0006649522110819817,0.0023057302460074425
1782838055193446400,4.3454462890625,-0.00015070661902427673,0.001174180768430233,-0.0002706400118768215
1782838055203375400,4.355375244140625,-0.00014404859393835068,0.0027957800775766373,0.0017064912244677544
1782838055213304600,4.3653046875,-0.0011279694736003876,0.000994897447526455,0.0021893028169870377
1782838055223233500,4.375233642578125,-0.00012662075459957123,-0.0007361564785242081,0.0015144580975174904
1782838055233163300,4.385163330078125,0.0002530096098780632,-0.001266523264348507,0.00006207451224327087
1782838055243092500,4.395092529296875,-0.0014218520373106003,0.0014198077842593193,-0.0009078485891222954
1782838055253021400,4.405021484375,0.0030449796468019485,-0.0008151568472385406,-0.000775371678173542
1782838055262950400,4.414950439453125,0.0013530729338526726,0.000005097128450870514,-0.0005173115059733391
1782838055272880600,4.424880615234375,-0.0026621511206030846,-0.0010518897324800491,-0.0008355332538485527
1782838055282809600,4.4348095703125,-0.00012069661170244217,-0.0013360483571887016,-0.0018046577461063862
1782838055292738600,4.444738525390625,-0.0011156052350997925,0.0007703918963670731,-0.0023168884217739105
1782838055302667300,4.454667236328125,0.0005035968497395515,0.00014028791338205338,0.001008600927889347
1782838055312597500,4.464597412109375,0.004319310653954744,-0.0005819648504257202,0.00022733770310878754
1782838055322526500,4.4745263671875,-0.0011841114610433578,-0.000400337390601635,-0.0018541887402534485
1782838055332455400,4.484455322265625,0.0004202667623758316,0.0001972205936908722,-0.0031741117127239704
1782838055342384400,4.49438427734375,0.00031560473144054413,0.0011194739490747452,0.0008853450417518616
1782838055352314400,4.504314453125,-0.0006301011890172958,0.00184592604637146,-0.0008045369759202003
1782838055362243300,4.514243408203125,0.002039983868598938,0.0006070230156183243,-0.0014908332377672195
1782838055372172300,4.52417236328125,-0.0011965306475758553,0.0007097311317920685,0.0007976135239005089
1782838055382102500,4.5341025390625,0.0011355988681316376,0.00029188115149736404,-0.0006815060041844845
1782838055392031500,4.544031494140625,0.0005228156223893166,0.002688269130885601,0.001935596577823162
1782838055401960400,4.55396044921875,-0.0011808080598711967,0.002140723168849945,0.00243254192173481
1782838055411889700,4.5638896484375,0.0004952829331159592,0.0017793038859963417,-0.003452413249760866
1782838055421819400,4.5738193359375,0.0006779758259654045,0.0011081872507929802,-0.0015546446666121483
1782838055431748400,4.583748291015625,-0.0008015455678105354,0.0013202158734202385,-0.0012240028008818626
1782838055441677600,4.593677490234375,0.0013777194544672966,-0.002287568524479866,-0.0003379690460860729
1782838055451606500,4.6036064453125,0.0014853095635771751,0.00044159311801195145,0.0011032754555344582
1782838055461536500,4.61353662109375,-0.00074055977165699,-0.0013230172917246819,-0.0013031568378210068
1782838055471465500,4.623465576171875,0.0012718960642814636,0.0002536643296480179,0.0021292483434081078
1782838055481394400,4.63339453125,0.0010449942201375961,-0.0017237327992916107,0.001811266876757145
1782838055491323400,4.643323486328125,-0.00045295245945453644,0.0018452489748597145,-0.0004950640723109245
1782838055501253400,4.65325341796875,-0.00004788581281900406,0.0007986268028616905,-0.00029585976153612137
1782838055511182600,4.6631826171875,-0.0002863435074687004,-0.0005935430526733398,0.0020062094554305077
1782838055521111600,4.673111572265625,0.0025544501841068268,-0.0022050216794013977,-0.0006937030702829361
1782838055531040500,4.68304052734375,0.00037373416125774384,-0.0006509525701403618,-0.0010282071307301521
1782838055540970500,4.692970458984375,0.0003132801502943039,0.0014265794306993484,0.001006447710096836
1782838055550899500,4.7028994140625,-0.0010831989347934723,0.0005837436765432358,0.0017878208309412003
1782838055560828400,4.712828369140625,-0.0007588258013129234,0.0005919989198446274,-0.00036561116576194763
1782838055570757400,4.72275732421875,0.0014677401632070541,0.00099983811378479,0.002124330960214138
1782838055580687600,4.7326875,0.0007231207564473152,0.001146046444773674,0.0018819831311702728
1782838055590616600,4.742616455078125,0.00036945752799510956,0.0008310824632644653,0.0007936293259263039
1782838055600545300,4.752545166015625,0.0019822679460048676,0.0011573201045393944,-0.00039680348709225655
1782838055610474200,4.76247412109375,-0.0015875697135925293,0.0006350837647914886,-0.0017896178178489208
1782838055620404500,4.772404541015625,0.001279589720070362,-0.00024322699755430222,-0.000060161110013723373
1782838055630333400,4.78233349609375,-0.0031112302094697952,-0.0014092903584241867,0.001818929798901081
1782838055640262400,4.792262451171875,-0.00037563033401966095,0.0007228367030620575,0.0006418125703930855
1782838055650191600,4.802191650390625,0.001341470517218113,0.0002861572429537773,0.0015852013602852821
1782838055660121300,4.812121337890625,-0.0020918771624565125,-0.00044354889541864395,-0.00032774684950709343
1782838055670050300,4.82205029296875,-0.0009216088801622391,-0.001288711093366146,0.0018626311793923378
1782838055679979500,4.8319794921875,-0.00021294131875038147,-0.0015326570719480515,-0.0005142395384609699
1782838055689909500,4.841909423828125,-0.0021666400134563446,-0.0016626277938485146,-0.0017473287880420685
1782838055699838700,4.851838623046875,-0.002512851729989052,0.001213054172694683,0.000012754462659358978
1782838055709767700,4.861767578125,-0.0032551437616348267,0.0006867740303277969,-0.0022789468057453632
1782838055719696600,4.871696533203125,-0.003209870308637619,-0.001183031126856804,-0.0014363224618136883
1782838055729626600,4.881626708984375,0.0010451432317495346,-0.0022572530433535576,0.00006296858191490173
1782838055739555600,4.8915556640625,0.001210525631904602,-0.00022978894412517548,0.0021381033584475517
1782838055749484500,4.901484619140625,-0.0007543256506323814,0.0005956506356596947,0.0011245440691709518
1782838055759413500,4.91141357421875,0.001552504487335682,-0.001184140332043171,-0.0016781669110059738
1782838055769343500,4.921343505859375,-0.00009647291153669357,0.0012344000861048698,-0.0006798808462917805
1782838055779272400,4.9312724609375,0.001418866217136383,-0.0021028071641921997,0.0008703451603651047
1782838055789201400,4.941201416015625,0.000916922464966774,-0.0012416280806064606,-0.0006813947111368179
1782838055799130600,4.951130615234375,0.0006058653816580772,0.0006958218291401863,0.0015828246250748634
1782838055809060600,4.961060546875,0.0009754132479429245,-0.002358321100473404,-0.0027046073228120804
1782838055818989600,4.970989501953125,-0.00022460706532001495,-0.0010741446167230606,0.0009127641096711159
1782838055828918800,4.980918701171875,0.0002410607412457466,-0.00046361610293388367,-0.0006893156096339226
1782838055838847700,4.99084765625,0.0005491878837347031,-0.0011437870562076569,-0.0005798595957458019
1782838055848777500,5.000777587890625,-0.0012322347611188889,-0.001711384393274784,-0.003945976495742798
1782838055858706400,5.01070654296875,-0.0003517940640449524,-0.0029305797070264816,-0.0006391294300556183
1782838055868635600,5.0206357421875,0.0005768788978457451,-0.00007558334618806839,-0.000983105506747961
1782838055878565600,5.030565673828125,0.0002575656399130821,0.001376638188958168,-0.0006973482668399811
1782838055888494600,5.04049462890625,0.00020394660532474518,0.00018455833196640015,0.001805916428565979
1782838055898423600,5.050423583984375,-0.0008107181638479233,-0.0006615277379751205,-0.0018021343275904655
1782838055908352500,5.0603525390625,-0.00016620568931102753,0.0017320923507213593,0.0008067302405834198
1782838055918282500,5.070282470703125,0.000763237476348877,-0.0007659522816538811,0.0010504089295864105
1782838055928211700,5.080211669921875,0.0009742043912410736,0.001611572690308094,0.0011056950315833092
1782838055938140700,5.090140625,-0.001094006933271885,0.002472572959959507,0.0027398113161325455
1782838055948069600,5.100069580078125,-0.0003324570134282112,-0.0017948662862181664,0.001037723384797573
1782838055957999400,5.109999267578125,0.00023612845689058304,-0.0020135119557380676,0.0008172132074832916
1782838055967928600,5.119928466796875,-0.0007234103977680206,0.00027569103986024857,-0.0011994466185569763
1782838055977857500,5.129857421875,0.001272895373404026,-0.0001323046162724495,-0.0013714870437979698
1782838055987786500,5.139786376953125,-0.0015447549521923065,-0.0014016572386026382,0.00044132210314273834
1782838055997716700,5.149716796875,0.0006156004965305328,-0.000671951100230217,-0.0009616310708224773
1782838056007645700,5.159645751953125,0.0007520178332924843,-0.000919753685593605,-0.0018836231902241707
1782838056017574700,5.16957470703125,-0.00246534775942564,-0.0016790209338068962,0.001521761529147625
1782838056027503600,5.179503662109375,0.0007757144048810005,0.0001204032450914383,-0.0005843979306519032
1782838056037433600,5.18943359375,-0.0020525632426142693,0.0004889843985438347,0.00010482780635356903
1782838056047362600,5.199362548828125,-0.0021856436505913734,0.0008162446320056915,0.003095078282058239
1782838056057291500,5.20929150390625,0.0004743216559290886,-0.0018842006102204323,-0.0025838459841907024
1782838056067221800,5.2192216796875,-0.001594950444996357,0.0017445599660277367,-0.0017887460999190807
1782838056077150500,5.229150390625,0.0012008361518383026,-0.0009319167584180832,-0.0015221638604998589
1782838056087079400,5.239079345703125,-0.00005780905485153198,0.0017483560368418694,0.0009261118248105049
1782838056097008400,5.24900830078125,-0.0019185589626431465,0.0003968020901083946,0.0013863062486052513
1782838056106938600,5.258938720703125,-0.0007363259792327881,0.00045378413051366806,0.0012857764959335327
1782838056116867600,5.26886767578125,0.00018326379358768463,0.0019073374569416046,0.0011872397735714912
1782838056126796500,5.278796630859375,-0.0026714717969298363,0.0018529081717133522,-0.0013842256739735603
1782838056136725800,5.288725830078125,-0.002399296499788761,0.0015706131234765053,0.0010810624808073044
1782838056146655500,5.298655517578125,0.0006129145622253418,0.0018022926524281502,0.0009594801813364029
1782838056156584400,5.30858447265625,-0.00048111192882061005,0.0008946871384978294,-0.002837122417986393
1782838056166513700,5.318513671875,-0.001014801673591137,0.0006110994145274162,0.0013497089967131615
1782838056176440600,5.328440673828125,-0.0003588655963540077,-0.00034390948712825775,-0.0007890756241977215
1782838056186369500,5.33836962890625,0.0014824355021119118,0.0004527829587459564,0.0008407961577177048
1782838056196299500,5.348299560546875,-0.0026412038132548332,0.0006573135033249855,0.000016281381249427795
1782838056206228500,5.358228515625,-0.0011159423738718033,0.0007631378248333931,0.0012205904349684715
1782838056216157700,5.36815771484375,0.00028141867369413376,0.00016605667769908905,-0.0007650628685951233
1782838056226086700,5.378086669921875,0.0005651684477925301,-0.0013381391763687134,-0.0007382151670753956
1782838056236016400,5.388016357421875,0.0013721063733100891,-0.0020907483994960785,0.003318578004837036
1782838056245945600,5.397945556640625,0.000525549054145813,0.00006546080112457275,-0.001299188006669283
1782838056255874600,5.40787451171875,-0.0015173610299825668,0.003456197679042816,-0.0016240938566625118
1782838056265803500,5.417803466796875,0.0011687148362398148,-0.0012248950079083443,-0.00026938319206237793
1782838056275733500,5.4277333984375,0.0012637898325920105,0.00021507591009140015,0.0013468889519572258
1782838056285662700,5.437662841796875,-0.0007850769907236099,0.0006619049236178398,0.0018938630819320679
1782838056295591700,5.447591796875,0.0006234683096408844,0.0014629838988184929,0.000577462837100029
1782838056305521400,5.457521484375,-0.003896379843354225,0.003818848170340061,-0.0007786457426846027
1782838056315450600,5.46745068359375,-0.0013778284192085266,0.0009849788621068,0.0013414965942502022
1782838056325379600,5.477379638671875,0.00003745686262845993,-0.0011044153943657875,-0.002146786544471979
1782838056335308500,5.48730859375,0.00028300099074840546,-0.0023872600868344307,-0.00016006873920559883
1782838056345238800,5.49723876953125,0.0020820312201976776,-0.0012017618864774704,0.0026870397850871086
1782838056355167700,5.507167724609375,0.00019012205302715302,-0.0016494384035468102,0.0014215055853128433
1782838056365096400,5.517096435546875,-0.0006681540980935097,0.0006195707246661186,-0.0006766193546354771
1782838056375025400,5.527025390625,0.0020306939259171486,0.0003700321540236473,-0.002263863105326891
1782838056384955600,5.53695556640625,-0.0020059728994965553,-0.0015634791925549507,0.002139846794307232
1782838056394884600,5.546884521484375,-0.00040834303945302963,-0.0030532516539096832,0.00046738144010305405
1782838056404813600,5.5568134765625,-0.0009126551449298859,0.0005370099097490311,-0.001834634691476822
1782838056414742500,5.566742431640625,0.0009848466143012047,-0.0005532875657081604,0.001021604984998703
1782838056424672500,5.576672607421875,0.0007007885724306107,0.0005794567987322807,-0.0014462932012975216
1782838056434601500,5.5866015625,-0.00002332497388124466,0.0006383126601576805,-0.0014715930446982384
1782838056444530400,5.596530517578125,-0.0009617293253540993,0.001344604417681694,0.0014121299609541893
1782838056454459600,5.606459716796875,-0.0021130144596099854,0.0011443346738815308,-0.000425984151661396
1782838056464389600,5.6163896484375,-0.001288013532757759,0.001311163417994976,0.0015817219391465187
1782838056474318600,5.626318603515625,0.0007567619904875755,-0.0024055447429418564,0.00007650349289178848
1782838056484247800,5.636247802734375,-0.0015346640720963478,0.0012573860585689545,0.001931793987751007
1782838056494177500,5.646177490234375,-0.0004512900486588478,-0.00028245337307453156,0.0015829196199774742
1782838056504106500,5.6561064453125,-0.0004487624391913414,-0.00017864536494016647,0.001251840963959694
1782838056514035500,5.666035400390625,0.0009286245331168175,-0.0014084931463003159,-0.0013759001158177853
1782838056523964700,5.675964599609375,-0.000292239710688591,0.0002523595467209816,-0.001711547840386629
1782838056533894700,5.685894775390625,0.0009527876973152161,-0.00147310271859169,0.0019180746749043465
1782838056543823400,5.6958232421875,0.0007416084408760071,0.000122949481010437,-0.0018135691061615944
1782838056553752600,5.705752685546875,0.0004465300589799881,-0.0007239356637001038,0.0032110167667269707
1782838056563681500,5.715681640625,0.0001892251893877983,0.00002676434814929962,-0.00033184606581926346
1782838056573611500,5.725611572265625,-0.0010496769100427628,-0.0014065494760870934,0.00011236965656280518
1782838056583540700,5.735540771484375,0.0028088344261050224,-0.001636517234146595,-0.00036460813134908676
1782838056593469700,5.7454697265625,0.001553686335682869,-0.0012769903987646103,-0.001356635708361864
1782838056603398700,5.755398681640625,-0.0013296380639076233,0.000622001476585865,-0.0018856809474527836
1782838056613328600,5.76532861328125,-0.0025919759646058083,0.0016302745789289474,0.00037401076406240463
1782838056623257600,5.775257568359375,-0.0008617052808403969,-0.0007707690820097923,0.0015885550528764725
1782838056633186600,5.7851865234375,-0.0011314833536744118,0.0024085119366645813,-0.0006042914465069771
1782838056643115500,5.795115478515625,0.00002716854214668274,-0.0008439049124717712,0.0034325644373893738
1782838056653045800,5.805045654296875,-0.0007704487070441246,-0.00032458826899528503,0.002514040097594261
1782838056662974700,5.814974609375,0.000027672387659549713,0.0016064941883087158,-0.0018887012265622616
1782838056672903400,5.8249033203125,0.0009656371548771858,-0.00016637146472930908,0.00003782939165830612
1782838056682833700,5.834833740234375,-0.0008137067779898643,0.0011386405676603317,0.001768304966390133
1782838056692762600,5.8447626953125,0.0024619819596409798,-0.002947714179754257,0.0016396744176745415
1782838056702690800,5.85469091796875,-0.0016026534140110016,-0.0008152974769473076,0.0007720887660980225
1782838056712620000,5.8646201171875,-0.00096163060516119,-0.0013266243040561676,0.00105997733771801
1782838056722550000,5.874550048828125,-0.0004393402487039566,-0.001020047813653946,0.0009553674608469009
1782838056732479000,5.88447900390625,0.0019998494535684586,0.00047238729894161224,0.0018736254423856735
1782838056742408000,5.894407958984375,-0.00017103925347328186,0.0005428940057754517,0.0012672962620854378
1782838056752337000,5.9043369140625,-0.002584395930171013,-0.0002501951530575752,-0.00020489981397986412
1782838056762267000,5.914266845703125,-0.0014383932575583458,0.001274813897907734,-0.0019907462410628796
1782838056772196000,5.924196044921875,-0.00046234484761953354,0.0006095562130212784,-0.0019822241738438606
1782838056782125000,5.934125,-0.0007260125130414963,0.00016037654131650925,-0.0007848073728382587
1782838056792054000,5.944053955078125,-0.0005917893722653389,0.0012613274157047272,0.00005382206290960312
1782838056801986800,5.95398681640625,-0.0003741402179002762,0.0031204158440232277,0.00032176822423934937
1782838056811915800,5.963915771484375,-0.0016732309013605118,-0.0010138750076293945,0.0006831586360931396
1782838056821846000,5.973845947265625,0.0006917007267475128,0.0011116201058030128,0.0008625108748674393
1782838056831775000,5.98377490234375,-0.0006260313093662262,-0.0012737736105918884,-0.0018784143030643463
1782838056841704000,5.993703857421875,-0.0016306526958942413,-0.0021857181563973427,0.001359984278678894
1782838056851634000,6.003634033203125,-0.002301769331097603,-0.00005998276174068451,-0.0019623092375695705
1782838056861563000,6.01356298828125,0.0009467387571930885,-0.00008331891149282455,-0.0017093261703848839
1782838056871491800,6.023491943359375,0.00021570082753896713,-0.0009057028219103813,-0.002170851919800043
1782838056881420800,6.0334208984375,0.00096893310546875,-0.0002760002389550209,-0.0026478301733732224
1782838056891351000,6.04335107421875,-0.0005333563312888145,-0.0013271495699882507,-0.0010981368832290173
1782838056901280000,6.053280029296875,0.001229025423526764,0.00018527917563915253,0.0002497527748346329
1782838056911209000,6.063208984375,-0.000757426954805851,-0.00044455844908952713,-0.0011846255511045456
1782838056921138200,6.07313818359375,-0.0012307344004511833,0.0001329183578491211,0.0013840459287166595
1782838056931068000,6.08306787109375,-0.00030954740941524506,-0.0031449003145098686,0.0015289224684238434
1782838056940996900,6.092996826171875,-0.0010654246434569359,-0.0011493759229779243,0.0023778611794114113
1782838056950926000,6.102926025390625,0.0012448672205209732,-0.0004180716350674629,-0.002412100788205862
1782838056960855000,6.11285498046875,-0.0013906806707382202,0.0030618058517575264,-0.0026521719992160797
1782838056970785000,6.122784912109375,0.0014154920354485512,0.002623981796205044,-0.002931005321443081
1782838056980713700,6.132713623046875,-0.0011196369305253029,0.0014641731977462769,-0.001539415679872036
1782838056990643000,6.142642822265625,-0.0010218983516097069,-0.0012088408693671227,-0.0005929279141128063
1782838057000572000,6.152572021484375,-0.0012570330873131752,0.002755199559032917,-0.0010408121161162853
1782838057010502000,6.162501953125,-0.0004088161513209343,0.001017487607896328,-0.0006509250961244106
1782838057020431000,6.17243115234375,0.0007499819621443748,0.0016351426020264626,0.001803823746740818
1782838057030360000,6.182360107421875,0.0002762060612440109,-0.00027327798306941986,0.002212885767221451
1782838057040289800,6.192289794921875,0.0003382498398423195,-0.0010181386023759842,-0.00011042458936572075
1782838057050219000,6.202218994140625,-0.0023137256503105164,-0.001981937326490879,-0.0009461240842938423
1782838057060148000,6.21214794921875,-0.0012878496199846268,-0.0005893241614103317,-0.0012004580348730087
1782838057070077000,6.222076904296875,-0.0024849409237504005,-0.00031768158078193665,-0.0008358713239431381
1782838057080007000,6.2320068359375,-0.0010553030297160149,-0.0029156114906072617,-0.0005914247594773769
1782838057089936100,6.24193603515625,0.00044565461575984955,-0.0012487396597862244,-0.0009714579209685326
1782838057099864800,6.25186474609375,0.0013290131464600563,0.000189133919775486,0.0017521549016237259
1782838057109793800,6.261793701171875,0.00006560888141393661,0.0002876715734601021,0.0009500104933977127
1782838057119724000,6.27172412109375,-0.001028311438858509,-0.0012301495298743248,0.0029047317802906036
1782838057129653000,6.281653076171875,-0.0010943571105599403,0.0027070678770542145,0.000005348585546016693
1782838057139582000,6.29158203125,-0.0003546774387359619,0.0007287431508302689,-0.001219999510794878
1782838057149512000,6.301511962890625,-0.0010689375922083855,0.0016350168734788895,-0.0010335780680179596
1782838057159441000,6.31144091796875,0.0003220643848180771,0.000886046327650547,0.0003305915743112564
1782838057169369900,6.321369873046875,-0.000003373250365257263,-0.0005062539130449295,0.002102392725646496
1782838057179298800,6.331298828125,0.0014985110610723495,0.00041597895324230194,0.00003467686474323273
1782838057189229000,6.34122900390625,0.0016228808090090752,-0.001048494130373001,-0.0007275198586285114
1782838057199158000,6.351157958984375,0.0024179304018616676,0.0006342567503452301,-0.00007943250238895416
1782838057209087000,6.3610869140625,0.0018341653048992157,-0.00144167710095644,-0.0006786440499126911
1782838057219016000,6.371015869140625,0.000329483300447464,-0.00011916551738977432,0.0009599430486559868
1782838057228946000,6.38094580078125,-0.0009917113929986954,-0.002085111103951931,-0.0018598116002976894
1782838057238875000,6.390875,-0.000388256274163723,-0.000938093289732933,-0.0008975272066891193
1782838057248803800,6.400803955078125,0.0007172226905822754,-0.0004643173888325691,-0.0008189640939235687
1782838057258733000,6.410733154296875,0.0007870830595493317,0.0010108379647135735,-0.0005617672577500343
1782838057268663000,6.4206630859375,-0.0016928529366850853,0.0020270999521017075,-0.0013790912926197052
1782838057278591700,6.430591796875,0.00044779200106859207,0.0015710527077317238,0.0004947977140545845
1782838057288521000,6.44052099609375,0.000182274729013443,-0.002759779803454876,0.0003310134634375572
1782838057298451000,6.450450927734375,0.0004064943641424179,0.0006085066124796867,-0.002776211127638817
1782838057308380000,6.4603798828125,0.0015660347416996956,0.00011049490422010422,-0.00169736472889781
1782838057318309000,6.47030908203125,0.0006763134151697159,0.0016468074172735214,-0.001008051447570324
1782838057328238000,6.480238037109375,0.0011045495048165321,0.002022579312324524,-0.00030444422736763954
1782838057338167800,6.490167724609375,-0.0002922080457210541,0.0011588707566261292,-0.000299578532576561
1782838057348096800,6.5000966796875,-0.0023553594946861267,0.002524539828300476,-0.0005139629356563091
1782838057358026000,6.51002587890625,0.0010990304872393608,0.003506219945847988,0.0007055262103676796
1782838057367955000,6.519954833984375,0.0008902382105588913,0.0017543919384479523,-0.0006191297434270382
1782838057377885000,6.529885009765625,-0.00039663165807724,0.0008938377723097801,0.0010793041437864304
1782838057387814100,6.539814208984375,0.00003746338188648224,-0.0004441346973180771,-0.00018010474741458893
1782838057397743000,6.5497431640625,-0.0009971419349312782,0.0015440955758094788,-0.00021212641149759293
1782838057407671800,6.559671875,-0.0010472098365426064,0.0000977320596575737,0.00035565998405218124
1782838057417602000,6.56960205078125,0.0010945778340101242,-0.0006714863702654839,-0.0005373749881982803
1782838057427531000,6.579531005859375,-0.002035701647400856,-0.0014456668868660927,-0.0011056936345994473
1782838057437460000,6.5894599609375,0.002254747785627842,0.0001802286133170128,0.0016863364726305008
1782838057447390000,6.599389892578125,-0.0021346742287278175,0.00091499462723732,-0.002742234617471695
1782838057457319000,6.60931884765625,0.0002724006772041321,-0.001316179521381855,-0.0007032635621726513
1782838057467247900,6.619247802734375,0.0007967771962285042,-0.0005808807909488678,0.0003699902445077896
1782838057477176800,6.6291767578125,-0.0006705522537231445,0.0017009768635034561,-0.00011935830116271973
1782838057487107000,6.639107177734375,-0.0011083753779530525,0.00232548825442791,0.000246560201048851
1782838057497036000,6.6490361328125,0.000008171424269676208,0.0008298233151435852,0.0012964429333806038
1782838057506965000,6.658965087890625,0.0015530716627836227,-0.0002729911357164383,-0.0015723141841590405
1782838057516894000,6.66889404296875,0.001527678221464157,0.0014156773686408997,0.0008916454389691353
1782838057526824000,6.678823974609375,-0.0013075228780508041,0.0011743949726223946,-0.0025494247674942017
1782838057536753000,6.6887529296875,-0.0019117724150419235,0.0006358660757541656,0.0005384581163525581
1782838057546681900,6.698681884765625,0.0018382249400019646,0.0007437234744429588,-0.0004863264039158821
1782838057556612000,6.708612060546875,0.0020554466173052788,-0.0022667627781629562,0.00044453050941228867
1782838057566541000,6.718541015625,-0.0023992229253053665,0.00044992845505476,-0.0003536185249686241
1782838057576470000,6.728469970703125,0.00043102633208036423,0.0015098713338375092,-0.0015734536573290825
1782838057586398700,6.738398681640625,-0.0004928242415189743,-0.0024467874318361282,0.0005948916077613831
1782838057596329000,6.748328857421875,0.00013850443065166473,-0.0021811258047819138,-0.0005878773517906666
1782838057606258000,6.7582578125,0.0016309404745697975,0.000825849361717701,-0.00019452814012765884
1782838057616187000,6.768186767578125,-0.00009549129754304886,0.0000157942995429039,-0.0015690997242927551
1782838057626116000,6.7781162109375,0.0004611089825630188,-0.0016721179708838463,-0.0004191468469798565
1782838057636045800,6.7880458984375,0.0010465653613209724,-0.0012470968067646027,0.0004421211779117584
1782838057645974800,6.797974853515625,-0.0012781070545315742,-0.0006212536245584488,-0.00007985811680555344
1782838057655904000,6.807904052734375,0.0013888049870729446,-0.001597580499947071,-0.0020565507002174854
1782838057665833000,6.8178330078125,0.00044604577124118805,0.0024653375148773193,-0.0007129856385290623
1782838057675763000,6.827762939453125,0.0004124138504266739,-0.00010949000716209412,-0.0003109988756477833
1782838057685692200,6.837692138671875,0.001393522135913372,-0.0011848751455545425,-0.001950973179191351
1782838057695621000,6.84762109375,0.00151849165558815,0.0008499203249812126,-0.0004810187965631485
1782838057705555200,6.85755517578125,0.001955515705049038,-0.00040016788989305496,-0.0014205817133188248
1782838057715484200,6.867484130859375,0.0018378375098109245,0.000510028563439846,0.0004109703004360199
1782838057725413400,6.877413330078125,0.002840518020093441,-0.0011869370937347412,-0.000704627949744463
1782838057735342300,6.88734228515625,0.0018807491287589073,0.0005443990230560303,-0.0008374634198844433
1782838057745272000,6.89727197265625,0.0018605086952447891,-0.0018375320360064507,0.0007404591888189316
1782838057755201000,6.907200927734375,0.0016269898042082787,0.00007186364382505417,0.0029987040907144547
1782838057765130200,6.917130126953125,0.001919938251376152,0.0004979697987437248,0.00039200205355882645
1782838057775059200,6.92705908203125,0.0007552150636911392,-0.003249712288379669,0.0009006401523947716
1782838057784989200,6.9369892578125,0.00018236879259347916,-0.0021370435133576393,-0.0017657168209552765
1782838057794918400,6.94691845703125,0.0037842178717255592,0.0001040259376168251,-0.0010284441523253918
1782838057804847400,6.956847412109375,-0.00006831157952547073,-0.0011308817192912102,0.0006075352430343628
1782838057814777000,6.966777099609375,-0.0021029524505138397,-0.002097037620842457,0.0022284286096692085
1782838057824706300,6.976706298828125,0.0004925644025206566,-0.002321009524166584,0.001822829246520996
1782838057834635300,6.98663525390625,-0.000136679969727993,0.00021133385598659515,0.00043752696365118027
1782838057844564200,6.996564208984375,0.0006169946864247322,0.0007373085245490074,-0.0002823253162205219
1782838057854494200,7.006494140625,-0.0012462856248021126,-0.0023094164207577705,0.0005259625613689423
1782838057864423200,7.016423095703125,-0.0022886469960212708,0.0004536127671599388,-0.00014488771557807922
1782838057874352000,7.02635205078125,-0.002188689075410366,0.0015256255865097046,-0.0003051706589758396
1782838057884281000,7.036281005859375,0.000562889501452446,0.0023197801783680916,-0.0016058585606515408
1782838057894211300,7.04621142578125,0.0010067755356431007,-0.0012128911912441254,-0.001484558917582035
1782838057904140300,7.056140380859375,0.00043685920536518097,0.0013389503583312035,-0.001830770168453455
1782838057914069200,7.0660693359375,0.0012108664959669113,-0.001105399802327156,0.00035919807851314545
1782838057923999200,7.075999267578125,0.0012382976710796356,-0.0017485534772276878,-0.0005896864458918571
1782838057933928200,7.08592822265625,-0.0009385012090206146,-0.003485490567982197,-0.0026328153908252716
1782838057943857200,7.095857177734375,0.0002623181790113449,-0.0021429909393191338,0.00009665824472904205
1782838057953786000,7.1057861328125,0.0016044750809669495,0.00030293967574834824,0.0006861286237835884
1782838057963716400,7.11571630859375,-0.00185470562428236,-0.0035567795857787132,-0.0009338725358247757
1782838057973645300,7.125645263671875,0.0038942787796258926,-0.0006325654685497284,0.0004392014816403389
1782838057983574300,7.13557421875,-0.0024443110451102257,-0.0008331015706062317,-0.0007616179063916206
1782838057993503000,7.1455029296875,0.000761350616812706,0.000020014122128486633,0.00029189977794885635
1782838058003433200,7.15543310546875,-0.0009047230705618858,0.00046023447066545486,0.0020389333367347717
1782838058013362200,7.165362060546875,-0.00026259012520313263,0.0002963431179523468,0.0019247131422162056
1782838058023291100,7.175291015625,-0.00047670863568782806,-0.00006797723472118378,0.0002804780378937721
1782838058033221000,7.18522119140625,-0.0012212498113512993,0.00048172567039728165,0.0012962743639945984
1782838058043150000,7.195150146484375,0.000950823538005352,0.0012625651434063911,0.0001742849126458168
1782838058053079000,7.2050791015625,0.001071869395673275,-0.00022585131227970123,0.00106879323720932
1782838058063008300,7.21500830078125,0.00023031048476696014,-0.00019442569464445114,-0.0011200588196516037
1782838058072938200,7.224938232421875,-0.00025675632059574127,0.0004378343001008034,-0.0010902024805545807
1782838058082867200,7.2348671875,0.0006588390097022057,-0.00019812770187854767,-0.0027059423737227917
1782838058092796200,7.244796142578125,-0.00034183263778686523,-0.00027141813188791275,0.001010672189295292
1782838058102725400,7.254725341796875,0.0027381135150790215,-0.000963839702308178,-0.0006487434729933739
1782838058112655000,7.264655029296875,-0.0022471370175480843,-0.0005761608481407166,0.003331433981657028
1782838058122584000,7.274583984375,0.0003449171781539917,-0.0018656635656952858,0.00010421499609947205
1782838058132513300,7.28451318359375,0.0006684307008981705,-0.0024314522743225098,-0.0007173493504524231
1782838058142443300,7.294443359375,0.0006862739101052284,-0.0003270218148827553,-0.00033412035554647446
1782838058152372200,7.304372314453125,0.0005178274586796761,-0.001840285025537014,-0.003334572073072195
1782838058162301200,7.31430126953125,0.0013450048863887787,-0.0002842005342245102,0.0028282487764954567
1782838058172230100,7.324230224609375,-0.0012053502723574638,-0.0022852569818496704,0.00037969741970300674
1782838058182160100,7.33416015625,0.00042264070361852646,0.0007574046030640602,0.00006704218685626984
1782838058192089300,7.34408935546875,0.0016194125637412071,0.002058601938188076,0.0016420390456914902
1782838058202018300,7.354018310546875,-0.0013004764914512634,0.0004615047946572304,0.0016905087977647781
1782838058211947300,7.363947265625,0.0007447656244039536,-0.0011198930442333221,0.002137775532901287
1782838058221877000,7.373876953125,-0.002364475280046463,0.00020955689251422882,-0.00143884913995862
1782838058231806200,7.38380615234375,0.0023635486140847206,-0.0025173407047986984,0.0007443157956004143
1782838058241735200,7.393735107421875,-0.0005251821130514145,0.0011053578928112984,0.00131929200142622
1782838058251665200,7.4036650390625,0.0018244972452521324,-0.0005210237577557564,-0.00040910160169005394
1782838058261594400,7.413594482421875,0.0003427146002650261,0.0005186749622225761,0.0013264808803796768
1782838058271523300,7.4235234375,0.0018332889303565025,-0.00010881014168262482,0.0006778165698051453
1782838058281452300,7.433452392578125,0.0012449966743588448,-0.0006656777113676071,0.0009358767420053482
1782838058291382300,7.44338232421875,0.001774633303284645,-0.0009828321635723114,0.0018847696483135223
1782838058301311200,7.453311279296875,0.00009657628834247589,0.0002621961757540703,0.0022914335131645203
1782838058311240200,7.463240234375,0.0005855467170476913,0.00034813303500413895,0.004305724054574966
1782838058321169200,7.473169189453125,-0.002053113654255867,-0.0013600178062915802,-0.000954019371420145
1782838058331099400,7.483099365234375,-0.001341301016509533,-0.00018587149679660797,0.0007827058434486389
1782838058341028000,7.493028076171875,-0.0003237072378396988,-0.0006463313475251198,-0.0019417083822190762
1782838058350957000,7.50295703125,-0.0003344370052218437,-0.0002119196578860283,-0.0007936717011034489
1782838058360887300,7.51288720703125,-0.0005903672426939011,0.0016411077231168747,0.0008747987449169159
1782838058370816300,7.522816162109375,0.00022968370467424393,-0.00038356706500053406,-0.00044483738020062447
1782838058380745200,7.5327451171875,0.0011689811944961548,-0.0002405550330877304,0.0019488120451569557
1782838058390674200,7.542674072265625,0.001054150052368641,0.0008890293538570404,0.0038802549242973328
1782838058400604200,7.552604248046875,-0.0009312368929386139,-0.00031711626797914505,0.002256792038679123
1782838058410533000,7.562533203125,-0.0005720276385545731,0.0006858110427856445,0.00011940579861402512
1782838058420462000,7.572462158203125,0.0014565018936991692,0.0012759678065776825,-0.00033120065927505493
1782838058430391300,7.582391357421875,0.00040591321885585785,0.00011049676686525345,-0.0008059884421527386
1782838058440321300,7.5923212890625,-0.001795189455151558,-0.0017822124063968658,-0.00005231425166130066
1782838058450250200,7.602250244140625,0.0001502297818660736,-0.00036567822098731995,0.0005456376820802689
1782838058460179200,7.61217919921875,0.0008354606106877327,0.0010966630652546883,0.0005858512595295906
1782838058470109200,7.622109130859375,-0.0021250303834676743,-0.0012141400948166847,-0.0018210513517260551
1782838058480038100,7.6320380859375,0.0012374762445688248,-0.00037364661693573,0.0016208179295063019
1782838058489967000,7.641967041015625,0.0015680855140089989,-0.0014021098613739014,-0.002959705423563719
1782838058499896300,7.651896240234375,0.0015281382948160172,-0.0005014287307858467,0.0008078683167695999
1782838058509826300,7.661826416015625,0.0006964914500713348,0.00020221155136823654,-0.00040354300290346146
1782838058519755000,7.671755126953125,-0.0019083460792899132,-0.0009346920996904373,-0.0019228761084377766
1782838058529684200,7.681684326171875,0.00032323040068149567,-0.0023797815665602684,0.0002916725352406502
1782838058539613200,7.69161328125,-0.0005398998036980629,0.0004913723096251488,-0.0012031598016619682
1782838058549543200,7.701543212890625,0.0009876405820250511,-0.0013703517615795135,0.0018656626343727112
1782838058559472400,7.711472412109375,-0.0009253080934286118,0.0017506061121821404,0.0011756382882595062
1782838058569401300,7.7214013671875,0.0005816873162984848,0.0006947284564375877,0.000286223366856575
1782838058579331000,7.7313310546875,0.000018960796296596527,0.0014462731778621674,-0.002989731263369322
1782838058589260000,7.741260009765625,-0.00095414649695158,-0.0023087486624717712,-0.0010789651423692703
1782838058599189200,7.751189208984375,-0.0013442998751997948,0.000994103029370308,-0.0010960097424685955
1782838058609118200,7.7611181640625,-0.0003359466791152954,-0.0012338412925601006,-0.0006569116376340389
1782838058619048200,7.771048095703125,-0.00023048557341098785,-0.002134522423148155,0.0011061010882258415
1782838058628977400,7.780977294921875,0.00014080200344324112,-0.0006755432114005089,0.0011874213814735413
1782838058638906400,7.79090625,0.0007330887019634247,0.000147906132042408,0.00014665815979242325
1782838058648836000,7.800836181640625,-0.00035194866359233856,-0.0006070705130696297,-0.000872553326189518
1782838058658765300,7.810765380859375,0.00216740183532238,-0.00256502628326416,0.0016262903809547424
1782838058668694300,7.8206943359375,-0.0008225785568356514,0.0009814919903874397,0.000059353187680244446
1782838058678623200,7.830623291015625,-0.0031919926404953003,-0.002140532247722149,-0.00169780058786273
1782838058688553200,7.84055322265625,0.001286117359995842,-0.00011350400745868683,0.001206783577799797
1782838058698482200,7.850482177734375,-0.00029633287340402603,0.0034210439771413803,-0.0011114981025457382
1782838058708407000,7.860406982421875,-0.0018257852643728256,0.002227816730737686,-0.0027238125912845135
1782838058718336000,7.8703359375,0.000020850449800491333,0.0018413914367556572,-0.0000827559269964695
1782838058728266000,7.880265869140625,-0.0005321139469742775,-0.0012295395135879517,0.001314082182943821
1782838058738195200,7.8901953125,-0.0003020167350769043,0.0011830180883407593,0.0008416380733251572
1782838058748124200,7.900124267578125,0.0015451367944478989,0.0014100167900323868,0.0008490737527608871
1782838058758053000,7.91005322265625,0.0011677667498588562,0.0015586214140057564,-0.0007496215403079987
1782838058767983000,7.919983154296875,0.0014252867549657822,-0.002280249260365963,-0.000633463729172945
1782838058777912000,7.929912109375,-0.000970759429037571,0.0016769422218203545,-0.0026534711942076683
1782838058787841000,7.939841064453125,0.0003771726042032242,0.00021855905652046204,-0.00034149782732129097
1782838058797771000,7.94977099609375,-0.0005309656262397766,-0.0016240822151303291,-0.0004821126349270344
1782838058807700200,7.9597001953125,-0.0021174438297748566,-0.002104797400534153,-0.0017747892998158932
1782838058817629200,7.969629150390625,0.000018144957721233368,-0.0006320690736174583,-0.0027886545285582542
1782838058827558100,7.97955810546875,0.0024219881743192673,-0.0005238251760601997,0.0014535589143633842
1782838058837488000,7.989488037109375,-0.0012177536264061928,0.0001638028770685196,-0.0010612639598548412
1782838058847417000,7.9994169921875,0.0004526181146502495,0.0010109152644872665,0.0013969279825687408
1782838058857346000,8.009345947265626,-0.0018046777695417404,-0.0017100358381867409,-0.0000891159288585186
1782838058867276300,8.0192763671875,-0.00017331726849079132,0.0008351942524313927,-0.0014898646622896194
1782838058877205200,8.029205322265625,0.0011931508779525757,0.002197135239839554,-0.003979920409619808
1782838058887134000,8.039134033203124,-0.0025466643273830414,0.0010839607566595078,0.0019898368045687675
1782838058897063000,8.04906298828125,0.0005252920091152191,0.0005047228187322617,0.0020236587151885033
1782838058906993200,8.0589931640625,0.0005204938352108002,0.0019785864278674126,0.0004172278568148613
1782838058916922000,8.068922119140625,-0.0005687391385436058,-0.0019799359142780304,-0.0007423129864037037
1782838058926851000,8.07885107421875,0.0019350135698914528,-0.00019009318202733994,0.0011972328647971153
1782838058936780000,8.088780029296874,0.000005553476512432098,-0.0004281792789697647,0.0025471895933151245
1782838058946710000,8.0987099609375,-0.0011675544083118439,-0.0005623800680041313,-0.000830785371363163
1782838058956639000,8.108638916015625,0.00023353472352027893,0.00011779088526964188,-0.00188086973503232
1782838058966568000,8.11856787109375,-0.0008776001632213593,-0.00046204496175050735,-0.0000025490298867225647
1782838058976497200,8.1284970703125,0.000026543624699115753,0.0015052314847707748,-0.00031600333750247955
1782838058986427100,8.13842724609375,0.00028227735310792923,-0.0025151902809739113,0.001121634617447853
1782838058996356000,8.148356201171875,0.0005861446261405945,-0.0018480690196156502,0.00042148958891630173
1782838059006285300,8.158285400390625,0.0007889596745371819,-0.003456437960267067,0.003190944902598858
1782838059016215000,8.168215087890625,-0.0005415556952357292,-0.0025024935603141785,-0.0001334790140390396
1782838059026144000,8.17814404296875,-0.0009102830663323402,0.0011718431487679482,-0.00041066110134124756
1782838059036073000,8.188072998046875,0.0004109116271138191,0.001299409195780754,-0.0011901683174073696
1782838059046002200,8.198002197265625,-0.00011452659964561462,0.001309526152908802,-0.0001419256441295147
1782838059055932200,8.20793212890625,-0.0006386367604136467,-0.0000654635950922966,-0.001097734086215496
1782838059065860900,8.21786083984375,0.0009950250387191772,0.0018797684460878372,-0.001463229302316904
1782838059075790000,8.2277900390625,-0.0005671856924891472,-0.0003604823723435402,-0.000683455727994442
1782838059085719000,8.237718994140625,0.001648123376071453,-0.00013609975576400757,0.002070140093564987
1782838059095649000,8.24764892578125,-0.0012310203164815903,-0.0010865824297070503,-0.0006582685746252537
1782838059105578200,8.257578125,-0.00011568889021873474,-0.0010267281904816628,-0.0006050444208085537
1782838059115507200,8.267507080078126,0.001764502376317978,0.0007514636963605881,-0.0015342212282121181
1782838059125437000,8.27743701171875,-0.0025163525715470314,-0.0017904508858919144,-0.00120216840878129
1782838059135366000,8.287365966796875,0.000572914257645607,-0.0006085401400923729,0.0023654019460082054
1782838059145295000,8.297295166015624,-0.0017974693328142166,-0.002289378084242344,0.0017059259116649628
1782838059155224000,8.30722412109375,-0.0009857378900051117,0.0007724585011601448,-0.002937828190624714
1782838059165154000,8.317154052734375,-0.00031163543462753296,0.0005325879901647568,0.0011236071586608887
1782838059175083300,8.327083251953125,0.0005831867456436157,-0.002294890582561493,0.0019060438498854637
1782838059185012200,8.33701220703125,-0.0007969429716467857,-0.0011837165802717209,0.0011240718886256218
1782838059194941000,8.34694091796875,-0.0004403451457619667,0.0003223009407520294,0.0005722651258111
1782838059204871200,8.35687109375,-0.001658603549003601,0.0022835610434412956,-0.0007325466722249985
1782838059214800100,8.366800048828125,-0.001127569004893303,-0.000013948418200016022,0.0023596491664648056
1782838059224729000,8.37672900390625,0.0013420898467302322,-0.002501639537513256,0.0016028359532356262
1782838059234659000,8.3866591796875,-0.0011162739247083664,-0.0004041343927383423,-0.0013314345851540565
1782838059244588000,8.396588134765626,-0.0008370736613869667,0.00129729975014925,-0.0009006285108625889
1782838059254517000,8.40651708984375,-0.002264793962240219,-0.0001650424674153328,-0.0027701673097908497
1782838059264446000,8.416446044921875,-0.0009274519979953766,0.001968691125512123,-0.0012565688230097294
1782838059274376200,8.426376220703125,-0.0006321081891655922,-0.00039326585829257965,0.0012731673195958138
1782838059284305200,8.43630517578125,-0.0014303969219326973,0.0013379370793700218,-0.0008054603822529316
1782838059294234000,8.446234130859375,-0.00024262722581624985,-0.00043226592242717743,0.001096302643418312
1782838059304163000,8.4561630859375,0.00247869361191988,-0.00005686003714799881,-0.00012644194066524506
1782838059314093000,8.466093017578125,0.0012267418205738068,-0.002795387990772724,-0.0013046246021986008
1782838059324022000,8.47602197265625,-0.0013060187920928001,-0.001997084356844425,-0.0018277466297149658
1782838059333951000,8.485950927734375,0.0005411496385931969,-0.0029182713478803635,-0.001530537847429514
1782838059343881200,8.495881103515625,0.00043560750782489777,-0.0008444692939519882,-0.00039510754868388176
1782838059353810200,8.50581005859375,0.0006119087338447571,-0.0035529043525457382,0.0017085233703255653
1782838059363739100,8.5157392578125,-0.0003604656085371971,-0.00035892799496650696,0.0017855558544397354
1782838059373668000,8.525668212890626,-0.0012965667992830276,-0.0007464177906513214,0.0006971219554543495
1782838059383598000,8.53559814453125,0.0026062829419970512,-0.002753904089331627,-0.000692940317094326
1782838059393527000,8.545527099609375,-0.0033394908532500267,-0.002428465522825718,0.002214166335761547
1782838059403456000,8.5554560546875,0.0015381192788481712,-0.0006724884733557701,-0.00010508392006158829
1782838059413385200,8.56538525390625,0.0019463812932372093,0.001187196932733059,-0.0014137611724436283
1782838059423315000,8.57531494140625,-0.002024802379310131,0.0015335353091359138,-0.0008645877242088318
1782838059433244000,8.585243896484375,0.0018823212012648582,-0.0002316078171133995,-0.0006925477646291256
1782838059443173000,8.595173095703124,0.000802227295935154,0.000902087427675724,0.0023071588948369026
1782838059453103000,8.60510302734375,0.00015587825328111649,0.0008155340328812599,-0.0000036656856536865234
1782838059463032000,8.615031982421876,0.0008292254060506821,0.001303187571465969,0.00034808460623025894
1782838059472961300,8.624961181640625,0.0016564028337597847,0.000020609237253665924,-0.002509486861526966
1782838059482890200,8.63489013671875,0.00001379009336233139,-0.0004446115344762802,0.0008680317550897598
1782838059492820000,8.644820068359374,0.0013677412644028664,0.0005628615617752075,-0.00023025600239634514
1782838059502749000,8.6547490234375,-0.0007342984899878502,-0.002214759588241577,0.0013272203505039215
1782838059512678100,8.66467822265625,0.00009181443601846695,-0.0006581414490938187,-0.0026368950493633747
1782838059522607000,8.674607177734375,0.0003932379186153412,-0.0018308833241462708,-0.0006742239929735661
1782838059532537000,8.684537109375,0.00041720643639564514,0.0005020452663302422,0.0012347297742962837
1782838059542466000,8.694466064453126,-0.00016429461538791656,-0.001020980067551136,-0.0005013830959796906
1782838059552395000,8.70439501953125,0.001180334948003292,0.00021259579807519913,0.0006802612915635109
1782838059562325000,8.714324951171875,0.0010574953630566597,0.00037958938628435135,0.0006254473701119423
1782838059572254200,8.724254150390625,0.0011895885691046715,0.0013186205178499222,0.0001519378274679184
1782838059582183200,8.73418310546875,-0.0002498980611562729,-0.003481099382042885,-0.0011169728823006153
1782838059592112000,8.744112060546875,0.000531473197042942,0.0016244463622570038,0.0012556370347738266
1782838059602042000,8.7540419921875,0.00007127132266759872,0.000023351050913333893,0.0003452124074101448
1782838059611971000,8.76397119140625,0.0006419867277145386,0.003290783613920212,0.002110888250172138
1782838059621900000,8.773900146484374,0.001012737862765789,0.0015810905024409294,0.0005610743537545204
1782838059631830000,8.783830078125,-0.00011804047971963882,-0.0000029578804969787598,-0.0004674387164413929
1782838059641759200,8.79375927734375,-0.0013295039534568787,-0.00041282735764980316,0.0015544239431619644
1782838059651688200,8.803688232421875,0.002585343085229397,-0.002114054746925831,-0.0014493553899228573
1782838059661617200,8.8136171875,-0.0025929277762770653,-0.0007468005642294884,-0.0011235452257096767
1782838059671547100,8.823547119140626,-0.00043789856135845184,0.0006700009107589722,-0.002372568007558584
1782838059681476000,8.83347607421875,0.000049229711294174194,0.0016966629773378372,-0.0017641643062233925
1782838059691405000,8.843405029296875,-0.0005675582215189934,-0.0011555831879377365,0.00009578745812177658
1782838059701334500,8.85333447265625,0.0014137150719761848,-0.0005108211189508438,-0.0019344901666045189
1782838059711264500,8.863264404296874,0.0017535341903567314,0.0007246192544698715,0.0020072543993592262
1782838059721193500,8.873193359375,-0.0017797155305743217,-0.0008398871868848801,0.0029829610139131546
1782838059731122400,8.883122314453125,-0.0007908837869763374,-0.001392759382724762,0.0009139515459537506
1782838059741052400,8.893052490234375,0.0005331831052899361,-0.0003883605822920799,-0.0006935703568160534
1782838059750981600,8.902981689453124,0.00017232447862625122,0.002450568601489067,-0.001306896097958088
1782838059760910600,8.91291064453125,-0.0009483387693762779,0.0007655695080757141,-0.0019159410148859024
1782838059770839600,8.922839599609375,-0.0011302325874567032,0.001460653729736805,0.00014028605073690414
1782838059780769500,8.93276953125,0.0015656715258955956,0.0020813001319766045,-0.0029036784544587135
1782838059790698500,8.942698486328124,-0.000225837342441082,0.00012733880430459976,-0.00008845096454024315
1782838059800627500,8.95262744140625,-0.001606600359082222,0.0027434946969151497,0.00008012261241674423
1782838059810556400,8.962556396484375,-0.0005165692418813705,0.00022893771529197693,0.00016800686717033386
1782838059820486700,8.972486572265625,-0.0010225865989923477,0.0007300358265638351,0.0008829766884446144
1782838059830415400,8.982415283203125,0.00012363772839307785,-0.000028432346880435944,0.0023407917469739914
1782838059840344300,8.99234423828125,0.00021773483604192734,-0.0008676173165440559,0.00047455914318561554
1782838059850274600,9.002274658203126,0.0007663462311029434,-0.0000913059338927269,0.0012854915112257004
1782838059860203500,9.01220361328125,0.0014916863292455673,0.002391790971159935,-0.0019140425138175488
1782838059870132500,9.022132568359375,-0.001158425584435463,-0.0007193135097622871,0.0006319396197795868
1782838059880061400,9.0320615234375,0.0006081936880946159,-0.0015078727155923843,0.0002158740535378456
1782838059889991400,9.041991455078126,0.0009781066328287125,-0.002755829133093357,0.003298216499388218
1782838059899920400,9.05192041015625,-0.00019620917737483978,-0.0008430974557995796,-0.0011287694796919823
1782838059909849300,9.061849365234375,0.0006011417135596275,-0.00001512095332145691,-0.00018308125436306
1782838059919778600,9.071778564453124,-0.00011521391570568085,0.002596297301352024,0.00044263526797294617
1782838059929708500,9.08170849609375,0.0008139628916978836,-0.00022931676357984543,-0.0012972080148756504
1782838059939637500,9.091637451171875,0.0022803982719779015,0.003660735674202442,0.0007012113928794861
1782838059949566700,9.101566650390625,-0.0014839805662631989,0.0009315274655818939,-0.000650875736027956
1782838059959495400,9.111495361328124,-0.00038394518196582794,0.0010233772918581963,-0.00032699620351195335
1782838059969425400,9.12142529296875,0.0005827825516462326,0.0010739769786596298,0.00021176133304834366
1782838059979354400,9.131354248046875,-0.00005198922008275986,-0.0009095743298530579,0.0011423220857977867
1782838059989283600,9.14128369140625,0.0017786677926778793,-0.00017560739070177078,-0.0017948783934116364
1782838059999213600,9.151213623046875,-0.000555058941245079,0.0005764663219451904,-0.002697843126952648
1782838060009142300,9.161142333984374,-0.0013779764994978905,-0.0010936027392745018,-0.0009710495360195637
1782838060019071500,9.171071533203126,-0.0007734745740890503,-0.0009917821735143661,0.0016302242875099182
1782838060029000400,9.18100048828125,0.0007900670170783997,-0.00264107808470726,0.0009247520938515663
1782838060038930400,9.190930419921875,-0.0002799639478325844,0.0014049019664525986,-0.0018264967948198318
1782838060048859600,9.200859619140624,0.0014068828895688057,-0.0031674792990088463,-0.00012686755508184433
1782838060058788600,9.21078857421875,0.0006630336865782738,-0.0018382063135504723,-0.00007289741188287735
1782838060068718300,9.22071826171875,0.0007186941802501678,-0.0005660140886902809,0.002701583318412304
1782838060078647600,9.2306474609375,-0.002538406290113926,0.0004137679934501648,-0.0006532920524477959
1782838060088576500,9.240576416015625,-0.0007519572973251343,0.0015120552852749825,0.0010535279288887978
1782838060098505500,9.25050537109375,0.00007400382310152054,-0.0009980583563446999,0.0029822420328855515
1782838060108435500,9.260435546875,-0.0006663547828793526,-0.00028220005333423615,0.00038885511457920074
1782838060118364700,9.27036474609375,0.00036304350942373276,0.0015961527824401855,-0.0023297108709812164
1782838060128293600,9.280293701171875,0.0015830369666218758,0.00006643310189247131,0.000409616157412529
1782838060138222300,9.290222412109374,0.0004471372812986374,0.000896792858839035,-0.0003383299335837364
1782838060148152600,9.300152587890626,-0.0001739123836159706,0.0008640363812446594,-0.0007857410237193108
1782838060158081500,9.31008154296875,0.00012665987014770508,0.0022212332114577293,-0.0006176559254527092
1782838060168010500,9.320010498046875,-0.00020037591457366943,-0.00016549229621887207,-0.00011431844905018806
1782838060177936600,9.3299365234375,0.001356366090476513,-0.0015707658603787422,-0.0015533138066530228
1782838060187865600,9.339865478515625,0.0009374506771564484,-0.0014487924054265022,-0.000481658149510622
1782838060197795300,9.34979541015625,-0.0012127850204706192,0.0013395370915532112,-0.0006497032009065151
1782838060207724500,9.359724609375,0.0020637866109609604,-0.0021735243499279022,-0.002070003654807806
1782838060217653500,9.369653564453126,-0.0010666456073522568,0.0006597880274057388,0.001125674694776535
1782838060227582500,9.37958251953125,0.00015920773148536682,-0.0014369189739227295,-0.004703452344983816
1782838060237512700,9.3895126953125,0.0009146435186266899,-0.0027552787214517593,-0.0014073727652430534
1782838060247441400,9.39944140625,-0.0012459782883524895,-0.0010852105915546417,0.0017093243077397346
1782838060257370400,9.409370361328126,0.0006602834910154343,0.002477928064763546,0.0002890937030315399
1782838060267300600,9.419300537109375,0.0013921204954385757,0.0012424876913428307,-0.00009200442582368851
1782838060277229600,9.4292294921875,0.00046337489038705826,-0.0012992583215236664,-0.0008104615844786167
1782838060287158500,9.439158447265624,-0.00036673247814178467,-0.00074745062738657,0.00015014037489891052
1782838060297087500,9.44908740234375,0.0006724176928400993,-0.0006826380267739296,0.0019051264971494675
1782838060307017500,9.459017578125,0.00010143592953681946,0.001133105717599392,0.0019482700154185295
1782838060316946400,9.468946533203125,0.0019208593294024467,0.00031121913343667984,0.001070978119969368
1782838060326875400,9.47887548828125,-0.0020629633218050003,0.000036913901567459106,-0.003719516098499298
1782838060336804400,9.488804443359374,0.0007117250934243202,0.0007853591814637184,0.00009150616824626923
1782838060346734600,9.498734619140626,-0.0002403557300567627,-0.0008194614201784134,0.0005421126261353493
1782838060356663600,9.50866357421875,-0.00045910291373729706,-0.000059907324612140656,0.00020527653396129608
1782838060366592500,9.518592529296875,0.002597140148282051,0.00016220007091760635,-0.0003201654180884361
1782838060376522500,9.5285224609375,-0.0013529416173696518,0.00000866129994392395,0.00045398343354463577
1782838060386451500,9.538451416015626,-0.0013638613745570183,-0.0005836263298988342,0.0011251000687479973
1782838060396380400,9.54838037109375,0.0014772089198231697,-0.002353725954890251,0.0007298430427908897
1782838060406309600,9.5583095703125,0.0002124737948179245,-0.0014530448243021965,0.00017723720520734787
1782838060416239600,9.568239501953125,0.0009320229291915894,0.0012120455503463745,-0.000551857054233551
1782838060426168300,9.578168212890626,-0.00010394677519798279,-0.00027319975197315216,-0.0002716928720474243
1782838060436097300,9.58809716796875,-0.0012203985825181007,-0.0023050522431731224,0.0016315421089529991
1782838060446026500,9.598026611328125,0.0006765713915228844,0.001019371673464775,0.0015953229740262032
1782838060455956500,9.60795654296875,-0.0011157803237438202,0.00007613282650709152,-0.00031850486993789673
1782838060465885400,9.617885498046874,-0.00022841524332761765,0.001132875680923462,-0.0005027954466640949
1782838060475814700,9.627814697265626,0.0007164925336837769,0.001765187829732895,0.0008369777351617813
1782838060485744400,9.637744384765625,0.0006829360499978065,0.0007720943540334702,-0.0001497236080467701
1782838060495673300,9.64767333984375,0.00006758328527212143,0.0007120976224541664,-0.0014465912245213985
1782838060505602600,9.6576025390625,0.0012729298323392868,0.0009294115006923676,-0.0008841315284371376
1782838060515531500,9.667531494140626,0.00017281249165534973,-0.0013242168352007866,-0.0023930915631353855
1782838060525461500,9.67746142578125,-0.00047273747622966766,-0.00015934929251670837,0.0027236398309469223
1782838060535390500,9.687390380859375,0.0004098992794752121,-0.0007762974128127098,0.0016650687903165817
1782838060545319700,9.697319580078124,0.0007470548152923584,0.0015776697546243668,-0.0011096782982349396
1782838060555248400,9.707248291015626,0.0017941175028681755,-0.001177079975605011,0.00030332617461681366
1782838060565178400,9.717178466796875,-0.0010232403874397278,-0.0017962642014026642,0.00026550982147455215
1782838060575107600,9.727107666015625,0.0015452643856406212,0.00043675582855939865,0.0018662838265299797
1782838060585036500,9.73703662109375,-0.00015622936189174652,-0.0003424854949116707,-0.0006679804064333439
1782838060594966500,9.746966552734374,-0.0006802938878536224,-0.0007696794345974922,0.0009847600013017654
1782838060604895500,9.7568955078125,0.0006792498752474785,0.0011648405343294144,0.0007839575409889221
1782838060614824400,9.766824462890625,-0.0014655953273177147,-0.0005624899640679359,0.0011975448578596115
1782838060624753400,9.77675341796875,0.00023003946989774704,0.0000031655654311180115,0.0011275038123130798
1782838060634683600,9.78668359375,0.0003217281773686409,0.0007651420310139656,0.004116934724152088
1782838060644612600,9.796612548828126,0.00039736274629831314,0.002763311378657818,0.00004602596163749695
1782838060654541600,9.80654150390625,0.0002514328807592392,0.0023944489657878876,0.0001757349818944931
1782838060664471300,9.81647119140625,-0.0014380766078829765,0.0010349052026867867,-0.0006146915256977081
1782838060674400500,9.826400390625,-0.0027170339599251747,0.001655573956668377,-0.000801941379904747
1782838060684329500,9.83632958984375,0.000944012776017189,0.0011248067021369934,0.0003834320232272148
1782838060694258400,9.846258544921875,0.0006510019302368164,0.0005492111667990685,-0.00022706622257828712
1782838060704188700,9.856188720703125,0.00028987787663936615,0.00041259080171585083,-0.0008715512230992317
1782838060714117600,9.86611767578125,-0.0006406297907233238,0.0003470759838819504,-0.00026839878410100937
1782838060724046600,9.876046630859374,0.0010329009965062141,-0.0018553584814071655,-0.0018676267936825752
1782838060733975300,9.885975341796875,-0.0013562589883804321,0.000970005989074707,-0.0030841249972581863
1782838060743905500,9.895905517578125,-0.00010297540575265884,0.001733267679810524,-0.0010356218554079533
1782838060753834500,9.90583447265625,-0.0010658856481313705,-0.00030007027089595795,-0.0006134784780442715
1782838060763763500,9.915763427734374,0.00023959577083587646,-0.0030223531648516655,0.000052844174206256866
1782838060773693400,9.925693359375,0.0019096741452813148,0.009961772710084915,0.006256533786654472
1782838060783622400,9.935622314453125,-0.0003257831558585167,-0.002928992733359337,0.00037014950066804886
1782838060793551400,9.94555126953125,0.0028110183775424957,0.00440587941557169,0.0016494998708367348
1782838060803480300,9.955480224609374,0.0002956632524728775,-0.0019992897287011147,0.0031645717099308968
1782838060813410600,9.96541064453125,-0.00019580498337745667,-0.0037583038210868835,-0.0012515643611550331
1782838060823339500,9.975339599609375,0.00116746686398983,-0.0014062002301216125,-0.001287250779569149
1782838060833268500,9.9852685546875,-0.0008953344076871872,-0.0018842034041881561,-0.002473595552146435
1782838060843197400,9.995197509765624,0.003595554269850254,0.00021596625447273254,-0.00001895986497402191
1782838060853127400,10.00512744140625,0.0026109321042895317,0.0002568839117884636,-0.0010754670947790146
1782838060863056400,10.015056396484376,-0.0009204195812344551,-0.0019327672198414803,-0.0024243579246103764
1782838060872985300,10.0249853515625,-0.0002719461917877197,0.002792538143694401,-0.000921325758099556
