time,seconds_elapsed,z,y,x
1782835369285135600,0.066135498046875,0.18057926999032498,-0.2255909626275301,-0.20305400878461077
1782835369295065300,0.0760654296875,0.37938802415430545,-0.1247105216436088,-0.09995309700593352
1782835369304995300,0.085995361328125,0.4636071070641279,-0.011468319475650787,-0.01931981842732057
1782835369314925300,0.09592529296875,0.3822083422720432,0.07087364445067942,0.10010333739789203
1782835369324855300,0.105855224609375,0.24806699832975862,0.04766249940693378,0.05246164331696927
1782835369334786300,0.115786376953125,0.17528291714787483,-0.011058204304799438,-0.01876322572417557
1782835369344716300,0.12571630859375,0.12622867112159727,-0.034338980518653986,-0.06497947184555232
1782835369354646500,0.135646484375,0.09263853620886803,-0.013955021724849938,-0.06845352289797738
1782835369364576300,0.145576171875,0.05045417595207691,-0.02430368952080607,-0.11540148082738741
1782835369374506500,0.155506591796875,-0.05868190607130527,-0.06300546835884452,-0.05588098677378148
1782835369384436500,0.1654365234375,-0.014167057040333747,-0.10961246736347674,-0.057216363563388585
1782835369394366500,0.175366455078125,0.035032734936475754,-0.09702705349139869,0.005176635452918708
1782835369404297500,0.18529736328125,-0.09891045608520507,-0.06534355591759085,0.06515380549915134
1782835369414227500,0.1952275390625,-0.055046764439344406,-0.06536299127042293,0.06525386834014207
1782835369424157400,0.205157470703125,-0.03625613925158977,-0.08071509337686002,0.03227901578154415
1782835369434087400,0.21508740234375,-0.019091069439053535,-0.1350135967321694,-0.11021489023603498
1782835369444017400,0.225017333984375,0.10068272645473479,-0.1575678122371435,-0.1890194372838363
1782835369453947400,0.234947509765625,0.27067981215417386,-0.13467764277607203,-0.16653123621977864
1782835369463878400,0.24487841796875,0.5093868614643812,-0.13150485795885325,-0.08331446222029626
1782835369473808400,0.254808349609375,0.8184948962122202,-0.10433109289444982,-0.1324788175575435
1782835369483738400,0.26473828125,1.2654466365516186,-0.04003295437656343,-0.12635116499010474
1782835369493668400,0.27466845703125,1.8022610186457633,-0.01469473417624831,-0.12030753744430839
1782835369503598300,0.284598388671875,2.4753321294009685,-0.07443696295544505,-0.12316548415869474
1782835369513528300,0.2945283203125,3.192974203288555,-0.11280074201077223,-0.22281864836998283
1782835369523458600,0.30445849609375,3.8716315897434948,0.023504940358549355,-0.4017804001610726
1782835369533389300,0.314389404296875,3.8935757105261084,0.4210995062023401,-0.5895858950778842
1782835369543319600,0.324319580078125,3.218839881429076,0.8100060309387743,-0.6609441081751137
1782835369553249300,0.334249267578125,2.234340184023976,0.7577477281741798,-0.7165935877479612
1782835369563179500,0.344179443359375,1.5737719964891672,0.2871668365746736,-0.8280860967043787
1782835369573109500,0.354109619140625,1.5717629947543144,-0.04765986905843019,-0.8406220454115421
1782835369583039200,0.364039306640625,1.3859674514204263,0.14952391425222158,-0.6537824729174375
1782835369592970500,0.373970458984375,1.2060463530778884,0.5934460776373743,-0.5386559183076024
1782835369602900500,0.383900390625,1.4167887061417102,0.963991746905446,-0.43518414565622804
1782835369612830500,0.39383056640625,1.2754431299090385,1.1518439305081962,-0.19388722598329186
1782835369622760200,0.40376025390625,0.6313116979122162,1.0557301194041966,0.1410347567178309
1782835369632690400,0.4136904296875,-0.2005547210484743,0.6349085533604025,0.45660292739048597
1782835369642620400,0.423620361328125,-1.1214303798049687,0.12215016963630913,0.5795224739640951
1782835369652550400,0.43355029296875,-2.085043356525898,-0.25085911326631904,0.439713459648937
1782835369662481400,0.4434814453125,-2.7154659966439008,-0.21636896077394485,0.5308224482029676
1782835369672411400,0.453411376953125,-3.1569951274126766,0.07697671056613326,0.6859419905051589
1782835369682341400,0.46334130859375,-3.651862465137243,0.2584486916124821,0.7484830562226474
1782835369692271400,0.473271240234375,-3.989460096788406,0.25455891763232646,0.688752371750772
1782835369702201300,0.483201416015625,-4.067340624326468,0.18115984635725615,0.5346510665804147
1782835369712131600,0.493131591796875,-4.0337008050531145,0.13437814837284384,0.4489356806982308
1782835369722061300,0.503061279296875,-3.828676829636097,0.07135390224829316,0.43715672437082975
1782835369731992600,0.51299267578125,-3.5956823127537962,-0.05145948053710162,0.4474879661079496
1782835369741922300,0.52292236328125,-3.2526533037036653,-0.20334873568117617,0.32995818628128615
1782835369751852500,0.5328525390625,-2.551483056667447,-0.25489355641417205,0.22989421277940272
1782835369761782500,0.542782470703125,-2.1014304277032614,-0.24993425350636242,0.2789578842211515
1782835369771712300,0.552712158203125,-1.6615438034445047,-0.39457974806725976,0.28949875012096016
1782835369781642500,0.562642578125,-1.1831436163961886,-0.508376880704239,0.33424685991853476
1782835369791572200,0.572572265625,-0.7927958068102597,-0.5071308261658996,0.3382559859620407
1782835369801503500,0.58250341796875,-0.500851088309288,-0.47548846432007846,0.18620967709273098
1782835369811433200,0.59243310546875,-0.3655781099885702,-0.42678405464477837,0.08104611542951315
1782835369821363500,0.602363525390625,-0.056205286824703216,-0.36871282781772313,-0.07249594842288642
1782835369831293400,0.61229345703125,0.19363456639647483,-0.24269575362019238,-0.06467844307236373
1782835369841223400,0.622223388671875,0.2000537857890129,-0.169759331420809,-0.0415679088588804
1782835369851153400,0.6321533203125,0.35358372081220146,-0.22769231882095337,0.017617124428972602
1782835369861083400,0.64208349609375,0.4284247345238924,-0.2624208101138472,0.12469583553113042
1782835369871014400,0.652014404296875,0.3355746013909578,-0.22374453104324638,0.14817622597031294
1782835369880944400,0.6619443359375,0.24190964474380014,-0.1907382604330778,-0.04676028987020254
1782835369890874400,0.671874267578125,0.2898766800552606,-0.19166070904023944,-0.2621093330118805
1782835369900804600,0.6818046875,0.3439531381577253,-0.24668591923490166,-0.23888920094408095
1782835369910734300,0.691734375,0.3725882810115814,-0.33248474561683833,-0.13789317075647414
1782835369920664600,0.70166455078125,0.410756391364336,-0.3933445071838796,-0.01288414109032601
1782835369930594600,0.711594482421875,0.22291911306977272,-0.3840663181636482,-0.01150244094096124
1782835369940525600,0.721525634765625,0.11468845545351504,-0.36980332646816966,-0.1884079177893698
1782835369950455600,0.73145556640625,0.07954933753311634,-0.3260152573417872,-0.25946386000439525
1782835369960385500,0.741385498046875,0.08870411936938762,-0.3128543816693127,-0.2085525514019653
1782835369970315500,0.7513154296875,0.21384850238561628,-0.3325859409689903,-0.14394812341388313
1782835369980245200,0.761245361328125,0.2922083378732204,-0.34258784115388985,-0.11003909527771175
1782835369990175500,0.771175537109375,0.2202402492493391,-0.3077738635346293,-0.08580587717723101
1782835370000106200,0.781106201171875,0.06528934151232242,-0.2573584852229804,-0.09479275510068982
1782835370010036500,0.791036376953125,-0.09905950916707515,-0.19470679873786864,-0.23556524415314195
1782835370019966500,0.800966552734375,-0.16862755091190337,-0.1299444767743349,-0.36101131352968513
1782835370029896400,0.810896484375,-0.2982020253300667,-0.09199921539202333,-0.32208617426455016
1782835370039826400,0.820826416015625,-0.3664847034394741,-0.13757424100041388,-0.2194532270574942
1782835370049756400,0.83075634765625,-0.1726876399576664,-0.19401896260417997,-0.14895605123639105
1782835370059686400,0.840686279296875,-0.08497253162562847,-0.14735994115136564,-0.08995006430987268
1782835370069617400,0.850617431640625,-0.07880348760187625,-0.06150383162423968,-0.04425597889907658
1782835370079547400,0.86054736328125,-0.10143851325809955,-0.03624371816143393,-0.053975372348166996
1782835370089477600,0.8704775390625,-0.24913199721276758,-0.0066233636625111095,-0.10388831756301224
1782835370099407400,0.880407470703125,-0.2643073545128107,0.02631327577754855,-0.20125746249035
1782835370109337300,0.89033740234375,-0.3167828071594238,0.040217151837050914,-0.20659670462645588
1782835370119267600,0.900267578125,-0.36324002242982384,0.060343847934156654,-0.17078688437025993
1782835370129197300,0.910197265625,-0.13579846349954605,0.0832161894775927,-0.09698697720933705
1782835370139128300,0.92012841796875,-0.14154957437217236,0.153335654560104,-0.07388871795553714
1782835370149058300,0.930058349609375,-0.12210896084308624,0.16762421908825634,-0.05349960806258022
1782835370158988500,0.939988525390625,0.030058453655242918,0.09493490351773798,-0.023672150151617822
1782835370168918300,0.949918212890625,0.034198622199892996,0.04036730089746415,0.0032946210986003277
1782835370178848500,0.9598486328125,-0.06873100639879703,-0.009511924710869788,0.03622819179873913
1782835370188778500,0.969778564453125,-0.03248480401933193,-0.0915244374871254,0.08554357297923415
1782835370198708500,0.97970849609375,-0.08948737870156764,-0.10286080114617943,0.01789532031584531
1782835370208639500,0.989639404296875,-0.06188683959245681,-0.06931092517860234,-0.01933631290439516
1782835370218569500,0.999569580078125,0.026285364857316015,-0.016128054914996026,-0.021180808259919283
1782835370228499500,1.00949951171875,0.06454992132186889,0.027466756661608815,-0.00467749029174447
1782835370238429400,1.019429443359375,0.1259972004532814,0.02480506317168474,0.036986755081079896
1782835370248359400,1.029359375,0.03347732218801975,-0.0255791162841022,0.04042202675938606
1782835370258289400,1.039289306640625,-0.07890753249824047,-0.03740428637340665,0.09632628481090068
1782835370268219400,1.049219482421875,-0.1054495024651289,0.003514437861740589,0.023972375207208095
1782835370278149400,1.0591494140625,-0.03575111233890056,0.03352247650399804,-0.029178784743882715
1782835370288080400,1.069080322265625,-0.06572422579824924,0.059431482329592104,-0.026024521964043378
1782835370298010400,1.07901025390625,-0.024160043266415594,0.02111585326492786,0.03570336420703679
1782835370307940600,1.088940673828125,0.03671498893499374,-0.07507716055512428,0.0708412034858018
1782835370317870300,1.098870361328125,0.044748657786846155,-0.0864613088786602,0.07554455887116492
1782835370327800600,1.108800537109375,-0.12095394558906554,-0.058430123267322776,0.05953249501865357
1782835370337730300,1.118730224609375,-0.08365677285194396,-0.07037438969165086,0.03810980429425835
1782835370347660500,1.12866064453125,-0.029232524225115776,-0.060487713384255765,0.0023309636982157826
1782835370357591300,1.13859130859375,-0.16060440345406532,-0.04686177748329937,0.006343048883788287
1782835370367521500,1.148521484375,-0.12516250319480896,-0.07111797460056841,0.025260040397569537
1782835370377451500,1.158451416015625,-0.04847556935548782,-0.08309314761981368,0.01931545277945697
1782835370387381500,1.168381591796875,-0.17550328190028666,-0.11078348390422761,0.0025116905599832534
1782835370397311500,1.1783115234375,-0.19687398670911788,-0.17043547711670398,0.032307036299631
1782835370407241500,1.188241455078125,-0.10685527760982513,-0.20827545149363577,-0.030268443144112825
1782835370417171500,1.19817138671875,-0.2645171978712082,-0.13868636696077882,-0.10799578941445798
1782835370427102200,1.208102294921875,-0.2225011799186468,-0.05421564737744629,-0.14658110226597637
1782835370437032400,1.218032470703125,-0.15133973150253294,-0.019865268681943417,-0.12214487240668385
1782835370446962400,1.22796240234375,-0.23156419181823729,-0.0392584628727287,-0.05630608031805604
1782835370456892400,1.237892333984375,-0.29800621049702164,-0.15022906684689222,0.020409641224332153
1782835370466822400,1.247822509765625,-0.22994915783703326,-0.23340952742397783,-0.04170516190510243
1782835370476752600,1.257752685546875,-0.17616846781075,-0.1708239649776369,-0.06993000692501664
1782835370486682400,1.267682373046875,-0.13896248048841953,-0.1212993249606341,0.0021483736729249357
1782835370496613400,1.27761328125,-0.06770341691672802,-0.14952990560159085,0.04446684517078101
1782835370506543400,1.28754345703125,-0.04952069449424743,-0.1958346337240189,0.03082739220112562
1782835370516473600,1.2974736328125,-0.032247488132119174,-0.17123802567124366,-0.028825039402768014
1782835370526403300,1.3074033203125,-0.031741292175650596,-0.1438242413058877,-0.08107230931669474
1782835370536333600,1.31733349609375,0.011541969233751297,-0.10866451898887752,-0.06317125337980688
1782835370546263600,1.327263671875,-0.09994798243939876,-0.12079188689514994,0.030748299082927404
1782835370556193300,1.337193359375,-0.123735685262084,-0.19743205898329613,0.03922094387393445
1782835370566124500,1.34712451171875,0.031188334468007086,-0.19198139236196873,-0.08661449014637619
1782835370576054300,1.35705419921875,-0.04738368246555328,-0.08028232798278331,-0.12980088531887157
1782835370585984500,1.366984619140625,-0.18895897580087184,-0.031266222009807824,-0.0724201432403177
1782835370595914200,1.376914306640625,-0.1423538764923811,-0.07503200623914599,0.039114743553102016
1782835370605844500,1.386844482421875,-0.14692951384484768,-0.0554308683861047,0.060998165390733626
1782835370615774500,1.3967744140625,-0.19812486355304718,0.055502983774244785,-0.05416283947797492
1782835370625704400,1.406704345703125,-0.24354338342547416,0.07026018872745335,-0.06781560858692974
1782835370635635500,1.416635498046875,-0.15432430027127264,-0.0264168822824955,-0.016744122720416633
1782835370645565400,1.4265654296875,-0.07922142075300216,-0.09069244364239275,-0.030260296370275316
1782835370655495400,1.436495361328125,-0.05888298160135746,-0.08739588631503284,0.02237392703462392
1782835370665425700,1.44642578125,0.03520984506905079,-0.08873188415914773,0.07548579615494236
1782835370675355400,1.45635546875,0.10611059672236442,-0.05251549239605665,0.07243159621609374
1782835370685285400,1.466285400390625,0.021586393386125564,0.037594036791846155,-0.02274259595023468
1782835370695215400,1.47621533203125,0.03607318390011787,0.1139279924750328,-0.11650421790489926
1782835370705145300,1.486145263671875,0.05382160655856132,0.13493242125473917,-0.11464246088732033
1782835370715076400,1.496076416015625,-0.06865034237802028,0.09450389168933034,-0.031546938647329804
1782835370725006300,1.50600634765625,-0.046347909677028655,0.012170549460873007,0.02997373451385647
1782835370734936600,1.5159365234375,-0.14238017997741698,-0.04209821634329855,0.012901768078561872
1782835370744866300,1.5258662109375,-0.2557008542090654,-0.03339746188484132,-0.03836297533772885
1782835370754796500,1.535796630859375,-0.095249595490098,0.017529957602173088,-0.0848981329488568
1782835370764726500,1.5457265625,-0.01229950960278511,0.09433306516706944,-0.07973874089168384
1782835370774656500,1.555656494140625,-0.08304594747722148,0.09330423357598483,0.015317980641126631
1782835370784587300,1.565587158203125,-0.1893389150291681,-0.022754048926010725,0.06920585736893117
1782835370794517500,1.575517578125,-0.21257482918798923,-0.12668956663161515,-0.038507242646627124
1782835370804447500,1.585447509765625,-0.19288228672444818,-0.08578677061796187,-0.12857525251405313
1782835370814377500,1.59537744140625,-0.14677870719730854,0.008824600033834576,-0.04188112126020714
1782835370824307500,1.605307373046875,-0.019524200159311292,0.02048522721119225,0.05129164968952536
1782835370834237400,1.615237548828125,0.029152444726228712,-0.0383680168390274,0.07381123227253555
1782835370844167400,1.62516748046875,0.053069326886534686,-0.05937872922904789,0.0483529110901989
1782835370854098400,1.635098388671875,0.019608371311426162,-0.026173648111149667,-0.05521035750322044
1782835370864028400,1.6450283203125,-0.09235270500481128,-0.008120470352470875,-0.10876781496657058
1782835370873958400,1.65495849609375,-0.11586626706123351,-0.03700513098798692,-0.0674477799215354
1782835370883889000,1.664888916015625,-0.02829553563594818,-0.011388093846291303,-0.05531226524142548
1782835370893819000,1.67481884765625,-0.003906359788775444,0.06150945764742791,-0.06310554946614429
1782835370903748900,1.684748779296875,0.02357902850806713,0.10386340231746434,-0.0725713882792741
1782835370913678800,1.694678955078125,0.0437578931838274,0.06463818412721156,-0.04110913224071264
1782835370923609000,1.704609130859375,-0.09060147742331028,0.0019169395372271537,0.004536218657530844
1782835370933539800,1.714539794921875,-0.25628479157686235,-0.06529540592692792,0.062294927203003315
1782835370943470000,1.724469970703125,-0.32912440233826634,-0.1274479837834835,0.036284579894784834
1782835370953399800,1.73439990234375,-0.26874562922120093,-0.030892420261353252,-0.07361468678712844
1782835370963329800,1.744329833984375,-0.2261731464296579,0.1518234233662486,-0.01578519629407674
1782835370973260000,1.754260009765625,-0.21550211481153964,0.16971308112628758,0.05796657914249226
1782835370983189800,1.764189697265625,-0.18809271436035632,0.06568725478872657,0.04820917350426316
1782835370993120000,1.7741201171875,-0.20757365989983081,-0.034029037786647676,0.016052852520626038
1782835371003050800,1.78405078125,-0.07827449529170989,-0.07587941684871911,0.0016175729981623588
1782835371012981000,1.79398095703125,-0.01361526837646961,-0.036817645591869945,-0.009217764069885014
1782835371022910700,1.80391064453125,-0.039516017830371855,-0.01588328637368977,-0.023244700253475456
1782835371032841000,1.813841064453125,0.12238660874068737,0.034871406894922255,0.04168287700805813
1782835371042771000,1.82377099609375,-0.006962824749946594,0.07853314622789621,-0.011729966086521744
1782835371052701000,1.833700927734375,-0.01642740318775177,0.0625165888633579,-0.006267280233837664
1782835371062631000,1.843630859375,0.008081599646806716,0.012526961683109402,-0.03448582337712869
1782835371072561000,1.853560791015625,-0.07727437833845614,-0.035020313846319914,0.0008942819586023687
1782835371082492000,1.863491943359375,-0.14811258614957332,-0.07261544661670923,0.033726255447790024
1782835371092422000,1.873421875,-0.11008768365979194,-0.11064765563011168,-0.0019654913866892455
1782835371102352000,1.883351806640625,-0.1143985325962305,-0.12066811438500881,0.0017081738910637795
1782835371112281900,1.89328173828125,-0.07339958273172378,-0.11462028558813035,0.004343582162261009
1782835371122211800,1.9032119140625,0.04468202229142189,-0.10073518729433417,-0.03842022195030004
1782835371132141800,1.913141845703125,0.08916180000901222,-0.09418868826031684,-0.05586692171581089
1782835371142072000,1.923072021484375,0.07950783647894859,-0.10903817460685968,-0.0018829642023891209
1782835371152002800,1.9330029296875,-0.036765842339396476,-0.13006233100034295,0.02049284426206723
1782835371161933000,1.94293310546875,-0.11509352912306785,-0.10906455115713179,-0.007860851301904767
1782835371171862800,1.95286279296875,-0.10140285742282867,-0.05134104178920388,-0.09400819886056706
1782835371181793000,1.96279296875,-0.17400164516568184,0.01889817721545696,-0.09896315438682213
1782835371191722800,1.97272265625,-0.22352409322559832,-0.007840192106366157,-0.046746480540558695
1782835371201653000,1.982653076171875,-0.1657604710429907,-0.08363529167249799,-0.006780380855128169
1782835371211583000,1.9925830078125,-0.17654489990770816,-0.12794475432448088,0.022692254002485424
1782835371221514000,2.002513916015625,-0.3080944737911224,-0.13894246061369775,0.05066060351068154
1782835371231444000,2.01244384765625,-0.21146073046624658,-0.13045717553682626,-0.062314563485234974
1782835371241374000,2.0223740234375,-0.09852876329123973,-0.06762202224358915,-0.11194551342092454
1782835371251304000,2.032303955078125,-0.11053893455862998,0.0018356179293245076,-0.05508665805831551
1782835371261234000,2.04223388671875,-0.0502367338091135,-0.018946838662773368,-0.030979550555534658
1782835371271164000,2.052163818359375,-0.007688216415047645,-0.08775098336301744,-0.015482505286764352
1782835371281094000,2.062093994140625,-0.07529577174186707,-0.08868051929809152,0.03999231183892116
1782835371291024000,2.07202392578125,-0.05481821638047695,-0.04297777565680444,0.02487009123191237
1782835371300955000,2.081954833984375,-0.012927870634198188,0.02522116969190538,-0.04269081194158643
1782835371310884900,2.091884765625,-0.08759645038843154,0.04905380763486027,-0.0771981164981611
1782835371320814800,2.10181494140625,-0.07916881378293036,-0.0013361439745873211,-0.11345593625018373
1782835371330745000,2.1117451171875,0.016605682364106176,-0.051393794889748094,-0.07448695784332231
1782835371340674800,2.1216748046875,-0.009207973328232765,-0.10690108951292931,0.03171842275671661
1782835371350605000,2.13160498046875,0.020917115822434423,-0.1695620552830398,0.11119427492851391
1782835371360534800,2.14153466796875,0.04132920473217964,-0.13612776851914823,0.0530758114262484
1782835371370464800,2.15146484375,0.03482347609996796,-0.04039784216620028,-0.014822178214509039
1782835371380395800,2.161395751953125,0.0171013569265604,-0.00034910569861531257,-0.050377914111781864
1782835371390325800,2.17132568359375,-0.07648761187493801,-0.03156739691346883,-0.0528415642789565
1782835371400256000,2.181256103515625,-0.12126666480004787,-0.092955639334023,-0.05517340476000681
1782835371410185700,2.191185791015625,-0.17595219471156595,-0.1144221326675266,-0.007708857344277203
1782835371420116000,2.201115966796875,-0.2610638425469398,-0.11071955182254314,-0.0029251484653912484
1782835371430046000,2.2110458984375,-0.2195300551533699,-0.05231215184368193,0.01711154952701181
1782835371439976000,2.220975830078125,-0.19399872353374956,0.0022482903834432364,-0.01974573395550251
1782835371449907000,2.230906982421875,-0.1397387255579233,0.009987579398602247,-0.026985512483306228
1782835371459837000,2.2408369140625,-0.14472878893017768,-0.03950695774108171,-0.01002087888000533
1782835371469767000,2.250766845703125,-0.12802023071348667,-0.10871953711174427,0.0061903425401076675
1782835371479697000,2.26069677734375,-0.07890519441068172,-0.14117913362458348,0.053818391688168044
1782835371489627000,2.270626953125,-0.09091887280941009,-0.1298123017620295,0.0577038913520053
1782835371499557000,2.28055712890625,-0.011788052949309348,-0.08508417530655861,0.044706298216152934
1782835371509486800,2.29048681640625,-0.027004326781630516,-0.06234386264495551,-0.01648006495675072
1782835371519416800,2.300416748046875,-0.0018564415216445922,-0.05907207443267107,-0.06930736324833706
1782835371529347800,2.310347900390625,0.005350713378190994,-0.08680785729400813,-0.013201225949171929
1782835371539277800,2.32027783203125,-0.13093991755247114,-0.1336541449472308,0.11802859619427472
1782835371549207800,2.330207763671875,-0.1681774690568447,-0.1782761076144874,0.10152989960229024
1782835371559137800,2.3401376953125,-0.11836159100830554,-0.11473704383559524,-0.08146501669501885
1782835371569068000,2.350068115234375,-0.13618074081540107,0.03622041035108268,-0.13123981381449848
1782835371578997800,2.359997802734375,-0.12488485529720783,0.06313523221835493,-0.06686272830888629
1782835371588928000,2.369927978515625,-0.08891045559644699,-0.06425912168174981,0.021062004185840488
1782835371598858800,2.379858642578125,-0.10487316388189792,-0.14856434850506484,0.06989011330604553
1782835371608789000,2.3897890625,-0.07147007597386837,-0.12919475438557565,0.07226467868397012
1782835371618719000,2.399718994140625,-0.015918284621834755,-0.06455481669269501,-0.018049871556740253
1782835371628649000,2.40964892578125,-0.08089549144506454,-0.03510200078040361,-0.06747316095796413
1782835371638579000,2.419578857421875,-0.14730185428857803,-0.08317804942429065,-0.06861761828535236
1782835371648508700,2.4295087890625,-0.05816460419893264,-0.13294891928732394,-0.02291400699438527
1782835371658439000,2.43943896484375,-0.07217325580716133,-0.0825175396889448,0.03932328087040223
1782835371668369000,2.449368896484375,-0.06651742200255394,-0.04566738006696105,0.05317736297142692
1782835371678300000,2.4592998046875,-0.07579612247943877,-0.07820376814305782,0.015724186821840704
1782835371688230000,2.46922998046875,-0.11759177567958831,-0.09910999724529683,-0.02564910364723764
1782835371698159900,2.479159912109375,-0.018639234018325804,-0.07701302398853004,-0.05407625717306509
1782835371708089900,2.48908984375,0.009599602994322776,-0.02250577325336635,-0.06466553792501799
1782835371718019800,2.499019775390625,-0.03551204288601875,-0.013249211543053387,-0.03619276429233141
1782835371727949800,2.50894970703125,-0.10845394497811793,-0.05084997033663094,0.03994834483303129
1782835371737880000,2.518880126953125,-0.12276830153465271,-0.06299436244294047,-0.019810752882575614
1782835371747809800,2.528809814453125,-0.16844050390720366,-0.007380830966308712,-0.10519406639933586
1782835371757741000,2.538740966796875,-0.13343816410899162,0.03827624690234661,-0.060400016834493725
1782835371767670800,2.5486708984375,-0.05146832143068313,0.00937616950199008,-0.0020367391251493246
1782835371777601000,2.55860107421875,-0.10208557898998259,-0.05843136537633836,0.09054771967576816
1782835371787531000,2.568531005859375,-0.19381810626983642,-0.10404694219082593,0.07498285160148516
1782835371797460700,2.578460693359375,-0.1416121182143688,-0.10908800509795546,-0.064422248954745
1782835371807391000,2.588390869140625,-0.14511866503059864,-0.043438890362530944,-0.10252876531337388
1782835371817320700,2.59832080078125,-0.05721592517197132,0.014305369532480836,-0.029001610679225995
1782835371827252000,2.608251953125,0.06271802971959113,-0.016116145281493664,0.08818098141127266
1782835371837181700,2.618181640625,0.034876667591929436,-0.08643040228374302,0.10363615116653964
1782835371847112000,2.62811181640625,-0.05283902526199817,-0.1373332718513906,0.052098253364674746
1782835371857042000,2.6380419921875,0.02270633732676506,-0.1092482371609658,-0.07694892751006409
1782835371866972000,2.647971923828125,0.017986907589435577,0.029394875179976222,-0.16195664004692806
1782835371876902000,2.65790185546875,-0.005296352842450142,0.11707754254713654,-0.14812548216376453
1782835371886835700,2.667835693359375,0.027167992910742757,0.09209734200425446,-0.012643710797419772
1782835371896766700,2.6777666015625,-0.024728198543190954,-0.028718291092664,0.033714523910800924
1782835371906696700,2.68769677734375,-0.12677403004467486,-0.12047668346613645,0.08352921921582893
1782835371916626700,2.697626708984375,-0.21453414656221864,-0.13732830341532826,0.050553681670641525
1782835371926557000,2.707556884765625,-0.23306933568418026,-0.1193299976490438,-0.09393292340096086
1782835371936486700,2.717486572265625,-0.193365686327219,-0.07807290830500424,-0.10749584053568541
1782835371946417000,2.7274169921875,-0.14306056345701218,-0.06392506742179394,-0.011952143770107067
1782835371956346600,2.7373466796875,-0.12575988456606865,-0.06510857811793684,0.03937228937759064
1782835371966276900,2.74727685546875,-0.09273673588633537,-0.056156917638331645,-0.009957928612432443
1782835371976207600,2.75720751953125,-0.13992343447506428,-0.09318542950190603,-0.0672707885199692
1782835371986137900,2.767137939453125,-0.15070026455521582,-0.1434220902457833,-0.029090499105653724
1782835371996067800,2.77706787109375,-0.04361000914573669,-0.1452609961107373,0.025472906830115244
1782835372005997800,2.786997802734375,-0.044940965488553045,-0.07353088096119463,0.001979373781569302
1782835372015927800,2.796927734375,-0.0199812962770462,-0.013216843643411993,-0.04143872038810514
1782835372025857800,2.80685791015625,-0.05553717830479145,-0.00014408464580774306,-0.062164912181743415
1782835372035787800,2.816787841796875,-0.12685177145600318,-0.05985350713394582,-0.07498235841114073
1782835372045717800,2.8267177734375,-0.0020095862567424774,-0.11600085322633386,-0.05602084733562078
1782835372055648800,2.836648681640625,-0.04363689715266227,-0.10787826398201286,0.02895988129619509
1782835372065578800,2.846578857421875,-0.02867021416723728,-0.10348375535011291,0.0862915966012515
1782835372075508700,2.8565087890625,-0.030067806005477902,-0.07453918122090399,0.006399167551775463
1782835372085438700,2.866438720703125,-0.043436990666389466,-0.008550897658988832,-0.10954984132288954
1782835372095369000,2.876368896484375,-0.05755903952121734,0.022354674344882367,-0.07730436248476616
1782835372105298700,2.886298583984375,-0.1254787295371294,-0.025677315961569545,-0.017076802440616302
1782835372115229000,2.89622900390625,-0.15812953777313232,-0.12526092206798492,0.02219366368044866
1782835372125159000,2.906158935546875,-0.1122030683785677,-0.1459682675972581,0.0036094820343190804
1782835372135090000,2.91608984375,-0.1395697987318039,-0.10969013570956886,0.03360707234779838
1782835372145019600,2.92601953125,-0.2615846515506506,-0.07554682389348745,-0.030364560462348162
1782835372154949600,2.93594970703125,-0.13185118717849253,-0.045090091635659336,0.010899808005848898
1782835372164880000,2.9458798828125,-0.09139175101816653,-0.0017337649900466203,-0.003007246391428634
1782835372174809600,2.9558095703125,-0.04608604387044906,-0.011627820886299014,-0.04202504150923341
1782835372184739800,2.96573974609375,0.03398234910070896,-0.06250402164272964,-0.04863874229425564
1782835372194669800,2.975669921875,0.07402560567557812,-0.09773578628264366,0.010661629035533405
1782835372204599800,2.985599853515625,0.005728314518928528,-0.08175020857825875,0.04624685132219456
1782835372214530800,2.99553076171875,-0.03674889120459556,-0.03030300300084054,-0.021207650601072235
1782835372224460800,3.005460693359375,-0.04927110364735126,-0.002679886733740568,-0.0774509404817596
1782835372234390800,3.015390869140625,-0.07863280721008777,0.017702464624866843,-0.015294901159638538
1782835372244320800,3.02532080078125,-0.15855974588394164,-0.00611819061934948,-0.00020373327801935374
1782835372254250800,3.035250732421875,-0.13724106352329254,-0.04923296359404921,-0.023251901745819484
1782835372264180700,3.0451806640625,-0.20589783564209937,-0.04406359813213348,-0.02768494315666612
1782835372274110700,3.05511083984375,-0.22858546826839446,-0.05800773313678801,-0.013107264055404811
1782835372284040700,3.065040771484375,-0.12433949637413025,-0.05433978521376848,-0.00026977055182214827
1782835372293971700,3.0749716796875,-0.06944178501665592,-0.03318973741829395,0.011251302024372852
1782835372303901700,3.084901611328125,-0.06713876877129077,-0.03654350482560694,0.004914153158408589
1782835372313831700,3.094831787109375,-0.04004091848731041,-0.07032967376708985,-0.03543978593398351
1782835372323761700,3.10476171875,-0.06994213575422763,-0.07835406333394349,-0.0383969735054532
1782835372333692000,3.11469189453125,-0.17116671400070188,-0.10858560853376983,-0.008659057041467168
1782835372343621600,3.12462158203125,-0.06945055284500122,-0.08844437245465815,-0.00012057590605691075
1782835372353552000,3.1345517578125,-0.05297989503741264,-0.03474500403627753,0.02410921726147644
1782835372363482600,3.144482666015625,-0.08668050458729266,-0.019499211848527192,-0.01215666706599295
1782835372373412900,3.154412841796875,-0.08928688769340515,-0.06433467113599181,-0.05361884139492176
1782835372383342800,3.1643427734375,-0.0781266112536192,-0.12687712509296833,-0.03215762702473439
1782835372393272800,3.17427294921875,-0.07335749715566635,-0.1690584896750748,0.04336073795924894
1782835372403202800,3.184202880859375,-0.07129705749452114,-0.14630889772847294,0.06666119155453051
1782835372413132500,3.194132568359375,-0.05913491053581237,-0.06005699381679296,-0.039840372680220754
1782835372423062800,3.204062744140625,-0.020015198546648023,-0.00575520252585411,-0.12527177225556224
1782835372432992800,3.21399267578125,-0.019701310291886327,-0.03752038703374565,-0.10438687820229679
1782835372442923800,3.223923828125,0.018192659294605253,-0.11014321323931217,-0.09858202784843742
1782835372452853800,3.233853759765625,0.00033610008656978605,-0.14841251894421875,-0.0334947025810834
1782835372462783700,3.24378369140625,-0.054421326017379756,-0.16481237653791903,-0.030838543782802298
1782835372472713700,3.253713623046875,0.033462709140777584,-0.12549173514917492,-0.07461518276629503
1782835372482644000,3.26364404296875,-0.008450432959198952,-0.031916283416375514,-0.06859568501475732
1782835372492573700,3.27357373046875,-0.013330021694302557,-0.0034277824915945527,-0.030505453070648943
1782835372502504000,3.28350390625,-0.013277414724230765,-0.050272828035801645,-0.04067315654281992
1782835372512433700,3.29343359375,-0.14399462943673133,-0.08868198060281574,-0.037687943886686115
1782835372522365000,3.303364990234375,-0.21452420969009398,-0.10768281447514891,-0.028753284774231724
1782835372532294700,3.313294677734375,-0.21476853983998298,-0.08805756509415805,-0.07454237325841095
1782835372542225000,3.323224853515625,-0.19178163200616835,-0.04190473959781229,-0.06382199063980952
1782835372552155000,3.33315478515625,-0.20078736076056955,-0.009820479203388095,-0.08552565373005346
1782835372562084600,3.343084716796875,-0.050260114684700964,0.007406257668510079,-0.0885885301657021
1782835372572014800,3.353014892578125,-0.03598609013855457,-0.016660627421736716,-0.019905934052472003
1782835372581944800,3.36294482421875,-0.047432782304286956,-0.06031885962337255,0.030168891759775576
1782835372591874800,3.372874755859375,-0.12103987030684947,-0.0941479178585112,0.05129196478335652
1782835372601805600,3.3828056640625,-0.08425473874509334,-0.0908979761518538,0.005081235087313689
1782835372611735800,3.39273583984375,-0.08916296905279159,-0.005353635987639427,-0.054147564277029596
1782835372621665800,3.402665771484375,-0.23616730169951913,0.05335530422106385,-0.03129781359131448
1782835372631595800,3.412595703125,-0.17583938198685645,-0.02683803030401468,-0.06842126002961303
1782835372641525800,3.42252587890625,0.014022095611691474,-0.039242753846943375,-0.08286649925708771
1782835372651456000,3.4324560546875,-0.0681879855632782,0.02317621986083686,-0.018612610872881487
1782835372661385700,3.4423857421875,-0.19159283143579958,-0.022424451645463705,0.0765119060659781
1782835372671315700,3.452315673828125,-0.21685236037671565,-0.1773410187214613,0.07929196523856372
1782835372681246700,3.462246826171875,-0.17052198635637758,-0.18892931131497023,-0.008467448026081547
1782835372691177000,3.472177001953125,-0.07941665106415748,-0.03270202696658671,-0.06951882774166297
1782835372701106700,3.482106689453125,-0.05375438654124737,0.05246843838393688,-0.035110901039489543
1782835372711036700,3.49203662109375,-0.07718670005500317,-0.020695289765298365,-0.03016837573654484
1782835372720967000,3.501966796875,-0.14904782117307186,-0.07206891864985226,-0.09763173225312494
1782835372730896600,3.511896728515625,-0.1484492707580328,-0.017619389451295136,-0.10033159319581464
1782835372740827000,3.521826904296875,-0.0676601622968912,0.012314707171916961,-0.02611187602051068
1782835372750756900,3.5317568359375,-0.0009779051214456557,0.009729293788596986,0.013603888465929775
1782835372760687900,3.54168798828125,-0.013509469914436339,-0.013895985013991594,0.008803447647951542
1782835372770617600,3.55161767578125,0.03871639188528061,-0.07384681504257024,-0.0570428929928923
1782835372780547800,3.5615478515625,0.011798574343323707,-0.09668393914215266,-0.0954123117711395
1782835372790477800,3.571477783203125,-0.16360943048894405,-0.11744053064063191,-0.06548920689939987
1782835372800407800,3.58140771484375,-0.09562076689004897,-0.1381223764024675,-0.06122923420025035
1782835372810337800,3.591337890625,-0.003311316505074501,-0.06524221443496644,-0.08383497896306216
1782835372820267800,3.601267822265625,-0.06308627851009369,0.03297324512340128,-0.0711756413382478
1782835372830197800,3.61119775390625,-0.03464344335794449,0.0293076352879405,-0.03450040445833001
1782835372840128800,3.621128662109375,-0.04098433681726456,-0.04231361265964806,-0.041792401797138154
1782835372850058800,3.631058837890625,-0.12331424497961997,-0.09998787605836987,-0.05964168644759338
1782835372859988700,3.64098876953125,-0.07197744097411632,-0.16234642481580375,-0.08591574902618303
1782835372869918700,3.650918701171875,-0.05333060817122459,-0.14064707257449627,-0.07518277635406702
1782835372879844400,3.66084423828125,-0.07614858917891978,-0.09486037697680294,-0.024763178525026887
1782835372889774300,3.6707744140625,-0.058310150149464605,-0.09465469833686947,-0.041868581439042464
1782835372899704600,3.68070458984375,-0.0925613793194294,-0.09185001617968082,-0.0824027176702395
1782835372909634300,3.69063427734375,-0.11571721397936344,-0.058767538528144356,-0.09009829540783539
1782835372919565300,3.7005654296875,-0.1080459486991167,-0.036104675016924735,-0.03142913465367164
1782835372929495300,3.710495361328125,-0.18583003012537955,-0.04139152937866747,0.034121830636635424
1782835372939425500,3.720425537109375,-0.20071195743679998,-0.04327113258019089,-0.018012626552581786
1782835372949355300,3.730355224609375,-0.17773849360644817,-0.03206022193171084,-0.09921245297277345
1782835372959285500,3.740285400390625,-0.15938742887973784,-0.025070947566255927,-0.08563797326441853
1782835372969215500,3.750215576171875,-0.05802899512052535,-0.04548376712836325,-0.03994241741574369
1782835372979145200,3.760145263671875,0.03041910366117954,-0.0574858281545341,0.017675864312308838
1782835372989075500,3.770075439453125,-0.02977028436362743,-0.062331660750508305,0.09348290547798387
1782835372999005400,3.78000537109375,-0.11609481512010097,-0.1054806282557547,0.08368040032270364
1782835373008936400,3.7899365234375,-0.0815419726550579,-0.09923822673484682,-0.046141742413328024
1782835373018866200,3.7998662109375,-0.11683598887622355,0.013112287290394306,-0.1332527702052612
1782835373028796400,3.80979638671875,-0.12062719785273074,0.053974678228422994,-0.09991705757817253
1782835373038726400,3.819726318359375,-0.08189443935453891,-0.04048705481961369,-0.044418256788700816
1782835373048656400,3.829656494140625,-0.04518295755088329,-0.14811543569378555,0.006670467906980775
1782835373058586400,3.83958642578125,-0.00935761093199253,-0.15664938221797345,0.019791198798734692
1782835373068516600,3.8495166015625,0.005457096362113952,-0.10276596246957778,0.032259356666426174
1782835373078446300,3.8594462890625,-0.08302899634242057,-0.009184665517881512,0.028788164291367865
1782835373088377600,3.869377685546875,-0.11951309913098812,0.03726297820657491,-0.04499573701624758
1782835373098307300,3.879307373046875,-0.12334990081489085,0.09247647751495242,-0.11203922871951945
1782835373108237600,3.889237548828125,-0.2507587216317653,0.08065240340419114,-0.06802802749490365
1782835373118167300,3.899167236328125,-0.19594635047018527,-0.009570303834602237,0.014487959557771681
1782835373128097300,3.90909716796875,-0.08009294289052486,-0.039767143047228455,-0.004208055282244458
1782835373138027500,3.919027587890625,-0.15870236922502517,0.002618438870087266,0.06600038955823984
1782835373147957200,3.928957275390625,-0.14347791208624838,-0.04458820652812719,0.08312747001452371
1782835373157887500,3.938887451171875,-0.021741876208782193,-0.06967822412103414,-0.01130699143409729
1782835373167818200,3.948818359375,-0.03770809162557125,-0.004340367291867733,-0.03300367679428309
1782835373177748500,3.95874853515625,-0.012918518283963202,0.0071403732739388935,0.013192467253981157
1782835373187678500,3.968678466796875,0.03645020051896572,-0.015026231152936815,0.0030695527716074135
1782835373197608400,3.9786083984375,-0.07855389675498008,-0.022551585156470537,0.02761807933237869
1782835373207538400,3.988538330078125,-0.1877589523613453,-0.028184987933561206,0.0366435128676705
1782835373217468400,3.998468505859375,-0.05659107127189636,0.0026071868237107993,-0.10453887215992436
1782835373227398400,4.0083984375,-0.008093874606490135,0.11223273286446929,-0.09121422076048329
1782835373237328400,4.018328369140625,-0.07441723534166812,0.12247414089366793,0.029867146033956668
1782835373247259400,4.02825927734375,-0.0646849458783865,-0.005994491174444556,0.114299931059964
1782835373257189600,4.038189697265625,-0.06645429363846779,-0.06078479663468897,-0.026622259528329594
1782835373267119400,4.048119384765625,-0.19207623103857038,-0.010092939469218253,-0.07042644410587381
1782835373277049300,4.05804931640625,-0.19180325931608677,-0.022088716885074973,0.00967731243961025
1782835373286979300,4.067979248046875,-0.08757365403473377,0.001040522028878331,0.03742457567618694
1782835373296909300,4.077909423828125,-0.07279810970723628,0.08510127257183193,-0.06856597486308309
1782835373306839600,4.087839599609375,-0.07092530157268047,0.08032375597171484,-0.0897787628635764
1782835373316769300,4.097769287109375,-0.1253653322905302,-0.007970175161585212,-0.0015355481373611837
1782835373326699500,4.107699462890625,-0.174661570379138,-0.06084945936873555,0.05454564651679247
1782835373336630300,4.11763037109375,-0.1418213770508766,-0.03969583137668669,-0.024262275231606324
1782835373346560500,4.127560546875,-0.16663842292129993,0.0189443544447422,-0.08091424181130714
1782835373356490500,4.137490478515625,-0.22134967179596424,-0.010973375565558672,-0.0805131045313552
1782835373366420500,4.14742041015625,-0.07638824315369129,-0.04831146483495831,-0.0985711045956239
1782835373376350500,4.1573505859375,0.008764905735850334,-0.007939560827612876,-0.01630724284022581
1782835373386280200,4.1672802734375,-0.03240589356422424,0.019107143791019916,0.0770185221475549
1782835373396210400,4.17721044921875,-0.007518705067038536,-0.0172336780693382,0.04537114619989879
1782835373406140400,4.187140380859375,-0.002364975565671921,-0.03178103966414928,-0.05435640298842918
1782835373416071400,4.197071533203125,-0.1255319210290909,-0.01895845603533089,-0.0585528180652298
1782835373426001400,4.20700146484375,-0.09180617703795432,-0.028138006986677646,-0.047357132385345176
1782835373435931400,4.216931396484375,0.021858196064829825,-0.01120586914718151,-0.028938162654731422
1782835373445861400,4.226861328125,-0.06341711789965629,0.048609059542044995,0.027876387775270267
1782835373455791400,4.236791259765625,-0.119940384632349,0.03916333193518221,0.0030775397152407093
1782835373465721300,4.246721435546875,-0.147115391805768,0.003923968510702252,-0.011718883003504014
1782835373475651600,4.256651611328125,-0.2231494146943092,0.04030095766298473,-0.0059278807951952325
1782835373485581300,4.266581298828125,-0.14539163675308225,0.10018844013176857,0.0029378047342761416
1782835373495512600,4.2765126953125,-0.10366612617969512,0.11622779385000466,0.09335726067116483
1782835373505442300,4.2864423828125,-0.08193184875547885,0.07444887258894742,0.15352142292317003
1782835373515372500,4.29637255859375,-0.01224631811082363,0.08496420218870043,0.11702345600603148
1782835373525302500,4.306302490234375,0.01618950277864933,0.1377937289699912,0.10027761625256389
1782835373535232300,4.316232177734375,0.09353577730953692,0.1345330466736108,0.11268181007253006
1782835373545162500,4.32616259765625,0.09935644628703594,0.08246675934977829,0.17929511193130165
1782835373555092200,4.33609228515625,0.08112579306960105,0.05130085590928793,0.2269816132683307
1782835373565022500,4.3460224609375,0.04047930990457534,0.04935293671190739,0.18388326170546934
1782835373574952400,4.355952392578125,-0.037706338059902186,0.08606536836363375,0.1059096125238575
1782835373584883500,4.365883544921875,-0.0984913538902998,0.12596117929182946,0.12388726822775788
1782835373594813400,4.3758134765625,-0.13990531429648398,0.14395890053622423,0.12144129071459174
1782835373604743400,4.385743408203125,-0.1504395677924156,0.1445238409426063,0.07975923569044098
1782835373614673400,4.39567333984375,-0.24911504607796667,0.12361030531674623,0.0619121521302266
1782835373624603400,4.405603271484375,-0.36296471261978147,0.038591888722777364,0.07453429498323239
1782835373634533400,4.415533447265625,-0.36913960186243056,-0.023218963024020194,0.06183405909244902
1782835373644463400,4.42546337890625,-0.3659299921661615,0.036666327487677335,0.048440484342374836
1782835373654393300,4.435393310546875,-0.3673211542636156,0.10278685912713408,0.037825064502167514
1782835373664324400,4.445324462890625,-0.3332084567815065,0.11608728940077126,0.044318531874427566
1782835373674254300,4.45525439453125,-0.34322307031750676,0.08001264419592917,-0.016262129623442888
1782835373684184300,4.465184326171875,-0.32739597111046315,0.004353738230094314,-0.023499131672270596
1782835373694114600,4.475114501953125,-0.31765958999395366,-0.0644554479714483,0.017866717559157405
1782835373704044300,4.485044189453125,-0.21885960854589936,-0.12488719338476657,0.01927844523731619
1782835373713974500,4.494974609375,-0.034058921468257904,-0.10342376879118383,-0.007114082346990471
1782835373723904300,4.504904296875,0.08737900824546814,-0.0539133034300059,0.016336027118359926
1782835373733834500,4.51483447265625,0.18322540058493614,-0.08845131365209817,0.029136747116886543
1782835373743764500,4.524764404296875,0.28193185853064057,-0.1611964510630816,-0.036217195480689406
1782835373753695500,4.534695556640625,0.286933027818799,-0.19753939181528984,-0.03796478350011166
1782835373763625500,4.54462548828125,0.18422610206007956,-0.268285391298309,-0.06096053222750779
1782835373773555500,4.554555419921875,0.1739116287946701,-0.3494523931611329,-0.13085789269166997
1782835373783485400,4.5644853515625,0.13386837221980094,-0.34152956427261233,-0.15041985844494773
1782835373793415400,4.57441552734375,-0.01634673916697502,-0.2983481558024883,-0.2320058346385136
1782835373803345400,4.584345458984375,-0.09092997872531414,-0.2757684405300766,-0.3137175743699074
1782835373813275400,4.594275390625,-0.24129531223773956,-0.2407365823764354,-0.3476546230241656
1782835373823205400,4.604205322265625,-0.42154608092606066,-0.20166713926978408,-0.38967984719648957
1782835373833136400,4.614136474609375,-0.381927187243104,-0.17106091553866862,-0.4577991514377296
1782835373843066400,4.62406640625,-0.31997371215522286,-0.1401107006754726,-0.45717762200590223
1782835373852996400,4.633996337890625,-0.2962117282956838,-0.16734423310309648,-0.4038531147819012
1782835373862926600,4.643926513671875,-0.22420856835842132,-0.25602256044410165,-0.33848449748829007
1782835373872856300,4.653856201171875,-0.2022720463603735,-0.27937420993708073,-0.36402653316501526
1782835373882787000,4.663787109375,-0.19315058227181434,-0.2443153176460415,-0.3510738934157416
1782835373892717000,4.673717041015625,-0.16640987486243247,-0.17774178154207765,-0.3216088390763849
1782835373902647000,4.68364697265625,-0.1466711551696062,-0.11802855966165661,-0.3447690576504916
1782835373912577000,4.693576904296875,-0.11212006627023219,-0.047711453115195035,-0.2799805417997762
1782835373922508000,4.703508056640625,-0.07036942125558852,-0.005640563170239329,-0.1777677197009325
1782835373932438000,4.71343798828125,-0.03887187470793724,0.016092252949252723,-0.18755009538363665
1782835373942368000,4.723367919921875,-0.05162614234089851,0.03434467960707843,-0.1982819355445914
1782835373952298000,4.733298095703125,-0.0653776043176651,0.04064012648947537,-0.1848547918850556
1782835373962228000,4.74322802734375,-0.08223229300677776,0.055304173266515134,-0.18352641109181567
1782835373972158000,4.753157958984375,-0.05366963086724281,0.02706862418949604,-0.09051326941689476
1782835373982088200,4.763088134765625,-0.008652093011140822,0.02692870426215231,-0.017108202225877903
1782835373992018000,4.773017822265625,0.10032383001446724,0.10003178826533257,-0.006168660431262105
1782835374001948200,4.7829482421875,0.07444061621725559,0.16359174870178103,-0.00004527304698713123
1782835374011879000,4.79287890625,0.033279169267415996,0.16747253565788267,-0.010010512749617919
1782835374021809200,4.80280908203125,-0.0026508067697286605,0.10764986205361783,0.021649740945920346
1782835374031739000,4.81273876953125,-0.10276011725068092,0.024899025065451857,0.06573770633433014
1782835374041669000,4.822669189453125,-0.05571078130602836,-0.014045330356806517,0.1158729890629649
1782835374051599000,4.83259912109375,-0.02275602168738842,0.021636954529583453,0.14287604633611625
1782835374061528800,4.84252880859375,-0.05019581727683544,0.09136259798891842,0.12126493863384238
1782835374071459000,4.852458984375,-0.014740473014116287,0.09262509220540523,0.10122319000698625
1782835374081389000,4.86238916015625,-0.053231823971867556,0.04539908451959491,0.14568029010188766
1782835374091319000,4.872319091796875,-0.07574643811881542,0.0107460696157068,0.1444119597996585
1782835374101250000,4.88225,-0.04690495903789997,0.0064770870596170425,0.127504645874165
1782835374111180000,4.892179931640625,-0.07443769360780715,-0.010830825289711356,0.10328973061535507
1782835374121110000,4.902110107421875,-0.04593932887613773,-0.02008504891246557,0.11096561727179213
1782835374131040000,4.9120400390625,0.02979424976110458,-0.039115693401172755,0.10937696897401473
1782835374140970000,4.921969970703125,0.07630348747968674,-0.04830525428988039,0.14167113665891812
1782835374150900200,4.931900146484375,0.09424772497117519,-0.036447131779044864,0.1371791498687584
1782835374160830000,4.941829833984375,0.09593757775425911,-0.027625819680839776,0.14033851808197795
1782835374170760000,4.951760009765625,-0.06388239732384682,-0.03694412151575088,0.15385078274169936
1782835374180691000,4.96169091796875,-0.05367781417369842,-0.09624854339957237,0.11241233634823002
1782835374190621200,4.97162109375,-0.055602060234546655,-0.06759951815083623,0.03906501352670602
1782835374200551000,4.981551025390625,-0.1294604926496744,-0.016700667171180246,0.0294471990222577
1782835374210481000,4.99148095703125,-0.08235153547227382,-0.030231618265062567,0.0735295201211702
1782835374220411100,5.0014111328125,-0.08422551265060901,-0.06181099787726998,0.04439329587738029
1782835374230340900,5.0113408203125,-0.05542436558008194,-0.05541961633972823,0.01700504781208001
1782835374240271000,5.02127099609375,-0.06817921773493289,-0.004021875927224755,0.037008144928980614
1782835374250201000,5.031201171875,-0.1828553982287645,-0.02482552143782377,0.060288327487790956
1782835374260131000,5.041131103515625,-0.14283084635436535,-0.09840104525834321,0.008447409885050728
1782835374270062000,5.05106201171875,-0.08221651091575623,-0.08830211443975568,-0.028021486201230433
1782835374279992000,5.060991943359375,-0.09667933603227138,-0.01236797172911465,0.02335415197731927
1782835374289922000,5.070922119140625,-0.04007949693202972,-0.01593837756179273,0.049178091601654886
1782835374299852000,5.08085205078125,0.012318798825144767,-0.06823197083547711,0.021638370168535037
1782835374309782000,5.090781982421875,-0.05013502700030804,-0.09708557874560356,-0.05627976769986562
1782835374319712000,5.1007119140625,0.004233107525110244,-0.1137625727802515,-0.01343300257816445
1782835374329642000,5.11064208984375,0.01300970369875431,-0.11134835124537348,0.03946793633836787
1782835374339572000,5.120572021484375,-0.05754208838641643,-0.0910755977410823,0.00196380175310187
1782835374349502200,5.130502197265625,-0.023579613029956818,-0.05869564233571291,-0.06462118276006076
1782835374359433000,5.140432861328125,-0.04848725979328155,-0.04277648093104362,-0.07424724450304639
1782835374369363000,5.150363037109375,-0.03074935852885246,-0.06912066330350936,-0.060304917862988076
1782835374379293000,5.16029296875,0.024471008911728858,-0.13969773596040905,-0.046197564253793094
1782835374389223200,5.17022314453125,-0.021405776122212408,-0.16382263484820722,0.011638314880849793
1782835374399153000,5.18015283203125,-0.028615853631496428,-0.1566826999656856,0.009378155963099561
1782835374409083100,5.190083251953125,-0.07711714195013046,-0.12190313607268034,0.027964600348263046
1782835374419013000,5.20001318359375,-0.17341303162276744,-0.10984671451076865,0.007412438530835788
1782835374428942800,5.20994287109375,-0.21615911741554736,-0.113354138109833,-0.03267819628313882
1782835374438873000,5.219873046875,-0.16352993551194667,-0.1189465512894094,-0.037322946499194945
1782835374448804000,5.22980419921875,-0.14205810841619967,-0.0974105729162693,-0.04145685426641721
1782835374458734000,5.239734130859375,-0.0885702638566494,-0.0571253242790699,-0.03166387499130797
1782835374468663800,5.249663818359375,-0.04971417123973369,-0.03396985494531691,-0.034723349326895546
1782835374478594000,5.259593994140625,-0.018635142365097997,-0.0607762480020523,-0.01936416902570054
1782835374488524000,5.26952392578125,0.05196341147124767,-0.1068388379316777,-0.02770042385358829
1782835374498454000,5.2794541015625,0.03702829266786575,-0.14319566107876597,0.0002903087330632843
1782835374508384000,5.289384033203125,0.02205751802921295,-0.18945202001482248,-0.012736720559827518
1782835374518314200,5.299314208984375,-0.029750995141267774,-0.16834866090528666,-0.0063314606231608195
1782835374528244000,5.309243896484375,-0.1563181044369936,-0.11250022469423711,-0.0013634795060846953
1782835374538175200,5.31917529296875,-0.17945581891834736,-0.0733010907933116,-0.001486640094872564
1782835374548103200,5.329103271484375,-0.20550328336656093,-0.03033018326871097,0.006381284835212863
1782835374558033000,5.339032958984375,-0.22594927454590796,-0.005368541295826435,-0.010421217008936218
1782835374567964200,5.348964111328125,-0.17940087386071682,-0.05481763185858726,-0.037357136463164346
1782835374577894000,5.358893798828125,-0.16627309674024582,-0.10725216797292232,-0.033786776296258904
1782835374587824000,5.36882421875,-0.17205343370735643,-0.11403759032934903,-0.019080182718858123
1782835374597754000,5.378754150390625,-0.18811434167027472,-0.11249313736632466,-0.004318977443967014
1782835374607684000,5.38868408203125,-0.18305530471503734,-0.06696911129280925,-0.042462747939908875
1782835374617614000,5.398614013671875,-0.1412152278512716,0.019972528448700903,-0.08545094452602789
1782835374627543800,5.408543701171875,-0.13331366094648836,0.06746040194109082,-0.09586110585140994
1782835374637474000,5.41847412109375,-0.04275952979624271,0.05718436098992824,-0.07604775001979433
1782835374647404000,5.428404052734375,-0.07331658062338829,0.04318170073106885,-0.026042674108664503
1782835374657335000,5.4383349609375,0.01907353378236294,0.07882116938903927,-0.013014786299248226
1782835374667265000,5.44826513671875,-0.07036942125558852,0.045943420529365536,-0.028227900060103273
1782835374677195000,5.458195068359375,-0.22676000640690325,-0.026789807248115537,-0.05312505739545449
1782835374687125000,5.468125,-0.1477636265814304,-0.03809884450882673,-0.02434102128993254
1782835374697055000,5.478054931640625,-0.14671090265810488,0.07229892801344394,-0.08919488029470667
1782835374706985000,5.48798486328125,-0.12762567843794823,0.143513129530102,-0.09262510133855975
1782835374716915200,5.497915283203125,-0.08203238652050494,0.05833367715552449,-0.10453248808491043
1782835374726845000,5.507844970703125,-0.0446294153213501,-0.03737885967120528,-0.07082893309269565
1782835374736775000,5.51777490234375,0.009390928679704666,-0.05886822242364287,-0.09314325259430334
1782835374746706000,5.527705810546875,0.09608195466101169,-0.04829086043834686,-0.052173231996758836
1782835374756636200,5.53763623046875,0.0031382980257272717,-0.04947860891819,-0.07914048273758963
1782835374766566100,5.547566162109375,0.03418868532776832,-0.07636340097337961,-0.0864668892360758
1782835374776495900,5.557495849609375,0.11331599805653095,-0.05769742507860064,-0.08218774147899821
1782835374786426000,5.567426025390625,0.0065332011610269546,-0.07691781998574733,-0.021323221538448706
1782835374796355800,5.57735595703125,-0.14240531441867352,-0.16236819825619458,0.004915746893873438
1782835374806286000,5.5872861328125,-0.06400865405201911,-0.205869632460922,-0.022982213392388075
1782835374816216000,5.597216064453125,-0.24089842187464236,-0.1844464668124914,-0.08403067506509833
1782835374826146000,5.60714599609375,-0.2597106743723154,-0.1347599142320454,-0.0785006687304005
1782835374836077000,5.6170771484375,-0.15479542491436005,-0.11012217045128345,-0.08055936395903117
1782835374846007000,5.627007080078125,-0.1785252600699663,-0.07031476845890283,-0.0702038188977167
1782835374855937000,5.63693701171875,-0.15235095437169074,-0.07595657373815774,-0.03684119999739341
1782835374865867300,5.6468671875,-0.08015314864516258,-0.10032865232005715,-0.021642525753844528
1782835374875797000,5.656796875,-0.06602174744009971,-0.05272255927547812,-0.024813748801639304
1782835374885730600,5.66673046875,-0.07974924401938915,-0.009972820220887661,0.022345997848082333
1782835374895660300,5.676660400390625,-0.04622749816775322,-0.06431494352221488,0.0381194215059746
1782835374905590300,5.68659033203125,-0.049558103895187375,-0.10108487751483916,0.06375920933559537
1782835374915520500,5.6965205078125,-0.006334463718533516,-0.054256490844488144,0.08375377608616835
1782835374925451500,5.706451416015625,-0.05308277088999748,0.0332015739865601,0.14019095370429568
1782835374935381500,5.716381591796875,-0.12085808399915694,0.03909925372302532,0.07803980061984621
1782835374945311200,5.726311279296875,-0.03273264130055904,0.035317835488170385,-0.020403284548781812
1782835374955241500,5.736241455078125,-0.09385784887075424,0.08128463689312339,0.011136091846600174
1782835374965171500,5.74617138671875,-0.12550211041271686,0.057931087704002855,0.08496972774718888
1782835374975101400,5.756101318359375,-0.032948914399743075,0.007881400899589061,0.06099956276337616
1782835374985031400,5.766031494140625,-0.12846271378397942,0.04046104359552264,0.05009680474861525
1782835374994961400,5.77596142578125,-0.15070318716466427,0.08045008576512336,0.057941143307136365
1782835375004891400,5.785891357421875,-0.048753801774978636,0.11339856177344917,-0.01867532824501395
1782835375014822400,5.795822509765625,-0.12973404889404774,0.15546850187033415,-0.03485709524177946
1782835375024752400,5.80575244140625,-0.1258539925903082,0.11266922458559274,-0.018172301493166013
1782835375034682600,5.8156826171875,-0.10185703093111514,0.0364028542459011,-0.01834548436929472
1782835375044612400,5.8256123046875,-0.1433025555193424,-0.0037565760545432564,-0.06803058477817103
1782835375054542300,5.835542236328125,0.030281156495213506,-0.015070727881789207,-0.06476658714669756
1782835375064472300,5.845472412109375,0.06990706444084643,0.0019373978033661841,-0.025574586239457128
1782835375074402300,5.85540234375,0.03780862939059734,-0.054229018315672874,0.009565581993712111
1782835375084332500,5.86533251953125,0.12327157488167285,-0.15611775955930352,0.008972027414198964
1782835375094262300,5.87526220703125,0.04948620770275593,-0.14415639586970208,0.02896432914244942
1782835375104192500,5.885192626953125,-0.02414718378484249,-0.11596563578248023,0.04780433729672804
1782835375114123300,5.895123291015625,0.04174713788330555,-0.11950053191035985,0.0032038284094538538
1782835375124053500,5.905053466796875,-0.04009527902305126,-0.0713197077177465,-0.02175693678059615
1782835375133983500,5.9149833984375,-0.09444587789177894,-0.07013152084648609,-0.017281179606029762
1782835375143913500,5.92491357421875,-0.11477613373696803,-0.10441738293841481,-0.05089458579649217
1782835375153843500,5.934843505859375,-0.16575579486787317,-0.10533128291293978,-0.07530731604918837
1782835375163773200,5.944773193359375,-0.14593231950104235,-0.09703969377726315,0.02261175437849015
1782835375173703400,5.954703369140625,-0.14345628477633,-0.1224091128334403,0.0340349378044717
1782835375183636500,5.964636474609375,-0.18884557855427264,-0.11373042407631874,-0.01871186086311936
1782835375193566200,5.974566162109375,-0.19228841248452663,-0.08056421366408467,-0.07175640950142405
1782835375203496400,5.984496337890625,-0.1731967585235834,-0.04819382980465889,-0.08232093027145601
1782835375213426400,5.994426513671875,-0.23271453089714048,-0.005020458510518073,-0.06792633895240724
1782835375223356400,6.0043564453125,-0.14591829097568987,0.016299392893910407,-0.00786134449224919
1782835375233286400,6.014286376953125,-0.09249825095534324,0.016086334665119648,-0.004026725632278248
1782835375243216600,6.024216552734375,-0.17076690102815628,0.02616232299953699,-0.04035977517813444
1782835375253147400,6.0341474609375,-0.11977730302512644,-0.0008230068206787109,-0.06015299240401946
1782835375263077400,6.044077392578125,-0.045755204480886456,-0.006100947223603725,-0.03394165176413953
1782835375273007400,6.05400732421875,-0.07291326051950454,0.011525748751312494,0.006013798663113266
1782835375282937300,6.063937255859375,0.03539981468319893,0.006891659209877252,-0.02700746858678758
1782835375292867300,6.073867431640625,0.13344868550300598,0.017342472206056118,-0.03812478266768157
1782835375302797300,6.08379736328125,0.0864484493970871,-0.00571340921074152,-0.01957739165127277
1782835375312727600,6.0937275390625,0.1752227113932371,-0.03883519595935941,-0.006106865507736802
1782835375322657300,6.1036572265625,0.19740648615062237,-0.03575257364362478,-0.05051046358342282
1782835375332587500,6.11358740234375,0.020934651479125023,-0.030493045680224894,-0.019871798887429758
1782835375342517200,6.123517333984375,-0.06169745450019836,-0.12658347590863703,0.006323787060892209
1782835375352448500,6.133448486328125,-0.008185060021281242,-0.14952289133891464,-0.08370074899098835
1782835375362378200,6.143378173828125,-0.07176993570327758,-0.027614421503990887,-0.09257712487783283
1782835375372308500,6.15330859375,-0.09697335054278373,0.017305647327005864,-0.0417083402428776
1782835375382238500,6.163238525390625,-0.11404665041863918,-0.07637991371676325,-0.046600834125326944
1782835375392168400,6.17316845703125,-0.1484311505794525,-0.16741569090411065,-0.019952837367542088
1782835375402098400,6.183098388671875,-0.13714111028015613,-0.1772302518233657,0.01926494643492624
1782835375412028400,6.1930283203125,-0.11770868005752563,-0.1426679108776152,-0.08479318387019448
1782835375421958400,6.20295849609375,-0.1487935541510582,-0.12258622296601533,-0.11380379070662892
1782835375431888400,6.212888427734375,-0.14511281981170177,-0.13336670630797742,-0.04374528943058103
1782835375441819400,6.2228193359375,-0.14107552711963653,-0.11122750134468078,-0.006331614174321294
1782835375451749400,6.232749267578125,-0.17499825498759747,-0.09248276112526654,-0.0004662292722612619
1782835375461679400,6.242679443359375,-0.14093816447556018,-0.1067423187546432,-0.047180086184851824
1782835375471609300,6.252609375,-0.14240765250623225,-0.12613646279349922,-0.029109738095663487
1782835375481539600,6.26253955078125,-0.11216624349951744,-0.11834960830956696,0.03652661762288771
1782835375491469300,6.27246923828125,-0.05697042597830295,-0.09143281368091702,-0.000012128829210996626
1782835375501399600,6.282399658203125,-0.05599836607575416,-0.07376753926128149,-0.012098214877024293
1782835375511329500,6.29232958984375,-0.05337444731295109,-0.09738704591020941,0.024604636095603927
1782835375521259300,6.30225927734375,-0.06440788250267505,-0.11578370334431529,0.0441320511253085
1782835375531189500,6.312189453125,-0.11207213547527789,-0.10012436191961169,0.02539473616052419
1782835375541120300,6.322120361328125,-0.11125438935160636,-0.07749620439559221,0.03290049954759888
1782835375551050500,6.332050537109375,-0.1852484308451414,-0.06889306509271263,0.033146318401675666
1782835375560980200,6.341980224609375,-0.11444704791307449,-0.07781009265035391,-0.01004136454560794
1782835375570910500,6.351910400390625,0.000526069700717926,-0.0635474662810564,-0.05762991280034184
1782835375580840400,6.36184033203125,-0.03721300158500671,-0.0725315677255392,-0.06265191481397486
1782835375590770400,6.3717705078125,0.009980711266398429,-0.14782807011976837,-0.009844919524900615
1782835375600700400,6.381700439453125,-0.015298106896877288,-0.2060984727807343,0.02463901328924112
1782835375610630400,6.39163037109375,-0.04114975651204586,-0.1658557481110096,0.005561789712449535
1782835375620560400,6.401560302734375,-0.06592062515318393,-0.07438377146348357,-0.03944002085155807
1782835375630490400,6.411490478515625,-0.10943769531846045,-0.03693126203417778,-0.061875441415607926
1782835375640421400,6.42142138671875,-0.12275602657496928,-0.057737610958516594,-0.05068084258111193
1782835375650351400,6.431351318359375,-0.1359182904869318,-0.07852730100899934,-0.06343308265376836
1782835375660281300,6.44128125,-0.0696522128969431,-0.09522636074498295,-0.03715346255064942
1782835375670211300,6.45121142578125,-0.0788145935177803,-0.08284297225102782,-0.0102794110851828
1782835375680141600,6.4611416015625,-0.09232055630087851,-0.04787285422198474,-0.004942972827516496
1782835375690071300,6.4710712890625,-0.07340776603817939,-0.0165524908721447,-0.06584776997952721
1782835375700001500,6.48100146484375,-0.056446109843254086,0.02693213832825422,-0.08899878233387135
1782835375709931300,6.49093115234375,-0.027412907582521438,0.03907806480452418,-0.03212451020642183
1782835375719861500,6.500861572265625,0.038030163186788556,0.00769216193780303,-0.04243332091602497
1782835375729791500,6.51079150390625,-0.020427286478877066,0.003466799327731132,-0.013037943412549793
1782835375739722500,6.520722412109375,-0.05261807598769665,-0.03555588202774525,-0.0118498296065256
1782835375749652500,6.530652587890625,-0.13085866900980472,-0.060806789270788426,0.005553067549876868
1782835375759582500,6.54058251953125,-0.20734043566584587,-0.02956248683184385,0.018295608212426304
1782835375769512400,6.550512451171875,-0.08291092292070389,0.014699775677546857,-0.05392532266136259
1782835375779442400,6.5604423828125,-0.0008820435315370559,0.08016030903831124,-0.06210868391590193
1782835375789372400,6.570372314453125,-0.00573123712837696,0.09384374728016555,-0.016953354157460854
1782835375799302400,6.580302490234375,0.06520107870697975,0.029215573090314865,-0.004995269270334392
1782835375809232400,6.590232421875,0.11614391495883464,-0.020475363404303788,0.01359240809069015
1782835375819162400,6.600162353515625,0.07279167996644974,-0.021259937910735605,0.023841761964326722
1782835375829092600,6.610092529296875,-0.10766659399271011,-0.030042013977095484,0.07009307026593015
1782835375839023400,6.6200234375,-0.1349813018977642,-0.05882891332656145,-0.015095350866392254
1782835375848953600,6.62995361328125,-0.08560030813515186,0.014378434768691658,-0.1344623195249587
1782835375858883300,6.63988330078125,-0.19003566512167452,0.08565510706230997,-0.08125785848405212
1782835375868813600,6.6498134765625,-0.17959844225943086,-0.02671374633722007,0.00767535693347454
1782835375878743300,6.659743408203125,-0.14035714971721172,-0.1779251022197306,-0.05190967199001461
1782835375888669400,6.66966943359375,-0.12218319512307643,-0.16790588557384908,-0.09151042722808196
1782835375898599700,6.679599609375,-0.1462391934931278,-0.1379896168682724,0.0006776435332372785
1782835375908529400,6.689529296875,-0.14814239676594734,-0.13459427534155546,0.03326486674742773
1782835375918459400,6.69945947265625,-0.16804010641276834,-0.09030468643382192,-0.11851276298202573
1782835375928389600,6.7093896484375,-0.13480419176518915,-0.01876030311472714,-0.18187413210645317
1782835375938320600,6.719320556640625,-0.14995850627720356,-0.026053821123763917,-0.07834469271739944
1782835375948250600,6.729250732421875,-0.14511340433359146,-0.11367175269164144,0.019339893100969494
1782835375958180400,6.739180419921875,-0.08478314653337002,-0.1846995647907257,0.03910382030028849
1782835375968110600,6.749110595703125,-0.1404179399937391,-0.16361023420654236,0.042115532804280514
1782835375978040600,6.75904052734375,-0.13233809391260146,-0.11443754943236709,-0.02435828751856461
1782835375987970600,6.768970458984375,-0.022336919492483138,-0.044620647493004796,-0.041122375314775854
1782835375997900500,6.778900634765625,-0.07643383586108685,-0.0015023673869669436,-0.0029294958469457924
1782835376007830500,6.78883056640625,-0.06844692876040935,-0.06303359847478568,0.043120855655614285
1782835376017760500,6.798760498046875,-0.040730654317140576,-0.078597882027179,0.0148593866860494
1782835376027690500,6.8086904296875,-0.15547054769694804,-0.00031995266936719413,0.012585249475296587
1782835376037621500,6.81862158203125,-0.1725742427110672,0.013343684893473982,0.0075946381137706334
1782835376047551700,6.8285517578125,-0.135024556517601,0.05392506693303585,-0.03132091133911163
1782835376057481500,6.8384814453125,-0.14301438622772694,0.1092665765352547,0.0066280946365557605
1782835376067411500,6.848411376953125,-0.14567922152280807,0.09752915779463946,0.00906168759218417
1782835376077341400,6.858341552734375,-0.14827332966923712,0.04436674579717219,-0.0069964804243762046
1782835376087271400,6.868271484375,-0.13730945258438587,0.00743117291405797,-0.01931638436121866
1782835376097201700,6.87820166015625,-0.11499708301126957,0.027485315231606362,-0.0240056472891476
1782835376107131400,6.88813134765625,-0.08187865726351737,0.05881196219176053,0.011242319566896185
1782835376117061600,6.8980615234375,-0.06750701756179332,0.10513312999233602,-0.024679144370229913
1782835376126991600,6.90799169921875,-0.034433015477657314,0.14581826466731726,-0.06688444695034995
1782835376136922600,6.917922607421875,-0.021256138518452643,0.11126637205034494,-0.07435735838059336
1782835376146852600,6.9278525390625,-0.028304303464293478,0.02637713479399681,-0.07040570727852173
1782835376156782600,6.937782470703125,-0.04442483265995979,-0.05990078034177422,-0.05856944040646776
1782835376166712600,6.947712646484375,-0.0077747256547212595,-0.09797595171406864,-0.030396855296753345
1782835376176642300,6.957642333984375,0.04625204808712005,-0.07391922269165516,-0.09754119529230519
1782835376186572500,6.967572509765625,0.004153028026223182,-0.012332535089552402,-0.13354574353615753
1782835376196502500,6.97750244140625,0.025395722541213035,0.0014903116229921579,-0.07433995972122065
1782835376206432500,6.9874326171875,0.017546178084611893,-0.0012658552173525094,-0.037544745156867426
1782835376216362500,6.997362548828125,-0.06674421649575234,-0.0023984394438564777,-0.060522538102464746
1782835376226292700,7.007292724609375,-0.11260229682922362,0.003532119648903608,-0.11734791132058016
1782835376236223500,7.017223388671875,-0.18927052596807478,0.03221870042905211,-0.06794311655727214
1782835376246153500,7.027153564453125,-0.18665069885849953,0.041243864536285396,-0.02729635026445612
1782835376256083500,7.03708349609375,-0.06107143155634403,0.03155249160528183,-0.004978226803988218
1782835376266013700,7.047013671875,-0.10863105511069297,0.01591083196774125,-0.00670950757600367
1782835376275943400,7.056943359375,-0.15794073720276355,-0.03581920913904905,-0.020479820383712648
1782835376285873400,7.066873291015625,-0.12950082466006277,-0.08070332987383008,-0.04275012264708057
1782835376295803600,7.0768037109375,-0.1640519135594368,-0.07142857491970062,0.03795614810250699
1782835376305733400,7.0867333984375,-0.14015958131849765,-0.07435892928317189,0.0894830313200131
1782835376315663600,7.09666357421875,-0.1783551642000675,-0.07261515435576439,0.06580949292890727
1782835376325593300,7.10659326171875,-0.16625030038654803,-0.040889644271135325,-0.00648152577271685
1782835376335523600,7.116523681640625,-0.08199556164145469,0.038870705664157866,-0.009741641813516616
1782835376345454300,7.126454345703125,-0.04902794254124164,0.08406374621763825,0.03255533023858443
1782835376355384600,7.136384521484375,-0.06441255867779254,0.05721680195480585,0.05719946722751483
1782835376365314600,7.146314453125,-0.04701426463127136,0.0027981062859296795,0.07033283383855596
1782835376375244500,7.15624462890625,-0.07739537436962127,-0.007991875536739825,0.03163923830697313
1782835376385174500,7.166174560546875,-0.06834229934215545,-0.0008693301804363727,0.016955043791048226
1782835376395104800,7.176104736328125,-0.03576806347370148,0.005260112485289573,-0.015780647983122616
1782835376405034500,7.186034423828125,0.00246434428691864,0.021386194638907906,0.0066010239665396505
1782835376414964500,7.195964599609375,0.02556932554244995,0.02936535682454705,0.008914561605919151
1782835376424894500,7.20589453125,-0.052283729466795915,0.010842150401324033,0.05656025600852444
1782835376434824400,7.215824462890625,-0.14047931479215622,-0.028538404481112955,-0.02461401584530249
1782835376444755500,7.22575537109375,-0.0874848067075014,-0.007475304316729307,-0.11097524361666292
1782835376454685400,7.235685546875,-0.09115677321851252,0.08934709344804287,-0.05287228821078315
1782835376464615700,7.24561572265625,-0.14612228911519048,0.09069923870936035,0.03610571619654074
1782835376474545400,7.25554541015625,-0.13655600386857986,-0.020297084227949378,0.007981902131997048
1782835376484475600,7.2654755859375,-0.13860826022326944,-0.053168257216364145,-0.12120329897394404
1782835376494405600,7.275405517578125,-0.15536650280058384,-0.00965498644337058,-0.11440925491964443
1782835376504335600,7.285335693359375,-0.17748071945309637,-0.020180325980484484,0.007344133951421827
1782835376514265600,7.295265625,-0.14153554584681988,-0.061361354413628576,-0.04582173037845641
1782835376524195300,7.3051953125,-0.11252280185222625,-0.04360898623242974,-0.10956634493311866
1782835376534125600,7.31512548828125,-0.08793196595311165,-0.05181815778166055,-0.06431295249452815
1782835376544055600,7.3250556640625,0.004961421799659729,-0.10195771482661366,-0.033917211442627014
1782835376553986600,7.334986572265625,0.007860650372505187,-0.07352291685044765,-0.07401093782940879
1782835376563916500,7.34491650390625,-0.05376666150093078,-0.03765738435164094,-0.033769583132863046
1782835376573846500,7.354846435546875,-0.06543371841907501,-0.0586861438550055,0.021838705913070588
1782835376583776500,7.364776611328125,-0.1003904655098915,-0.03930252121016383,-0.011614175953436643
1782835376593706500,7.37470654296875,-0.10707739592790604,0.03885492357313633,-0.06237389245703816
1782835376603636500,7.384636474609375,-0.06960194401443004,0.058823944890499115,0.002636668646521866
1782835376613566700,7.394566650390625,-0.04177402589023113,0.007518412806093692,-0.012068568657431751
1782835376623496400,7.404496337890625,-0.06982406233251094,-0.025273119074851275,-0.01367857940364629
1782835376633426400,7.414426513671875,-0.07480243526697158,-0.023982056351006028,0.019387842162232844
1782835376643356700,7.424356689453125,-0.0880295811086893,-0.022039105589687823,-0.013686981905810533
1782835376653287400,7.434287353515625,-0.14367664952874182,0.017448855189979077,0.00948858036790043
1782835376663217700,7.4442177734375,-0.11263210744559764,0.024818945566564797,0.024036161158420145
1782835376673147400,7.4541474609375,-0.09509586623311042,0.04838555298447609,-0.01385782669438049
1782835376683077600,7.46407763671875,-0.09809212543964385,0.09982289475500583,-0.03664824384171515
1782835376693007400,7.47400732421875,-0.08376198679208754,0.04608472869619727,-0.016108984888345
1782835376702937600,7.4839375,-0.07347030988037585,-0.049746027682721614,-0.011424772594869136
1782835376712867600,7.49386767578125,-0.04892272860109806,-0.07790814619734883,0.007084533167164772
1782835376722797600,7.503797607421875,-0.030890228304266926,-0.10552870518118143,-0.01790085500748828
1782835376732727600,7.5137275390625,-0.009285130217671394,-0.11349310818910598,-0.005560757665988058
1782835376742657500,7.523657470703125,-0.033270985960960384,-0.0856073223978281,-0.015880071503296494
1782835376752587500,7.53358740234375,0.0005845218896865845,-0.06552285800725222,-0.0694797972057946
1782835376762518500,7.5435185546875,-0.02760229267477989,-0.0407787312425673,-0.07342385865645483
1782835376772448500,7.553448486328125,-0.13562836762964725,-0.05922302721068263,-0.100291169853881
1782835376782378500,7.56337841796875,-0.1742337003558874,-0.06944938380122184,-0.0659034913552925
1782835376792308500,7.57330859375,-0.1798018558770418,-0.05160305372625589,-0.09746926256725565
1782835376802238500,7.583238525390625,-0.1509019246071577,-0.03499064936041832,-0.141309281076584
1782835376812168700,7.593168701171875,-0.11852291904985904,-0.04782178162187337,-0.061242221545986825
1782835376822098400,7.603098388671875,-0.03758884916007518,-0.051621320035308595,-0.04793474047705531
1782835376832028700,7.613028564453125,-0.07663841852247714,0.0013800561815500258,-0.07867903923830016
1782835376841958400,7.62295849609375,-0.1883154172003269,0.026023060659319162,-0.03619481925209984
1782835376851888400,7.632888427734375,-0.1037286700218916,0.012768296158313751,-0.06731266403347254
1782835376861818600,7.642818603515625,-0.1360965696632862,0.04882496731504798,-0.0634519882836379
1782835376871749600,7.65274951171875,-0.16293723031580448,0.048786681131273504,-0.01562775897635147
1782835376881679600,7.6626796875,-0.10779869593977928,-0.03169248459786177,-0.023348854747693985
1782835376891614200,7.6726142578125,-0.07230418871045112,-0.056228667700290676,-0.014129775503557174
1782835376901544200,7.682544189453125,-0.01863163523375988,-0.024582652592658995,-0.01385241986690089
1782835376911474200,7.69247412109375,-0.008415946167707442,0.03300897402390837,-0.024344149395357815
1782835376921404200,7.702404052734375,-0.08895137212872505,0.05595291949883103,0.0034632556637749076
1782835376931334100,7.712334228515625,-0.08039046453237533,0.04007219040840864,-0.011497655167989432
1782835376941264100,7.72226416015625,-0.11981178981661796,0.031832623720914124,-0.02078368043480441
1782835376951194000,7.732194091796875,-0.08961831160485743,0.0035103462085127827,0.0019446860606782137
1782835376961124000,7.7421240234375,0.018891162952780722,-0.016510405296087265,0.024096987967565653
1782835376971054000,7.75205419921875,0.06519523348808288,-0.017669950594753025,0.03968198551442474
1782835376980985000,7.761985107421875,0.020416765084862707,-0.05614113554731011,0.009745404673181473
1782835376990915000,7.7719150390625,0.015665186643600462,-0.11371654168143867,-0.024032306967210024
1782835377000845300,7.78184521484375,-0.0378583137512207,-0.1281231065660715,-0.004869962390232831
1782835377010775000,7.791775146484375,-0.07841887219846248,-0.08248875198587775,0.012221841256693004
1782835377020705300,7.801705322265625,-0.08686988967955112,-0.0003613806582987308,-0.02316851147841662
1782835377030635000,7.811635009765625,-0.18655016109347342,0.03924260771647096,-0.022255141226854173
1782835377040565200,7.821565185546875,-0.23954642274379728,-0.01903364016339183,-0.0601055639325641
1782835377050495200,7.8314951171875,-0.1997013190895319,-0.09626403322964906,-0.08181945615587756
1782835377060425000,7.841425048828125,-0.2141051074951887,-0.072650371799618,-0.006150503720063716
1782835377070355200,7.851355224609375,-0.16119360151886938,-0.052943216288834805,0.002358436227031052
1782835377080285200,7.86128515625,-0.11575286981463431,-0.08519508833512664,-0.025264954034704714
1782835377090216200,7.87121630859375,-0.07872516166865826,-0.09552870469242333,-0.03378322806572542
1782835377100146200,7.881146240234375,0.021413374906778335,-0.05370324087589979,-0.012554854337032883
1782835377110076200,7.891076171875,0.0045066637694835664,0.01237228257805109,-0.007216708179470151
1782835377120006100,7.901006103515625,-0.06850421190559863,0.000012713351100683212,-0.012250409764051437
1782835377129936100,7.91093603515625,-0.05775426983237266,-0.06650996934846043,-0.04448140341909602
1782835377139866000,7.9208662109375,-0.11502747814953326,-0.06982903076857327,-0.047359753600694235
1782835377149796400,7.93079638671875,-0.1302092651903629,-0.0476451098807156,0.024096385179366915
1782835377159726000,7.94072607421875,-0.058061143824458115,-0.008947568826377391,0.03542062000920996
1782835377169656000,7.950656005859375,-0.12643033117353916,0.012080021633207797,0.034772695760801435
1782835377179586000,7.9605859375,-0.15213000509738922,-0.022846330319344996,-0.0061326210035011165
1782835377189516000,7.97051611328125,-0.07425415373444556,-0.030432693795114756,-0.07804324381910265
1782835377199447000,7.980447021484375,-0.04536182124912738,0.028347265823185443,-0.0692336952239275
1782835377209377000,7.990376953125,-0.10805354748368262,0.011330664570629596,0.0022085794275626537
1782835377219307300,8.000307373046875,-0.10078443326354027,-0.08744739730656147,0.009739029731322079
1782835377229237000,8.010237060546874,-0.0344248321712017,-0.09070259971022605,-0.08029173513194546
1782835377239167200,8.020167236328126,-0.13304594992101193,-0.019670769023150205,-0.04924848995674401
1782835377249097200,8.03009716796875,-0.09635784899294376,-0.022565905942767858,0.008587503342330455
1782835377259027200,8.040027099609375,-0.029191023170948027,-0.0348866044640541,-0.07504515798166393
1782835377268957200,8.049957275390625,-0.062243982467055314,-0.00966740753352642,-0.12038270330606028
1782835377278887200,8.05988720703125,-0.031516835770010944,-0.038576691153645516,-0.12249386850744486
1782835377288817200,8.069817138671874,0.029613047975301742,-0.09741378778666257,-0.12209401900228112
1782835377298747100,8.0797470703125,0.0312619842261076,-0.11153773633763193,-0.0723347482454963
1782835377308678100,8.08967822265625,-0.012895721930265426,-0.13088336505964399,0.05276422472642734
1782835377318608100,8.099608154296876,-0.06199439162015914,-0.1440524971038103,0.05963221079977229
1782835377328538000,8.1095380859375,-0.08573241008222103,-0.0805380563095212,-0.09679234968638047
1782835377338468000,8.119468017578125,-0.12849135535657405,0.021266075390577316,-0.12003169791130348
1782835377348398300,8.1293984375,-0.11142039356827735,0.011257891595363617,-0.052291273452434686
1782835377358328000,8.139328125,-0.10950199272632598,-0.04907470429241657,0.0024252178529277444
1782835377368258300,8.14925830078125,-0.11374445260167121,-0.10070727637410164,0.02708201339403167
1782835377378188000,8.15918798828125,-0.08908172051012515,-0.11106135099753736,0.028412622676976022
1782835377388118300,8.1691181640625,-0.061139236095547674,-0.07524199572801589,-0.017567933258693665
1782835377398048300,8.17904833984375,-0.07647650595903396,-0.018529051642119883,0.00045300446450710294
1782835377407978000,8.18897802734375,-0.08218377768993378,0.014343728781491517,0.04361289522256702
1782835377417908200,8.198908203125,-0.13230185355544088,0.008435089259594679,0.05853277992419898
1782835377427839000,8.2088388671875,-0.15568448270857332,-0.01678074667006731,0.014255027584731577
1782835377437769200,8.218769287109374,-0.19073416877985,-0.024983196217566728,0.004483465556986629
1782835377447699000,8.228698974609374,-0.20837153227925298,-0.00030833529680967327,0.04475000949371606
1782835377457629200,8.238629150390626,-0.13240063775479793,-0.0034010406151413915,0.010123206743318586
1782835377467559200,8.24855908203125,-0.09590075287520886,0.01903364016339183,-0.028059023466333745
1782835377477489200,8.2584892578125,-0.09072948771715164,0.0427000546939671,0.02213279348881915
1782835377487419100,8.268419189453125,-0.09323416401445865,0.019550942035764456,0.06056086995201185
1782835377497349400,8.278349365234375,-0.10293722738325595,-0.013712006749212741,0.014007537363376468
1782835377507279000,8.288279052734374,-0.13501812677681446,0.01115706156939268,-0.010086856788303702
1782835377517209000,8.298208984375,-0.15037760847210882,0.020006430718302725,-0.004953457688912749
1782835377527139000,8.30813916015625,-0.09607318683266639,0.00664820584282279,-0.004161759321950376
1782835377537069000,8.318069091796875,-0.11862813299000262,-0.010875468149036168,0.013850903763249515
1782835377547000000,8.328,-0.05859305874407291,-0.03975362597852945,-0.004382014476507902
1782835377556930000,8.337929931640625,0.015009353083372114,-0.030719401782006023,-0.06973872213661671
1782835377566860300,8.3478603515625,0.002407645663619041,-0.014348697217553854,-0.08419049613615498
1782835377576790000,8.3577900390625,0.09171206901371479,-0.05934387711137533,-0.08924595289481803
1782835377586720300,8.36772021484375,0.07108546057045459,-0.09705343004167079,-0.05742474561706185
1782835377596650200,8.377650146484376,-0.016190087300539016,-0.08855462789610027,-0.022133816402126104
1782835377606580200,8.387580322265626,-0.004151858982443809,-0.05694383023232221,-0.12019277022453025
1782835377616510200,8.39751025390625,-0.05898936458528042,0.0011200900711119174,-0.13199585634618996
1782835377626440000,8.40743994140625,-0.1521346812725067,0.008873626807332039,-0.051273766972962764
1782835377636370200,8.4173701171875,-0.15668635322749613,-0.03504004146009684,-0.10281047746473923
1782835377646300200,8.427300048828124,-0.12686696902513503,-0.05453443100303411,-0.18401898038173092
1782835377656231200,8.437231201171874,-0.164939217787981,-0.0632720103405416,-0.08643385461615398
1782835377666161200,8.4471611328125,-0.10171440759003161,-0.1014016883790493,0.018080010966677218
1782835377676091100,8.457091064453126,-0.025332594177126883,-0.10379106773361563,-0.018670213678479194
1782835377686021000,8.467021240234375,-0.07999182060360908,-0.0017471359282732008,-0.038335064417496324
1782835377695951000,8.476951171875,-0.07664835539460181,0.037246319332718845,0.012627079323027281
1782835377705881000,8.486881103515625,0.023495441877841947,0.02509615507274866,0.0016184680473059416
1782835377715811300,8.496811279296875,-0.003669628423452377,0.04346417093425989,0.03130920263500884
1782835377725741000,8.506740966796874,-0.06684358521699905,0.008896715421974658,0.04300108346715569
1782835377735671000,8.516671142578126,-0.043829789376258844,-0.06930047684982418,0.03340440308228135
1782835377745601300,8.526601318359376,-0.05600654938220977,-0.06860621097534894,0.029571985312551258
1782835377755531000,8.536531005859375,-0.1209907704681158,0.01892360391765833,0.07092820591581984
1782835377765461200,8.546461181640625,-0.0916372502118349,0.06258622003346681,0.09200062189782038
1782835377775392000,8.55639208984375,-0.0754027392476797,0.09011486295014619,0.026180370112881064
1782835377785322200,8.566322265625,-0.13846446783840655,0.08639642694890498,-0.0031331469265744086
1782835377795252000,8.576251953125,-0.20909984655380248,0.03501052310466766,0.048699331641383466
1782835377805182200,8.58618212890625,-0.1620166083395481,-0.04296250502243638,0.07045713607165963
1782835377815112200,8.5961123046875,-0.17344401128292083,-0.0777506175480783,0.06424249934051185
1782835377825042200,8.606042236328125,-0.20367548341751096,-0.04316796446666121,0.07331451653046533
1782835377834972200,8.61597216796875,-0.14949673398435115,-0.009827566531300545,0.05893215450532734
1782835377844902100,8.625902099609375,-0.1221931319952011,0.01684621312171221,-0.006833079156745225
1782835377854832000,8.63583203125,-0.1313297936528921,0.02956789365932345,-0.025093707387335597
1782835377864762000,8.64576220703125,-0.1477303088337183,-0.016720833176374433,-0.023990860711969434
1782835377874692000,8.655692138671874,-0.06326455768644809,-0.0942559082776308,-0.07432409543180837
1782835377884617700,8.66561767578125,-0.06948270154893398,-0.10808686523139475,-0.027599753657821566
1782835377894549000,8.675549072265625,-0.050097033077478405,-0.09513122980743646,0.025354678144771603
1782835377904478700,8.685478759765624,0.04933657009899616,-0.08272489882931112,-0.07266001641079783
1782835377914409000,8.695408935546874,-0.016825462594628332,-0.020799480792135,-0.10273143914546817
1782835377924339000,8.7053388671875,-0.06313070217370986,-0.030442338406294584,-0.022369305658433584
1782835377934268700,8.7152685546875,-0.037924364724755286,-0.08778598161116243,-0.023560488204378633
1782835377944199000,8.725198974609375,-0.14936930821239947,-0.09271174757555127,-0.06312452816125005
1782835377954128600,8.735128662109375,-0.08905424798130988,-0.06389657197967172,-0.053546570743154734
1782835377964059000,8.745058837890625,-0.019662731847167013,0.001613718806952238,-0.08741088295476511
1782835377973988900,8.75498876953125,-0.11824527115225791,0.016788637715578078,-0.07064646636499092
1782835377983918800,8.7649189453125,-0.05724339770078659,-0.05246142412126064,-0.04208234292073175
1782835377993848800,8.774848876953126,-0.02470481766760349,-0.031737785044312475,-0.04314971642391756
1782835378003778800,8.78477880859375,-0.10668284365236759,0.03506459137946367,-0.013924425657186656
1782835378013709800,8.794709716796875,-0.15448387474715708,-0.002831716294586658,0.0031378779006190597
1782835378023639800,8.804639892578125,-0.15052549251019953,-0.02900748329758644,0.01338242773497477
1782835378033569800,8.81456982421875,-0.15761340494453907,0.0007087327912449836,-0.05055456758663058
1782835378043499800,8.824499755859375,-0.15524726033508776,0.007451631180197,-0.029412575233448295
1782835378053429800,8.8344296875,-0.11880933477580546,-0.04204407500326633,-0.016320453948248177
1782835378063359700,8.84435986328125,-0.09144494251012801,-0.05842617774456739,-0.0441467829035595
1782835378073290000,8.8542900390625,-0.11213877097070217,-0.05784998529180884,-0.013115008970443159
1782835378083219700,8.8642197265625,-0.046965749314427374,-0.060560705555230375,0.0023568470581434666
1782835378093150000,8.87414990234375,0.019903554865717887,-0.005509411071240902,-0.060400089899729933
1782835378103079700,8.88407958984375,0.001665302863717079,0.08279094980284571,-0.07797151202345266
1782835378113010000,8.894010009765625,-0.009309095615148543,0.07445800574347376,-0.017842348019592464
1782835378122940000,8.90393994140625,-0.002706336349248886,-0.0016502514250576496,-0.002269150508381426
1782835378132871000,8.913870849609374,-0.09064239395558833,-0.037434243120253084,-0.0022566563529893753
1782835378142801000,8.92380078125,-0.05719312881827354,-0.07075257535427808,0.010917224931530654
1782835378152730600,8.933730712890625,-0.002100187149643898,-0.07690525276511907,-0.001855838733445853
1782835378162660900,8.943660888671875,-0.025835283002257344,-0.06009703356623649,-0.0007219210663810372
1782835378172590800,8.9535908203125,0.0007914426386356353,-0.07618292983993888,-0.005989376607909798
1782835378182520800,8.963520751953125,0.018801731103658674,-0.06653890318199991,-0.05354386732941493
1782835378192450800,8.973450927734374,-0.07142448326647281,-0.026130612687021493,-0.05456557505996897
1782835378202380800,8.983380859375,-0.08885609506070613,-0.025240093588083982,-0.029453601363580672
1782835378212310800,8.993310791015626,-0.1032487775504589,-0.06301335940435529,-0.024186639012396333
1782835378222241000,9.003240966796875,-0.18165712835490702,-0.10757044014185667,-0.014805062682926654
1782835378232170800,9.013170654296875,-0.24428806431293487,-0.1525026378020644,-0.011504888626374304
1782835378242100700,9.023100830078125,-0.2789934669911861,-0.1679410299524665,-0.02767128452407196
1782835378252031000,9.033031005859375,-0.295747033393383,-0.15197043062150478,-0.10681302763698622
1782835378261962000,9.0429619140625,-0.16614391740262507,-0.0613973025098443,-0.04887755601881072
1782835378271891700,9.0528916015625,-0.07690554502606392,0.024095891989022494,0.03136449475251138
1782835378281821700,9.06282177734375,-0.05149053326249122,-0.0329011297352612,0.055263749924581496
1782835378291752000,9.072751953125,0.00010229133069515228,-0.12420140307769179,0.01975406339243054
1782835378301681700,9.082681640625,0.14746259780824184,-0.12236381238698958,-0.08377245338717475
1782835378311612000,9.09261181640625,0.08946867400109768,-0.08635390298143028,-0.01454182690316811
1782835378321542000,9.1025419921875,0.04458323809206485,-0.09734554485604166,-0.0007342325586825609
1782835378331472000,9.112471923828124,-0.03645078504085541,-0.08992796207591891,-0.021203221021126956
1782835378341401900,9.12240185546875,-0.07926409085094928,-0.015385492919385433,-0.07283710827706381
1782835378351331600,9.13233154296875,-0.08244505897462368,0.0907737652502954,-0.045019273155461996
1782835378361261800,9.14226171875,-0.11865385195314883,0.1337101129181683,0.02690278436960652
1782835378371191800,9.15219189453125,-0.10192015929520129,0.07256707743033766,0.04283144425498321
1782835378381122800,9.162122802734375,-0.1598947938799858,-0.035019437063485384,0.0372497351325117
1782835378391052800,9.172052734375,-0.21856617855727672,-0.12813552765622735,0.0077025554676540195
1782835378400982800,9.181982666015625,-0.20485271050333975,-0.12542217704430222,-0.040007198880799115
1782835378410912800,9.191912841796874,-0.16267770259678363,-0.04582746599949896,0.04893746951250359
1782835378420843000,9.201843017578126,-0.14480769938528537,0.03208740219958126,0.12604138665487988
1782835378430772700,9.211772705078126,-0.1469330209761858,0.12607435734272002,0.11240894794790074
1782835378440703000,9.221702880859375,-0.14181670087575912,0.14910568884015082,-0.04042683079866692
1782835378450632700,9.2316328125,-0.09692600426971912,0.11038476691022514,-0.14584137154826893
1782835378460562700,9.241562744140625,-0.11030629484653472,0.014209288746863603,-0.10230306679871864
1782835378470493000,9.251492919921875,-0.10373159263134002,-0.10493760742023586,-0.009081625268515199
1782835378480422700,9.261422607421874,-0.04274082509577274,-0.19865677847266197,0.031382852393109346
1782835378490353000,9.271352783203126,0.0256236860781908,-0.13761515753269193,0.015825318241911007
1782835378500283000,9.281282958984375,0.031360183903574944,-0.028089345539361238,0.00264790242658928
1782835378510214000,9.2912138671875,0.07834697600603104,-0.009957184260338545,-0.04235449265930801
1782835378520144000,9.301143798828125,0.07933247991204262,-0.024331600441038607,-0.04648677015844732
1782835378530073900,9.311073974609375,0.01967149967551231,-0.042352118039131165,-0.05953793837875127
1782835378540001000,9.3210009765625,-0.04171557370126247,-0.06859422827661037,-0.10001282783653587
1782835378549930800,9.3309306640625,-0.10534078139364719,-0.0835449830405414,-0.08652577068330719
1782835378559860700,9.34086083984375,-0.07977437846064567,-0.07340498955920338,-0.07450571734271944
1782835378569790700,9.350790771484375,-0.039651626908779145,-0.01724237283244729,-0.0005226356346160173
1782835378579722000,9.360721923828125,-0.018803484669327734,-0.0007933423347771168,0.04265301894815638
1782835378589651700,9.370651611328125,-0.08263210597932338,-0.03104045042991638,0.0024528913111425935
1782835378599581700,9.380581787109374,-0.09905191038250923,-0.09230389742702245,-0.08025017927885054
1782835378609512000,9.390511962890624,-0.12195640062987803,-0.12152312377914785,-0.06860272211031988
1782835378619441700,9.400441650390626,-0.16958265967965125,-0.14901698764339089,0.017614914205577224
1782835378629372000,9.410371826171875,-0.06116553958058357,-0.16667042549476027,-0.025751312779542058
1782835378639302000,9.420302001953125,-0.032661914151906966,-0.08449760759025812,-0.014418383186589926
1782835378649232000,9.43023193359375,-0.007732640078663825,-0.01534267669096589,0.017388759033195672
1782835378659161900,9.440161865234375,-0.017543839997053147,0.003649754679203033,-0.0067650006229057905
1782835378669091600,9.450091552734374,-0.08036649913489818,-0.008038637287914752,-0.06802399064060301
1782835378679021800,9.460021728515626,-0.09678630353808403,-0.021713526897132397,-0.10280424865335225
1782835378688951800,9.469951904296876,-0.09531681550741194,-0.04906272159367799,-0.06274011368723585
1782835378698882800,9.4798828125,-0.10164894113838673,-0.06307473420277238,-0.007947835465613753
1782835378708812800,9.489812744140625,-0.08979308364987373,-0.06555223023220896,0.039543490359187125
1782835378718742800,9.49974267578125,-0.05218786787688732,-0.04671835042461753,-0.022999785581696776
1782835378728672800,9.5096728515625,-0.04980594117641449,-0.040663288169354196,-0.06925930458921939
1782835378738602800,9.519602783203124,-0.055801382198929786,-0.040030104832351206,-0.0721950109812431
1782835378748532700,9.52953271484375,-0.015976736810803412,-0.08452274203151464,-0.04440406386656687
1782835378758463000,9.539462890625,-0.04795066869854927,-0.12731602796688676,-0.02865315343458205
1782835378768392700,9.549392822265625,-0.05608019914031028,-0.1334279349759221,-0.07663858291925862
1782835378778323000,9.559322998046875,-0.09474106144607067,-0.08586012811511755,-0.0942117220760323
1782835378788253000,9.5692529296875,-0.10300678548812865,-0.042028000651299954,-0.084339183891844
1782835378798182700,9.5791826171875,-0.13830372431874274,-0.040502325453981754,-0.0871455830820836
1782835378808113000,9.58911279296875,-0.16236790599524975,-0.050191871754080054,-0.09874167538955807
1782835378818043000,9.59904296875,-0.12758183929622172,-0.023654943288490174,-0.008010287976264954
1782835378827972900,9.608972900390626,-0.19956921714246273,-0.03139452456459403,0.029255430176667867
1782835378837903600,9.618903564453126,-0.17546411893367767,-0.033358956505358216,-0.028463494347687808
1782835378847833900,9.628833740234375,-0.18718553638756275,-0.0070858666077256195,-0.053391160985734314
1782835378857763800,9.638763916015625,-0.1967424692839384,-0.011278349861502647,-0.08839081563651562
1782835378867693800,9.64869384765625,-0.11916238599717616,-0.04044803798347711,-0.01556295011183247
1782835378877623800,9.658623779296875,-0.05972469312250614,-0.04527545813992619,0.06346636386886238
1782835378887554600,9.668554443359374,-0.057225277522206304,-0.05729892728030681,0.08766635555317624
1782835378897484500,9.678484619140624,-0.04893091190755367,-0.05591989401206374,0.03326439182339236
1782835378907414500,9.68841455078125,-0.03199965085089206,0.0030934359706938264,-0.043351084214914584
1782835378917344500,9.698344482421875,-0.06842705501616,0.03784033970311284,-0.03189198922533542
1782835378927274500,9.7082744140625,-0.09167349056899547,0.0019815292060375213,0.011693762261979282
1782835378937204500,9.71820458984375,-0.16685937219560146,-0.0424300055809319,0.003946947527490556
1782835378947134500,9.728134521484375,-0.15051029494106768,-0.039811347515136,-0.06507708700112998
1782835378957064700,9.738064697265624,-0.101314594617486,0.02999547142162919,-0.0627507994780317
1782835378966995500,9.747995361328124,-0.12460370026826857,0.029812954461574552,-0.03724425523979589
1782835378976925700,9.75792578125,-0.09326981984972953,-0.035753888817876577,-0.025077532570669425
1782835378986855400,9.76785546875,-0.07313128718435764,-0.08172711996361613,-0.0062856652738992125
1782835378996785700,9.77778564453125,-0.08473872286975383,-0.08481792558580636,-0.005346475594490766
1782835379006715600,9.787715576171875,0.0030804303586483,-0.044790889493376014,-0.04585821733078919
1782835379016645400,9.797645263671875,0.049397944897413254,0.006425064611434936,-0.04924696471993811
1782835379026575600,9.80757568359375,0.06179974583089351,0.002369505610316992,-0.024776120204990728
1782835379036505300,9.81750537109375,0.15952128439247606,-0.05167641122341156,-0.05141202466618269
1782835379046435600,9.827435546875,0.1743342381209135,-0.026817425907403228,-0.07356164142563938
1782835379056365600,9.837365478515625,0.059947395962476724,-0.011316051523387431,-0.0857000969815068
1782835379066295600,9.847295654296875,0.006624971097707748,-0.08497939975783228,-0.2143437568229623
1782835379076225500,9.8572255859375,-0.118384971883893,-0.14781886390000581,-0.2198490031757392
1782835379086155500,9.867155517578125,-0.21780980723202228,-0.18720760208889842,-0.12045120196500793
1782835379096086500,9.87708642578125,-0.07341361125707625,-0.12492621022090315,-0.054763837578427045
1782835379106016500,9.8870166015625,0.023278584256768226,0.05634016525074839,-0.020809107137005775
1782835379115946500,9.896946533203124,-0.08062544233202934,0.13825864306800068,-0.06032523456523194
1782835379125876500,9.90687646484375,-0.20839199054539204,0.0977292104113847,0.002724529593065381
1782835379135806500,9.916806396484375,-0.2559282332241535,-0.04648571071252226,-0.10274109288980253
1782835379145736400,9.926736328125,-0.06524141071736812,-0.12808219003379345,-0.3204458597116172
1782835379155666700,9.936666748046875,1.034263553005457,0.20000906986445188,-0.1757097094588913
1782835379165596400,9.946596435546875,0.17769699255228041,0.3827572813916951,0.3898994812965393
1782835379175526700,9.956526611328124,-0.28370471342206,-0.16555194285884497,0.4364347302392125
1782835379185460500,9.96646044921875,-0.4320926093816757,-0.41865985796526073,0.14516407507490367
1782835379195390500,9.976390380859375,-0.5221043042182922,0.101989717400074,-0.0020011289556510744
1782835379205320700,9.98632080078125,-0.619040245360136,0.48273149425089357,-0.040102220220491286
1782835379215250400,9.99625048828125,-0.629057196983695,0.2417756431005895,0.034766028557997194
1782835379225180700,10.0061806640625,-0.13494096988737583,-0.2044884803008288,0.07198670199280605
1782835379235110400,10.0161103515625,0.14944588057994843,0.027163170605152845,0.22966524459542706
1782835379245040400,10.026040283203125,-0.22778058162629602,0.32057628115825354,0.37368089855387804
1782835379254970600,10.035970703125,-0.16957389185130595,0.025549890189617872,0.2566220607072115
