time,seconds_elapsed,z,y,x
1782835369285135600,0.066135498046875,-0.12996403872966766,0.10806448012590408,-0.0755244567990303
1782835369295065300,0.0760654296875,-0.12881815433502197,0.05066990479826927,0.019525356590747833
1782835369304995300,0.085995361328125,-0.13288266956806183,0.014947864226996899,0.10321039706468582
1782835369314925300,0.09592529296875,-0.12910884618759155,-0.004488937556743622,0.14104750752449036
1782835369324855300,0.105855224609375,-0.10873699188232422,-0.006107606925070286,0.14058330655097961
1782835369334786300,0.115786376953125,-0.08247561752796173,-0.0029480578377842903,0.11579970270395279
1782835369344716300,0.12571630859375,-0.05579313635826111,-0.00013416167348623276,0.06533066928386688
1782835369354646500,0.135646484375,-0.02406853437423706,0.016299430280923843,-0.002281629014760256
1782835369364576300,0.145576171875,-0.005812295712530613,0.028628002852201462,-0.06521931290626526
1782835369374506500,0.155506591796875,-0.0019339583814144135,0.05021238327026367,-0.09874624758958817
1782835369384436500,0.1654365234375,-0.008196115493774414,0.11460123211145401,-0.08964010328054428
1782835369394366500,0.175366455078125,-0.0305238775908947,0.13535869121551514,-0.05713082104921341
1782835369404297500,0.18529736328125,-0.06236622855067253,0.12590554356575012,-0.016669146716594696
1782835369414227500,0.1952275390625,-0.08896747976541519,0.11344089359045029,0.017493348568677902
1782835369424157400,0.205157470703125,-0.10567295551300049,0.11432718485593796,0.029318850487470627
1782835369434087400,0.21508740234375,-0.11315352469682693,0.15020768344402313,0.0259401872754097
1782835369444017400,0.225017333984375,-0.10298770666122437,0.201584592461586,0.034103307873010635
1782835369453947400,0.234947509765625,-0.0954192578792572,0.2795129418373108,0.0678151547908783
1782835369463878400,0.24487841796875,-0.07968530058860779,0.3644329011440277,0.14199218153953552
1782835369473808400,0.254808349609375,-0.0655677318572998,0.46068379282951355,0.24665169417858124
1782835369483738400,0.26473828125,-0.0732504203915596,0.5558981895446777,0.3516114056110382
1782835369493668400,0.27466845703125,-0.09567718207836151,0.6496153473854065,0.46006137132644653
1782835369503598300,0.284598388671875,-0.1143731102347374,0.7271314263343811,0.6012499332427979
1782835369513528300,0.2945283203125,-0.11985322833061218,0.8239080309867859,0.7597946524620056
1782835369523458600,0.30445849609375,-0.17092519998550415,0.9011580944061279,0.8856830596923828
1782835369533389300,0.314389404296875,-0.29990115761756897,0.8754194974899292,0.8688760995864868
1782835369543319600,0.324319580078125,-0.4588758945465088,0.7227317094802856,0.6643387079238892
1782835369553249300,0.334249267578125,-0.5696879029273987,0.5545572638511658,0.3444918692111969
1782835369563179500,0.344179443359375,-0.5688825845718384,0.5526238083839417,0.04696164280176163
1782835369573109500,0.354109619140625,-0.5047567486763,0.7150156497955322,-0.16658928990364075
1782835369583039200,0.364039306640625,-0.44921204447746277,0.875751256942749,-0.24885059893131256
1782835369592970500,0.373970458984375,-0.43993017077445984,0.9644153714179993,-0.15982182323932648
1782835369602900500,0.383900390625,-0.4362291693687439,0.8893067836761475,0.020092561841011047
1782835369612830500,0.39383056640625,-0.40984907746315,0.5839799046516418,0.13542123138904572
1782835369622760200,0.40376025390625,-0.3187439441680908,0.08931558579206467,0.10197965055704117
1782835369632690400,0.4136904296875,-0.14363262057304382,-0.4512006640434265,-0.09282579272985458
1782835369642620400,0.423620361328125,0.09062355756759644,-0.9661319255828857,-0.3791007101535797
1782835369652550400,0.43355029296875,0.3060879111289978,-1.3853083848953247,-0.6534198522567749
1782835369662481400,0.4434814453125,0.43863797187805176,-1.591536283493042,-0.8297298550605774
1782835369672411400,0.453411376953125,0.5074888467788696,-1.6344984769821167,-0.896576464176178
1782835369682341400,0.46334130859375,0.5533258318901062,-1.5383552312850952,-0.8653479814529419
1782835369692271400,0.473271240234375,0.5931546092033386,-1.3197871446609497,-0.7615839242935181
1782835369702201300,0.483201416015625,0.61039137840271,-1.0249544382095337,-0.6168973445892334
1782835369712131600,0.493131591796875,0.5869177579879761,-0.6891649961471558,-0.47444847226142883
1782835369722061300,0.503061279296875,0.5266456007957458,-0.37476950883865356,-0.354844331741333
1782835369731992600,0.51299267578125,0.4493694305419922,-0.13941186666488647,-0.272257924079895
1782835369741922300,0.52292236328125,0.3854820728302002,0.07628420740365982,-0.20682592689990997
1782835369751852500,0.5328525390625,0.33644208312034607,0.22795282304286957,-0.17144156992435455
1782835369761782500,0.542782470703125,0.2945460379123688,0.27284175157546997,-0.17905741930007935
1782835369771712300,0.552712158203125,0.2573692798614502,0.25903216004371643,-0.2018519937992096
1782835369781642500,0.562642578125,0.20478568971157074,0.22624707221984863,-0.2177438735961914
1782835369791572200,0.572572265625,0.14292508363723755,0.20097950100898743,-0.2430628389120102
1782835369801503500,0.58250341796875,0.08774732053279877,0.15557579696178436,-0.27248328924179077
1782835369811433200,0.59243310546875,0.0481225810945034,0.13652676343917847,-0.28066298365592957
1782835369821363500,0.602363525390625,0.03349862992763519,0.1641397476196289,-0.2510739266872406
1782835369831293400,0.61229345703125,0.031089145690202713,0.13023371994495392,-0.2017151266336441
1782835369841223400,0.622223388671875,0.036389369517564774,0.05627826228737831,-0.14142514765262604
1782835369851153400,0.6321533203125,0.03549639880657196,0.00703002605587244,-0.06758087128400803
1782835369861083400,0.64208349609375,0.034214086830616,-0.019158700481057167,-0.008601976558566093
1782835369871014400,0.652014404296875,0.04095245152711868,-0.031412698328495026,0.031127046793699265
1782835369880944400,0.6619443359375,0.07508538663387299,-0.03361246734857559,0.06268923729658127
1782835369890874400,0.671874267578125,0.10749275237321854,-0.03338398039340973,0.0842248722910881
1782835369900804600,0.6818046875,0.12083465605974197,-0.06699866056442261,0.09985682368278503
1782835369910734300,0.691734375,0.11968907713890076,-0.11515393853187561,0.10855255275964737
1782835369920664600,0.70166455078125,0.10565528273582458,-0.14106275141239166,0.08282428234815598
1782835369930594600,0.711594482421875,0.10366794466972351,-0.13315503299236298,0.01983802579343319
1782835369940525600,0.721525634765625,0.12014038860797882,-0.08055627346038818,-0.041262611746788025
1782835369950455600,0.73145556640625,0.13246627151966095,-0.036182425916194916,-0.06787548959255219
1782835369960385500,0.741385498046875,0.12408371269702911,-0.0334811806678772,-0.03889736905694008
1782835369970315500,0.7513154296875,0.09519338607788086,-0.06857950985431671,0.02432667836546898
1782835369980245200,0.761245361328125,0.0661873072385788,-0.13583017885684967,0.08945029228925705
1782835369990175500,0.771175537109375,0.037033047527074814,-0.20825432240962982,0.1339033991098404
1782835370000106200,0.781106201171875,0.024784903973340988,-0.24249379336833954,0.13557080924510956
1782835370010036500,0.791036376953125,0.028778787702322006,-0.18681639432907104,0.09845555573701859
1782835370019966500,0.800966552734375,0.03673471510410309,-0.09679649770259857,0.02688736841082573
1782835370029896400,0.810896484375,0.04013246297836304,-0.057167861610651016,-0.055569231510162354
1782835370039826400,0.820826416015625,0.04802341014146805,-0.06460234522819519,-0.11344850808382034
1782835370049756400,0.83075634765625,0.04962459206581116,-0.0881071388721466,-0.13165394961833954
1782835370059686400,0.840686279296875,0.030339308083057404,-0.1384081244468689,-0.11399240046739578
1782835370069617400,0.850617431640625,0.0078010400757193565,-0.17090561985969543,-0.06291478127241135
1782835370079547400,0.86054736328125,-0.020205028355121613,-0.1713160127401352,-0.014160554856061935
1782835370089477600,0.8704775390625,-0.033325765281915665,-0.12166323512792587,0.007184385322034359
1782835370099407400,0.880407470703125,-0.033559590578079224,-0.04539136216044426,0.010696295648813248
1782835370109337300,0.89033740234375,-0.02904048003256321,-0.027247514575719833,0.015155271627008915
1782835370119267600,0.900267578125,-0.015528934076428413,0.012980865314602852,0.05312768742442131
1782835370129197300,0.910197265625,0.005878448020666838,0.02536270022392273,0.11753372102975845
1782835370139128300,0.92012841796875,0.025632180273532867,0.004445967264473438,0.17829880118370056
1782835370149058300,0.930058349609375,0.03166062757372856,-0.01724068447947502,0.22952711582183838
1782835370158988500,0.939988525390625,0.028720498085021973,-0.01939544826745987,0.2452957034111023
1782835370168918300,0.949918212890625,0.011404468677937984,-0.03841123357415199,0.19432565569877625
1782835370178848500,0.9598486328125,-0.010780994780361652,-0.04488218203186989,0.10359948128461838
1782835370188778500,0.969778564453125,-0.02513154223561287,-0.0445556640625,-0.00912758894264698
1782835370198708500,0.97970849609375,-0.03807903081178665,-0.041709013283252716,-0.12033826857805252
1782835370208639500,0.989639404296875,-0.04594007879495621,-0.013274173252284527,-0.20563530921936035
1782835370218569500,0.999569580078125,-0.054474711418151855,0.01468928437680006,-0.24883469939231873
1782835370228499500,1.00949951171875,-0.06570572406053543,0.04613801836967468,-0.2612290382385254
1782835370238429400,1.019429443359375,-0.06320741027593613,0.05707269534468651,-0.2482522428035736
1782835370248359400,1.029359375,-0.05463235080242157,0.04691166803240776,-0.20425081253051758
1782835370258289400,1.039289306640625,-0.04704847186803818,0.0332949236035347,-0.13474629819393158
1782835370268219400,1.049219482421875,-0.0355125293135643,0.055598895996809006,-0.0482841432094574
1782835370278149400,1.0591494140625,-0.019837958738207817,0.05322441831231117,0.03523312509059906
1782835370288080400,1.069080322265625,-0.007246394641697407,0.015839237719774246,0.09428663551807404
1782835370298010400,1.07901025390625,0.0018600188195705414,-0.027605175971984863,0.11170557141304016
1782835370307940600,1.088940673828125,0.025054696947336197,-0.06437438726425171,0.08968907594680786
1782835370317870300,1.098870361328125,0.03576726093888283,-0.0999145433306694,0.03512889891862869
1782835370327800600,1.108800537109375,0.040846966207027435,-0.10751546919345856,-0.024746906012296677
1782835370337730300,1.118730224609375,0.04705745726823807,-0.05123887583613396,-0.05774933099746704
1782835370347660500,1.12866064453125,0.050846800208091736,-0.021037574857473373,-0.08426139503717422
1782835370357591300,1.13859130859375,0.05508921295404434,-0.000007655471563339233,-0.10030267387628555
1782835370367521500,1.148521484375,0.05638151988387108,0.02879311516880989,-0.10116202384233475
1782835370377451500,1.158451416015625,0.046007443219423294,0.023592758923768997,-0.10289227962493896
1782835370387381500,1.168381591796875,0.032097481191158295,-0.028931431472301483,-0.09812624752521515
1782835370397311500,1.1783115234375,0.01810096949338913,-0.05311266705393791,-0.06632410734891891
1782835370407241500,1.188241455078125,0.010004107840359211,-0.07951206713914871,-0.016375306993722916
1782835370417171500,1.19817138671875,0.011346607469022274,-0.08220691978931427,0.04226004332304001
1782835370427102200,1.208102294921875,0.01943124271929264,-0.030697114765644073,0.1012335866689682
1782835370437032400,1.218032470703125,0.04023372754454613,-0.012728501111268997,0.13068576157093048
1782835370446962400,1.22796240234375,0.04550950229167938,-0.029587365686893463,0.1234215646982193
1782835370456892400,1.237892333984375,0.05195248872041702,-0.04011031612753868,0.10447477549314499
1782835370466822400,1.247822509765625,0.05245247483253479,-0.0162795539945364,0.0848473310470581
1782835370476752600,1.257752685546875,0.03741999715566635,-0.01236710511147976,0.06381981074810028
1782835370486682400,1.267682373046875,0.0069755129516124725,-0.02999163419008255,0.042461395263671875
1782835370496613400,1.27761328125,-0.0074915774166584015,-0.053247690200805664,0.02017659693956375
1782835370506543400,1.28754345703125,-0.011944437399506569,-0.0514838844537735,0.0030837813392281532
1782835370516473600,1.2974736328125,-0.0031706523150205612,-0.026728738099336624,-0.026227235794067383
1782835370526403300,1.3074033203125,0.0056897238828241825,0.006800202652812004,-0.0557367168366909
1782835370536333600,1.31733349609375,-0.004934424534440041,0.011308934539556503,-0.08264822512865067
1782835370546263600,1.327263671875,-0.022668391466140747,-0.03114478290081024,-0.09579052776098251
1782835370556193300,1.337193359375,-0.02708497643470764,-0.03330407291650772,-0.06960073858499527
1782835370566124500,1.34712451171875,-0.020974192768335342,-0.03307078033685684,-0.034503571689128876
1782835370576054300,1.35705419921875,-0.02920655533671379,-0.0846807137131691,0.00322676170617342
1782835370585984500,1.366984619140625,-0.04053819924592972,-0.11859659850597382,0.044872574508190155
1782835370595914200,1.376914306640625,-0.043353695422410965,-0.08472651988267899,0.09267658740282059
1782835370605844500,1.386844482421875,-0.032278962433338165,-0.023420549929142,0.12143779546022415
1782835370615774500,1.3967744140625,-0.020305123180150986,0.012998711317777634,0.11209516227245331
1782835370625704400,1.406704345703125,-0.01712387055158615,0.05510541796684265,0.07058212906122208
1782835370635635500,1.416635498046875,-0.01100339274853468,0.083967424929142,0.019078724086284637
1782835370645565400,1.4265654296875,-0.008444009348750114,0.06497801840305328,-0.0330900140106678
1782835370655495400,1.436495361328125,-0.012073364108800888,0.007186894305050373,-0.061689432710409164
1782835370665425700,1.44642578125,-0.01015427615493536,-0.043080009520053864,-0.05929560959339142
1782835370675355400,1.45635546875,-0.014799361117184162,-0.07914320379495621,-0.032432571053504944
1782835370685285400,1.466285400390625,-0.007587858475744724,-0.07478547841310501,0.011911965906620026
1782835370695215400,1.47621533203125,-0.005127363838255405,-0.017661474645137787,0.06345318257808685
1782835370705145300,1.486145263671875,-0.015964776277542114,0.009197846986353397,0.09626131504774094
1782835370715076400,1.496076416015625,-0.02971920371055603,0.016972679644823074,0.09447193890810013
1782835370725006300,1.50600634765625,-0.03568051755428314,0.019551683217287064,0.06801381707191467
1782835370734936600,1.5159365234375,-0.02224646881222725,-0.016247859224677086,0.035491567105054855
1782835370744866300,1.5258662109375,-0.006547039374709129,-0.01700233295559883,0.027251623570919037
1782835370754796500,1.535796630859375,0.007810061797499657,0.014021630398929119,0.037663783878088
1782835370764726500,1.5457265625,0.007344745099544525,0.008599428460001945,0.04599488154053688
1782835370774656500,1.555656494140625,-0.0001459280028939247,-0.03914758563041687,0.02427387610077858
1782835370784587300,1.565587158203125,0.0024423738941550255,-0.07760043442249298,-0.008052230812609196
1782835370794517500,1.575517578125,0.021836046129465103,-0.06096845865249634,-0.042309802025556564
1782835370804447500,1.585447509765625,0.03155536204576492,-0.03450249880552292,-0.053313933312892914
1782835370814377500,1.59537744140625,0.0183053370565176,-0.017920861020684242,-0.039663903415203094
1782835370824307500,1.605307373046875,-0.0052765002474188805,-0.02051451802253723,-0.00036440789699554443
1782835370834237400,1.615237548828125,-0.027852118015289307,-0.026307692751288414,0.03937634825706482
1782835370844167400,1.62516748046875,-0.041188254952430725,-0.023821629583835602,0.05172581225633621
1782835370854098400,1.635098388671875,-0.032294899225234985,-0.03519439324736595,0.02095777913928032
1782835370864028400,1.6450283203125,-0.013729874975979328,-0.06141453981399536,-0.021800203248858452
1782835370873958400,1.65495849609375,0.006248360965400934,-0.051214367151260376,-0.0467766597867012
1782835370883889000,1.664888916015625,0.027907928451895714,-0.03456084057688713,-0.04176533222198486
1782835370893819000,1.67481884765625,0.03152929246425629,-0.023076755926012993,-0.009822577238082886
1782835370903748900,1.684748779296875,0.020664170384407043,-0.012064032256603241,0.030116001144051552
1782835370913678800,1.694678955078125,0.008395519107580185,-0.02975993975996971,0.0549454540014267
1782835370923609000,1.704609130859375,-0.010927531868219376,-0.06933186948299408,0.03392376750707626
1782835370933539800,1.714539794921875,-0.018937520682811737,-0.0938558503985405,-0.019342917948961258
1782835370943470000,1.724469970703125,-0.002967030741274357,-0.06560662388801575,-0.052476733922958374
1782835370953399800,1.73439990234375,0.013446830213069916,-0.001792754977941513,-0.05673592537641525
1782835370963329800,1.744329833984375,0.013048915192484856,0.0421518012881279,-0.04291229322552681
1782835370973260000,1.754260009765625,0.008497040718793869,0.06409358233213425,-0.037417393177747726
1782835370983189800,1.764189697265625,0.007509484887123108,0.05654458701610565,-0.03986494988203049
1782835370993120000,1.7741201171875,0.014675252139568329,0.025503050535917282,-0.04707705229520798
1782835371003050800,1.78405078125,0.018915725871920586,0.00243314728140831,-0.03895864635705948
1782835371012981000,1.79398095703125,0.027945440262556076,-0.04973524808883667,-0.024979982525110245
1782835371022910700,1.80391064453125,0.020031409338116646,-0.04300171136856079,0.020462527871131897
1782835371032841000,1.813841064453125,0.00456057395786047,-0.033927787095308304,0.07816656678915024
1782835371042771000,1.82377099609375,-0.008806801401078701,-0.017569057643413544,0.13406965136528015
1782835371052701000,1.833700927734375,-0.01568867638707161,0.021828416734933853,0.15959365665912628
1782835371062631000,1.843630859375,-0.016332268714904785,0.042412254959344864,0.14700265228748322
1782835371072561000,1.853560791015625,-0.01708487793803215,0.021186329424381256,0.0939847081899643
1782835371082492000,1.863491943359375,-0.0024875756353139877,0.0019979896023869514,0.018763285130262375
1782835371092422000,1.873421875,0.01909681223332882,-0.005984569434076548,-0.054366584867239
1782835371102352000,1.883351806640625,0.029864270240068436,-0.011833947151899338,-0.11937826871871948
1782835371112281900,1.89328173828125,0.035579148679971695,-0.007976891472935677,-0.14970342814922333
1782835371122211800,1.9032119140625,0.019974708557128906,0.001429661177098751,-0.13550643622875214
1782835371132141800,1.913141845703125,-0.005276852287352085,-0.0019786525517702103,-0.08789844810962677
1782835371142072000,1.923072021484375,-0.025187453255057335,-0.024513252079486847,-0.03362290561199188
1782835371152002800,1.9330029296875,-0.03707527369260788,-0.06004142016172409,0.019351361319422722
1782835371161933000,1.94293310546875,-0.02720612846314907,-0.04894988611340523,0.0614309087395668
1782835371171862800,1.95286279296875,-0.005094332620501518,-0.030519217252731323,0.08572834730148315
1782835371181793000,1.96279296875,0.010624067857861519,-0.0387401208281517,0.07706983387470245
1782835371191722800,1.97272265625,0.012910923920571804,-0.03449877351522446,0.04394569993019104
1782835371201653000,1.982653076171875,0.011620810255408287,-0.01983381249010563,-0.000027589499950408936
1782835371211583000,1.9925830078125,-0.0041344501078128815,-0.026258688420057297,-0.05978333204984665
1782835371221514000,2.002513916015625,-0.0115467868745327,-0.020331017673015594,-0.10359425097703934
1782835371231444000,2.01244384765625,-0.012310048565268517,0.029088465496897697,-0.10766622424125671
1782835371241374000,2.0223740234375,-0.017415471374988556,0.05261216312646866,-0.08430102467536926
1782835371251304000,2.032303955078125,-0.027460116893053055,0.040796246379613876,-0.03807999938726425
1782835371261234000,2.04223388671875,-0.037814799696207047,0.02803169935941696,0.02305801957845688
1782835371271164000,2.052163818359375,-0.0457126684486866,-0.01326247863471508,0.07378430664539337
1782835371281094000,2.062093994140625,-0.049049366265535355,-0.03475816920399666,0.11399206519126892
1782835371291024000,2.07202392578125,-0.036415863782167435,-0.02177925407886505,0.12349795550107956
1782835371300955000,2.081954833984375,-0.009070243686437607,-0.005283643491566181,0.09747104346752167
1782835371310884900,2.091884765625,0.021935608237981796,0.006002034991979599,0.04712985083460808
1782835371320814800,2.10181494140625,0.04434487223625183,0.028361665084958076,0.006684299558401108
1782835371330745000,2.1117451171875,0.02321881428360939,0.026561101898550987,-0.020692996680736542
1782835371340674800,2.1216748046875,-0.014908911660313606,-0.0032995715737342834,-0.036294035613536835
1782835371350605000,2.13160498046875,-0.045635394752025604,-0.025676514953374863,-0.03565008193254471
1782835371360534800,2.14153466796875,-0.05233537405729294,-0.04345338046550751,-0.034843675792217255
1782835371370464800,2.15146484375,-0.04800134897232056,-0.047607116401195526,-0.03510892763733864
1782835371380395800,2.161395751953125,-0.04474392533302307,-0.054947324097156525,-0.03595762699842453
1782835371390325800,2.17132568359375,-0.046632640063762665,-0.054166220128536224,-0.030751146376132965
1782835371400256000,2.181256103515625,-0.05491631478071213,-0.030769288539886475,-0.013776279985904694
1782835371410185700,2.191185791015625,-0.05238817632198334,-0.02304558828473091,0.005098075605928898
1782835371420116000,2.201115966796875,-0.036786455661058426,-0.002810906618833542,0.03070409968495369
1782835371430046000,2.2110458984375,-0.013396178372204304,0.020297076553106308,0.05253216624259949
1782835371439976000,2.220975830078125,0.01131831482052803,0.039824165403842926,0.05824079364538193
1782835371449907000,2.230906982421875,0.02815455198287964,0.041986122727394104,0.043672241270542145
1782835371459837000,2.2408369140625,0.030995072796940804,0.01748770847916603,0.02831091172993183
1782835371469767000,2.250766845703125,0.017174065113067627,0.001524188555777073,0.018469998612999916
1782835371479697000,2.26069677734375,0.004828786943107843,-0.020777910947799683,0.01127256453037262
1782835371489627000,2.270626953125,-0.004732759669423103,-0.03151284530758858,0.012576447799801826
1782835371499557000,2.28055712890625,-0.002940797246992588,-0.02612421102821827,0.006376632489264011
1782835371509486800,2.29048681640625,0.009209875017404556,-0.02642275020480156,-0.006579113192856312
1782835371519416800,2.300416748046875,0.010382449254393578,-0.0199134461581707,-0.022636543959379196
1782835371529347800,2.310347900390625,-0.004819939844310284,-0.040833376348018646,-0.04255512356758118
1782835371539277800,2.32027783203125,-0.021761953830718994,-0.06773421913385391,-0.048344820737838745
1782835371549207800,2.330207763671875,-0.0182441845536232,-0.05293210595846176,-0.04114310070872307
1782835371559137800,2.3401376953125,-0.0022335173562169075,-0.014682453125715256,-0.01701064594089985
1782835371569068000,2.350068115234375,0.002106635831296444,0.01749039813876152,0.01831592060625553
1782835371578997800,2.359997802734375,-0.000014579854905605316,0.03577219694852829,0.057497989386320114
1782835371588928000,2.369927978515625,0.00012576859444379807,0.02164439670741558,0.08933475613594055
1782835371598858800,2.379858642578125,-0.004041317850351334,-0.009869067929685116,0.10388951003551483
1782835371608789000,2.3897890625,-0.0024295728653669357,-0.03189900144934654,0.10290494561195374
1782835371618719000,2.399718994140625,-0.0007247654721140862,-0.042489614337682724,0.07085325568914413
1782835371628649000,2.40964892578125,0.004820202477276325,-0.040806230157613754,0.021901430562138557
1782835371638579000,2.419578857421875,0.007676637731492519,-0.00845198705792427,-0.01798669435083866
1782835371648508700,2.4295087890625,0.006090192589908838,0.023053474724292755,-0.03898252546787262
1782835371658439000,2.43943896484375,-0.002116892486810684,0.013733982108533382,-0.04936889931559563
1782835371668369000,2.449368896484375,-0.0034918831661343575,-0.008434170857071877,-0.049541737884283066
1782835371678300000,2.4592998046875,-0.0049829864874482155,-0.03193763270974159,-0.04831188917160034
1782835371688230000,2.46922998046875,-0.007976380176842213,-0.03426869586110115,-0.030462320894002914
1782835371698159900,2.479159912109375,-0.0034876298159360886,-0.025011811405420303,-0.0033124079927802086
1782835371708089900,2.48908984375,-0.0041747260838747025,-0.03166358917951584,0.022678446024656296
1782835371718019800,2.499019775390625,-0.00561967957764864,-0.06867539882659912,0.04478292539715767
1782835371727949800,2.50894970703125,0.0013988148421049118,-0.08277150243520737,0.06462614238262177
1782835371737880000,2.518880126953125,0.016213111579418182,-0.0814114436507225,0.08815061300992966
1782835371747809800,2.528809814453125,0.02383960783481598,-0.06201670318841934,0.10545716434717178
1782835371757741000,2.538740966796875,0.025097031146287918,-0.033358946442604065,0.11431723833084106
1782835371767670800,2.5486708984375,0.01861969195306301,-0.027320493012666702,0.09816011041402817
1782835371777601000,2.55860107421875,0.004682743456214666,-0.04448855668306351,0.050471268594264984
1782835371787531000,2.568531005859375,0.015709295868873596,-0.034373074769973755,-0.007494560908526182
1782835371797460700,2.578460693359375,0.032981328666210175,-0.007347055710852146,-0.050191327929496765
1782835371807391000,2.588390869140625,0.03636913746595383,0.009194635786116123,-0.06367971003055573
1782835371817320700,2.59832080078125,0.018343733623623848,0.02022569812834263,-0.05359598994255066
1782835371827252000,2.608251953125,-0.004695006646215916,0.005182832479476929,-0.03471524268388748
1782835371837181700,2.618181640625,-0.019803553819656372,-0.0487469807267189,-0.029927801340818405
1782835371847112000,2.62811181640625,-0.008107219822704792,-0.08308711647987366,-0.01593209058046341
1782835371857042000,2.6380419921875,0.017725229263305664,-0.07657485455274582,0.00030879024416208267
1782835371866972000,2.647971923828125,0.03426266089081764,-0.07727047801017761,0.032836105674505234
1782835371876902000,2.65790185546875,0.03424357250332832,-0.04923245310783386,0.06302962452173233
1782835371886835700,2.667835693359375,0.03055962175130844,-0.03123347833752632,0.07420344650745392
1782835371896766700,2.6777666015625,0.022641237825155258,-0.030768485739827156,0.05435708910226822
1782835371906696700,2.68769677734375,0.012271421030163765,-0.04828649014234543,0.015366013161838055
1782835371916626700,2.697626708984375,0.001750720664858818,-0.047562126070261,-0.02326766774058342
1782835371926557000,2.707556884765625,-0.006005202420055866,-0.01645108126103878,-0.0409579798579216
1782835371936486700,2.717486572265625,-0.015654101967811584,0.014971024356782436,-0.03158232197165489
1782835371946417000,2.7274169921875,-0.027377869933843613,0.020704809576272964,-0.00822426937520504
1782835371956346600,2.7373466796875,-0.02285449206829071,0.033046696335077286,0.016341259703040123
1782835371966276900,2.74727685546875,-0.008042520843446255,0.0323694571852684,0.023650571703910828
1782835371976207600,2.75720751953125,0.00643555773422122,0.007659592665731907,0.01813386008143425
1782835371986137900,2.767137939453125,0.01391690969467163,-0.01960505172610283,0.018404437229037285
1782835371996067800,2.77706787109375,0.015374833717942238,-0.044334910809993744,0.03023025207221508
1782835372005997800,2.786997802734375,0.01518335286527872,-0.05714524909853935,0.04042962193489075
1782835372015927800,2.796927734375,0.02153860218822956,-0.037027180194854736,0.03473951667547226
1782835372025857800,2.80685791015625,0.022271238267421722,-0.03801335394382477,0.019123272970318794
1782835372035787800,2.816787841796875,0.019547976553440094,-0.008285014890134335,0.003491245210170746
1782835372045717800,2.8267177734375,0.004279540851712227,0.010756852105259895,-0.011079441756010056
1782835372055648800,2.836648681640625,-0.012024094350636005,-0.004540649242699146,-0.016170084476470947
1782835372065578800,2.846578857421875,-0.018435653299093246,-0.013215896673500538,-0.016883544623851776
1782835372075508700,2.8565087890625,-0.0024799685925245285,-0.02001333050429821,-0.004858615808188915
1782835372085438700,2.866438720703125,0.013392738066613674,0.0013723848387598991,0.015140923671424389
1782835372095369000,2.876368896484375,0.011625251732766628,0.0029884111136198044,0.028949005529284477
1782835372105298700,2.886298583984375,0.0018985876813530922,0.005988461896777153,0.03301005810499191
1782835372115229000,2.89622900390625,-0.011514139361679554,-0.010725012049078941,0.03719298914074898
1782835372125159000,2.906158935546875,-0.02998901903629303,0.028965940698981285,0.023634035140275955
1782835372135090000,2.91608984375,-0.03209991380572319,0.023325353860855103,-0.0006790510378777981
1782835372145019600,2.92601953125,-0.008595118299126625,0.014933734200894833,-0.022566240280866623
1782835372154949600,2.93594970703125,0.019357457756996155,0.025769095867872238,-0.045746706426143646
1782835372164880000,2.9458798828125,0.033852510154247284,0.016585184261202812,-0.06893591582775116
1782835372174809600,2.9558095703125,0.035340819507837296,0.013187502510845661,-0.08795364946126938
1782835372184739800,2.96573974609375,0.022395726293325424,0.018645387142896652,-0.08159082382917404
1782835372194669800,2.975669921875,0.003612590953707695,0.01367674395442009,-0.07369503378868103
1782835372204599800,2.985599853515625,-0.004205117933452129,-0.005802680738270283,-0.049540694802999496
1782835372214530800,2.99553076171875,0.002353518269956112,-0.006321192719042301,-0.021861907094717026
1782835372224460800,3.005460693359375,0.006967977620661259,0.0036701876670122147,0.009178834035992622
1782835372234390800,3.015390869140625,-0.0008461428806185722,0.007020964287221432,0.02751891128718853
1782835372244320800,3.02532080078125,-0.008457457646727562,0.03236040845513344,0.04108612239360809
1782835372254250800,3.035250732421875,-0.005353622138500214,0.05614403262734413,0.036399245262145996
1782835372264180700,3.0451806640625,0.010577142238616943,0.050333280116319656,0.01898457109928131
1782835372274110700,3.05511083984375,0.028228331357240677,0.04115121439099312,-0.00359971821308136
1782835372284040700,3.065040771484375,0.048022277653217316,0.024390343576669693,-0.0247311033308506
1782835372293971700,3.0749716796875,0.04758149012923241,-0.00346523430198431,-0.03751221299171448
1782835372303901700,3.084901611328125,0.03918987140059471,-0.01107335276901722,-0.03986990824341774
1782835372313831700,3.094831787109375,0.021880101412534714,0.013522213324904442,-0.029247958213090897
1782835372323761700,3.10476171875,-0.00011574383825063705,0.01634702831506729,-0.00869288295507431
1782835372333692000,3.11469189453125,-0.008072474040091038,0.03205575421452522,0.02174992486834526
1782835372343621600,3.12462158203125,-0.009402989409863949,0.0455276183784008,0.044589728116989136
1782835372353552000,3.1345517578125,0.006187219638377428,0.03222882002592087,0.04616165906190872
1782835372363482600,3.144482666015625,0.030236095190048218,0.015670347958803177,0.021770302206277847
1782835372373412900,3.154412841796875,0.045117706060409546,-0.0035773497074842453,-0.01042001973837614
1782835372383342800,3.1643427734375,0.043852172791957855,-0.03199807181954384,-0.03834805637598038
1782835372393272800,3.17427294921875,0.0283003319054842,-0.052150242030620575,-0.04808421805500984
1782835372403202800,3.184202880859375,0.011948255822062492,-0.035011470317840576,-0.03272976353764534
1782835372413132500,3.194132568359375,0.00016303081065416336,0.02013249881565571,-0.009166834875941277
1782835372423062800,3.204062744140625,-0.00470096617937088,0.07112164795398712,0.017375294119119644
1782835372432992800,3.21399267578125,-0.0035923533141613007,0.07723304629325867,0.02841987833380699
1782835372442923800,3.223923828125,-0.003168911673128605,0.039856381714344025,0.01895606704056263
1782835372452853800,3.233853759765625,-0.014314343221485615,-0.028821205720305443,-0.00898511242121458
1782835372462783700,3.24378369140625,-0.013121514581143856,-0.06960964947938919,-0.016542896628379822
1782835372472713700,3.253713623046875,-0.00569771695882082,-0.08130809664726257,-0.013508560135960579
1782835372482644000,3.26364404296875,-0.005546183325350285,-0.08334647864103317,-0.0020894575864076614
1782835372492573700,3.27357373046875,-0.006695220246911049,-0.07552213221788406,0.0024211350828409195
1782835372502504000,3.28350390625,-0.010757073760032654,-0.06841575354337692,-0.009706900455057621
1782835372512433700,3.29343359375,-0.01544140838086605,-0.0593295693397522,-0.03012198954820633
1782835372522365000,3.303364990234375,-0.019131219014525414,-0.03792228177189827,-0.052306655794382095
1782835372532294700,3.313294677734375,-0.014125533401966095,-0.006327608600258827,-0.06044559180736542
1782835372542225000,3.323224853515625,-0.013286905363202095,0.010705969296395779,-0.059710822999477386
1782835372552155000,3.33315478515625,-0.015227324329316616,0.04678862541913986,-0.03589313104748726
1782835372562084600,3.343084716796875,-0.018303539603948593,0.07554011046886444,-0.005436688661575317
1782835372572014800,3.353014892578125,-0.020156893879175186,0.060929201543331146,0.017035257071256638
1782835372581944800,3.36294482421875,-0.014867591671645641,0.010013822466135025,0.029216822236776352
1782835372591874800,3.372874755859375,-0.0056152744218707085,-0.029323503375053406,0.03638209402561188
1782835372601805600,3.3828056640625,0.018422149121761322,-0.03153739124536514,0.04110867530107498
1782835372611735800,3.39273583984375,0.02630035951733589,-0.04394848644733429,0.023623069748282433
1782835372621665800,3.402665771484375,0.032205916941165924,-0.05135153979063034,-0.0015645753592252731
1782835372631595800,3.412595703125,0.0432807132601738,0.011322727426886559,-0.0021067820489406586
1782835372641525800,3.42252587890625,0.04223835468292236,0.050415802747011185,0.005815856158733368
1782835372651456000,3.4324560546875,0.017684653401374817,0.023260055109858513,-0.0011285636574029922
1782835372661385700,3.4423857421875,-0.013151556253433228,-0.00338114146143198,-0.010756423696875572
1782835372671315700,3.452315673828125,-0.026004459708929062,-0.0024865418672561646,-0.026377275586128235
1782835372681246700,3.462246826171875,-0.021079741418361664,0.021292557939887047,-0.027455586940050125
1782835372691177000,3.472177001953125,-0.02110353857278824,0.03983774781227112,-0.04054010659456253
1782835372701106700,3.482106689453125,-0.016938090324401855,0.039170630276203156,-0.05312807112932205
1782835372711036700,3.49203662109375,0.0020570792257785797,0.019914645701646805,-0.06516703963279724
1782835372720967000,3.501966796875,0.034159354865550995,-0.00036692339926958084,-0.06607943773269653
1782835372730896600,3.511896728515625,0.047575898468494415,-0.011113832704722881,-0.03645334020256996
1782835372740827000,3.521826904296875,0.0486249178647995,0.0033010588958859444,0.004057867452502251
1782835372750756900,3.5317568359375,0.03859575837850571,0.009448670782148838,0.040108829736709595
1782835372760687900,3.54168798828125,0.029079485684633255,0.014550755731761456,0.053534090518951416
1782835372770617600,3.55161767578125,0.025311628356575966,0.019801458343863487,0.04695671796798706
1782835372780547800,3.5615478515625,0.022353656589984894,-0.017818622291088104,0.018573811277747154
1782835372790477800,3.571477783203125,0.01586618646979332,-0.04978427290916443,-0.0017479220405220985
1782835372800407800,3.58140771484375,0.023134753108024597,-0.02591036446392536,-0.0006858534179627895
1782835372810337800,3.591337890625,0.026704926043748856,-0.008637922815978527,0.005586343817412853
1782835372820267800,3.601267822265625,0.02186569571495056,0.009511520154774189,0.013996073976159096
1782835372830197800,3.61119775390625,0.012710952199995518,0.03970620036125183,0.014358586631715298
1782835372840128800,3.621128662109375,0.0039009489119052887,0.047860801219940186,-0.005163449328392744
1782835372850058800,3.631058837890625,0.0042084138840436935,0.04904693737626076,-0.029828423634171486
1782835372859988700,3.64098876953125,0.004055814817547798,0.038257673382759094,-0.04568515345454216
1782835372869918700,3.650918701171875,-0.003776809200644493,0.0008341334760189056,-0.04894272983074188
1782835372879844400,3.66084423828125,-0.014080312103033066,-0.02951924502849579,-0.04154739901423454
1782835372889774300,3.6707744140625,-0.020820241421461105,-0.04244649410247803,-0.03426338732242584
1782835372899704600,3.68070458984375,-0.023178737610578537,-0.040395595133304596,-0.03523224592208862
1782835372909634300,3.69063427734375,-0.025147587060928345,-0.012039348483085632,-0.04114488512277603
1782835372919565300,3.7005654296875,-0.026757467538118362,0.010332535952329636,-0.04583923518657684
1782835372929495300,3.710495361328125,-0.02451786771416664,0.019673073664307594,-0.04001355916261673
1782835372939425500,3.720425537109375,-0.0023318715393543243,0.033257856965065,-0.024700649082660675
1782835372949355300,3.730355224609375,0.015006991103291512,0.03956449404358864,-0.006636500358581543
1782835372959285500,3.740285400390625,0.02763516828417778,0.027636993676424026,0.014120709151029587
1782835372969215500,3.750215576171875,0.026457354426383972,0.005586538463830948,0.04000752419233322
1782835372979145200,3.760145263671875,0.006328118499368429,-0.019092176109552383,0.059285618364810944
1782835372989075500,3.770075439453125,-0.023557256907224655,-0.04979389160871506,0.061450690031051636
1782835372999005400,3.78000537109375,-0.029347501695156097,-0.03475182503461838,0.04610662907361984
1782835373008936400,3.7899365234375,-0.018494483083486557,0.005516750738024712,0.027738627046346664
1782835373018866200,3.7998662109375,-0.003883584402501583,0.03907817229628563,-0.0003494652919471264
1782835373028796400,3.80979638671875,0.0015218527987599373,0.04831700399518013,-0.02808275818824768
1782835373038726400,3.819726318359375,0.0010094614699482918,0.023665450513362885,-0.04226648807525635
1782835373048656400,3.829656494140625,-0.007653571665287018,-0.01978645659983158,-0.04386062175035477
1782835373058586400,3.83958642578125,-0.020811453461647034,-0.05571143329143524,-0.03701256960630417
1782835373068516600,3.8495166015625,-0.02538974955677986,-0.08729647845029831,-0.026899660006165504
1782835373078446300,3.8594462890625,-0.0141831673681736,-0.08521255105733871,-0.020516596734523773
1782835373088377600,3.869377685546875,0.008361716754734516,-0.030374668538570404,-0.01244375016540289
1782835373098307300,3.879307373046875,0.026909302920103073,0.01972205564379692,-0.00021850969642400742
1782835373108237600,3.889237548828125,0.028333183377981186,0.05251225456595421,0.015233112499117851
1782835373118167300,3.899167236328125,0.02805647999048233,0.0913856104016304,0.03813736140727997
1782835373128097300,3.90909716796875,0.020626310259103775,0.08079683035612106,0.04572572559118271
1782835373138027500,3.919027587890625,0.011314036324620247,0.033736906945705414,0.02762262150645256
1782835373147957200,3.928957275390625,0.018741128966212273,0.011404195800423622,0.012333182618021965
1782835373157887500,3.938887451171875,0.03273790329694748,-0.007490931544452906,0.0018760142847895622
1782835373167818200,3.948818359375,0.03076137602329254,-0.025163382291793823,-0.008712946437299252
1782835373177748500,3.95874853515625,0.023637153208255768,-0.023371338844299316,-0.012534849345684052
1782835373187678500,3.968678466796875,0.01813446916639805,-0.038008369505405426,-0.018240757286548615
1782835373197608400,3.9786083984375,0.015234020538628101,-0.06415102630853653,-0.023904502391815186
1782835373207538400,3.988538330078125,0.02084309235215187,-0.030097465962171555,-0.00899690855294466
1782835373217468400,3.998468505859375,0.027347862720489502,0.04225316271185875,0.021317588165402412
1782835373227398400,4.0083984375,0.02089974284172058,0.06269033998250961,0.03542162477970123
1782835373237328400,4.018328369140625,0.003912237472832203,0.03697512298822403,0.03542375564575195
1782835373247259400,4.02825927734375,0.0068381051532924175,0.009848402813076973,0.02684170752763748
1782835373257189600,4.038189697265625,0.022781118750572205,-0.023227259516716003,0.0021089306101202965
1782835373267119400,4.048119384765625,0.031696077436208725,-0.0663648322224617,-0.011419914662837982
1782835373277049300,4.05804931640625,0.042482148855924606,-0.06955955922603607,-0.0016732783988118172
1782835373286979300,4.067979248046875,0.04289514198899269,-0.043324775993824005,0.02673937939107418
1782835373296909300,4.077909423828125,0.031190015375614166,0.0045359572395682335,0.054129987955093384
1782835373306839600,4.087839599609375,0.010284296236932278,0.0316232331097126,0.06224745139479637
1782835373316769300,4.097769287109375,-0.012516889721155167,0.029736116528511047,0.06371698528528214
1782835373326699500,4.107699462890625,-0.013886744156479836,0.023098640143871307,0.05294749140739441
1782835373336630300,4.11763037109375,-0.00022765714675188065,0.023648317903280258,0.028858400881290436
1782835373346560500,4.127560546875,0.015972455963492393,0.002479191869497299,-0.0008105393499135971
1782835373356490500,4.137490478515625,0.03651048615574837,-0.0009253928437829018,-0.005659356713294983
1782835373366420500,4.14742041015625,0.04497726634144783,0.02375832200050354,0.017142534255981445
1782835373376350500,4.1573505859375,0.024294361472129822,0.013732053339481354,0.043861497193574905
1782835373386280200,4.1672802734375,0.0044461823999881744,-0.01230567879974842,0.06111492961645126
1782835373396210400,4.17721044921875,0.00014357920736074448,-0.01638564094901085,0.05838891118764877
1782835373406140400,4.187140380859375,0.012604458257555962,-0.026653245091438293,0.024034788832068443
1782835373416071400,4.197071533203125,0.020488213747739792,-0.04962540417909622,-0.013204991817474365
1782835373426001400,4.20700146484375,0.0295209102332592,-0.043380241841077805,-0.02640959620475769
1782835373435931400,4.216931396484375,0.022508006542921066,-0.05396071448922157,-0.0244846623390913
1782835373445861400,4.226861328125,0.009152760729193687,-0.08083197474479675,-0.0066999150440096855
1782835373455791400,4.236791259765625,0.006461370270699263,-0.06768288463354111,0.004692555405199528
1782835373465721300,4.246721435546875,0.0002974504604935646,-0.024854164570569992,0.018988877534866333
1782835373475651600,4.256651611328125,-0.011659077368676662,0.044794417917728424,0.021266411989927292
1782835373485581300,4.266581298828125,-0.03086959198117256,0.10868470370769501,0.02105545625090599
1782835373495512600,4.2765126953125,-0.04427328333258629,0.1253044307231903,0.007095699198544025
1782835373505442300,4.2864423828125,-0.031768906861543655,0.10702825337648392,0.002449512481689453
1782835373515372500,4.29637255859375,-0.0028962446376681328,0.07148703932762146,-0.00339239789173007
1782835373525302500,4.306302490234375,0.027306610718369484,0.03644860163331032,-0.0021365778520703316
1782835373535232300,4.316232177734375,0.04574207961559296,0.007380201481282711,0.0029316842555999756
1782835373545162500,4.32616259765625,0.0537402369081974,-0.03615536168217659,0.003480338491499424
1782835373555092200,4.33609228515625,0.059115827083587646,-0.055497366935014725,-0.00045847659930586815
1782835373565022500,4.3460224609375,0.06805776804685593,-0.06541943550109863,-0.003575483802706003
1782835373574952400,4.355952392578125,0.0757037028670311,-0.05854608491063118,-0.004834892228245735
1782835373584883500,4.365883544921875,0.0884387195110321,-0.052789632230997086,-0.014682020992040634
1782835373594813400,4.3758134765625,0.1055212989449501,-0.040033891797065735,-0.01904720813035965
1782835373604743400,4.385743408203125,0.12131370604038239,-0.035228241235017776,-0.03313058987259865
1782835373614673400,4.39567333984375,0.13027657568454742,-0.06672278046607971,-0.04939771071076393
1782835373624603400,4.405603271484375,0.1368533968925476,-0.09735771268606186,-0.053860269486904144
1782835373634533400,4.415533447265625,0.14494460821151733,-0.10038173198699951,-0.03693960979580879
1782835373644463400,4.42546337890625,0.15348991751670837,-0.09338048845529556,-0.009472276084125042
1782835373654393300,4.435393310546875,0.15836191177368164,-0.07226934283971786,0.01805761829018593
1782835373664324400,4.445324462890625,0.15662088990211487,-0.042779430747032166,0.04473082348704338
1782835373674254300,4.45525439453125,0.15252655744552612,-0.0066935960203409195,0.05362870916724205
1782835373684184300,4.465184326171875,0.15045249462127686,0.007173545658588409,0.05367187410593033
1782835373694114600,4.475114501953125,0.14115352928638458,0.017193689942359924,0.04592899978160858
1782835373704044300,4.485044189453125,0.13658396899700165,0.04933212697505951,0.0481182225048542
1782835373713974500,4.494974609375,0.12384872883558273,0.09348814189434052,0.05536415055394173
1782835373723904300,4.504904296875,0.11297426372766495,0.12152428179979324,0.058506306260824203
1782835373733834500,4.51483447265625,0.12634839117527008,0.13210955262184143,0.05728072300553322
1782835373743764500,4.524764404296875,0.1450088620185852,0.11632741987705231,0.04900377243757248
1782835373753695500,4.534695556640625,0.15191923081874847,0.06380882114171982,0.030140869319438934
1782835373763625500,4.54462548828125,0.15016858279705048,-0.003970780409872532,0.014917266555130482
1782835373773555500,4.554555419921875,0.1375369429588318,-0.054212912917137146,0.01824328675866127
1782835373783485400,4.5644853515625,0.11027432978153229,-0.09707167744636536,0.03613964095711708
1782835373793415400,4.57441552734375,0.08571013063192368,-0.10137347877025604,0.05961700156331062
1782835373803345400,4.584345458984375,0.06734562665224075,-0.06924143433570862,0.08323304355144501
1782835373813275400,4.594275390625,0.05059807747602463,-0.03945477306842804,0.09900588542222977
1782835373823205400,4.604205322265625,0.03909391537308693,0.021146811544895172,0.10848318040370941
1782835373833136400,4.614136474609375,0.026173323392868042,0.09964188188314438,0.12088260054588318
1782835373843066400,4.62406640625,-0.00047928281128406525,0.13412481546401978,0.12640592455863953
1782835373852996400,4.633996337890625,-0.03365960717201233,0.13178309798240662,0.1217922568321228
1782835373862926600,4.643926513671875,-0.0640522688627243,0.10426806658506393,0.10619458556175232
1782835373872856300,4.653856201171875,-0.08331091701984406,0.05786249041557312,0.0815180093050003
1782835373882787000,4.663787109375,-0.09062584489583969,0.004966802895069122,0.06560651957988739
1782835373892717000,4.673717041015625,-0.09383415430784225,-0.02303367108106613,0.06009750813245773
1782835373902647000,4.68364697265625,-0.10327424854040146,-0.02479909360408783,0.06585920602083206
1782835373912577000,4.693576904296875,-0.127559095621109,0.00312175415456295,0.08505047857761383
1782835373922508000,4.703508056640625,-0.15410982072353363,0.04411766305565834,0.11397865414619446
1782835373932438000,4.71343798828125,-0.16649192571640015,0.07502470910549164,0.12317827343940735
1782835373942368000,4.723367919921875,-0.1678270399570465,0.07886230200529099,0.1255287528038025
1782835373952298000,4.733298095703125,-0.1564556062221527,0.052693817764520645,0.11238045990467072
1782835373962228000,4.74322802734375,-0.14320024847984314,0.019213076680898666,0.09344612807035446
1782835373972158000,4.753157958984375,-0.13646218180656433,-0.008498712442815304,0.07605728507041931
1782835373982088200,4.763088134765625,-0.1346789300441742,-0.0034429673105478287,0.06729095429182053
1782835373992018000,4.773017822265625,-0.14389081299304962,0.012652378529310226,0.057779207825660706
1782835374001948200,4.7829482421875,-0.15703964233398438,0.031108364462852478,0.045571599155664444
1782835374011879000,4.79287890625,-0.15274876356124878,0.04157325625419617,0.02527378499507904
1782835374021809200,4.80280908203125,-0.14142048358917236,0.01234108954668045,-0.0037622875533998013
1782835374031739000,4.81273876953125,-0.13701055943965912,-0.027232419699430466,-0.019940191879868507
1782835374041669000,4.822669189453125,-0.13117970526218414,-0.04089102894067764,-0.009777377359569073
1782835374051599000,4.83259912109375,-0.13348734378814697,-0.043373093008995056,0.009284463711082935
1782835374061528800,4.84252880859375,-0.12829433381557465,-0.026198111474514008,0.03208525478839874
1782835374071459000,4.852458984375,-0.11533379554748535,-0.007528552319854498,0.05265232175588608
1782835374081389000,4.86238916015625,-0.09758864343166351,-0.016559027135372162,0.060079239308834076
1782835374091319000,4.872319091796875,-0.078366219997406,-0.011595428921282291,0.06286357343196869
1782835374101250000,4.88225,-0.0637696161866188,-0.014149928465485573,0.05344603210687637
1782835374111180000,4.892179931640625,-0.058055803179740906,-0.01816943660378456,0.05304868891835213
1782835374121110000,4.902110107421875,-0.057395726442337036,-0.0033859265968203545,0.04102000594139099
1782835374131040000,4.9120400390625,-0.058825306594371796,0.007823050953447819,0.0320398285984993
1782835374140970000,4.921969970703125,-0.06058245897293091,0.006100785918533802,0.02037038840353489
1782835374150900200,4.931900146484375,-0.06330741196870804,0.010791943408548832,0.006671886891126633
1782835374160830000,4.941829833984375,-0.06947053968906403,-0.005182018503546715,-0.013980856165289879
1782835374170760000,4.951760009765625,-0.06693334877490997,-0.00978342816233635,-0.03527895361185074
1782835374180691000,4.96169091796875,-0.04921715706586838,0.011451075784862041,-0.05062974989414215
1782835374190621200,4.97162109375,-0.031859736889600754,-0.003262888640165329,-0.057397108525037766
1782835374200551000,4.981551025390625,-0.02588500827550888,-0.022439535707235336,-0.05624852329492569
1782835374210481000,4.99148095703125,-0.02707517519593239,-0.028689175844192505,-0.04234442487359047
1782835374220411100,5.0014111328125,-0.014056609943509102,-0.026320789009332657,-0.018089476972818375
1782835374230340900,5.0113408203125,-0.011555103585124016,-0.004971823655068874,0.008345060050487518
1782835374240271000,5.02127099609375,-0.019017202779650688,0.00007476843893527985,0.025228222832083702
1782835374250201000,5.031201171875,-0.01873783767223358,0.00738807488232851,0.0378020703792572
1782835374260131000,5.041131103515625,0.009380538947880268,0.021284546703100204,0.049836575984954834
1782835374270062000,5.05106201171875,0.031300753355026245,0.013384813442826271,0.04682054743170738
1782835374279992000,5.060991943359375,0.043755821883678436,-0.005938817281275988,0.021274972707033157
1782835374289922000,5.070922119140625,0.05772943049669266,-0.012330936267971992,-0.001453242264688015
1782835374299852000,5.08085205078125,0.07075895369052887,-0.033851150423288345,-0.025396175682544708
1782835374309782000,5.090781982421875,0.07061008363962173,-0.05402246490120888,-0.031703874468803406
1782835374319712000,5.1007119140625,0.05269508808851242,-0.043714821338653564,-0.019640028476715088
1782835374329642000,5.11064208984375,0.03162175789475441,-0.03166161850094795,0.007115685380995274
1782835374339572000,5.120572021484375,0.022802647203207016,-0.004780391231179237,0.033422987908124924
1782835374349502200,5.130502197265625,0.031412914395332336,0.023046445101499557,0.04511479660868645
1782835374359433000,5.140432861328125,0.039818357676267624,0.018069295212626457,0.04059983044862747
1782835374369363000,5.150363037109375,0.04832262918353081,-0.0050251055508852005,0.04714295268058777
1782835374379293000,5.16029296875,0.05258404091000557,-0.048303600400686264,0.057398710399866104
1782835374389223200,5.17022314453125,0.046658504754304886,-0.08735166490077972,0.06820555031299591
1782835374399153000,5.18015283203125,0.03941965848207474,-0.09402377158403397,0.07416467368602753
1782835374409083100,5.190083251953125,0.03456471115350723,-0.08422572910785675,0.06184196472167969
1782835374419013000,5.20001318359375,0.040869615972042084,-0.08279289305210114,0.030235379934310913
1782835374428942800,5.20994287109375,0.03610362485051155,-0.05845027416944504,-0.009384202770888805
1782835374438873000,5.219873046875,0.02937212586402893,-0.04430195689201355,-0.029765252023935318
1782835374448804000,5.22980419921875,0.02707621268928051,-0.019102860242128372,-0.027749769389629364
1782835374458734000,5.239734130859375,0.0231478288769722,-0.0044845640659332275,-0.00805889442563057
1782835374468663800,5.249663818359375,0.026542292907834053,0.004571248777210712,0.016709035262465477
1782835374478594000,5.259593994140625,0.025458205491304398,0.009097030386328697,0.040765032172203064
1782835374488524000,5.26952392578125,0.016608254984021187,-0.005995104089379311,0.03912772238254547
1782835374498454000,5.2794541015625,0.004915344994515181,-0.04100310802459717,0.02906332165002823
1782835374508384000,5.289384033203125,0.0019134292379021645,-0.06620007008314133,0.021111387759447098
1782835374518314200,5.299314208984375,0.009660497307777405,-0.09765921533107758,0.00899556651711464
1782835374528244000,5.309243896484375,0.04162535443902016,-0.1173250675201416,0.010950060561299324
1782835374538175200,5.31917529296875,0.07523088157176971,-0.1064889132976532,0.026684727519750595
1782835374548103200,5.329103271484375,0.0920330286026001,-0.07823117822408676,0.04435133934020996
1782835374558033000,5.339032958984375,0.09032604843378067,-0.041649483144283295,0.06673023849725723
1782835374567964200,5.348964111328125,0.06756986677646637,-0.015845581889152527,0.07631761580705643
1782835374577894000,5.358893798828125,0.02788403630256653,0.0008807042613625526,0.07594166696071625
1782835374587824000,5.36882421875,-0.007513369433581829,0.008005725219845772,0.061544351279735565
1782835374597754000,5.378754150390625,-0.020731952041387558,0.0044407956302165985,0.04211142286658287
1782835374607684000,5.38868408203125,-0.01153658889234066,0.010844100266695023,0.03489052876830101
1782835374617614000,5.398614013671875,0.002637443132698536,0.012071443721652031,0.024860285222530365
1782835374627543800,5.408543701171875,0.01518252957612276,0.012576112523674965,0.02964998036623001
1782835374637474000,5.41847412109375,0.023688267916440964,0.00670444592833519,0.038667529821395874
1782835374647404000,5.428404052734375,0.01758723333477974,-0.016189951449632645,0.055645979940891266
1782835374657335000,5.4383349609375,0.002749774605035782,-0.005339416209608316,0.05026664584875107
1782835374667265000,5.44826513671875,-0.008379575796425343,-0.0391240119934082,0.036281585693359375
1782835374677195000,5.458195068359375,-0.0024369116872549057,-0.045351542532444,0.04063605144619942
1782835374687125000,5.468125,0.00665112491697073,-0.01725439354777336,0.053807247430086136
1782835374697055000,5.478054931640625,0.008744919672608376,0.012135160155594349,0.06329145282506943
1782835374706985000,5.48798486328125,0.01858823001384735,0.029960762709379196,0.06843321770429611
1782835374716915200,5.497915283203125,0.022799374535679817,0.031177595257759094,0.059531837701797485
1782835374726845000,5.507844970703125,0.025738172233104706,0.011394834145903587,0.05859839916229248
1782835374736775000,5.51777490234375,0.013866899535059929,0.007793240249156952,0.05696505680680275
1782835374746706000,5.527705810546875,0.002658986486494541,-0.012807109393179417,0.05103606358170509
1782835374756636200,5.53763623046875,0.0012627514079213142,-0.032075684517621994,0.04545743763446808
1782835374766566100,5.547566162109375,0.0033405497670173645,-0.03128712251782417,0.05592579394578934
1782835374776495900,5.557495849609375,-0.003304019570350647,-0.021854765713214874,0.05860508978366852
1782835374786426000,5.567426025390625,-0.015199294313788414,-0.07386257499456406,0.04387380927801132
1782835374796355800,5.57735595703125,-0.02457355335354805,-0.08425526320934296,0.020641498267650604
1782835374806286000,5.5872861328125,-0.026097945868968964,-0.0824565663933754,-0.006534462794661522
1782835374816216000,5.597216064453125,-0.023446401581168175,-0.08723589032888412,-0.04143856465816498
1782835374826146000,5.60714599609375,-0.020847955718636513,-0.04185030236840248,-0.059595994651317596
1782835374836077000,5.6170771484375,-0.0177310761064291,0.0031672362238168716,-0.05707763880491257
1782835374846007000,5.627007080078125,-0.018296997994184494,0.022557975724339485,-0.037097007036209106
1782835374855937000,5.63693701171875,-0.0249644685536623,0.04284324869513512,-0.002013167832046747
1782835374865867300,5.6468671875,-0.023987622931599617,0.04430771991610527,0.041278112679719925
1782835374875797000,5.656796875,-0.03321637213230133,0.020747007802128792,0.06535214930772781
1782835374885730600,5.66673046875,-0.034498944878578186,-0.005122138187289238,0.06382908672094345
1782835374895660300,5.676660400390625,-0.029058033600449562,-0.03510478883981705,0.04506843537092209
1782835374905590300,5.68659033203125,-0.032629333436489105,-0.046337470412254333,0.02143261395394802
1782835374915520500,5.6965205078125,-0.04405990242958069,-0.03468451276421547,-0.003069424070417881
1782835374925451500,5.706451416015625,-0.0582825168967247,-0.024990340694785118,-0.03810490667819977
1782835374935381500,5.716381591796875,-0.05043692886829376,0.022380631417036057,-0.04992926865816116
1782835374945311200,5.726311279296875,-0.034150898456573486,0.050372589379549026,-0.057165876030921936
1782835374955241500,5.736241455078125,-0.03212563693523407,0.02654365450143814,-0.06406030803918839
1782835374965171500,5.74617138671875,-0.02483389712870121,0.009079444222152233,-0.059060756117105484
1782835374975101400,5.756101318359375,-0.01649642549455166,-0.015181425958871841,-0.042517129331827164
1782835374985031400,5.766031494140625,-0.009198298677802086,-0.04740620777010918,-0.023924537003040314
1782835374994961400,5.77596142578125,0.010616322979331017,-0.048564936965703964,0.01263360120356083
1782835375004891400,5.785891357421875,0.019475329667329788,-0.03959807753562927,0.040833815932273865
1782835375014822400,5.795822509765625,0.025188487023115158,-0.03646082803606987,0.04740225523710251
1782835375024752400,5.80575244140625,0.02820638194680214,-0.005770291667431593,0.039506249129772186
1782835375034682600,5.8156826171875,0.03905126079916954,0.00738391000777483,0.01761453039944172
1782835375044612400,5.8256123046875,0.050632018595933914,0.027240704745054245,0.005998355336487293
1782835375054542300,5.835542236328125,0.046261951327323914,0.053174711763858795,-0.0005230591632425785
1782835375064472300,5.845472412109375,0.03263642266392708,0.03263401240110397,-0.014048455283045769
1782835375074402300,5.85540234375,0.02782323770225048,0.011773551814258099,-0.020361416041851044
1782835375084332500,5.86533251953125,0.029247496277093887,-0.011071044020354748,-0.031071051955223083
1782835375094262300,5.87526220703125,0.023870550096035004,-0.054080531001091,-0.038200441747903824
1782835375104192500,5.885192626953125,0.02277252823114395,-0.06343914568424225,-0.03714583069086075
1782835375114123300,5.895123291015625,0.029540617018938065,-0.05311169847846031,-0.029318301007151604
1782835375124053500,5.905053466796875,0.03133478760719299,-0.04120790213346481,-0.025242865085601807
1782835375133983500,5.9149833984375,0.03616820275783539,-0.012942234054207802,-0.019720274955034256
1782835375143913500,5.92491357421875,0.04037972539663315,0.00024280976504087448,-0.0038145449943840504
1782835375153843500,5.934843505859375,0.03126460313796997,0.0011083539575338364,0.01795491948723793
1782835375163773200,5.944773193359375,0.012556427158415318,-0.012470305897295475,0.0355946309864521
1782835375173703400,5.954703369140625,0.0020068334415555,-0.03371154144406319,0.03389941155910492
1782835375183636500,5.964636474609375,0.0007756538689136505,-0.04631015658378601,0.012927019968628883
1782835375193566200,5.974566162109375,0.011374791152775288,-0.03219635412096977,-0.01846306584775448
1782835375203496400,5.984496337890625,0.019522465765476227,-0.015498332679271698,-0.045045673847198486
1782835375213426400,5.994426513671875,0.015795210376381874,0.0008635725826025009,-0.050478171557188034
1782835375223356400,6.0043564453125,0.006777214352041483,0.02865152806043625,-0.03770804777741432
1782835375233286400,6.014286376953125,-0.006067879498004913,0.035670481622219086,-0.026740441098809242
1782835375243216600,6.024216552734375,-0.007839415222406387,0.031869083642959595,-0.01149703934788704
1782835375253147400,6.0341474609375,0.00000924617052078247,0.04582490026950836,0.001968538388609886
1782835375263077400,6.044077392578125,-0.004445956088602543,0.03186088055372238,0.008713793009519577
1782835375273007400,6.05400732421875,-0.008173197507858276,0.012578888796269894,0.0032944492995738983
1782835375282937300,6.063937255859375,-0.00440562330186367,0.019586730748414993,0.0017844373360276222
1782835375292867300,6.073867431640625,-0.004546607844531536,0.0045063309371471405,-0.008598517626523972
1782835375302797300,6.08379736328125,-0.008456128649413586,-0.00824994407594204,-0.011746106669306755
1782835375312727600,6.0937275390625,-0.011781412176787853,0.012736793607473373,-0.01663975603878498
1782835375322657300,6.1036572265625,-0.017419323325157166,0.001254575327038765,-0.03277505189180374
1782835375332587500,6.11358740234375,-0.021204326301813126,-0.0424642413854599,-0.05721267685294151
1782835375342517200,6.123517333984375,-0.0017464729025959969,-0.055579774081707,-0.06288840621709824
1782835375352448500,6.133448486328125,0.019516263157129288,-0.050551142543554306,-0.05789541080594063
1782835375362378200,6.143378173828125,0.023702751845121384,-0.04354356601834297,-0.05136933550238609
1782835375372308500,6.15330859375,0.023376449942588806,-0.02724825218319893,-0.04397670924663544
1782835375382238500,6.163238525390625,0.024031054228544235,-0.01745474338531494,-0.03347693011164665
1782835375392168400,6.17316845703125,0.01937052235007286,-0.014954036101698875,-0.026820359751582146
1782835375402098400,6.183098388671875,0.013495322316884995,-0.020471306517720222,-0.016926448792219162
1782835375412028400,6.1930283203125,0.007395186461508274,-0.01944401115179062,-0.012399576604366302
1782835375421958400,6.20295849609375,0.00589529424905777,-0.03016802854835987,-0.004817023873329163
1782835375431888400,6.212888427734375,0.0012255795300006866,-0.029703643172979355,0.0016673766076564789
1782835375441819400,6.2228193359375,-0.0030605122447013855,-0.029064219444990158,-0.011001014150679111
1782835375451749400,6.232749267578125,0.002908250316977501,-0.012500415556132793,-0.024724088609218597
1782835375461679400,6.242679443359375,0.008043890818953514,0.015209774486720562,-0.0384119376540184
1782835375471609300,6.252609375,0.006185820326209068,0.01822178065776825,-0.036000557243824005
1782835375481539600,6.26253955078125,0.002828373573720455,0.017961323261260986,-0.016149619594216347
1782835375491469300,6.27246923828125,-0.0017579002305865288,0.0021667154505848885,0.014976352453231812
1782835375501399600,6.282399658203125,-0.009284526109695435,-0.015775000676512718,0.03397347778081894
1782835375511329500,6.29232958984375,-0.009448094293475151,-0.03553518280386925,0.033569592982530594
1782835375521259300,6.30225927734375,-0.004112450405955315,-0.05160868912935257,0.013703211210668087
1782835375531189500,6.312189453125,0.007836321368813515,-0.03871536627411842,-0.0192483551800251
1782835375541120300,6.322120361328125,0.019824273884296417,-0.021149156615138054,-0.052063293755054474
1782835375551050500,6.332050537109375,0.02045551687479019,0.0018689855933189392,-0.061892010271549225
1782835375560980200,6.341980224609375,0.015106026083230972,0.051433343440294266,-0.04019177332520485
1782835375570910500,6.351910400390625,-0.0004844777286052704,0.06713386625051498,-0.005776106379926205
1782835375580840400,6.36184033203125,-0.021886438131332397,0.04694178327918053,0.02171863615512848
1782835375590770400,6.3717705078125,-0.02644686959683895,0.007521737366914749,0.04279351979494095
1782835375600700400,6.381700439453125,-0.016723403707146645,-0.04845524579286575,0.04312828183174133
1782835375610630400,6.39163037109375,-0.0009655924513936043,-0.07390623539686203,0.024704771116375923
1782835375620560400,6.401560302734375,0.012685504741966724,-0.06602993607521057,-0.006103476509451866
1782835375630490400,6.411490478515625,0.021756857633590698,-0.036303747445344925,-0.03668387979269028
1782835375640421400,6.42142138671875,0.007908420637249947,-0.0015316503122448921,-0.061061128973960876
1782835375650351400,6.431351318359375,-0.009732047095894814,0.04338301718235016,-0.057115666568279266
1782835375660281300,6.44128125,-0.03246239200234413,0.0617191419005394,-0.04557272791862488
1782835375670211300,6.45121142578125,-0.04197724163532257,0.04094701260328293,-0.0372488796710968
1782835375680141600,6.4611416015625,-0.02192789688706398,0.0180230550467968,-0.024350926280021667
1782835375690071300,6.4710712890625,0.00017618201673030853,-0.00996345840394497,-0.0073770154267549515
1782835375700001500,6.48100146484375,0.013561495579779148,-0.026720333844423294,0.018638871610164642
1782835375709931300,6.49093115234375,0.010501748882234097,-0.0316307470202446,0.0445440337061882
1782835375719861500,6.500861572265625,0.00015776418149471283,-0.03418072313070297,0.05903402715921402
1782835375729791500,6.51079150390625,-0.017104990780353546,-0.038140639662742615,0.04280655086040497
1782835375739722500,6.520722412109375,-0.0251900814473629,-0.029303736984729767,-0.0014724945649504662
1782835375749652500,6.530652587890625,-0.027809789404273033,-0.02440876141190529,-0.05537732318043709
1782835375759582500,6.54058251953125,-0.018452242016792297,0.009678634814918041,-0.0831032246351242
1782835375769512400,6.550512451171875,-0.0018331874161958694,0.055025532841682434,-0.08871352672576904
1782835375779442400,6.5604423828125,0.0012028161436319351,0.0638139620423317,-0.07147461920976639
1782835375789372400,6.570372314453125,0.004175730049610138,0.04630735516548157,-0.030093269422650337
1782835375799302400,6.580302490234375,0.011614738032221794,0.018742840737104416,0.014560751616954803
1782835375809232400,6.590232421875,0.018512193113565445,-0.03417382016777992,0.047005604952573776
1782835375819162400,6.600162353515625,0.013759249821305275,-0.09498843550682068,0.05286642536520958
1782835375829092600,6.610092529296875,0.007537289056926966,-0.11920106410980225,0.0384599007666111
1782835375839023400,6.6200234375,0.022199854254722595,-0.06823215633630753,0.01992243528366089
1782835375848953600,6.62995361328125,0.027064945548772812,-0.012373466044664383,-0.008702988736331463
1782835375858883300,6.63988330078125,0.00941910594701767,0.015871219336986542,-0.043095581233501434
1782835375868813600,6.6498134765625,-0.006990673951804638,0.028504198417067528,-0.06492238491773605
1782835375878743300,6.659743408203125,-0.013617151416838169,0.024401063099503517,-0.07948055863380432
1782835375888669400,6.66966943359375,-0.02953486517071724,-0.006264969240874052,-0.07708264887332916
1782835375898599700,6.679599609375,-0.04242696240544319,-0.03339219465851784,-0.058443982154130936
1782835375908529400,6.689529296875,-0.038392238318920135,-0.044560596346855164,-0.03374582529067993
1782835375918459400,6.69945947265625,-0.011672213673591614,-0.010681194253265858,-0.0014672493562102318
1782835375928389600,6.7093896484375,0.0026638945564627647,0.022046318277716637,0.02435607835650444
1782835375938320600,6.719320556640625,-0.004129563458263874,0.03109920211136341,0.036172255873680115
1782835375948250600,6.729250732421875,-0.015071656554937363,0.03453168272972107,0.035308096557855606
1782835375958180400,6.739180419921875,-0.02379191294312477,0.03530000522732735,0.01836533471941948
1782835375968110600,6.749110595703125,-0.032298579812049866,0.018665902316570282,0.012227012775838375
1782835375978040600,6.75904052734375,-0.027658555656671524,0.033484261482954025,0.02222238853573799
1782835375987970600,6.768970458984375,-0.030221126973628998,0.03265679255127907,0.032859064638614655
1782835375997900500,6.778900634765625,-0.030034173280000687,0.0007249582558870316,0.03290753811597824
1782835376007830500,6.78883056640625,-0.03020092099905014,-0.015152470208704472,0.029127411544322968
1782835376017760500,6.798760498046875,-0.029996126890182495,-0.024665281176567078,0.007607738487422466
1782835376027690500,6.8086904296875,-0.028647802770137787,-0.029596593230962753,-0.0190899595618248
1782835376037621500,6.81862158203125,-0.017369050532579422,0.0031552286818623543,-0.0240346509963274
1782835376047551700,6.8285517578125,-0.012463953346014023,0.03380768746137619,-0.022510061040520668
1782835376057481500,6.8384814453125,-0.016130059957504272,0.05137363076210022,-0.01070107240229845
1782835376067411500,6.848411376953125,-0.02087555080652237,0.04463779926300049,-0.006492127664387226
1782835376077341400,6.858341552734375,-0.02298823744058609,0.027294499799609184,-0.003504327032715082
1782835376087271400,6.868271484375,-0.020773760974407196,0.0021985284984111786,0.002553406171500683
1782835376097201700,6.87820166015625,-0.018005937337875366,-0.013327434659004211,0.020782476291060448
1782835376107131400,6.88813134765625,-0.011160353198647499,-0.020159650593996048,0.04611411690711975
1782835376117061600,6.8980615234375,-0.002557278610765934,-0.009688899852335453,0.07159417122602463
1782835376126991600,6.90799169921875,-0.002373998984694481,0.013102609664201736,0.07568205893039703
1782835376136922600,6.917922607421875,2.086162567138672e-7,0.02906479872763157,0.05121879279613495
1782835376146852600,6.9278525390625,0.005244704894721508,0.026287347078323364,0.008867563679814339
1782835376156782600,6.937782470703125,0.0058758738450706005,0.014653594233095646,-0.029777299612760544
1782835376166712600,6.947712646484375,0.005499483551830053,0.007702738977968693,-0.03778162598609924
1782835376176642300,6.957642333984375,0.0008900845423340797,-0.009006733074784279,-0.03398396074771881
1782835376186572500,6.967572509765625,-0.01254215743392706,-0.023105304688215256,-0.007834755815565586
1782835376196502500,6.97750244140625,-0.019414711743593216,-0.02843429148197174,0.02778395637869835
1782835376206432500,6.9874326171875,-0.027744822204113007,-0.026543691754341125,0.051681891083717346
1782835376216362500,6.997362548828125,-0.026034008711576462,-0.020723620429635048,0.07326867431402206
1782835376226292700,7.007292724609375,-0.01176538784056902,-0.020350921899080276,0.07895946502685547
1782835376236223500,7.017223388671875,0.003616231493651867,-0.03529125452041626,0.06723169982433319
1782835376246153500,7.027153564453125,0.017665954306721687,-0.024810990318655968,0.05612216144800186
1782835376256083500,7.03708349609375,0.018687808886170387,-0.01712457463145256,0.053677111864089966
1782835376266013700,7.047013671875,0.007300607394427061,-0.008390001952648163,0.03092721849679947
1782835376275943400,7.056943359375,-0.00719524547457695,-0.002833317033946514,0.006756102666258812
1782835376285873400,7.066873291015625,-0.016236817464232445,0.008759792894124985,-0.031842537224292755
1782835376295803600,7.0768037109375,-0.03593488782644272,0.004357587546110153,-0.061511747539043427
1782835376305733400,7.0867333984375,-0.04521344602108002,-0.00338685791939497,-0.07218284904956818
1782835376315663600,7.09666357421875,-0.032076604664325714,-0.019015617668628693,-0.06601603329181671
1782835376325593300,7.10659326171875,-0.005794812925159931,-0.014607008546590805,-0.03174644708633423
1782835376335523600,7.116523681640625,0.015863079577684402,-0.0030685970559716225,0.004943921230733395
1782835376345454300,7.126454345703125,0.021680384874343872,-0.0012273332104086876,0.03541087359189987
1782835376355384600,7.136384521484375,0.024179495871067047,0.0006557879969477654,0.05688740313053131
1782835376365314600,7.146314453125,0.021470364183187485,-0.011605434119701385,0.05359075963497162
1782835376375244500,7.15624462890625,0.023939382284879684,-0.01388829667121172,0.03642614930868149
1782835376385174500,7.166174560546875,0.02551320567727089,-0.01957464963197708,0.016769543290138245
1782835376395104800,7.176104736328125,0.02070620097219944,-0.005980543326586485,0.008094032295048237
1782835376405034500,7.186034423828125,0.003024151548743248,0.0049240197986364365,0.003168189898133278
1782835376414964500,7.195964599609375,-0.011011505499482155,0.0012464597821235657,-0.010099411942064762
1782835376424894500,7.20589453125,-0.0144107136875391,-0.021337075158953667,-0.028767745941877365
1782835376434824400,7.215824462890625,0.0064447661861777306,-0.019277386367321014,-0.03560594469308853
1782835376444755500,7.22575537109375,0.02329386956989765,-0.013816465623676777,-0.01806502230465412
1782835376454685400,7.235685546875,0.01972949504852295,-0.03660273551940918,-0.0006362311542034149
1782835376464615700,7.24561572265625,0.0068258605897426605,-0.05167996883392334,0.01701207458972931
1782835376474545400,7.25554541015625,0.007564887870103121,-0.03134992718696594,0.020890168845653534
1782835376484475600,7.2654755859375,0.017271937802433968,-0.012768798507750034,0.016283303499221802
1782835376494405600,7.275405517578125,0.010748525150120258,-0.005581193137913942,0.005453293211758137
1782835376504335600,7.285335693359375,0.0024800868704915047,0.013257280923426151,-0.006779897958040237
1782835376514265600,7.295265625,0.007353138644248247,0.03327546268701553,-0.016040241345763206
1782835376524195300,7.3051953125,0.005240547936409712,0.04052750766277313,-0.02046281471848488
1782835376534125600,7.31512548828125,-0.004117799922823906,0.03516336530447006,-0.021089456975460052
1782835376544055600,7.3250556640625,-0.009482268244028091,0.022166192531585693,-0.008031043224036694
1782835376553986600,7.334986572265625,-0.009669754654169083,-0.007165862713009119,0.000415971502661705
1782835376563916500,7.34491650390625,-0.00016816984862089157,-0.03233228996396065,0.01067904569208622
1782835376573846500,7.354846435546875,0.009896714240312576,-0.04390132799744606,0.023959696292877197
1782835376583776500,7.364776611328125,0.021578099578619003,-0.03212626650929451,0.029079662635922432
1782835376593706500,7.37470654296875,0.023929670453071594,-0.012985859997570515,0.023005260154604912
1782835376603636500,7.384636474609375,0.01820169761776924,0.010248453356325626,0.01106234360486269
1782835376613566700,7.394566650390625,0.006117603275924921,0.014516170136630535,-0.009557180106639862
1782835376623496400,7.404496337890625,-0.008658574894070625,0.003521277569234371,-0.02913772687315941
1782835376633426400,7.414426513671875,-0.017543146386742592,-0.004899904131889343,-0.03726915642619133
1782835376643356700,7.424356689453125,-0.017824718728661537,-0.01968606561422348,-0.02738535776734352
1782835376653287400,7.434287353515625,-0.010392902418971062,-0.03456461429595947,-0.0038153156638145447
1782835376663217700,7.4442177734375,0.011749769560992718,-0.020381677895784378,0.029107943177223206
1782835376673147400,7.4541474609375,0.02839585766196251,0.004566814750432968,0.05705409124493599
1782835376683077600,7.46407763671875,0.03395611047744751,0.019029878079891205,0.06842080503702164
1782835376693007400,7.47400732421875,0.03890533000230789,0.020355064421892166,0.06203614920377731
1782835376702937600,7.4839375,0.03703441098332405,0.01228977832943201,0.043177530169487
1782835376712867600,7.49386767578125,0.0376804918050766,-0.002283838577568531,0.029497141018509865
1782835376722797600,7.503797607421875,0.027974450960755348,-0.02101203426718712,0.02500680461525917
1782835376732727600,7.5137275390625,0.01435291487723589,-0.03932632505893707,0.026909098029136658
1782835376742657500,7.523657470703125,0.003390887752175331,-0.054081279784440994,0.03574599325656891
1782835376752587500,7.53358740234375,-0.004208974540233612,-0.047523777931928635,0.03515823185443878
1782835376762518500,7.5435185546875,-0.00808333232998848,-0.026207856833934784,0.012362578883767128
1782835376772448500,7.553448486328125,-0.003922143951058388,-0.008781194686889648,-0.016172926872968674
1782835376782378500,7.56337841796875,0.0020300978794693947,0.006464362144470215,-0.030047208070755005
1782835376792308500,7.57330859375,0.0028863046318292618,0.020849693566560745,-0.02951803430914879
1782835376802238500,7.583238525390625,-0.006577988155186176,0.015633702278137207,-0.011237671598792076
1782835376812168700,7.593168701171875,-0.02456551045179367,0.008910284377634525,0.032216064631938934
1782835376822098400,7.603098388671875,-0.032643526792526245,0.0036384370177984238,0.06337617337703705
1782835376832028700,7.613028564453125,-0.039934996515512466,-0.030362673103809357,0.06514450907707214
1782835376841958400,7.62295849609375,-0.025981001555919647,-0.036274105310440063,0.043778371065855026
1782835376851888400,7.632888427734375,0.004844288807362318,-0.022785991430282593,0.0069780126214027405
1782835376861818600,7.642818603515625,0.01888604275882244,-0.029381785541772842,-0.03375565633177757
1782835376871749600,7.65274951171875,0.013650001958012581,-0.022182729095220566,-0.05560290068387985
1782835376881679600,7.6626796875,-0.0007200166583061218,-0.0078709926456213,-0.05094779282808304
1782835376891614200,7.6726142578125,-0.028725553303956985,0.010777526535093784,-0.02159922569990158
1782835376901544200,7.682544189453125,-0.046724021434783936,0.026475854218006134,0.009805746376514435
1782835376911474200,7.69247412109375,-0.04661563038825989,0.0123674925416708,0.032971784472465515
1782835376921404200,7.702404052734375,-0.030408650636672974,0.0028801439329981804,0.03983738273382187
1782835376931334100,7.712334228515625,0.0032656900584697723,-0.006850780453532934,0.02510983496904373
1782835376941264100,7.72226416015625,0.028295885771512985,-0.0207318514585495,0.008319495245814323
1782835376951194000,7.732194091796875,0.04143591970205307,-0.007395273074507713,-0.0015483144670724869
1782835376961124000,7.7421240234375,0.026779044419527054,0.01816839724779129,-0.0007889093831181526
1782835376971054000,7.75205419921875,-0.0008651008829474449,0.02724231779575348,-0.0012469734065234661
1782835376980985000,7.761985107421875,-0.01978978142142296,0.018213918432593346,-0.010806448757648468
1782835376990915000,7.7719150390625,-0.023490510880947113,-0.012832148931920528,-0.01774691231548786
1782835377000845300,7.78184521484375,-0.0162171870470047,-0.0566849410533905,-0.021157588809728622
1782835377010775000,7.791775146484375,-0.005855360999703407,-0.0720260813832283,-0.019744517281651497
1782835377020705300,7.801705322265625,0.0013276692479848862,-0.05735914409160614,-0.01583283022046089
1782835377030635000,7.811635009765625,0.0021202266216278076,-0.026945311576128006,-0.020195886492729187
1782835377040565200,7.821565185546875,0.01151600107550621,0.017274491488933563,-0.02525659091770649
1782835377050495200,7.8314951171875,0.010741020552814007,0.03759308159351349,-0.020600853487849236
1782835377060425000,7.841425048828125,-0.0009577972814440727,0.036216940730810165,-0.009432880207896233
1782835377070355200,7.851355224609375,-0.009799491614103317,0.02324814721941948,-0.0008058366365730762
1782835377080285200,7.86128515625,-0.012649141252040863,0.008979152888059616,0.011899523437023163
1782835377090216200,7.87121630859375,-0.014941589906811714,0.012810111045837402,0.029550421983003616
1782835377100146200,7.881146240234375,-0.01826506294310093,0.023783713579177856,0.04170107841491699
1782835377110076200,7.891076171875,-0.0179595984518528,0.0051945848390460014,0.03336618095636368
1782835377120006100,7.901006103515625,-0.007848955690860748,-0.00556626683101058,0.010827680118381977
1782835377129936100,7.91093603515625,0.012823832221329212,-0.010044371709227562,-0.010507168248295784
1782835377139866000,7.9208662109375,0.02443048730492592,-0.03579522669315338,-0.025019217282533646
1782835377149796400,7.93079638671875,0.01805701106786728,-0.03192698955535889,-0.021825287491083145
1782835377159726000,7.94072607421875,0.004014171659946442,-0.016010889783501625,-0.01400364376604557
1782835377169656000,7.950656005859375,-0.009088315069675446,-0.004394714720547199,-0.01707559823989868
1782835377179586000,7.9605859375,-0.001595567911863327,0.0235670767724514,-0.010547236539423466
1782835377189516000,7.97051611328125,0.013584716245532036,0.04837388917803764,-0.008530690334737301
1782835377199447000,7.980447021484375,0.01598711498081684,0.022195156663656235,-0.003693831153213978
1782835377209377000,7.990376953125,0.01610109955072403,-0.02403891459107399,0.004065554589033127
1782835377219307300,8.000307373046875,0.019403258338570595,-0.03545624762773514,0.016697753220796585
1782835377229237000,8.010237060546874,0.016390956938266754,-0.03336966037750244,0.02760738879442215
1782835377239167200,8.020167236328126,0.0010862154886126518,-0.02422357350587845,0.033837925642728806
1782835377249097200,8.03009716796875,-0.005963969975709915,0.009855033829808235,0.032817136496305466
1782835377259027200,8.040027099609375,0.005016271490603685,0.030560515820980072,0.022075094282627106
1782835377268957200,8.049957275390625,0.010942603461444378,0.027318648993968964,0.007903083227574825
1782835377278887200,8.05988720703125,0.014744456857442856,0.025808339938521385,-0.004285133443772793
1782835377288817200,8.069817138671874,0.008258327841758728,0.011587059125304222,-0.002802551258355379
1782835377298747100,8.0797470703125,-0.01194229070097208,-0.015366503968834877,-0.0022900989279150963
1782835377308678100,8.08967822265625,-0.035654544830322266,-0.0408841148018837,-0.004698395263403654
1782835377318608100,8.099608154296876,-0.03924674913287163,-0.03715266287326813,-0.007839224301278591
1782835377328538000,8.1095380859375,-0.026889149099588394,-0.004261289723217487,-0.007962528616189957
1782835377338468000,8.119468017578125,-0.018059002235531807,0.03253088518977165,-0.016230661422014236
1782835377348398300,8.1293984375,-0.007635122165083885,0.048192668706178665,-0.016824014484882355
1782835377358328000,8.139328125,-0.002517486922442913,0.035446155816316605,-0.01275601051747799
1782835377368258300,8.14925830078125,-0.004318050108850002,0.0016634240746498108,0.0012205243110656738
1782835377378188000,8.15918798828125,-0.007668487727642059,-0.023556172847747803,0.020437560975551605
1782835377388118300,8.1691181640625,-0.004040198400616646,-0.04038388654589653,0.040352944284677505
1782835377398048300,8.17904833984375,-0.008371563628315926,-0.0461680069565773,0.045279793441295624
1782835377407978000,8.18897802734375,-0.014188438653945923,-0.03345460817217827,0.03357600048184395
1782835377417908200,8.198908203125,-0.010906158946454525,-0.015235706232488155,-0.0004509962163865566
1782835377427839000,8.2088388671875,-0.002759017050266266,0.005011775530874729,-0.04038536176085472
1782835377437769200,8.218769287109374,-0.0010432759299874306,0.010294580832123756,-0.06727807223796844
1782835377447699000,8.228698974609374,-0.000020355917513370514,0.02933165431022644,-0.06618910282850266
1782835377457629200,8.238629150390626,0.0022701341658830643,0.03700343891978264,-0.028992604464292526
1782835377467559200,8.24855908203125,0.003766564652323723,0.03302653878927231,0.019646305590867996
1782835377477489200,8.2584892578125,0.0010833917185664177,0.007777468301355839,0.06461801379919052
1782835377487419100,8.268419189453125,0.007591890636831522,-0.019469333812594414,0.08881229907274246
1782835377497349400,8.278349365234375,0.02178964950144291,-0.03053291141986847,0.08239468932151794
1782835377507279000,8.288279052734374,0.02973572164773941,-0.021615583449602127,0.056654974818229675
1782835377517209000,8.298208984375,0.028389867395162582,0.016338154673576355,0.02724788710474968
1782835377527139000,8.30813916015625,0.023281922563910484,0.03649109601974487,0.008528263308107853
1782835377537069000,8.318069091796875,0.012634092010557652,0.04145437851548195,0.001989813521504402
1782835377547000000,8.328,0.01138773187994957,0.049130409955978394,0.007465538568794727
1782835377556930000,8.337929931640625,0.010683572851121426,0.034397050738334656,0.009272617287933826
1782835377566860300,8.3478603515625,0.006670988164842129,0.0067329322919249535,0.0015521124005317688
1782835377576790000,8.3577900390625,0.008955533616244793,-0.027932096272706985,-0.0016607940196990967
1782835377586720300,8.36772021484375,-0.0025522522628307343,-0.06926701962947845,-0.016986753791570663
1782835377596650200,8.377650146484376,-0.008280531503260136,-0.07068809121847153,-0.024403586983680725
1782835377606580200,8.387580322265626,-0.0028519434854388237,-0.041847653687000275,-0.02438255026936531
1782835377616510200,8.39751025390625,-0.005239695310592651,-0.02538461983203888,-0.022021904587745667
1782835377626440000,8.40743994140625,-0.010992921888828278,-0.0032734591513872147,-0.019503086805343628
1782835377636370200,8.4173701171875,-0.0029013724997639656,0.025020554661750793,-0.013130884617567062
1782835377646300200,8.427300048828124,-0.008754733949899673,0.03006458282470703,-0.009057579562067986
1782835377656231200,8.437231201171874,-0.024028800427913666,0.006185171194374561,-0.00034001050516963005
1782835377666161200,8.4471611328125,-0.02693803980946541,0.0022807102650403976,0.010245788842439651
1782835377676091100,8.457091064453126,-0.02046998031437397,-0.00027814507484436035,0.02365855500102043
1782835377686021000,8.467021240234375,-0.013388369232416153,-0.015589723363518715,0.024272948503494263
1782835377695951000,8.476951171875,-0.001938164234161377,-0.003636205568909645,0.030795440077781677
1782835377705881000,8.486881103515625,0.01602725312113762,-0.006544111296534538,0.0278630331158638
1782835377715811300,8.496811279296875,0.011773006059229374,-0.0369432307779789,-0.000886864960193634
1782835377725741000,8.506740966796874,0.005378489848226309,-0.05827541649341583,-0.03292282670736313
1782835377735671000,8.516671142578126,-0.0050974152982234955,-0.04148443788290024,-0.04734344780445099
1782835377745601300,8.526601318359376,-0.015557246282696724,-0.0384146124124527,-0.04879966378211975
1782835377755531000,8.536531005859375,-0.02375205047428608,-0.027089010924100876,-0.02644515410065651
1782835377765461200,8.546461181640625,-0.015366023406386375,0.00881679356098175,-0.0026679192669689655
1782835377775392000,8.55639208984375,0.008298826403915882,0.02151607722043991,0.018044017255306244
1782835377785322200,8.566322265625,0.027372652664780617,0.0020574238151311874,0.016857046633958817
1782835377795252000,8.576251953125,0.032856423407793045,-0.014665020629763603,0.005407434888184071
1782835377805182200,8.58618212890625,0.035862866789102554,-0.022304829210042953,-0.0019929572008550167
1782835377815112200,8.5961123046875,0.02550438791513443,-0.036191027611494064,-0.0006965468637645245
1782835377825042200,8.606042236328125,0.008504100143909454,-0.01582104153931141,0.015087475068867207
1782835377834972200,8.61597216796875,0.000334177166223526,0.02127484604716301,0.03327042981982231
1782835377844902100,8.625902099609375,0.00046626944094896317,0.04642947018146515,0.039672136306762695
1782835377854832000,8.63583203125,0.005174691788852215,0.049520500004291534,0.025261059403419495
1782835377864762000,8.64576220703125,0.020417027175426483,0.04052647203207016,0.008672494441270828
1782835377874692000,8.655692138671874,0.029130995273590088,0.015891075134277344,-0.005800958722829819
1782835377884617700,8.66561767578125,0.02264300175011158,-0.028153613209724426,-0.006029990501701832
1782835377894549000,8.675549072265625,0.01484753005206585,-0.028764646500349045,0.007953628897666931
1782835377904478700,8.685478759765624,0.015863526612520218,-0.010688175447285175,0.018436895683407784
1782835377914409000,8.695408935546874,0.006287913769483566,-0.018861008808016777,0.02280416525900364
1782835377924339000,8.7053388671875,-0.012053276412189007,-0.00040796585381031036,0.006130114197731018
1782835377934268700,8.7152685546875,-0.01753108762204647,0.008045549504458904,-0.01512092910706997
1782835377944199000,8.725198974609375,-0.017924169078469276,0.015082686208188534,-0.02866842970252037
1782835377954128600,8.735128662109375,-0.015136568807065487,0.03731803596019745,-0.03061963990330696
1782835377964059000,8.745058837890625,-0.011579916812479496,0.023570530116558075,-0.022224290296435356
1782835377973988900,8.75498876953125,-0.00200737826526165,-0.00003785919398069382,-0.0011736401356756687
1782835377983918800,8.7649189453125,0.010708683170378208,-0.007712823338806629,0.02645958587527275
1782835377993848800,8.774848876953126,0.014387630857527256,-0.017419710755348206,0.049570076167583466
1782835378003778800,8.78477880859375,0.007282050792127848,-0.03308255970478058,0.05198609456419945
1782835378013709800,8.794709716796875,-0.0011440850794315338,-0.020089516416192055,0.05599027872085571
1782835378023639800,8.804639892578125,-0.005822991952300072,0.000009094364941120148,0.040777772665023804
1782835378033569800,8.81456982421875,-0.014012898318469524,0.020756345242261887,0.015039090998470783
1782835378043499800,8.824499755859375,-0.015396411530673504,0.028980188071727753,-0.022667275741696358
1782835378053429800,8.8344296875,-0.01316172443330288,0.03408246859908104,-0.045665185898542404
1782835378063359700,8.84435986328125,-0.01255798526108265,0.013643506914377213,-0.056375354528427124
1782835378073290000,8.8542900390625,-0.015672247856855392,-0.005627538543194532,-0.04770652949810028
1782835378083219700,8.8642197265625,-0.009361089207231998,-0.005011549219489098,-0.009689372032880783
1782835378093150000,8.87414990234375,-0.002651539631187916,0.012098290957510471,0.03809136897325516
1782835378103079700,8.88407958984375,0.0012619756162166595,0.022935226559638977,0.07718470692634583
1782835378113010000,8.894010009765625,0.009476114995777607,0.021637264639139175,0.09576690942049026
1782835378122940000,8.90393994140625,0.016037078574299812,0.0007170708850026131,0.08011151850223541
1782835378132871000,8.913870849609374,0.01359849888831377,-0.032020073384046555,0.03708760812878609
1782835378142801000,8.92380078125,0.00616401806473732,-0.024539252743124962,-0.014967871829867363
1782835378152730600,8.933730712890625,-0.009311297908425331,-0.016758468002080917,-0.06513366103172302
1782835378162660900,8.943660888671875,-0.024268142879009247,-0.005434173624962568,-0.09938804060220718
1782835378172590800,8.9535908203125,-0.033129628747701645,0.009583700448274612,-0.09885955601930618
1782835378182520800,8.963520751953125,-0.028545796871185303,0.010259076952934265,-0.08328485488891602
1782835378192450800,8.973450927734374,-0.0221351720392704,-0.00651179812848568,-0.055791065096855164
1782835378202380800,8.983380859375,-0.014302547089755535,-0.017056051641702652,-0.030422059819102287
1782835378212310800,8.993310791015626,-0.007158274762332439,-0.03687712922692299,-0.02166106551885605
1782835378222241000,9.003240966796875,-0.013709117658436298,-0.04980118200182915,-0.019392050802707672
1782835378232170800,9.013170654296875,-0.02399408258497715,-0.025784719735383987,-0.0295158289372921
1782835378242100700,9.023100830078125,-0.02755073271691799,0.014308636076748371,-0.04540771245956421
1782835378252031000,9.033031005859375,-0.020318105816841125,0.06944716721773148,-0.05429563671350479
1782835378261962000,9.0429619140625,-0.02287713810801506,0.11604050546884537,-0.05472440645098686
1782835378271891700,9.0528916015625,-0.028482994064688683,0.11411342024803162,-0.05605132505297661
1782835378281821700,9.06282177734375,-0.020658625289797783,0.0694868415594101,-0.05089890584349632
1782835378291752000,9.072751953125,-0.004591377452015877,0.03382454812526703,-0.04313967749476433
1782835378301681700,9.082681640625,-0.005581807345151901,-0.014915293082594872,-0.04581322520971298
1782835378311612000,9.09261181640625,-0.01742037571966648,-0.05994338542222977,-0.048964373767375946
1782835378321542000,9.1025419921875,-0.017009982839226723,-0.07031986117362976,-0.04567217081785202
1782835378331472000,9.112471923828124,-0.004200290888547897,-0.04408979415893555,-0.03174678236246109
1782835378341401900,9.12240185546875,0.007946918718516827,-0.011280713602900505,-0.0009981920011341572
1782835378351331600,9.13233154296875,0.013424745760858059,0.005105785094201565,0.026391535997390747
1782835378361261800,9.14226171875,0.005860303528606892,0.02706541121006012,0.0230918787419796
1782835378371191800,9.15219189453125,-0.0030227741226553917,0.04073869809508324,-0.009351310320198536
1782835378381122800,9.162122802734375,-0.0077679939568042755,0.05688650533556938,-0.06270214915275574
1782835378391052800,9.172052734375,-0.007114218547940254,0.03660687804222107,-0.10793601721525192
1782835378400982800,9.181982666015625,-0.007436992600560188,0.029163077473640442,-0.11603309214115143
1782835378410912800,9.191912841796874,-0.01691329851746559,0.02572675049304962,-0.08985167741775513
1782835378420843000,9.201843017578126,-0.020013216882944107,0.04497474804520607,-0.03452637791633606
1782835378430772700,9.211772705078126,-0.019520334899425507,0.09226758778095245,0.012306276708841324
1782835378440703000,9.221702880859375,0.0034965667873620987,0.1427619308233261,0.041372813284397125
1782835378450632700,9.2316328125,0.026738077402114868,0.14747300744056702,0.04894772171974182
1782835378460562700,9.241562744140625,0.04244140908122063,0.09986555576324463,0.04231218993663788
1782835378470493000,9.251492919921875,0.04015399143099785,0.023740004748106003,0.025057796388864517
1782835378480422700,9.261422607421874,0.03936063498258591,-0.02207009121775627,0.013662663288414478
1782835378490353000,9.271352783203126,0.02525971084833145,-0.043200891464948654,0.005895945243537426
1782835378500283000,9.281282958984375,0.013523957692086697,-0.030132494866847992,-0.0009611616842448711
1782835378510214000,9.2912138671875,-0.003975415602326393,-0.012273046188056469,-0.006238153204321861
1782835378520144000,9.301143798828125,-0.008355516940355301,-0.001888049766421318,-0.012158893048763275
1782835378530073900,9.311073974609375,-0.002198459580540657,-0.005373611114919186,-0.020863031968474388
1782835378540001000,9.3210009765625,0.013561595231294632,-0.0027413424104452133,-0.020978879183530807
1782835378549930800,9.3309306640625,0.03401261568069458,-0.0034694187343120575,0.004077198915183544
1782835378559860700,9.34086083984375,0.041560813784599304,-0.014538847841322422,0.04789072647690773
1782835378569790700,9.350790771484375,0.03258321434259415,-0.01584620028734207,0.0905889943242073
1782835378579722000,9.360721923828125,0.017450066283345222,-0.02016185224056244,0.11087508499622345
1782835378589651700,9.370651611328125,0.0170908160507679,-0.008775000460445881,0.08640110492706299
1782835378599581700,9.380581787109374,0.017013318836688995,0.014021124690771103,0.027847249060869217
1782835378609512000,9.390511962890624,0.011667574755847454,0.007555187679827213,-0.04481536149978638
1782835378619441700,9.400441650390626,0.011243066750466824,-0.014290189370512962,-0.08884433656930923
1782835378629372000,9.410371826171875,0.004746798425912857,-0.02016667276620865,-0.09349516034126282
1782835378639302000,9.420302001953125,-0.007286162115633488,-0.0256477240473032,-0.06718792021274567
1782835378649232000,9.43023193359375,-0.01616627350449562,-0.014696331694722176,-0.02776547148823738
1782835378659161900,9.440161865234375,-0.013757443055510521,-0.0049939025193452835,0.013136954046785831
1782835378669091600,9.450091552734374,-0.0009944820776581764,0.01044089999049902,0.028853407129645348
1782835378679021800,9.460021728515626,0.01120119821280241,0.011594048701226711,0.03962695598602295
1782835378688951800,9.469951904296876,0.015617357566952705,-0.006190321873873472,0.04103238135576248
1782835378698882800,9.4798828125,0.005359394010156393,-0.02537892945110798,0.03468713164329529
1782835378708812800,9.489812744140625,-0.005459233187139034,-0.018955465406179428,0.027278129011392593
1782835378718742800,9.49974267578125,-0.007735970430076122,0.012659184634685516,0.012871229089796543
1782835378728672800,9.5096728515625,-0.009969067759811878,0.022639241069555283,-0.005620680283755064
1782835378738602800,9.519602783203124,-0.01836947724223137,0.025592952966690063,-0.033444322645664215
1782835378748532700,9.52953271484375,-0.023561500012874603,0.011636163108050823,-0.05815473198890686
1782835378758463000,9.539462890625,-0.025453943759202957,-0.017872992902994156,-0.07333235442638397
1782835378768392700,9.549392822265625,-0.02362312749028206,-0.036894284188747406,-0.06976264715194702
1782835378778323000,9.559322998046875,-0.020645447075366974,-0.045233435928821564,-0.05224916338920593
1782835378788253000,9.5692529296875,-0.02130890265107155,-0.029056157916784286,-0.031138956546783447
1782835378798182700,9.5791826171875,-0.010369169525802135,-0.015370437875390053,-0.006960917264223099
1782835378808113000,9.58911279296875,-0.010069754905998707,-0.005830693989992142,0.01642482914030552
1782835378818043000,9.59904296875,-0.01243197824805975,-0.012926153838634491,0.035599056631326675
1782835378827972900,9.608972900390626,-0.009703420102596283,-0.008729476481676102,0.052496008574962616
1782835378837903600,9.618903564453126,0.000496487133204937,0.014528973028063774,0.05991557613015175
1782835378847833900,9.628833740234375,0.0033073686063289642,0.041174691170454025,0.04965181648731232
1782835378857763800,9.638763916015625,0.004674902185797691,0.05884556472301483,0.03337457776069641
1782835378867693800,9.64869384765625,-0.0031222617253661156,0.05176704376935959,0.02015332505106926
1782835378877623800,9.658623779296875,-0.02196306362748146,0.025067787617444992,0.009601082652807236
1782835378887554600,9.668554443359374,-0.027600914239883423,-0.003955252468585968,0.000673491507768631
1782835378897484500,9.678484619140624,-0.019191987812519073,-0.010854704305529594,-0.011512335389852524
1782835378907414500,9.68841455078125,-0.01109535712748766,-0.010509815998375416,-0.018049132078886032
1782835378917344500,9.698344482421875,-0.010664192028343678,-0.0027696043252944946,-0.022210586816072464
1782835378927274500,9.7082744140625,-0.01186521165072918,0.005944316275417805,-0.017204318195581436
1782835378937204500,9.71820458984375,-0.005150850862264633,0.010343058966100216,0.007805159315466881
1782835378947134500,9.728134521484375,-0.006270678713917732,0.03403206914663315,0.04120154678821564
1782835378957064700,9.738064697265624,-0.01974334567785263,0.03914320841431618,0.06854049116373062
1782835378966995500,9.747995361328124,-0.020188529044389725,0.02450272999703884,0.07302192598581314
1782835378976925700,9.75792578125,-0.02117736265063286,0.01221916452050209,0.05906696617603302
1782835378986855400,9.76785546875,-0.02101409062743187,-0.0004657916724681854,0.024250799790024757
1782835378996785700,9.77778564453125,-0.01668459177017212,-0.00005140341818332672,-0.009505833499133587
1782835379006715600,9.787715576171875,-0.012330533005297184,0.020020663738250732,-0.03085361048579216
1782835379016645400,9.797645263671875,-0.01435480173677206,0.006664111278951168,-0.04750742018222809
1782835379026575600,9.80757568359375,-0.01269215065985918,-0.014192008413374424,-0.04472414404153824
1782835379036505300,9.81750537109375,-0.007156503386795521,-0.030877243727445602,-0.03178011253476143
1782835379046435600,9.827435546875,-0.00857838336378336,-0.0595003142952919,-0.02538946270942688
1782835379056365600,9.837365478515625,-0.007361053489148617,-0.06135813519358635,-0.030652401968836784
1782835379066295600,9.847295654296875,-0.013361698016524315,-0.02579532191157341,-0.047584716230630875
1782835379076225500,9.8572255859375,-0.03381477668881416,-0.007628567982465029,-0.06948815286159515
1782835379086155500,9.867155517578125,-0.05685669183731079,0.011800204403698444,-0.06185459345579147
1782835379096086500,9.87708642578125,-0.07716595381498337,0.030379481613636017,-0.02729768306016922
1782835379106016500,9.8870166015625,-0.07758033275604248,0.057529546320438385,-0.018173258751630783
1782835379115946500,9.896946533203124,-0.06325758993625641,0.02947527915239334,-0.04064341261982918
1782835379125876500,9.90687646484375,-0.026832163333892822,0.016116779297590256,-0.08431974798440933
1782835379135806500,9.916806396484375,0.009546617045998573,0.03391521796584129,-0.1423196643590927
1782835379145736400,9.926736328125,0.04371419921517372,0.1801154762506485,-0.07839202880859375
1782835379155666700,9.936666748046875,-0.0352565161883831,0.06347036361694336,0.027444656938314438
1782835379165596400,9.946596435546875,-0.0763557031750679,-0.21548554301261902,0.08107691258192062
1782835379175526700,9.956526611328124,-0.024092497304081917,-0.3246724605560303,0.05426313728094101
1782835379185460500,9.96646044921875,0.04512063413858414,-0.2628958225250244,-0.001749310176819563
1782835379195390500,9.976390380859375,0.05357510596513748,-0.11750160902738571,-0.07292548567056656
1782835379205320700,9.98632080078125,0.041615717113018036,0.02064061351120472,-0.15203675627708435
1782835379215250400,9.99625048828125,0.020921355113387108,0.17361392080783844,-0.19043608009815216
1782835379225180700,10.0061806640625,0.006568172015249729,0.30789151787757874,-0.1642497479915619
1782835379235110400,10.0161103515625,-0.04779360443353653,0.20022816956043243,-0.1330321580171585
1782835379245040400,10.026040283203125,-0.03920375928282738,-0.056968189775943756,-0.08683677762746811
1782835379254970600,10.035970703125,0.045346278697252274,-0.17416219413280487,-0.028811290860176086
