time,seconds_elapsed,z,y,x
1782832015362193700,0.081193603515625,-0.05730418797731399,-0.07467833852984476,0.042644196320883926
1782832015372123000,0.091122802734375,-0.09202420370280742,-0.03431181395051535,0.11039790951958857
1782832015382051600,0.101051513671875,-0.08230068206787108,-0.0642366038892651,0.11046943125268444
1782832015391980500,0.11098046875,-0.06763853498697281,-0.10736488023293204,0.08827950988230295
1782832015401909500,0.120909423828125,-0.07168576455116271,-0.09563924326165579,0.10366907618860713
1782832015411838700,0.130838623046875,-0.05868190607130527,-0.10382003809977322,0.09487587594003416
1782832015421767700,0.140767578125,-0.04851531684398651,-0.13236587696867064,0.04931983815990388
1782832015431696600,0.150696533203125,-0.06587561696767806,-0.09725244147880002,0.057819343558372926
1782832015441625600,0.16062548828125,-0.11421265463531016,-0.006973676649990375,0.13892488842438905
1782832015451553500,0.170553466796875,-0.12574176438748835,0.016960259963927093,0.15707316058799622
1782832015461482800,0.180482666015625,-0.07322773329615592,-0.049780642338376486,0.07344797931755892
1782832015471411700,0.19041162109375,-0.048691842454671855,-0.09012826128783635,0.03429732420085929
1782832015481340700,0.200340576171875,-0.07862462390363216,-0.05799259493316058,0.08178229335010982
1782832015491269600,0.21026953125,-0.09553718025982379,-0.050140780887659636,0.12092895727828144
1782832015501198800,0.22019873046875,-0.07773088993430137,-0.09592260851399041,0.10358891449132934
1782832015511127800,0.2301279296875,-0.07503975115418433,-0.1036024863589555,0.09134088848060928
1782832015521056800,0.240056884765625,-0.07669336358010768,-0.0872731184518896,0.09287868337398394
1782832015530985500,0.2499853515625,-0.06472936954200267,-0.10135255200769752,0.05805315231424756
1782832015540914400,0.25991455078125,-0.036303485524654386,-0.1102666021569632,0.019393970508920028
1782832015550843000,0.2698427734375,-0.06608429128229618,-0.05897334046566393,0.06801124075688421
1782832015560771600,0.279771484375,-0.1198100362509489,0.01958531237953575,0.12732899704631417
1782832015570700500,0.289700439453125,-0.10634849713146687,0.0005361532741371775,0.09358041103570722
1782832015580629500,0.29962939453125,-0.05248363595306873,-0.06577373206235934,0.03831217673225328
1782832015590558700,0.309558837890625,-0.06505903988778591,-0.0750999021098949,0.04722190689942799
1782832015600487700,0.31948779296875,-0.08900339457690715,-0.0473178050219547,0.08886002231715247
1782832015610416600,0.329416748046875,-0.09439210187792778,-0.059965666838106696,0.11771276257759891
1782832015620345600,0.339345703125,-0.07658698059618473,-0.09914463016726076,0.10393820285303518
1782832015630274800,0.34927490234375,-0.08063070302903652,-0.0879548262388911,0.10679241410722023
1782832015640203800,0.359203857421875,-0.07061141331791877,-0.0877946763742715,0.10362437853035517
1782832015650131700,0.369131591796875,-0.05071370367109775,-0.1050749974637758,0.055497668278310444
1782832015660060700,0.379060791015625,-0.05715279680788517,-0.08752575063924305,0.042087137826858086
1782832015669989600,0.38898974609375,-0.0933668504834175,-0.020891113731497896,0.09802315185666084
1782832015679918800,0.3989189453125,-0.12194763280153274,0.025109537427418397,0.12313860528492368
1782832015689847800,0.408847900390625,-0.07720891188681125,-0.017015255253907523,0.06723878594650887
1782832015699776800,0.41877685546875,-0.04279577015340328,-0.0694965748106595,0.0242657138642855
1782832015709705500,0.42870556640625,-0.0574649314969778,-0.06106207007295452,0.04391036206549033
1782832015719634700,0.438634765625,-0.0826093096256256,-0.05304788680628408,0.0808496612756513
1782832015729563600,0.448563720703125,-0.07183774024248123,-0.08147599474675953,0.08782059626681729
1782832015739492600,0.45849267578125,-0.0730371791601181,-0.09371022969414479,0.08566151853678748
1782832015749421600,0.468421630859375,-0.08935352318882941,-0.07538595250966026,0.09983456692649051
1782832015759349500,0.478349609375,-0.06900806977450848,-0.07725287889270112,0.0962024940344505
1782832015769278700,0.48827880859375,-0.05255202501416206,-0.10088844162728637,0.0476427169942297
1782832015779207700,0.498207763671875,-0.06991407870352268,-0.06591198975557927,0.069008946557343
1782832015789136600,0.50813671875,-0.11031798528432846,0.0034176432630149065,0.1195822736433707
1782832015799065600,0.518065673828125,-0.09924830973744392,0.00306888062851649,0.11447758918181061
1782832015808994800,0.527994873046875,-0.07066928098499775,-0.04636428998967167,0.06344416117020882
1782832015818923800,0.537923828125,-0.05705459713041782,-0.08122404754599556,0.0411321660564281
1782832015828852700,0.547852783203125,-0.0666319882929325,-0.06222640114459209,0.07386224094056523
1782832015838781700,0.55778173828125,-0.07621230206489563,-0.058744500145851634,0.07833886576481162
1782832015848710700,0.567710693359375,-0.07217500937283039,-0.08103978615342639,0.06970023502344265
1782832015858638800,0.577638916015625,-0.07247779171168804,-0.07996002809270285,0.07570061708255671
1782832015868567800,0.58756787109375,-0.07412965057194232,-0.060068040367192585,0.07850449552214704
1782832015878496800,0.597496826171875,-0.06710135937035083,-0.07106576035614125,0.047836732595833015
1782832015888425500,0.607425537109375,-0.04825111294984817,-0.08131677646390162,0.025659186649834735
1782832015898354700,0.617354736328125,-0.08401917642354964,-0.038506954952259545,0.06479768553785979
1782832015908283600,0.62728369140625,-0.11634323692321777,0.016897315404575782,0.11080301058860495
1782832015918212000,0.637212158203125,-0.10003449167907237,-0.00187313293236366,0.08718649048120715
1782832015928141000,0.64714111328125,-0.06277823547422885,-0.07496525657929014,0.04562555021923035
1782832015938070000,0.657070068359375,-0.06622165392637253,-0.0759803884385852,0.05938714999752119
1782832015947999200,0.666999267578125,-0.07445289117693901,-0.07082161743592005,0.08816378368129953
1782832015957928200,0.67692822265625,-0.06981470998227596,-0.08329680783259683,0.09590637889839708
1782832015967856000,0.686856201171875,-0.07565233009457588,-0.09144620288545265,0.09339305350375361
1782832015977785000,0.69678515625,-0.08239011391699314,-0.058332124519255006,0.09979022546126506
1782832015987714000,0.706714111328125,-0.0789537097275257,-0.05355407819617539,0.08062069309167563
1782832015997643300,0.716643310546875,-0.06623918958306312,-0.07085882134088314,0.034468753511318936
1782832016007572200,0.726572265625,-0.06399754813611506,-0.055209174759709274,0.032879749020515006
1782832016017501200,0.736501220703125,-0.08614683610200881,-0.00004312960978422779,0.07771171944295056
1782832016027430100,0.74643017578125,-0.10635200426280497,0.011067531538859475,0.0848645138070453
1782832016037359400,0.756359375,-0.07672960393726826,-0.024695296354009768,0.05734854770884849
1782832016047288000,0.7662880859375,-0.04994973356127739,-0.07562342822707724,0.04105953007848002
1782832016057217000,0.776217041015625,-0.06207505564093589,-0.07858841094593517,0.05353585755289532
1782832016067145200,0.786145263671875,-0.06970949604213238,-0.0790471418983303,0.07185874649789184
1782832016077074200,0.79607421875,-0.0703098000228405,-0.0870982733416371,0.06768388109919615
1782832016087003100,0.806003173828125,-0.06597381664514541,-0.07360759489263873,0.0801327086453326
1782832016096932000,0.81593212890625,-0.08258885135948657,-0.04978527741429861,0.09049203483262099
1782832016106861000,0.825861083984375,-0.06613631373047828,-0.051814906378649175,0.07610248501487075
1782832016116790000,0.8357900390625,-0.05237549940347671,-0.057514949217741376,0.035828999880701304
1782832016126719200,0.84571923828125,-0.07228022331297397,-0.037807193202048076,0.05611246657525189
1782832016136648200,0.855648193359375,-0.09518062190711497,0.001969243971555261,0.09878353263675235
1782832016146577200,0.8655771484375,-0.09787935947179793,0.0034197784232965203,0.0891193399736192
1782832016156506000,0.875506103515625,-0.07409457925856112,-0.053876661214046176,0.047882252237992355
1782832016166435300,0.885435302734375,-0.05419979222118854,-0.07293314339690841,0.03643900327151641
1782832016176363300,0.89536328125,-0.06872223857045173,-0.06322815749908331,0.06119613564824685
1782832016186292200,0.905292236328125,-0.07651099275052547,-0.07865584102580324,0.06944845221946015
1782832016196221200,0.91522119140625,-0.07516834596991538,-0.07266365597287658,0.0651340687522199
1782832016206150100,0.925150146484375,-0.07368132228255271,-0.05651000539232045,0.06911696437592618
1782832016216079400,0.935079345703125,-0.08312602697610855,-0.03625277825072407,0.0704161647404544
1782832016226008000,0.945008056640625,-0.05575871210098266,-0.049768349112384015,0.03953565411260351
1782832016235937000,0.95493701171875,-0.054420741495490074,-0.05221247716175858,0.033825130978692323
1782832016245866000,0.964865966796875,-0.0791150377690792,-0.017408848548220703,0.06152091062320396
1782832016255795200,0.974795166015625,-0.0907920315593481,0.007163660534692462,0.07355842655524611
1782832016265724200,0.98472412109375,-0.0866091929167509,-0.02154191949015949,0.06752746669477783
1782832016275652000,0.994652099609375,-0.0643190351754427,-0.06489491253437009,0.050691254377271976
1782832016285581000,1.0045810546875,-0.06537059005498885,-0.06730120192454196,0.05937941421563737
1782832016295510000,1.014510009765625,-0.06178221017420291,-0.05993427161942236,0.06564567153616808
1782832016305439200,1.024439208984375,-0.06687222678959369,-0.07638913820283487,0.06443553769458085
1782832016315368200,1.0343681640625,-0.07360884156823158,-0.06199210833152756,0.0708503823061008
1782832016325297200,1.044297119140625,-0.08513561323285103,-0.03565103579817805,0.06482199799520895
1782832016335226000,1.05422607421875,-0.07167290506958961,-0.02802513032988645,0.0649202342052944
1782832016345155300,1.0641552734375,-0.05461830989420414,-0.045836183595494365,0.0225574303753674
1782832016355084300,1.074084228515625,-0.06315116043984889,-0.04137084278366528,0.028915640295669436
1782832016365013200,1.08401318359375,-0.08799392527341843,0.002888381810201099,0.060136945451516655
1782832016374941200,1.093941162109375,-0.0894938084423542,0.000006366950349183752,0.06951136138783767
1782832016384870100,1.1038701171875,-0.07528174321651458,-0.044499322668276727,0.04582194044101052
1782832016394799400,1.11379931640625,-0.07274199560582638,-0.06679978717446793,0.03420509760645218
1782832016404728000,1.12372802734375,-0.07229366731643676,-0.07002366285810713,0.03910252339234575
1782832016414657000,1.133656982421875,-0.06301847397089004,-0.0639159434004221,0.057069018381414933
1782832016424586000,1.1435859375,-0.06287117445468902,-0.06387984460715669,0.062214683307334775
1782832016434515200,1.15351513671875,-0.07918459587395191,-0.03927082459738012,0.06468689124030061
1782832016444444200,1.163444091796875,-0.09026128568351269,-0.030741510865825692,0.0703945739631541
1782832016454373000,1.173373046875,-0.06976385657787322,-0.026120310488715767,0.06045248680724762
1782832016464302000,1.183302001953125,-0.054504328125715255,-0.03804634941989789,0.03656662083971314
1782832016474231300,1.193231201171875,-0.06932020446360111,-0.01698760805351194,0.05279247357337735
1782832016484159200,1.2031591796875,-0.0865308669835329,-0.0010122252328670584,0.07573524087136611
1782832016494088200,1.213088134765625,-0.08413666532337664,-0.020549035995290614,0.06485737070268952
1782832016504017200,1.22301708984375,-0.0723176327139139,-0.0519316737592686,0.04272296977867372
1782832016513946000,1.232946044921875,-0.06064882223010063,-0.056645842799590895,0.03787154769212939
1782832016523875300,1.242875244140625,-0.06394552568793296,-0.06174275494664907,0.0484661348068621
1782832016533804300,1.25280419921875,-0.06125789403915405,-0.064720473849494,0.053010007047886026
1782832016543733000,1.26273291015625,-0.07832008799910545,-0.055948718247748906,0.04183505362877622
1782832016553662000,1.272661865234375,-0.09044424103498458,-0.029890099934570025,0.05644336076374165
1782832016563591200,1.282591064453125,-0.08970365180075168,-0.02428094111616956,0.057828257517190645
1782832016573520100,1.29252001953125,-0.07863982147276401,-0.027534647965780458,0.03713779919063672
1782832016583449000,1.302448974609375,-0.06532850447893142,-0.03284334883315023,0.02760249360417947
1782832016593377000,1.312376953125,-0.08478665366470814,-0.015696054422610906,0.05052221795329824
1782832016603306000,1.322305908203125,-0.0867354496449232,-0.0038435579349636096,0.07277643673154525
1782832016613235200,1.332235107421875,-0.09377192415297031,-0.03108876938393805,0.06200689490870572
1782832016623164200,1.3421640625,-0.06833411603569985,-0.06497713832457083,0.045770968305598944
1782832016633093000,1.352093017578125,-0.06668810239434242,-0.06261182026560418,0.044280894144624466
1782832016643022000,1.36202197265625,-0.0705839407891035,-0.06711172550073824,0.060420904358895494
1782832016652951300,1.371951416015625,-0.0725315677255392,-0.07015111146294511,0.048728183276532215
1782832016662880300,1.38188037109375,-0.0804658678561449,-0.044737839565309696,0.05180477771027945
1782832016672809200,1.391809326171875,-0.09229191472828388,-0.015961578057578297,0.055091937021631746
1782832016682738200,1.40173828125,-0.0788280375212431,-0.008249743304925505,0.035213196936761955
1782832016692666000,1.411666015625,-0.05653554169237613,-0.028951828137191476,0.005810805170610547
1782832016702595300,1.42159521484375,-0.07973287740647793,-0.02343990544845583,0.02464539736425504
1782832016712524300,1.431524169921875,-0.08242869236171245,-0.0035152096132980656,0.0577327612534631
1782832016722453000,1.441452880859375,-0.08976444207727909,-0.025101070993172468,0.06040034562805667
1782832016732382000,1.4513818359375,-0.07614917370080948,-0.04355436996836215,0.04027606981690041
1782832016742311200,1.461311279296875,-0.05251052395999431,-0.0630500655523967,0.03645065717669203
1782832016752240000,1.471240234375,-0.07510930925905704,-0.06477036370609421,0.04545131703033112
1782832016762169000,1.481169189453125,-0.06358838281333447,-0.06227651476347819,0.05329360062908381
1782832016772098000,1.49109814453125,-0.07241817047894,-0.0534636964989826,0.046191568337846545
1782832016782027300,1.50102734375,-0.08349486028850078,-0.02908648051766213,0.05556234014551155
1782832016791956200,1.510956298828125,-0.08484569037556648,-0.0108313344630762,0.06154848361671902
1782832016801884200,1.52088427734375,-0.0850011731982231,-0.02020480511790374,0.03710663686739281
1782832016811813000,1.530813232421875,-0.072584174695611,-0.026666276766569352,0.033827204204769805
1782832016821742000,1.5407421875,-0.07812368864417076,-0.02391948967592325,0.040139465224649756
1782832016831671300,1.55067138671875,-0.08935235414505005,-0.009238121871324256,0.04908528048535809
1782832016841600300,1.560600341796875,-0.0806792183458805,-0.033411921951745166,0.03707741077290848
1782832016851529200,1.570529296875,-0.07454875276684761,-0.05337907325571868,0.02962818161235191
1782832016861458200,1.580458251953125,-0.0735077192813158,-0.04813711291505023,0.035476377917593345
1782832016871387100,1.59038720703125,-0.07306640525460242,-0.052782372304471206,0.03558860612041317
1782832016881316000,1.600316162109375,-0.07441898890733718,-0.05315621058554388,0.03716066860957071
1782832016891245000,1.6102451171875,-0.08085866656601429,-0.032390227920922915,0.03743786898260005
1782832016901174000,1.620174072265625,-0.08714812209904194,-0.008585156121617183,0.0535098919945769
1782832016911102000,1.63010205078125,-0.07353460728824138,-0.0031533654474071226,0.04640202361759729
1782832016921031400,1.640031494140625,-0.07518412806093693,-0.022966974724060854,0.03127189369876869
1782832016930960400,1.64996044921875,-0.07968027043640613,-0.027088646347506434,0.02629559399038553
1782832016940889300,1.659889404296875,-0.08298106554746627,-0.02044775159488199,0.05530734247113578
1782832016950818300,1.669818359375,-0.08568389476537704,-0.02391406914871186,0.05542543415916152
1782832016960747500,1.67974755859375,-0.07865911069512367,-0.041064324984606354,0.040069094269024205
1782832016970676500,1.689676513671875,-0.06774024179577827,-0.05151848528191912,0.04685096382834017
1782832016980605400,1.69960546875,-0.07417991945445537,-0.05030718696312979,0.04125600249865092
1782832016990534400,1.709534423828125,-0.07598433852791786,-0.051383099965797735,0.0282568658596836
1782832017000463400,1.71946337890625,-0.06596446429491043,-0.04246939687640406,0.030471107843052594
1782832017010392300,1.729392333984375,-0.07719254527390003,-0.019397521022742146,0.0375274743616581
1782832017020320500,1.739320556640625,-0.08722294090092182,-0.0026082280033268034,0.0399345537696965
1782832017030249500,1.74924951171875,-0.07929565503299235,-0.0039661157355527395,0.031767139002960174
1782832017040178200,1.75917822265625,-0.06538695666790008,-0.0199932949588052,0.01606879900842905
1782832017050107400,1.769107421875,-0.08200316042602061,-0.018126051198644563,0.03504923854670487
1782832017060036400,1.779036376953125,-0.08335632860064505,-0.021044865821371786,0.04444682529605925
1782832017069965300,1.78896533203125,-0.06974690544307231,-0.02843130682784831,0.04864297094480134
1782832017079894300,1.798894287109375,-0.07154957095086574,-0.041261386493244206,0.034288254978414624
1782832017089823500,1.808823486328125,-0.06931085211336613,-0.051470531654078513,0.043095154958777124
1782832017099752400,1.81875244140625,-0.07081365789175033,-0.0454792096842546,0.03309391236100346
1782832017109681400,1.828681396484375,-0.07844985185861587,-0.0348348354609101,0.03161097119371407
1782832017119609300,1.838609375,-0.07920037796497345,-0.022014975795429197,0.03612346191578544
1782832017129538300,1.848538330078125,-0.08848083200752735,-0.0063962860415223985,0.05106665442776866
1782832017139467500,1.858467529296875,-0.08908347407579421,0.003983925386879127,0.04827492308369837
1782832017149396500,1.868396484375,-0.0862473738670349,-0.006067691124684643,0.02780343213691376
1782832017159325400,1.878325439453125,-0.0784703101247549,-0.016329792598751374,0.01672305253292434
1782832017169254400,1.88825439453125,-0.08551087628602981,-0.016190098716982175,0.02956442306060344
1782832017179183400,1.898183349609375,-0.07115268058776855,-0.017408511763147543,0.04349310476779938
1782832017189112300,1.9081123046875,-0.0787929662078619,-0.03193434879602864,0.040094365707598625
1782832017199041300,1.918041259765625,-0.07101882507503032,-0.0456281851343112,0.03345450756801292
1782832017208970200,1.92797021484375,-0.06354454367160797,-0.04182999842774588,0.03704157227454707
1782832017218899500,1.9378994140625,-0.07028525010347365,-0.03723356031584553,0.02760086790267378
1782832017228827400,1.947827392578125,-0.07388064424693584,-0.02933702121262904,0.023449849170446395
1782832017238756400,1.95775634765625,-0.08780103304982184,-0.014224605047004296,0.026997696111444383
1782832017248685300,1.967685302734375,-0.0918424173951149,0.003104350090352818,0.0369563964754343
1782832017258614300,1.9776142578125,-0.08002455382943154,0.006131118599581532,0.026773586765676736
1782832017268543500,1.98754345703125,-0.06895663184821606,-0.016311147263785825,0.016500559755507856
1782832017278472400,1.997472412109375,-0.07928571816086769,-0.029360434054257346,0.024261092488095163
1782832017288401400,2.0074013671875,-0.07420563841760158,-0.01976077626100741,0.027296806922182438
1782832017298330400,2.017330322265625,-0.08678571852743625,-0.026002848988352343,0.04038699197862297
1782832017308259600,2.027259521484375,-0.07242460021972656,-0.03623660800063517,0.03575264670886099
1782832017318188500,2.0371884765625,-0.07527355991005898,-0.03200420829500072,0.034353283038642254
1782832017328117200,2.0471171875,-0.07468085471391678,-0.03666748283172492,0.03168678550943732
1782832017338045400,2.05704541015625,-0.06076864921748638,-0.025197418923559596,0.023481322020944207
1782832017347974400,2.066974365234375,-0.06466331856846809,-0.018461123805330135,0.02703198197353631
1782832017357903400,2.0769033203125,-0.08143032897412776,-0.001403249827469699,0.030887323961127547
1782832017367832300,2.086832275390625,-0.09176116885244846,0.01610255514755845,0.032395500034373255
1782832017377761300,2.09676123046875,-0.07365969497263432,0.001944124371674843,0.018106917239911854
1782832017387690200,2.106690185546875,-0.06363865169584751,-0.016676902703102677,0.0067190973882563405
1782832017397619500,2.116619384765625,-0.07337094115912914,-0.02033335655115079,0.011668207695614545
1782832017407548400,2.12654833984375,-0.07935995244085789,-0.01966337573456112,0.044317335431184615
1782832017417477400,2.136477294921875,-0.06934007820785046,-0.03431674128738232,0.029324202830251306
1782832017427406300,2.14640625,-0.07308920160830021,-0.0366662818219047,0.024681491590943187
1782832017437335600,2.15633544921875,-0.06755845548808574,-0.02790920319948345,0.023883655744139105
1782832017447263500,2.166263427734375,-0.06860708775818347,-0.022184427777933887,0.02643971516881138
1782832017457192400,2.1761923828125,-0.08312310436666011,-0.013459438493940979,0.022578783690650014
1782832017467121400,2.186121337890625,-0.0807277336627245,-0.002311459846724756,0.03210828059082851
1782832017477050400,2.19605029296875,-0.090456515994668,0.01104252267847769,0.03650638768561184
1782832017486979600,2.2059794921875,-0.08372808452248573,0.013511972398776561,0.02247992642605677
1782832017496908500,2.215908447265625,-0.07355272746682166,-0.008583681117161176,0.014737879198230802
1782832017506837200,2.225837158203125,-0.07400456288754939,-0.01911180626640562,0.011663403656333685
1782832017516766200,2.23576611328125,-0.07176350596249104,-0.023578357221209444,0.020876802078355104
1782832017526695400,2.2456953125,-0.07745616464614867,-0.027080241562053558,0.026073914063721892
1782832017536624400,2.255624267578125,-0.07267243750095367,-0.02612673109634779,0.0333078656389378
1782832017546553300,2.26555322265625,-0.0732768331348896,-0.03337728674649261,0.013485047859232872
1782832017556481300,2.275481201171875,-0.07747311578094959,-0.02794513759596739,0.01993732927115634
1782832017566410200,2.28541015625,-0.0791197139441967,-0.02908293228712864,0.015094547148793935
1782832017576339500,2.29533935546875,-0.07059387766122818,-0.015682343274378216,0.010748261572793126
1782832017586268400,2.305268310546875,-0.08555939160287379,-0.0031498560327803712,0.02392535772770643
1782832017596197400,2.315197265625,-0.08511398592293262,0.006466839660238474,0.025732133155036717
1782832017606126300,2.325126220703125,-0.08362053249478339,0.0015157748578116298,0.031160460080392655
1782832017616055600,2.3350556640625,-0.07764028904139995,-0.0235564741829643,0.013837130966223776
1782832017625984500,2.344984619140625,-0.08317863394618034,-0.028175256557413375,0.0190192828444764
1782832017635913500,2.35491357421875,-0.07734685905277729,-0.027941612198320216,0.035443909553252155
1782832017645842400,2.364842529296875,-0.0827355663537979,-0.034802154750726184,0.03345985959656536
1782832017655771400,2.374771484375,-0.07136427751183509,-0.03376760123833082,0.03157790004117414
1782832017665699600,2.384699462890625,-0.0731634358882904,-0.025818345567188223,0.029727778662461787
1782832017675628500,2.394628662109375,-0.08064823868572711,-0.015830528706568293,0.023245485704764722
1782832017685557200,2.40455712890625,-0.07451485049724578,-0.013205025341454893,0.017616101515665648
1782832017695486200,2.414486328125,-0.08110065862834454,-0.007617315736459567,0.00784547106968239
1782832017705415400,2.42441552734375,-0.09651566990315913,0.008568931072601116,0.015567370558623223
1782832017715344400,2.434344482421875,-0.07871580931842327,0.00652235554002691,0.029582470173947512
1782832017725273300,2.4442734375,-0.06899521029293537,-0.007510626791859976,0.016579963400959966
1782832017735202300,2.454202392578125,-0.07064648463129997,-0.020478637640201486,0.010221954410057514
1782832017745131500,2.464131591796875,-0.07259644965529441,-0.02193180929031223,0.02580127113480121
1782832017755060500,2.474060546875,-0.0727495943903923,-0.02856247947644442,0.03250000158846378
1782832017764989400,2.483989501953125,-0.07200257541537285,-0.024890120239788666,0.02812954968558624
1782832017774917400,2.49391748046875,-0.07768880435824393,-0.028742329555377363,0.02099398045092821
1782832017784846300,2.503846435546875,-0.07215396658480167,-0.02504092232075054,0.01126041234601289
1782832017794775600,2.513775634765625,-0.06841770266592502,-0.010052694223797879,0.02565599917890504
1782832017804704500,2.52370458984375,-0.07664893991649151,-0.0022381480153417215,0.022336499367374925
1782832017814633500,2.533633544921875,-0.07784779431223869,0.0010823107774136588,0.02543722359538078
1782832017824562400,2.5435625,-0.08608253869414328,0.007263839823403395,0.020425806907843798
1782832017834491400,2.553491455078125,-0.07950374482572078,-0.004797586707188747,0.017229604682419446
1782832017844420400,2.56342041015625,-0.07172785012722015,-0.01451469686764758,0.014034005245193838
1782832017854349300,2.573349365234375,-0.0694862086802721,-0.02787419125160668,0.008539682145230472
1782832017864278300,2.5832783203125,-0.0658960752338171,-0.02484136289434973,0.012875665522925555
1782832017874207500,2.59320751953125,-0.07353168467879295,-0.02510998266870156,0.016857465168088673
1782832017884135400,2.603135498046875,-0.08715279827415942,-0.023756919525354168,0.02320232241647318
1782832017894064400,2.613064453125,-0.07892565267682075,-0.02664876394276507,0.02252818601457402
1782832017903993300,2.622993408203125,-0.07773264349997043,-0.012066422366118058,0.016756543810572476
1782832017913922300,2.63292236328125,-0.0762397745937109,-0.007274041557009331,0.00874914191113785
1782832017923854800,2.642854736328125,-0.07459668356180191,0.006147731807664968,0.006505947827920317
1782832017933783800,2.65278369140625,-0.08641805425882339,0.01217102895148564,0.012248163008037953
1782832017943712800,2.662712646484375,-0.09180383895039558,0.007382927025272511,0.021787322785705325
1782832017953641700,2.672641845703125,-0.08178045758605003,-0.00570534463529475,0.025630864737648515
1782832017963571000,2.682571044921875,-0.07370119602680206,-0.025915673028398305,0.008391323183104395
1782832017973499600,2.692499755859375,-0.06786708304584026,-0.022714360803016462,0.021398834924772382
1782832017983428600,2.7024287109375,-0.0799906515598297,-0.017436173804919235,0.015162351687997578
1782832017993356800,2.712356689453125,-0.07086334225237369,-0.01730814524476882,0.017963873773720114
1782832018003285800,2.72228564453125,-0.08074176218807697,-0.019476493126642888,0.015252313260082154
1782832018013214700,2.732214599609375,-0.08059270910620689,-0.010169269808172248,0.018146810858882964
1782832018023143700,2.742143798828125,-0.08313771741390227,-0.004342084324918687,0.014890731672383844
1782832018033072600,2.75207275390625,-0.07430851427018642,-0.0039009894939139485,0.006207476337999105
1782832018043001600,2.762001708984375,-0.0755073686659336,0.00761839801527094,0.014074227657727896
1782832018052930800,2.771930908203125,-0.08793138143122195,0.008652567935176193,0.01808981997463852
1782832018062859800,2.78185986328125,-0.07671148375868797,0.015654418654413894,0.021710823483392594
1782832018072788700,2.791788818359375,-0.07701426609754562,-0.01846507389466278,0.011844020920246839
1782832018082717700,2.8017177734375,-0.06564356177747249,-0.03637670145791489,0.008339026740286498
1782832018092647000,2.81164697265625,-0.06010872400403022,-0.03205069605153985,0.024142306680325416
1782832018102575900,2.821575927734375,-0.07073533195853234,-0.019893878288497216,0.02535391095979139
1782832018112503800,2.83150390625,-0.08764496570527552,-0.018566570640914142,0.02173254212485626
1782832018122432800,2.841432861328125,-0.08779694139659404,-0.015409659246262163,0.012788973620161414
1782832018132361700,2.85136181640625,-0.07762158434092999,-0.008670254288916476,0.02111435542758554
1782832018142291000,2.861291015625,-0.07373392925262451,0.010611538249533623,0.00712650914536789
1782832018152219600,2.8712197265625,-0.07493219912648201,0.005722195305395871,0.009821465584076941
1782832018162148600,2.881148681640625,-0.0753811119377613,0.008931156547693535,0.009277019976451993
1782832018172077600,2.89107763671875,-0.07508125220835209,0.0047420160284731535,0.023270547080785034
1782832018182006800,2.9010068359375,-0.07807692689299583,-0.014099371232138946,0.009403386302478611
1782832018191935700,2.910935791015625,-0.07628361373543739,-0.017559311560820787,-0.0006113550976850092
1782832018201864700,2.92086474609375,-0.06775427032113075,-0.026489340163930317,0.010794219606369733
1782832018211793700,2.930793701171875,-0.07763502834439277,-0.017225837256177327,0.010571772494725882
1782832018221723000,2.940722900390625,-0.07449263866543769,-0.02232037478305865,0.013407068985886872
1782832018231650800,2.95065087890625,-0.07763502834439277,-0.014813602182408793,0.014737112013250588
1782832018241579800,2.960579833984375,-0.07539046428799628,-0.0037447212199680506,0.019459720088355243
1782832018251508700,2.9705087890625,-0.07853460753262043,-0.004549315601121634,0.019665015135798602
1782832018261437700,2.980437744140625,-0.08496843997240067,0.001972592414333485,0.014468743400648236
1782832018271367000,2.990366943359375,-0.07569149306118488,-0.0014685929815284908,0.008990202391706406
1782832018281296000,3.0002958984375,-0.08153028221726417,0.0009221335133304819,0.012043562080338596
1782832018291224800,3.010224853515625,-0.08407587504684924,-0.002063723030197434,0.025020806547906248
1782832018301153500,3.020153564453125,-0.07210778935551643,-0.009606630956730805,0.020155100207682696
1782832018311082800,3.030082763671875,-0.06327975525557994,-0.01606889947312884,0.01726363481618464
1782832018321011700,3.04001171875,-0.06926292131841183,-0.02862534297904931,0.0236193239858374
1782832018330940700,3.049940673828125,-0.08123392961919307,-0.00935972525726538,0.017801413221005348
1782832018340868600,3.05986865234375,-0.06851531782150268,-0.006180720761814154,0.016078151358664035
1782832018350797600,3.069797607421875,-0.08093465441167354,-0.0063111330752959474,0.010856690383329986
1782832018360726800,3.079726806640625,-0.08198153311610222,0.003216491528204642,0.01318537079291418
1782832018370655700,3.08965576171875,-0.07824234658777714,0.004926661013532429,0.01413406808618456
1782832018380584700,3.099584716796875,-0.07599953609704971,0.001753972094436176,-0.0014685016499832273
1782832018390513700,3.109513671875,-0.07689853076338768,0.002758335964544676,0.015561835866980255
1782832018400443000,3.11944287109375,-0.07809796968102455,0.006830430541932582,0.016358301740605385
1782832018410371800,3.129371826171875,-0.06568097117841243,-0.005867965018213726,0.015315752151422201
1782832018420300800,3.13930078125,-0.06313947000205516,-0.02348598449632991,0.016976177910622208
1782832018430229800,3.149229736328125,-0.06987550025880336,-0.033913571880548256,0.013880842243786901
1782832018440158700,3.15915869140625,-0.07780629325807094,-0.018385597183974457,0.023227730852365493
1782832018450087700,3.169087646484375,-0.0731681120634079,-0.020998496795841492,0.019440777925867587
1782832018460015900,3.179015869140625,-0.06867898395061492,-0.02010534278182313,0.020129399510845542
1782832018469944800,3.18894482421875,-0.08813362600505352,0.008544376586657017,0.011536105748545378
1782832018479873500,3.19887353515625,-0.07750877161622047,0.0029912496712757274,0.016343579095508903
1782832018489802800,3.208802734375,-0.07601414914429187,0.0005897825866937637,0.018201445389259604
1782832018499731700,3.218731689453125,-0.08005904062092303,-0.0007925340506015345,0.002535546359606087
1782832018509660700,3.22866064453125,-0.08185527638792992,0.0020805326011031863,0.010760372135695069
1782832018519589600,3.238589599609375,-0.08395195640623569,-0.0024879900239873675,0.018445209283567965
1782832018529518800,3.248518798828125,-0.08036299200356006,-0.016417516547976994,0.021603965575434265
1782832018539447800,3.25844775390625,-0.057172086030244824,-0.026957245370047164,0.007871993750426918
1782832018549376800,3.268376708984375,-0.06645020198523997,-0.017350897541106677,0.017258611581195144
1782832018559305700,3.2783056640625,-0.0856073223978281,-0.01911011206624098,0.01053887487212196
1782832018569235000,3.28823486328125,-0.07768062105178833,-0.00822644691101741,0.008572177909035235
1782832018579163000,3.298162841796875,-0.07753156796991825,-0.0048024546785512936,0.00584768484858796
1782832018589091800,3.308091796875,-0.08082651786208152,0.002440529586491175,0.005557049605250358
1782832018599020800,3.318020751953125,-0.08576455878615379,0.012041443188488482,0.010041172749362885
1782832018608949800,3.32794970703125,-0.08352233281731605,-0.0015910411842633037,0.002577211810555309
1782832018618878700,3.337878662109375,-0.08636603181064129,0.0028020015763351694,0.004203607435990125
1782832018628807700,3.3478076171875,-0.08562135092318057,-0.004775689969211816,0.018898871335200965
1782832018638736600,3.357736572265625,-0.08247896124422549,-0.009872150025120936,0.02058764640605077
1782832018648665600,3.36766552734375,-0.07170505377352238,-0.017026145399035884,0.013116780802421272
1782832018658594800,3.3775947265625,-0.0767927323013544,-0.016546851149224676,0.01300153865860775
1782832018668523800,3.387523681640625,-0.06796294463574885,-0.016085626845643856,0.015067604342941195
1782832018678452700,3.39745263671875,-0.07739069819450378,-0.016107482484425416,0.01144970610672608
1782832018688380700,3.407380615234375,-0.07320026076734065,-0.013340451756771654,0.00523382726656273
1782832018698309600,3.4173095703125,-0.08202654130160808,-0.0011430827876320107,0.007330616882722824
1782832018708238800,3.42723876953125,-0.078884151622653,0.006380846443795598,0.009722480455320329
1782832018718167800,3.437167724609375,-0.0939987186461687,0.0004159558231709525,0.011953417845163494
1782832018728096800,3.4470966796875,-0.07829027738273144,0.0037614485924830658,0.013318952311016619
1782832018738025700,3.457025634765625,-0.07201134324371815,-0.005933235107036307,0.009518135255947708
1782832018747955000,3.466954833984375,-0.08592880943715572,-0.012287508637737482,0.012798892225977033
1782832018757884000,3.4768837890625,-0.07066752741932869,-0.008366535801719874,0.01739588289372623
1782832018767812600,3.4868125,-0.07650397848784923,-0.015260003376193343,0.013523790700733661
1782832018777741600,3.496741455078125,-0.08069441591501235,-0.01579311930562835,0.023993856386654078
1782832018787670800,3.5066708984375,-0.06707797849476337,-0.011030453214771113,0.023748777318093925
1782832018797599700,3.516599853515625,-0.06767828247547149,-0.009770438649738207,0.009716196845006197
1782832018807527700,3.526527587890625,-0.0753115538328886,-0.0006269408258842303,0.008994294044934213
1782832018817456600,3.53645654296875,-0.08414017245471477,0.0048330233467509965,0.01841183673692867
1782832018827385600,3.546385498046875,-0.0757604666441679,0.0038203985383734105,0.01857130161495879
1782832018837314800,3.556314697265625,-0.06797814220488071,-0.0008241941307671368,0.004122687686886639
1782832018847243800,3.566243896484375,-0.08024901023507118,0.00043587066661566494,0.003992339305486529
1782832018857172700,3.5761728515625,-0.07965162886381148,-0.0031243882313836363,0.0031073366318829358
1782832018867101700,3.586101806640625,-0.07321838094592094,-0.007729754001833498,0.011136658102180808
1782832018877031000,3.596031005859375,-0.07067629524767398,-0.023172388502513058,0.02079739843290299
1782832018886959900,3.6059599609375,-0.07367021636664867,-0.01716585983040277,0.008168930870387702
1782832018896888800,3.615888916015625,-0.07576748090684414,-0.011329495526850223,0.006548709257412701
1782832018906817800,3.62581787109375,-0.07502046193182468,-0.0054512465766398234,0.011252338637411593
1782832018916744200,3.635744140625,-0.0771153883844614,-0.0021749420194420964,0.01572597692012787
1782832018926672100,3.645672119140625,-0.07442132699489593,0.0002052904808660969,0.016801040539424866
1782832018936601000,3.65560107421875,-0.07831190469264984,0.012444183337059803,0.007812628246005624
1782832018946530300,3.6655302734375,-0.07831541182398796,0.004306821215292439,0.014680943112913519
1782832018956459300,3.675459228515625,-0.08310556870996952,0.004803281229035929,0.005220273665245622
1782832018966388200,3.68538818359375,-0.07786766805648804,-0.0035406728481175375,0.004409322608541697
1782832018976317200,3.695317138671875,-0.07218202363550663,-0.010223886072239837,0.011907532876823097
1782832018986246400,3.705246337890625,-0.07472878550887108,-0.004128788634110242,0.009108750737458466
1782832018996175400,3.71517529296875,-0.07891746937036513,-0.0076562321078963574,0.0034418840821832416
1782832019006104300,3.725104248046875,-0.07158814939558505,-0.01623105406516697,0.01150567407766357
1782832019016033300,3.735033203125,-0.07368307584822177,-0.006666316888248548,0.015677662532683462
1782832019025962200,3.744962158203125,-0.08236497947573661,-0.004340796550130472,0.013905574826244264
1782832019035891200,3.75489111328125,-0.07727788546979426,0.001371416217368096,0.012683869277872144
1782832019045819400,3.7648193359375,-0.0732370856463909,0.004278627167269587,0.02142205140357837
1782832019055748400,3.774748291015625,-0.07652969745099544,0.006832823428418487,0.015732096133660525
1782832019065677000,3.784677001953125,-0.08251929325461387,-0.002774743676651269,0.005831409567221999
1782832019075606300,3.794606201171875,-0.0669587360292673,0.0017297281357459722,0.011906053305789827
1782832019085535200,3.80453515625,-0.07773322802186011,-0.00877546822906006,0.015473828789964318
1782832019095464200,3.814464111328125,-0.07324526895284653,-0.013439272488746792,0.014901362664252519
1782832019105393200,3.82439306640625,-0.0760872143805027,-0.02100523706388194,0.010493044702708721
1782832019115322400,3.834322265625,-0.08506780869364738,-0.010818463565059937,0.012612100949604063
1782832019125251300,3.844251220703125,-0.07683715596497058,-0.014649977152491918,0.006465634083840995
1782832019135180300,3.85418017578125,-0.07908230454325675,-0.006523985808109864,0.01812196867857128
1782832019145109200,3.864109130859375,-0.0859685569256544,-0.0015118065021699294,0.012145031427126377
1782832019155038200,3.8740380859375,-0.08013385942280292,0.0011592484711436554,0.01376749979611486
1782832019164966400,3.88396630859375,-0.07804127105772495,0.006438787176110781,0.012624923898559064
1782832019174895400,3.893895263671875,-0.07100830368101596,0.0005922028726432472,0.005884053069911897
1782832019184824300,3.90382421875,-0.07819090866148472,-0.009319219716941007,0.010837638622988015
1782832019194753300,3.913753173828125,-0.0775906046807766,-0.013234689827356486,0.004793664017319679
1782832019204682200,3.92368212890625,-0.07220189737975596,-0.010202619521925225,0.011052523482684045
1782832019214611200,3.933611083984375,-0.07758943563699722,-0.008937284894380717,0.012794179518241435
1782832019224540200,3.9435400390625,-0.06980711119771003,-0.009956987897516228,0.011654233969189225
1782832019234469000,3.95346923828125,-0.0787882900327444,-0.014645209645829162,0.00939136707112193
1782832019244398300,3.9633984375,-0.08836568119525909,-0.006648863429948687,0.012919121072161942
1782832019254327300,3.973327392578125,-0.08178454923927783,-0.0006346766077680513,0.013433135008905082
1782832019264256300,3.98325634765625,-0.0717605833530426,0.008062579852505587,0.013519406786561012
1782832019274185200,3.993185302734375,-0.08103753026425838,0.0104617590818787,0.018949304614495486
1782832019284113200,4.003113037109375,-0.08582418001890182,0.008953943768236786,0.020538601366244254
1782832019294042400,4.01304248046875,-0.07819324674904346,0.005315705996891483,0.009917089711967855
1782832019303971300,4.022971435546875,-0.07445055308938026,-0.005766961462306789,0.009715466192644089
1782832019313900300,4.032900390625,-0.0739998867124319,-0.008242484730365686,0.012309811801090836
1782832019323829200,4.042829345703125,-0.06831482681334018,-0.017928724828525446,0.015554017886705695
1782832019333758500,4.052758544921875,-0.07295651513934134,-0.0003459912929218262,0.011470931557845324
1782832019343687200,4.062687255859375,-0.08283259698748588,-0.008690520758810452,0.005665606279950589
1782832019353616100,4.0726162109375,-0.08133797451555728,-0.014178386718523688,0.0056882199705578385
1782832019363545000,4.082545166015625,-0.07819850744605064,-0.006332984147500246,0.010040533428546041
1782832019373474000,4.09247412109375,-0.09047112904191017,-0.003310535620362498,0.008558131117373705
1782832019383403300,4.1024033203125,-0.07715630491673946,0.009559549545147455,0.011847692448366432
1782832019393332200,4.112332275390625,-0.0731195967465639,0.01263315743736457,0.008507862234860658
1782832019403260200,4.12226025390625,-0.0750678082048893,0.012267082337639294,0.016019607838150113
1782832019413189000,4.132189208984375,-0.08180266941785812,-0.004738006573636084,0.004560713777970522
1782832019423118300,4.142118408203125,-0.07177636544406414,-0.01055563877725508,0.009824278595671056
1782832019433047300,4.15204736328125,-0.07805939123630523,-0.012874414280755444,0.009799820007849484
1782832019442976300,4.161976318359375,-0.07985445795953273,-0.0033417710088426244,0.015709263247344642
1782832019452905200,4.1719052734375,-0.06908288857638835,-0.011816813252912834,0.013352872846927493
1782832019462834200,4.181834228515625,-0.08449848437309265,-0.009783987684478052,0.012769940126128494
1782832019472763400,4.191763427734375,-0.08001052530407905,-0.007522550125094131,0.011203677190095185
1782832019482692400,4.2016923828125,-0.08000994078218937,-0.0051452995997387915,0.002204652171116322
1782832019492621000,4.21162109375,-0.08300093929171562,0.003174122824356891,0.00482729229228571
1782832019502550000,4.221550048828125,-0.07926292180716991,0.012422743256809188,0.00960725657781586
1782832019512479200,4.231479248046875,-0.07717091796398162,0.008518621090892702,0.008072393427044152
1782832019522407200,4.2414072265625,-0.07866787852346897,0.000705326124606654,0.006999941889941692
1782832019532336000,4.251336181640625,-0.07163549566864967,-0.009774005146580748,-0.0003774915428832173
1782832019542265000,4.26126513671875,-0.08031623025238513,-0.012771584093943238,-0.0016115816487930715
1782832019552194000,4.271194091796875,-0.085105802616477,-0.004902535785851069,0.008973780979868024
1782832019562123300,4.281123291015625,-0.07837327949106693,-0.010827140061859973,0.012207885796576737
1782832019572052200,4.29105224609375,-0.08390870178639888,-0.007508804727531969,0.011074150792602449
1782832019581981200,4.300981201171875,-0.08270867834687233,-0.007699929685727693,0.009877762348577379
1782832019591910100,4.31091015625,-0.08495031979382038,0.0031674099557800215,0.008587119749840348
1782832019601839400,4.32083935546875,-0.0822562584042549,0.011395884427102283,0.012065810444764792
1782832019611768300,4.330768310546875,-0.0768669665813446,0.0075217281411867586,0.00800979478592053
1782832019621697300,4.340697265625,-0.07806348288953303,0.00969331372634042,0.00790286381272599
1782832019631626200,4.350626220703125,-0.0810579885303974,-0.002559694420173764,0.010656436837185174
1782832019641554400,4.360554443359375,-0.07522562911510466,-0.004158923477469943,0.010973795690666883
1782832019651483400,4.3704833984375,-0.07104103690683841,0.0010395493479212745,0.004137337266746908
1782832019661412400,4.380412353515625,-0.07658055085539818,-0.006599558095238171,0.002794416491501033
1782832019671341000,4.390341064453125,-0.07493336817026137,-0.010049698549113235,0.017354308774322272
1782832019681270000,4.40027001953125,-0.06909633257985115,-0.002985883942991495,0.009910787835344671
1782832019691199200,4.41019921875,-0.08271160095632075,-0.005332460768870078,0.007426898597739637
1782832019701128200,4.420128173828125,-0.08226151910126209,-0.006368544084648601,0.001465962633024901
1782832019711057200,4.43005712890625,-0.08331073589324951,-0.004099571672780439,-0.0018738127815537153
1782832019720986000,4.439986083984375,-0.0720914227426052,0.005751549264043569,0.005861548977158963
1782832019730915300,4.449915283203125,-0.08570844468474388,0.012356605518306606,0.013630137152038514
1782832019740844300,4.45984423828125,-0.087502342364192,0.0011612212325213477,0.01136566281877458
1782832019750773200,4.469773193359375,-0.07732406269907952,-0.003801127582322806,-0.0022670681491494178
1782832019760701200,4.479701171875,-0.06804711578786372,-0.009641364343394524,0.0072726213514804836
1782832019770630100,4.489630126953125,-0.07687748797535895,-0.008226090717990882,0.009739066263940185
1782832019780559400,4.499559326171875,-0.07687748797535895,-0.013134745717374607,0.01261173562342301
1782832019790488300,4.50948828125,-0.08091770327687263,-0.011663380823447369,0.010217972354684024
1782832019800417300,4.519417236328125,-0.08510755618214606,-0.0035910878611030055,0.009411971467733383
1782832019810346200,4.52934619140625,-0.08151683821380137,-0.0031117890447145326,0.002361486700642854
1782832019820275200,4.539275146484375,-0.07269172672331332,0.004140826131775975,0.005321395952161401
1782832019830204200,4.5492041015625,-0.07912906629443169,0.0009005655689164996,0.004132350564375519
1782832019840133000,4.559133056640625,-0.08182312768399715,-0.0005577800132334232,0.003349986281339079
1782832019850062000,4.56906201171875,-0.06940203752815723,0.004476154466788284,0.008553436675947159
1782832019859991300,4.5789912109375,-0.08107610870897769,0.00016469360899645834,0.008759425843134522
1782832019869920300,4.588920166015625,-0.07554127093553542,-0.006050157751282676,-0.0017358473492786288
1782832019879849200,4.59884912109375,-0.08346972584724426,-0.012409687412413767,0.0040614590189419686
1782832019889777200,4.608777099609375,-0.08271978426277637,-0.007637518274271861,0.004412391348462551
1782832019899706000,4.6187060546875,-0.06790332340300083,-0.010419358411990105,0.013789254970196634
1782832019909635300,4.62863525390625,-0.07493395269215107,-0.005799566823965869,0.014668814283702522
1782832019919563500,4.6385634765625,-0.07852467066049576,-0.0038043013535207135,0.009131090433429925
1782832019929492700,4.64849267578125,-0.08046762142181396,-0.0021439943253295495,0.009609539866447449
1782832019939421700,4.658421630859375,-0.08241232574880122,-0.003888755633425899,0.011290058565605431
1782832019949350700,4.6683505859375,-0.08854571393728256,0.004424392313510179,0.012278083222266286
1782832019959279600,4.678279541015625,-0.07851940996348858,0.0028994066693587227,0.008435217123758047
1782832019969208800,4.688208740234375,-0.07807166619598865,-0.00007095091093797237,0.006455825075879692
1782832019979137500,4.698137451171875,-0.07986614839732646,-0.007374720885930583,0.006173464470542967
1782832019989066500,4.70806640625,-0.06595160481333733,-0.012211557324696332,0.02025962002808228
1782832019998995500,4.717995361328125,-0.07358429164886474,-0.011756648597470484,0.011938110678177327
1782832020008923600,4.727923583984375,-0.07717676318287849,-0.005391387881874107,0.002432926235347986
1782832020018852600,4.7378525390625,-0.0783744485348463,-0.009379576168628409,0.002561320121679455
1782832020028781600,4.747781494140625,-0.08151742273569107,0.0001894764238037169,0.008958784340135752
1782832020038710500,4.75771044921875,-0.07657996633350848,0.0017732476170640437,0.008614318284019828
1782832020048639500,4.767639404296875,-0.07792728928923606,0.000135257451958023,0.009568385872151702
1782832020058568700,4.777568603515625,-0.077925535723567,0.0025797097283182663,0.007571421634964644
1782832020068497700,4.78749755859375,-0.07628069112598895,0.005583617951767519,0.009624719169270247
1782832020078426600,4.797426513671875,-0.07418810276091098,-0.00183826654413715,0.002638531810045242
1782832020088355600,4.80735546875,-0.06790332340300083,-0.001899326248723082,0.0167162118001841
1782832020098284800,4.817284912109375,-0.08092296397387981,-0.0082951510659419,0.011194617100805044
1782832020108213800,4.8272138671875,-0.07808101854622364,-0.01339478945962619,0.013500373292528092
1782832020118142700,4.837142822265625,-0.09199556213021277,-0.016893481762963347,0.012695395318884401
1782832020128070700,4.847070556640625,-0.07478606865406036,-0.015392329085548407,0.012159352213423699
1782832020137999600,4.85699951171875,-0.07807575784921646,-0.004083118294901215,0.007687449230067431
1782832020147928800,4.8669287109375,-0.08495908762216567,0.001578414598130621,0.007971198074892162
1782832020157857500,4.876857421875,-0.08586042037606238,0.0015144185843644663,0.0036175877089612185
1782832020167786500,4.886786376953125,-0.08526186996102332,0.0034361575942952185,0.009296363997738808
1782832020177715500,4.896715576171875,-0.08107201705574989,0.0030647167662857097,0.0057305612749420105
1782832020187644700,4.906644775390625,-0.07583528544604778,-0.004527893787180074,0.0010092501077800988
1782832020197573600,4.91657373046875,-0.07688274867236614,0.005320117310527712,0.0020671251302585006
1782832020207502600,4.926502685546875,-0.0824175864458084,-0.004494776968867518,0.008610025701392441
1782832020217431600,4.936431640625,-0.0804746356844902,-0.008777290293388067,0.009558083673845976
1782832020227360800,4.94636083984375,-0.0716477706283331,-0.01482660779445432,0.0031864297500811514
1782832020237289700,4.956289794921875,-0.06790975314378737,-0.01149772366664838,0.007514083690848201
1782832020247217700,4.9662177734375,-0.08242518523037433,-0.006785605019517242,0.019951120334491132
1782832020257146600,4.976146728515625,-0.08047931185960769,-0.0015174507916672153,0.010013846351020038
1782832020267075600,4.98607568359375,-0.08466974928677082,0.0040728252297500146,0.01204979089172557
1782832020277004800,4.9960048828125,-0.09035422466397285,0.007000878038280643,0.00373114935234189
1782832020286933800,5.005933837890625,-0.07030161671638488,0.008754539605462923,0.005141235345974564
1782832020296862700,5.01586279296875,-0.07868015348315238,0.0016864050172502173,0.01161686110086739
1782832020306791400,5.02579150390625,-0.07763152121305465,-0.0019404026112053543,0.01455201950361952
1782832020316720600,5.035720703125,-0.07793079642057418,-0.006460903109796345,0.008117986134439707
1782832020326649600,5.045649658203125,-0.07493862886726856,-0.008478184049227275,0.01469674347024411
1782832020336578600,5.05557861328125,-0.07748480621874332,-0.007769158997037447,0.015493410273268818
1782832020346507500,5.065507568359375,-0.07015490172207355,-0.008354132977873087,0.008499496265314519
1782832020356436700,5.075436767578125,-0.07150280919969082,-0.002269945092825219,0.00796078627873212
1782832020366364700,5.08536474609375,-0.08392273031175136,-0.0022968741989461703,0.01403164889132604
1782832020376293600,5.095293701171875,-0.07509644977748393,0.0005223296739393845,0.013610847929678857
1782832020386222600,5.10522265625,-0.072104866746068,0.00020065083836670963,0.013240809040889144
1782832020396151600,5.115151611328125,-0.0730026923686266,0.0032964066303102298,0.012617891369573772
1782832020406080800,5.125080810546875,-0.07584580684006213,0.00809595239914488,0.004650803214218467
1782832020416009700,5.135009765625,-0.08078443228602408,0.010202231362857856,0.007598766299616545
1782832020425938700,5.144938720703125,-0.0762958886951208,-0.0024316110610961912,0.014168737540766595
1782832020435867600,5.15486767578125,-0.07704524575769901,-0.007598748033307492,0.012643719930574298
1782832020445796600,5.164796630859375,-0.06492576889693737,-0.0005624744546599686,0.018009302084334194
1782832020455725600,5.1747255859375,-0.07853928370773791,-0.011931288211746141,0.014707776320911943
1782832020465654500,5.184654541015625,-0.07374912682175636,-0.004737234822078607,0.013122205896209925
1782832020475583500,5.19458349609375,-0.08691723595261573,0.001831019386020489,0.012319182417634874
1782832020485511400,5.204511474609375,-0.08631985458135605,-0.0009828461580444127,0.001588511300459504
1782832020495440600,5.214440673828125,-0.07749065143764018,0.003090600126213394,0.004724854831118137
1782832020505369600,5.22436962890625,-0.08452361881434917,-0.0019187798678642137,0.0006794336315244435
1782832020515298600,5.234298583984375,-0.0764443572551012,0.00007643080365378409,0.000786181941628456
1782832020525227500,5.2442275390625,-0.07240472647547722,0.0008213582862867042,0.00721528340736404
1782832020535156700,5.25415673828125,-0.0747971745699644,0.0016840532299596815,0.007946045367326586
1782832020545085700,5.264085693359375,-0.07464870600998401,-0.0018604418433271347,0.004053641038667411
1782832020555014700,5.2740146484375,-0.07300503045618534,-0.013765417436882853,0.00784804661925882
1782832020564943600,5.283943603515625,-0.0731546680599451,-0.0035127025623805817,0.009627952305972576
1782832020574872600,5.29387255859375,-0.06791618288457393,-0.006189219162100926,0.008606555102672428
1782832020584801800,5.3038017578125,-0.0801870509147644,-0.012545963211101479,0.009743304047640412
1782832020594730500,5.31373046875,-0.07704466123580932,-0.006520250347908586,0.008202303417026996
1782832020604659500,5.323659423828125,-0.07599836705327033,0.0018645197968231513,0.0064809960497543215
1782832020614587600,5.333587646484375,-0.08048807968795299,0.00045178062180057163,0.006886142784543335
1782832020624516600,5.3435166015625,-0.07689677719771862,0.0026482951522339136,0.010925280373822897
1782832020634445600,5.353445556640625,-0.0724094026505947,0.0016802310047904028,0.010142386367823927
1782832020644374500,5.36337451171875,-0.08213584689497948,0.00041529366946779187,0.010734470509458333
1782832020654303500,5.373303466796875,-0.07450491362512111,-0.009292660503578371,0.008433536623325199
1782832020664232700,5.383232666015625,-0.07136018585860729,-0.011192804169631563,0.007035451594740152
1782832020674161700,5.39316162109375,-0.08138298270106314,-0.006806465144455432,0.008876732079870999
1782832020684090600,5.403090576171875,-0.07329904496669769,-0.01099640481469687,-0.0001245396951213479
1782832020694019600,5.41301953125,-0.07958499336838722,0.00006458053565584122,-0.0031681086421012877
1782832020703948500,5.422948486328125,-0.07165653845667838,-0.0047302525254432105,-0.004800678279995918
1782832020713877800,5.432877685546875,-0.0664186378031969,-0.0027358729709871113,-0.004768967967480421
1782832020723806700,5.442806640625,-0.07988894475102425,0.001264704439882189,0.00303803425533697
1782832020733734700,5.452734619140625,-0.0833329477250576,0.0038998843822162597,0.008036719325464218
1782832020743663600,5.46266357421875,-0.0783960758447647,0.0025809518373338504,0.009844353269319981
1782832020753592800,5.4725927734375,-0.08139175052940845,-0.003872594516491517,0.007571567765437066
1782832020763521800,5.482521728515625,-0.07750351091921329,-0.0054767417775001374,0.0032463980427011848
1782832020773450500,5.492450439453125,-0.07585808179974556,-0.0018205756238196043,0.017153653369378297
1782832020783379500,5.50237939453125,-0.08199263903200626,-0.010998254278488457,0.006004318448714911
1782832020793308400,5.512308349609375,-0.0821428611576557,-0.006199306731275282,0.010060114911850541
1782832020803237600,5.522237548828125,-0.0761567724853754,-0.007930482472013682,0.00901548296343535
1782832020813166600,5.53216650390625,-0.07032207498252391,-0.01162254192298278,0.002957881691213697
1782832020823095600,5.542095458984375,-0.08034779443442822,-0.00013773253683466464,0.01699988757977262
1782832020833024500,5.5520244140625,-0.08678279591798782,-0.0028618511379463595,0.005925809852406382
1782832020842953700,5.56195361328125,-0.07062076566815376,0.000681050199875608,0.004697802427411079
1782832020852881700,5.571881591796875,-0.07885258744060993,-0.0009058125661918893,0.011041253169998527
1782832020862810600,5.581810546875,-0.08349486028850078,-0.002732553069316782,0.008846209077443927
1782832020872739600,5.591739501953125,-0.07855974197387695,-0.0032977629037573932,0.0025650647150352594
1782832020882668500,5.60166845703125,-0.08005611801147461,-0.008131389038707129,-0.0006176569743081927
1782832020892597800,5.61159765625,-0.07870821053385733,-0.007632956263585947,0.012658880967088042
1782832020902526700,5.621526611328125,-0.08633739023804664,-0.010006841221498326,0.011835198292974383
1782832020912455700,5.63145556640625,-0.08229717493653296,-0.0058886561797931785,0.008284118215274066
1782832020922385000,5.641385009765625,-0.07376783152222632,-0.0009851248800987378,0.006225980109069496
1782832020932313900,5.65131396484375,-0.08364391337037086,0.0025497118822764603,0.006205540109239518
1782832020942242800,5.661242919921875,-0.08394260405600071,0.005223228240734897,0.009224979261960834
1782832020952171800,5.671171875,-0.07406359959840775,0.004746294911368749,0.003372198113147169
1782832020962100700,5.681100830078125,-0.08004793470501899,-0.0009696167837129905,0.0022893530461937186
1782832020972030000,5.691030029296875,-0.08124562005698681,-0.000038857005932368336,0.0007656506102532148
1782832020981958000,5.7009580078125,-0.07989829710125923,-0.0010420563988387584,0.003603467852063477
1782832020991886800,5.710886962890625,-0.08169219478070736,0.0018602135144639759,0.00996120284833014
1782832021001815800,5.72081591796875,-0.07944996881186962,-0.0024902733126189558,0.005939728779904544
1782832021011745000,5.7307451171875,-0.06897533654868603,-0.0009117034508613869,0.01009324999647215
1782832021021674000,5.740674072265625,-0.07900164052248,-0.008575173583719878,0.009606215398199856
1782832021031603000,5.75060302734375,-0.07885141839683056,-0.0029010826032143085,-0.0026277912203222513
1782832021041532000,5.760531982421875,-0.0788537564843893,-0.0030944771503098305,0.0023591486130841075
1782832021051460900,5.7704609375,-0.07705693619549274,0.002876738179824315,0.006669814886432141
1782832021061389800,5.780389892578125,-0.0846878694653511,0.00422828521952033,0.0048589295395649965
1782832021071318800,5.79031884765625,-0.07720365118980407,0.002313688336429186,0.00912888021003455
1782832021081247700,5.800247802734375,-0.07421206815838813,0.003601239362359047,0.013988102010544389
1782832021091176700,5.8101767578125,-0.06957388696372509,0.001391472624707967,0.009620992842223494
1782832021101105000,5.82010498046875,-0.07406476864218711,-0.008117826304235494,0.005824212641455233
1782832021111033900,5.830033935546875,-0.07585808179974556,-0.0007037963212234899,-0.0033189518222585318
1782832021120962800,5.839962890625,-0.06732640029788017,0.0005927051961421966,0.019885325089283288
1782832021130891800,5.849891845703125,-0.07630348747968674,-0.010514489349536598,0.0031954898393712935
1782832021140821000,5.859821044921875,-0.07450783623456954,-0.009577076068683526,0.01677110205888748
1782832021150750000,5.86975,-0.07615443439781665,-0.005231393280881457,0.017501772687304764
1782832021160679000,5.879678955078125,-0.07899579530358314,-0.004615215877606533,0.0086985259687528
1782832021170607900,5.88960791015625,-0.07615268083214759,0.0018719085188349707,0.004943484284169972
1782832021180536800,5.899536865234375,-0.07854746701419353,0.006226500698877498,0.010901698568835855
1782832021190466000,5.909466064453125,-0.07735036618411541,0.001517441658512689,-0.005885368244163692
1782832021200394800,5.919394775390625,-0.07720131310224533,0.004053846534644253,0.010400306651648133
1782832021210323700,5.92932373046875,-0.07660217816531657,0.0008453419500729068,0.011949362724553794
1782832021220252700,5.939252685546875,-0.0780997232466936,-0.006059373104199767,-0.0023054456644691526
1782832021230180900,5.949180908203125,-0.07824702276289462,-0.01348967380200047,0.0039770869374275205
1782832021240109800,5.95910986328125,-0.07630173391401768,-0.006404811841272748,0.007907229460589587
1782832021250038800,5.969038818359375,-0.0757037680208683,-0.0023664505701279266,0.003974438322614878
1782832021259967700,5.9789677734375,-0.0709153647005558,-0.0038917558746878055,-0.0006606375995092094
1782832021269896700,5.988896728515625,-0.06418167253136635,-0.005305467730667442,0.0023605733851902186
1782832021279826000,5.998825927734375,-0.08647650644779205,0.002112772636581212,0.012317666313983499
1782832021289755000,6.0087548828125,-0.08228489997684955,-0.003471598800434731,0.003723714964557439
1782832021299683800,6.018683837890625,-0.07480243526697158,0.0022269736007787286,0.01616999436058104
1782832021309612800,6.02861279296875,-0.0861737241089344,0.006500047810096293,0.014434128744993358
1782832021319542000,6.0385419921875,-0.08258066805303096,0.003600709639396518,0.011856953467056154
1782832021329471000,6.048470947265625,-0.07629822678267956,-0.01282887637228705,0.008631634745001792
1782832021339400000,6.05839990234375,-0.07136252394616603,-0.010132691524294204,0.011839691805001348
1782832021349328000,6.068327880859375,-0.06942132675051689,-0.0023839953599730504,0.015351006127893923
1782832021359256800,6.0782568359375,-0.06672901892662048,-0.000153167567984201,0.011011205091606824
1782832021369186000,6.08818603515625,-0.07316460493206978,0.005045962844532914,-0.00881975946193561
1782832021379114800,6.09811474609375,-0.07062251923382282,-0.005392205299204215,0.004413395995460451
1782832021389043700,6.108043701171875,-0.0791501090824604,-0.0058972504782024765,0.011502660136669873
1782832021398972700,6.11797265625,-0.07645546317100524,0.00000922448607161641,0.005930833087395876
1782832021408902000,6.12790185546875,-0.08229016067385674,-0.0000701289270306006,0.002720383140910417
1782832021418830800,6.137830810546875,-0.08169102573692798,-0.00800448842314072,0.00515066076144576
1782832021428759800,6.147759765625,-0.09904957229495048,-0.0023550843593198806,0.0018473814323544501
1782832021438688800,6.157688720703125,-0.07525894686281681,-0.0013987654485972598,0.015100501965545117
1782832021448618000,6.167617919921875,-0.07241583239138126,-0.005091765614482574,0.01017581371339038
1782832021458547000,6.177546875,-0.08304185582399368,-0.009023255277937278,0.002288585861213505
1782832021468475000,6.187474853515625,-0.07436287480592728,-0.008527379786083474,0.005827116984594613
1782832021478403800,6.19740380859375,-0.07466273453533649,-0.00647123270756565,0.010442867151740937
1782832021488332800,6.207332763671875,-0.07436404384970664,-0.006432014942029491,0.01081120727378875
1782832021498262000,6.217261962890625,-0.07870470340251923,0.003933562889532186,-0.0003182356363162398
1782832021508191000,6.22719091796875,-0.07436345932781696,0.004417784476210363,0.008710380803328007
1782832021518120000,6.237119873046875,-0.07241758595705032,0.006882530621928162,0.004126815872732549
1782832021528048600,6.247048583984375,-0.08349486028850078,-0.0016352958845207467,0.008615432528872043
1782832021537977900,6.256977783203125,-0.07780980038940906,0.0032431101070716974,0.006189904148690402
1782832021547906800,6.26690673828125,-0.07362170104980469,-0.00038291663667187095,0.003722765116486698
1782832021557835800,6.276835693359375,-0.08619418237507342,-0.004036246945871971,0.0056807490501552815
1782832021567764700,6.2867646484375,-0.06868541369140148,-0.0013166355565190314,0.004557352777104825
1782832021577694000,6.29669384765625,-0.06868541369140148,-0.006597448336542583,0.008126078109350055
1782832021587623000,6.306622802734375,-0.0733247639298439,-0.006643826495227404,0.011080525734461843
1782832021597550800,6.31655078125,-0.07691665094196797,-0.0040120166869135575,0.0075029047097079455
1782832021607479800,6.326479736328125,-0.08739069868326187,-0.0016705863936105742,0.008916735296696425
1782832021617408800,6.33640869140625,-0.07931026808023452,0.00553643607548438,0.00442041025813669
1782832021627338000,6.346337890625,-0.0766191293001175,0.0027301190836355087,0.01048588430956006
1782832021637267000,6.356266845703125,-0.0733288555830717,-0.0016668920326046645,-0.0018022819153033197
1782832021647196000,6.36619580078125,-0.07886544692218303,0.002575535876699723,-0.0009616481063887476
1782832021657124900,6.376124755859375,-0.07931377521157264,-0.002019774290616624,0.002799330128636211
1782832021667053800,6.3860537109375,-0.08290273961424827,0.0023966265126829965,0.01726926083937287
1782832021676982800,6.395982666015625,-0.08290332413613796,-0.0067958661186276,0.005865384902060031
1782832021686911700,6.405911865234375,-0.07661737573444843,0.00015658793435432015,0.004554046575166284
1782832021696840700,6.4158408203125,-0.07227496261596679,-0.0046463234019232915,0.0069021075386554
1782832021706770000,6.42577001953125,-0.08095277459025382,0.002625722560822032,0.009197397135291248
1782832021716699000,6.435698974609375,-0.08259820370972155,0.006707534814625978,0.015664401192311196
1782832021726626800,6.445626708984375,-0.0751157389998436,-0.004378881804505363,0.010145436841435729
1782832021736555800,6.4555556640625,-0.07556289824545383,-0.0018973215213045477,0.005237316131591796
1782832021746484700,6.465484619140625,-0.07960428259074688,-0.001337070989771746,-0.0008217647116631269
1782832021756414000,6.4754140625,-0.08244622801840305,0.003105222306610085,0.003522566369269043
1782832021766343000,6.485343017578125,-0.0697258626550436,0.0006449057408375665,0.0051072782774455846
1782832021776272000,6.49527197265625,-0.06778115832805633,-0.006095768724987283,0.013165405717119574
1782832021786200800,6.505200927734375,-0.08139934931397437,-0.0031662089459598064,0.011312891451921313
1782832021796130000,6.515130126953125,-0.07481412570476531,-0.0073235797871602695,0.0061087286712601776
1782832021806059000,6.52505908203125,-0.08588555481731891,-0.006912272739643231,0.005354914629273116
1782832021815987700,6.53498779296875,-0.08798048126995563,-0.0032351368631701916,0.0003767974231392145
1782832021825916700,6.544916748046875,-0.08723287777304649,-0.0019598973295418542,0.005033317992091179
1782832021835846000,6.554845947265625,-0.07421557528972625,0.006044061370636336,0.016659586242120713
1782832021845773800,6.56477392578125,-0.08229249876141548,0.01091083628993947,0.010525357803422957
1782832021855702800,6.574702880859375,-0.0848363380253315,-0.002342407540837303,0.006324618177954107
1782832021865631700,6.5846318359375,-0.08753039941489696,0.004776648950437084,0.002821377563662827
1782832021875560700,6.594560791015625,-0.08274199609458446,0.0034043513836571945,0.013282693687546997
1782832021885490000,6.604489990234375,-0.07346271109580993,-0.005290740518993697,0.00620926643628627
1782832021895419000,6.6144189453125,-0.07974632140994072,-0.005162616060720757,0.011656206730566918
1782832021905347800,6.624347900390625,-0.08109305984377861,-0.0061985532460268585,0.011213486198056488
1782832021915276800,6.63427685546875,-0.08348609246015548,-0.007529747050860896,0.010817874476592987
1782832021925205000,6.644205078125,-0.08483283089399338,-0.011644726355327293,0.009349792951717973
1782832021935134000,6.654134033203125,-0.0774988347440958,-0.010691576649225317,0.018754823222011326
1782832021945063000,6.66406298828125,-0.08438041095137595,0.004696455287118442,-0.0003136873253621161
1782832021954992000,6.6739921875,-0.07944295454919338,0.008944184992625377,0.014176518988423049
1782832021964921000,6.683921142578125,-0.07779869447350501,0.0018453264725860207,0.00030579627985134717
1782832021974849000,6.69384912109375,-0.08378361410200595,0.004717863401328213,0.006855838977824896
1782832021984778000,6.703778076171875,-0.07570435254275798,0.0015231453135143964,0.011434362407121807
1782832021994707000,6.71370703125,-0.0664320818066597,0.000606587591022253,0.009839056039694696
1782832022004636200,6.72363623046875,-0.07855623484253883,0.0003748977269977331,0.009967979648988693
1782832022014564900,6.73356494140625,-0.07272212186157703,-0.006425854629301466,0.017360135726910083
1782832022024493800,6.743493896484375,-0.08154781787395476,-0.008759366477630101,0.012403426634985953
1782832022034422800,6.7534228515625,-0.08184358595013617,-0.003951888564089313,0.010705116550810634
1782832022044352000,6.76335205078125,-0.06987140860557556,-0.0034643379425862804,0.013340798816643655
1782832022054281000,6.773281005859375,-0.07870061174929141,0.0064716071669012306,0.004944982121512294
1782832022064210000,6.7832099609375,-0.08124328196942805,-0.0032965253613190726,0.007740403260011225
1782832022074139000,6.793138916015625,-0.08094400676190852,-0.0013218368880217894,0.0019295067578554152
1782832022084068000,6.803068115234375,-0.0801958187431097,-0.0019399368203245103,0.006203567347861826
1782832022093996000,6.81299609375,-0.08483399993777274,0.006787833509221673,0.0011036138603463769
1782832022103925000,6.822925048828125,-0.07675181576907635,-0.0038215584489982575,0.005893076626583934
1782832022113854000,6.83285400390625,-0.07256313190758228,-0.006842504572216421,0.012328644365724175
1782832022123783000,6.842782958984375,-0.08169102573692798,0.0004493877353146672,0.005861421112995594
1782832022133712100,6.852712158203125,-0.07869768913984299,-0.0027263288245070725,0.005423577685002237
1782832022143641000,6.86264111328125,-0.07869827366173267,-0.002467212097439915,0.007390658240579068
1782832022153570000,6.872570068359375,-0.078248191806674,-0.0026433221495943144,-0.0015429916583001612
1782832022163498800,6.882498779296875,-0.07061725853681564,-0.0025555434014415367,0.007652195253595709
1782832022173428000,6.892427978515625,-0.07315992875695228,0.004230276247207075,0.01485007086843252
1782832022183357000,6.90235693359375,-0.08019289613366126,0.0025671333745354787,0.010414316910691558
1782832022193286000,6.912285888671875,-0.08064297798871993,0.003014493549545295,0.0043920974791049954
1782832022203214800,6.92221484375,-0.0855810189127922,-0.00032636871042195705,0.008185699342098087
1782832022213144000,6.93214404296875,-0.08932020544111728,0.00191850130665116,0.006484320518001914
1782832022223072000,6.942072021484375,-0.07989420544803143,-0.003999499698635191,0.021543668489251284
1782832022233001000,6.9520009765625,-0.0703185678511858,-0.0063711789997294545,0.011633118115924298
1782832022242930000,6.961929931640625,-0.0704705435425043,-0.004336910392879508,0.014679353944025933
1782832022252859000,6.97185888671875,-0.07750234187543392,0.0019550613242201504,0.010107917842641471
1782832022262788000,6.9817880859375,-0.0686760613411665,-0.0039735569732030854,0.017455723322182894
1782832022272717000,6.991717041015625,-0.08334346911907195,0.004819561076979152,0.01391121911574155
1782832022282646000,7.00164599609375,-0.06927636532187462,0.005781674974248744,0.0125914234877564
1782832022292575000,7.011574951171875,-0.0805009391695261,0.004459093734133057,0.00831230313014239
1782832022302504000,7.02150390625,-0.08125204979777335,0.0004935602371813729,0.01347733947681263
1782832022312433000,7.031432861328125,-0.08529401866495609,0.0001369059863500297,-0.0012721753602847456
1782832022322361900,7.04136181640625,-0.08409691783487797,-0.002466079586278647,-0.00466810140889138
1782832022332290800,7.051290771484375,-0.08768822032511234,-0.003477380087249912,0.014875022646598518
1782832022342220000,7.061219970703125,-0.07347264796793461,-0.004385781902750022,0.014123071768134831
1782832022352148000,7.07114794921875,-0.06644084963500499,-0.006436910312855616,0.004652483714651316
1782832022362077000,7.081076904296875,-0.08828793978393078,-0.003773728118743747,0.005858315840456634
1782832022372006000,7.091005859375,-0.08020750918090343,-0.0029694899306166914,0.008715513636171818
1782832022381934800,7.100934814453125,-0.08469546824991703,0.00011177611167076974,0.0038149369119666516
1782832022391864000,7.110864013671875,-0.07137772151529788,-0.007572613511630333,0.004256360536534339
1782832022401793000,7.12079296875,-0.07422317407429217,0.0006545868846355006,0.006717763947695493
1782832022411722000,7.130721923828125,-0.08364917406737804,0.002960525739449076,0.009488123710174113
1782832022421651000,7.14065087890625,-0.08020634013712406,0.002164370393077843,-0.000023490473441779613
1782832022431580200,7.150580078125,-0.0770633659362793,0.0016850350440712645,0.0076719046010635785
1782832022441509000,7.160509033203125,-0.0724228466540575,0.001542799862055108,0.014207005458232015
1782832022451437800,7.170437744140625,-0.07362111652791499,0.004305346210836432,0.006967683588154613
1782832022461366800,7.18036669921875,-0.07751052518188953,-0.002698267207224853,0.010349434980936347
1782832022471295000,7.190294921875,-0.06748480572998523,-0.007861741784471087,0.009326667804457246
1782832022481224000,7.200223876953125,-0.07915595430135726,-0.007522467926703393,0.008777947880513965
1782832022491153000,7.21015283203125,-0.07616378674805165,0.003060218687681481,0.012155772016849368
1782832022501081900,7.220081787109375,-0.06673603318929672,-0.0009372214846080168,0.0009997516270726918
1782832022511010800,7.2300107421875,-0.07586334249675274,0.002692061228724196,0.003944097983278334
1782832022520940000,7.23993994140625,-0.0812502962321043,0.009828214985271914,0.007252090020105242
1782832022530869000,7.249868896484375,-0.08170037808716296,0.004337778042559512,0.012702373048942535
1782832022540798000,7.2597978515625,-0.07676525977253913,0.0035028341889148575,0.01284828432565555
1782832022550727000,7.269726806640625,-0.07631517791748046,0.005695133768534287,0.015007873512338846
1782832022560656100,7.27965625,-0.08275134844481945,-0.0038409253031713884,0.005918393730930983
1782832022570585000,7.289585205078125,-0.08050853795409202,-0.007426999062439426,0.013382610398065297
1782832022580514000,7.29951416015625,-0.07721767971515656,-0.005984636500710621,0.003773636787198484
1782832022590443000,7.309443115234375,-0.07692015807330609,-0.005277780572720803,0.005648435949441045
1782832022600371000,7.319370849609375,-0.07811608985960483,0.003924192272988148,0.013965670983027666
1782832022610300200,7.329300048828125,-0.0784177031546831,0.0017014016569824888,0.01374609168190509
1782832022620229000,7.33922900390625,-0.07961363494098186,0.002267570472648367,-0.00012824775585904718
1782832022630157800,7.34915771484375,-0.07452654093503952,0.008301982665527612,0.01124198164017871
1782832022640086800,7.359086669921875,-0.07422785024940967,0.0018064694666536524,0.007609379025176167
1782832022650016000,7.36901611328125,-0.0772200178027153,0.008955985028273425,0.009415021941345185
1782832022659945000,7.378945068359375,-0.07452770997881888,0.00398748046727851,0.011339012273866682
1782832022669874000,7.3888740234375,-0.07811901246905327,-0.0068540123469196254,0.0037484475470148026
1782832022679803000,7.398802978515625,-0.07976502611041068,-0.0021397702413611113,0.01617452440522611
1782832022689732000,7.408732177734375,-0.07258475921750068,0.0007475075987866148,0.002290083698555827
1782832022699661000,7.4186611328125,-0.0826139858007431,-0.009165070334845222,0.00644939533509314
1782832022709590000,7.428590087890625,-0.07782616700232028,-0.00782974377758801,0.014330978897772729
1782832022719518000,7.43851806640625,-0.077377254191041,0.0037529273593099786,0.01190344122359529
1782832022729447000,7.448447021484375,-0.07498363705277443,0.012556078179739414,0.004171184737421572
1782832022739376000,7.458376220703125,-0.07453647780716419,0.004144406328350305,0.0016876425596885382
1782832022749305000,7.46830517578125,-0.06435995170772076,0.006013264373573474,0.012328114642761647
1782832022759234000,7.478234130859375,-0.07438684020340443,-0.0036210309082176533,0.005680420256592333
1782832022769163000,7.4881630859375,-0.07034954751133918,-0.0017665941139915957,0.0068748359392397105
1782832022779092000,7.498092041015625,-0.06526245350539683,0.0034172382646938783,0.002388228577096015
1782832022789021000,7.50802099609375,-0.08097557094395161,-0.0007199391718488187,0.011031407629419118
1782832022798950000,7.517949951171875,-0.0725970341771841,0.002913832486933097,0.013976722100004554
1782832022808878800,7.52787890625,-0.08247311602532863,-0.00003629058951046318,-0.001883585256896913
1782832022818808000,7.53780810546875,-0.07304770055413246,-0.0005905269387876615,0.0007152355972677469
1782832022828737000,7.547737060546875,-0.07214987493157386,-0.0028451465983176604,0.01738603735314682
1782832022838666000,7.557666015625,-0.08127835328280925,-0.0023705878891283646,0.009070610684156417
1782832022848595000,7.567594970703125,-0.07379764213860035,0.001615554571012035,0.00673765595825389
1782832022858523000,7.57752294921875,-0.07290157008171082,0.004900672622327693,0.012478446366265416
1782832022868452000,7.5874521484375,-0.08352700899243354,0.008930106234923005,0.0036385026328265664
1782832022878381000,7.597381103515625,-0.08532207571566104,0.0017536067682551218,0.009515523173753171
1782832022888310000,7.60731005859375,-0.08427227440178393,0.0026731418991228564,0.015782511146645993
1782832022898239000,7.617239013671875,-0.07783785744011401,0.003731117386301048,0.006959335884917527
1782832022908168200,7.627168212890625,-0.07514554961621761,0.003482709282916039,-0.0002707432327792048
1782832022918097000,7.637096923828125,-0.07469429871737956,-0.005916804562043398,-0.000043199820909649134
1782832022928026600,7.647026611328125,-0.07649345709383487,-0.00796011042529717,0.008882248505204915
1782832022937955600,7.65695556640625,-0.0761959354519844,0.0017991994756506756,0.0018340287604369221
1782832022947884500,7.666884521484375,-0.07679448586702346,-0.0012112206869758664,0.008530512458086014
1782832022957813500,7.6768134765625,-0.08442600365877151,0.0018311563833383843,0.015880071503296494
1782832022967742700,7.68674267578125,-0.08248071480989455,0.001280751392384991,0.003763060594256967
1782832022977670700,7.696670654296875,-0.07035831533968448,0.0052990608227672055,0.004291778909787536
1782832022987599600,7.706599609375,-0.07440028420686721,0.0014773882093373685,0.00453389883628115
1782832022997528600,7.716528564453125,-0.08203238652050494,-0.0008856830936158076,0.0015839447231963276
1782832023007457500,7.72645751953125,-0.07649521065950393,0.0003421234019799158,0.005410955665446818
1782832023017386800,7.73638671875,-0.07065934411287307,-0.00025208876465912907,0.00246366843348369
1782832023027315700,7.746315673828125,-0.0706581750690937,-0.004010295087285339,0.005855228834226727
1782832023037244700,7.75624462890625,-0.07245382631421089,-0.005417038346361368,0.009433872772287577
1782832023047173400,7.76617333984375,-0.08083411664664746,-0.00043787539403419937,0.011758278865553438
1782832023057102600,7.7761025390625,-0.07844049950838089,-0.008237073336308822,0.001098334897030145
1782832023067031600,7.786031494140625,-0.08577391113638877,0.002463828263687901,0.002960292844008654
1782832023076960500,7.79596044921875,-0.07919161013662815,0.00439118416365236,0.010651304004341363
1782832023086889500,7.805889404296875,-0.082630936935544,0.003841966482787393,0.005234393522143364
1782832023096818700,7.815818603515625,-0.08382862228751183,0.0015277940891683102,0.012583696839027107
1782832023106746600,7.82574658203125,-0.09669453360140323,0.005609843804989941,0.006301730492711067
1782832023116675600,7.835675537109375,-0.07993278389275074,0.003367120079230517,0.011167546430788933
1782832023126604500,7.8456044921875,-0.06436871953606606,0.004524080695165321,0.013294110130704938
1782832023136533500,7.855533447265625,-0.07289630938470364,-0.002610474759340286,0.018289562064129856
1782832023146462700,7.865462646484375,-0.07633855879306793,0.004550845404504798,0.008373203004524111
1782832023156391700,7.8753916015625,-0.07199906828403473,-0.010811440169229171,0.017381196781247853
1782832023166320600,7.885320556640625,-0.07304477794468403,-0.0038550177606055513,0.011622487124055622
1782832023176249600,7.89524951171875,-0.07558861720860004,0.006304333441751077,0.004115034103393554
1782832023186178600,7.905178466796875,-0.083071081918478,0.0030040406541898845,0.005451634735707193
1782832023196107500,7.915107421875,-0.07693827825188636,-0.0035136295775650066,0.004578085037879646
1782832023206036500,7.925036376953125,-0.07948211751580238,0.000694147143466398,0.012375698377843946
1782832023215965400,7.93496533203125,-0.0805313343077898,0.0006738441409543157,0.010928933635633438
1782832023225893400,7.944893310546875,-0.082474285069108,0.0007057599494466558,0.0018703056502155958
1782832023235822600,7.954822509765625,-0.0866617998868227,-0.0004433278872864321,0.003186776809953153
1782832023245751600,7.96475146484375,-0.07768237461745739,0.0020427670071367175,0.011593480225279926
1782832023255680500,7.974680419921875,-0.07857844667434692,-0.006869483910687268,0.002681567234173417
1782832023265609500,7.984609375,-0.08411445349156856,-0.005058890824764966,0.0035579847425222396
1782832023275538700,7.99453857421875,-0.08112403950393199,0.0022656753430841487,0.004125683361571282
1782832023285467600,8.004467529296875,-0.08022738292515277,0.009648063512239605,0.004226367257069796
1782832023295396600,8.014396728515624,-0.08187398108839988,0.00597507408792153,0.010365271870885043
1782832023305325600,8.02432568359375,-0.09055354662835598,0.0015408864661818368,0.003712225456163287
1782832023315254800,8.0342548828125,-0.08322013500034808,-0.001796651325537823,0.008266418161801993
1782832023325183700,8.044183837890625,-0.0661614481717348,-0.004939511361951008,0.005263948410190642
1782832023335112400,8.054112548828124,-0.07738309940993786,-0.0006433439714135602,0.010753631867654621
1782832023345041400,8.06404150390625,-0.08067571121454238,0.0026673469125758856,0.010261921094264834
1782832023354969600,8.073969482421875,-0.0851665928930044,-0.0038708226845134046,0.015690047090221197
1782832023364898600,8.083898681640624,-0.07603986810743808,-0.009580637998948805,0.011577204943913965
1782832023374827500,8.09382763671875,-0.07693769372999668,-0.00033646997932810336,0.0058651109074242406
1782832023384756500,8.103756591796875,-0.08666530701816082,0.003511433053901419,0.004653835421521217
1782832023394685400,8.113685546875,-0.08187690369784832,0.003736218253104016,0.01084624205455184
1782832023404614700,8.12361474609375,-0.07424713947176932,0.00007474573664367198,0.012976879141386597
1782832023414543600,8.133543701171876,-0.08053308787345886,0.0024951778165996073,0.008680113529227674
1782832023424472600,8.14347265625,-0.07948620916903018,-0.004835950522776693,0.0071156772240996355
1782832023434401500,8.153401611328125,-0.08547288236320018,0.0018436368389986454,-0.002104443199653178
1782832023444330800,8.163330810546874,-0.08038578835725783,-0.0017416195029392838,-0.0011001797942444681
1782832023454259700,8.173259765625,-0.07484744345247744,-0.004989670646609738,0.004503083572909235
1782832023464188700,8.183188720703125,-0.07664192565381527,-0.0014201598630752413,0.0038121969656087456
1782832023474117600,8.19311767578125,-0.0749976655781269,0.0017278878051089123,0.012391224740538746
1782832023484045600,8.203045654296876,-0.07439969968497753,-0.007267182557960041,0.003376673358865082
1782832023493974800,8.212974853515625,-0.07933890965282916,0.0007131258385721594,0.004538301016762852
1782832023503903700,8.22290380859375,-0.07200725159049033,-0.004009454837068915,0.0014840280126780271
1782832023513832400,8.23283251953125,-0.082630936935544,-0.007354381350800395,0.009978647173475474
1782832023523761400,8.242761474609376,-0.07500117270946502,0.004572011490119621,0.007287745855376124
1782832023533690600,8.252690673828125,-0.08173603392243385,0.008577790232491679,0.007061462818831205
1782832023543619600,8.26261962890625,-0.07724690580964089,0.006664677487011067,0.006708813456259667
1782832023553548500,8.272548583984374,-0.08218553125560284,-0.0023039615268586203,0.007813030104804783
1782832023563477500,8.2824775390625,-0.07874561993479728,-0.00476694040717557,0.011963646978233008
1782832023573406700,8.29240673828125,-0.08577917183339595,0.00322867972292006,0.009206749485526234
1782832023583335700,8.302335693359375,-0.07859656685292721,-0.0018814024329651146,0.00948277168162167
1782832023593264600,8.3122646484375,-0.09086685036122798,0.00009328604033216834,0.007216726445779204
1782832023603193600,8.322193603515625,-0.06662322046458721,-0.0027512258037459105,0.00688347590342164
1782832023613121500,8.33212158203125,-0.07201017419993877,0.002331082429224625,0.00403183106565848
1782832023623050800,8.34205078125,-0.08203355556428432,-0.002370341293956153,0.004288216979522258
1782832023632979700,8.351979736328126,-0.07380231831371784,-0.003052423540293239,0.0025460677536204455
1782832023642908700,8.36190869140625,-0.0763444040119648,0.0059973224523477255,-0.0014281513732858002
1782832023652837600,8.371837646484375,-0.08232873911857605,0.0006564454815816134,0.0047173291117884215
1782832023662766600,8.3817666015625,-0.07484627440869808,-0.008265692076017149,0.00847452622083947
1782832023672695600,8.391695556640625,-0.07469429871737956,-0.0042861894192174075,0.0027359643025323746
1782832023682624500,8.40162451171875,-0.0775379977107048,0.0007665593591285869,0.013967534146551042
1782832023692553500,8.411553466796875,-0.07798574147820472,0.004032927044201642,0.008823175261728464
1782832023702482700,8.421482666015624,-0.0775379977107048,-0.0030132788399932905,0.0018741050424985588
1782832023712411600,8.43141162109375,-0.07230301966667174,-0.00019499284913763402,0.009519066837709396
1782832023722340600,8.441340576171875,-0.07035948438346386,0.0024675637238891794,0.011821936952602117
1782832023732268500,8.4512685546875,-0.0715560006916523,-0.0006648845163639634,0.008049651872273534
1782832023742197500,8.461197509765626,-0.0763444040119648,0.0008364371244097128,0.010893935387488453
1782832023752126700,8.471126708984375,-0.07425064660310744,-0.00006388641591183841,0.008004844616167246
1782832023762055700,8.4810556640625,-0.07469955941438675,0.0016343734359135851,0.0027170038737356662
1782832023771984600,8.490984619140624,-0.07874211280345916,0.000471563034504652,-0.0017362126754596828
1782832023781913600,8.50091357421875,-0.0702133539110422,0.002279169578896835,0.0031759996876120564
1782832023791842800,8.5108427734375,-0.07395429400503635,-0.004892292953049764,-0.0010142368101514875
1782832023801771500,8.520771484375,-0.07889408849477768,-0.003509834751859307,0.008448277534730732
1782832023811700500,8.530700439453126,-0.07575286785960197,-0.007575221027247607,0.009283175722602755
1782832023821629400,8.54062939453125,-0.06707271779775618,-0.006611298765381798,0.016484174876287578
1782832023831558700,8.55055859375,-0.08039455618560314,-0.0037486073772190136,0.004310319213476032
1782832023841487600,8.560487548828124,-0.07979775933623313,-0.007378328481968492,0.0007403883048333227
1782832023851416600,8.57041650390625,-0.07845218994617462,-0.0010314710727427154,0.013667126427870243
1782832023861344500,8.580344482421875,-0.07785480857491493,0.006146019341191277,0.002692033829260617
1782832023871273500,8.5902734375,-0.08114800490140914,0.003918118725228123,-0.003489303420484066
1782832023881202700,8.60020263671875,-0.06633855830430985,0.004680166306020692,0.012108096950221806
1782832023891131600,8.610131591796875,-0.07382336110174656,-0.002584047976718284,0.013730108661483973
1782832023901060600,8.620060546875,-0.07472294028997421,-0.004767063704761676,0.006751921945624053
1782832023910989600,8.629989501953125,-0.07382862179875374,0.0007625270714052021,0.003927713104058057
1782832023920919000,8.6399189453125,-0.07323007138371466,-0.002544341587414965,0.011793733771424739
1782832023930848000,8.649847900390625,-0.07936287505030631,-0.011020963867218233,0.010816303574014455
1782832023940776700,8.659776611328125,-0.0744224960386753,-0.00793828675255645,0.005676730462163686
1782832023950705700,8.66970556640625,-0.07831190469264984,0.0005296407641377299,-0.0005555332572199404
1782832023960635000,8.679634765625,-0.0863958424270153,0.004029739573271945,0.00166828027209267
1782832023970563800,8.689563720703125,-0.0819078833580017,0.001942905095545575,0.004425634422525763
1782832023980491800,8.69949169921875,-0.07622223893702029,-0.0018222606908297166,-0.003697575876303017
1782832023990420700,8.709420654296874,-0.07697101147770881,0.0033092706784605976,0.007715214019827544
1782832024000349700,8.719349609375,-0.08101239582300186,-0.006897020371584221,0.009177194597478955
1782832024010279000,8.72927880859375,-0.07472586289942264,0.00003264646085444838,0.00674744669990614
1782832024020207900,8.739207763671875,-0.07637363010644913,-0.0007012207716470584,0.0024696415165439247
1782832024030136800,8.74913671875,-0.07921732909977436,-0.009694286407297477,-0.0026376550272107125
1782832024040065800,8.759065673828125,-0.07757014641463757,-0.011909720267332159,-0.0019866803051903845
1782832024049995000,8.7689951171875,-0.08026479232609271,-0.0048942520146956665,0.0006409647846594452
1782832024059924000,8.778924072265625,-0.0796685799986124,-0.0037908527834806588,0.007858294018637389
1782832024069853000,8.78885302734375,-0.07907061410546302,-0.0025420491656288503,0.005257683066185563
1782832024079782000,8.798781982421875,-0.0781739575266838,0.0007160484480205922,0.010929664287995546
1782832024089710800,8.8087109375,-0.08400982407331466,0.001232012313255109,0.0012126089264638722
1782832024099639800,8.818639892578124,-0.07203881577253342,-0.005252043343265541,-0.0010348777393810451
1782832024109568000,8.828568115234376,-0.08071955035626888,-0.004647460479661822,0.005405420973803848
1782832024119496700,8.83849658203125,-0.07862579294741154,0.0015586732846219092,-0.001085913806874305
1782832024129425700,8.84842578125,-0.07668225766420364,-0.0014684742505196482,-0.000723857295140624
1782832024139355000,8.85835498046875,-0.07533201209902762,0.0020414518328849226,0.0013841295684687792
1782832024149283800,8.868283935546875,-0.07817220396101475,0.001690720432763919,-0.002073317409027368
1782832024159212800,8.878212890625,-0.07428279530704021,0.0004919756348710507,0.009853650820627807
1782832024169141800,8.888141845703124,-0.07338496968448162,0.00186979419356212,0.004153795211203396
1782832024179071000,8.898071044921876,-0.08176701358258724,-0.00703832397183869,0.013819430912751703
1782832024189000000,8.908,-0.07937573453187942,-0.0010261875428492202,0.012052037647739051
1782832024198929000,8.917928955078125,-0.07533551923036574,0.006706005011242814,0.009921199631504713
1782832024208857900,8.92785791015625,-0.08685819924175739,0.005596614430658519,-0.010468038125615566
1782832024218787000,8.937787109375,-0.0819213273614645,0.005155040109041146,-0.0035039164677262303
1782832024228715800,8.9477158203125,-0.07952595665752887,-0.0016077502904692663,0.006119377929437906
1782832024238644000,8.95764404296875,-0.07728022355735302,0.0005547934717033058,0.005876198557019234
1782832024248573000,8.967572998046874,-0.08715572088360786,-0.005084230761998333,0.0028720117723569274
1782832024258502000,8.977501953125,-0.07967325617372989,-0.01197689005229622,0.00933486937722191
1782832024268430800,8.987430908203125,-0.08491174134910107,-0.003123465782776475,0.009422803389001637
1782832024278359800,8.99735986328125,-0.08461305066347122,-0.0059718044186010955,-0.00017438845252618193
1782832024288288800,9.007288818359376,-0.07548515683412552,-0.01094535504747182,0.006404551546368748
1782832024298217700,9.0172177734375,-0.08281798394024371,0.00023511479697190224,0.004550137585029005
1782832024308147000,9.02714697265625,-0.0787795222043991,0.005041569797205738,0.0015851502995938062
1782832024318076000,9.037075927734374,-0.07922785049378872,-0.008177333372551948,0.009176591809280215
1782832024328004900,9.0470048828125,-0.08251695516705512,-0.009336536177922971,0.002394110328610986
1782832024337933800,9.056933837890625,-0.07114274371564387,0.0030105069275945424,0.0042720878286287185
1782832024347863000,9.066863037109375,-0.07218903789818286,0.0012958758962806312,-0.003626757396105677
1782832024357791000,9.076791015625,-0.08131751624941826,-0.0013916918204165995,0.0009895772929303347
1782832024367720000,9.086719970703125,-0.07248772858381271,-0.003479741007694974,0.0048114554023370145
1782832024377649000,9.09664892578125,-0.08400982407331466,-0.008030216519441455,-0.002808335418999195
1782832024387577900,9.106577880859374,-0.08281213872134685,0.00037310306213330475,-0.0029019502528943118
1782832024397507000,9.116507080078126,-0.07607786203026771,-0.0054724035291001194,0.009293770181853324
1782832024407435800,9.126435791015625,-0.08131342459619045,-0.005986508797388524,0.003724445616919547
1782832024417364700,9.13636474609375,-0.07772036854028701,-0.001228212920972146,0.011101550256181508
1782832024427293700,9.146293701171874,-0.07831658086776733,0.0006111085025127977,-0.00019696561051532624
1782832024437223000,9.156222900390626,-0.07457622529566288,-0.005585389783745631,0.010527823755145072
1782832024447151900,9.16615185546875,-0.07861585607528686,-0.001696460620383732,0.01011155283814296
1782832024457080800,9.176080810546875,-0.08160568554103374,-0.004983227206091396,0.012464180378895252
1782832024467009800,9.186009765625,-0.08549450967311858,-0.0074036227534292265,0.013613606142345814
1782832024476939000,9.19593896484375,-0.07277472883164882,-0.006651160418312065,0.0024153357797302303
1782832024486867000,9.205866943359375,-0.07307400403916835,-0.001560636912845075,-0.00014086977541446686
1782832024496796000,9.2157958984375,-0.08564414727687836,-0.01215415088192094,0.00614317893013358
1782832024506724900,9.225724853515626,-0.07831190469264984,-0.007373474210337736,0.006137406776472926
1782832024516653800,9.23565380859375,-0.08010872498154639,-0.0014740774408215655,-0.002932436722703278
1782832024526583000,9.2455830078125,-0.07516893049180508,-0.0020295969983097164,0.0037211942139081656
1782832024536512000,9.255511962890624,-0.06858487592637538,0.0003920315248891711,0.009361519922129809
1782832024546441000,9.26544091796875,-0.08354863630235194,-0.002447804144071415,0.0021797186592593786
1782832024556369700,9.27536962890625,-0.07546820569932461,-0.0041457352023338894,-0.007359203656390309
1782832024566299000,9.285298828125,-0.08474573713243007,0.00004553790846839547,0.0016490275823511182
1782832024576227800,9.295227783203124,-0.08115560368597508,-0.004846485616522841,0.011988671821635216
1782832024586156800,9.30515673828125,-0.07651625344753266,0.0021386925291270015,0.007243486588541418
1782832024596085800,9.315085693359375,-0.08744038304388523,-0.001157504038629122,-0.0060996868482790885
1782832024606015000,9.325014892578125,-0.07846329586207866,-0.011102162177534774,0.009391476668976247
1782832024615943000,9.33494287109375,-0.0799608409434557,0.00355641840652097,0.011408296384103596
1782832024625872000,9.344871826171875,-0.076966919824481,-0.00707916743888054,0.006785130095481872
1782832024635800800,9.35480078125,-0.07681611317694187,-0.005679753536311909,0.009346559815015643
1782832024645729800,9.364729736328124,-0.08130641033351421,0.0023848219104576854,0.008401186989992857
1782832024655659000,9.374658935546876,-0.08250409568548202,0.00718102494473569,0.005226319813542068
1782832024665588000,9.384587890625,-0.07666881366074085,-0.0033823815804440525,0.0018631635233759879
1782832024675517000,9.394516845703125,-0.07741933976709842,-0.006410442431038246,0.002513078799471259
1782832024685446000,9.40444580078125,-0.07547463544011115,-0.005037711039418354,0.0066853412491269405
1782832024695374800,9.414374755859376,-0.0739823510557413,0.0014465683793881906,0.00922097894027829
1782832024705303800,9.4243037109375,-0.07817161943912505,-0.005262783932988532,0.0038397242933511733
1782832024715232800,9.434232666015625,-0.07009235787987708,-0.005758358030742965,-0.004920760995708406
1782832024725161700,9.44416162109375,-0.08161445336937904,-0.005914397975825704,0.00041038916548714037
1782832024735091000,9.454091064453126,-0.08041910610496997,-0.00817142878815066,0.003919584596529603
1782832024745019000,9.464018798828125,-0.07757365354597567,-0.011556084524071775,-0.008232424560654908
1782832024754947800,9.47394775390625,-0.08759761943221092,-0.006270504237385466,-0.004830050504952669
1782832024764876800,9.483876708984376,-0.06934358533918857,0.002553945099399425,0.008446797963697463
1782832024774805800,9.4938056640625,-0.07727379381656646,0.003714248449890874,0.006133570851571858
1782832024784735000,9.50373486328125,-0.07472878550887108,0.0027733554371632634,0.004826196313742548
1782832024794664000,9.513663818359374,-0.07308160282373428,-0.00308372286085505,0.006817516261432319
1782832024804593000,9.523593017578126,-0.06963935341536999,0.004061153058265336,0.006548508328013122
1782832024814521900,9.53352197265625,-0.07592471729516982,-0.012354906751564703,0.002306285914685577
1782832024824451000,9.543451171875,-0.08116378699243068,-0.011761648999573663,0.003406392643693834
1782832024834380000,9.553380126953124,-0.07697627217471599,-0.000499747949372977,0.0008970036386512219
1782832024844308700,9.563308837890625,-0.07892448363304137,-0.008274469037516973,0.00895809022039175
1782832024854237700,9.57323779296875,-0.06575695902407169,-0.006269823817373253,0.005765413392614573
1782832024864167000,9.5831669921875,-0.07413608031272888,-0.01158843872398138,-0.00020942323328927159
1782832024874094800,9.5930947265625,-0.08326105153262614,-0.001163509087730199,0.005253061689995229
1782832024884023800,9.60302392578125,-0.08056757466495036,0.00043784799457062036,0.01493606865145266
1782832024893952800,9.612952880859375,-0.07667758148908614,-0.00840846611415036,0.012601031566318123
1782832024903881700,9.6228818359375,-0.07967150260806083,-0.005116868089698255,0.0014790595766156912
1782832024913811000,9.63281103515625,-0.08356324934959411,-0.0032371598568977787,0.0006942110755480826
1782832024923740000,9.642739990234375,-0.07847557082176208,-0.006022666956158354,0.007715287085063755
1782832024933668900,9.6526689453125,-0.07712766334414482,-0.002618059844174422,-0.001637063149921596
1782832024943597800,9.662597900390624,-0.07862520842552184,-0.012112654394330456,0.002345412348676473
1782832024953527000,9.672527099609376,-0.07757657615542411,-0.006803405537689104,0.002306176316831261
1782832024963456000,9.6824560546875,-0.08266367016136646,-0.003868215168896131,0.008285305525362491
1782832024973385000,9.692385009765625,-0.0775771606773138,0.0028333785287104544,0.004213526041805744
1782832024983314000,9.70231396484375,-0.04063303916156292,0.003118396882014349,-0.0037914464385248718
1782832024993243000,9.712242919921875,-0.08389291969537735,-0.02209774500832427,-0.018411727139074355
1782832025003171000,9.722171142578125,-0.11502221745252608,-0.004830105303879827,0.003912131942436099
1782832025013100000,9.73210009765625,-0.11277297722101211,0.019651977557712235,0.028484555402025578
1782832025023028700,9.74202880859375,-0.12368074020445347,0.013007068783673458,0.009303049466852098
1782832025032957700,9.751957763671875,-0.05348901360332965,0.007218210583389736,0.0058411820425651965
1782832025042887000,9.761886962890625,-0.055580432924628255,-0.001871579725272022,-0.007147040476743131
1782832025052816000,9.77181591796875,-0.0790758748024702,-0.015578426242177373,-0.009799564279522745
