time,seconds_elapsed,z,y,x
1782832015362193700,0.081193603515625,-0.001277516596019268,-0.00011558830738067627,-0.0016500656493008137
1782832015372123000,0.091122802734375,0.00004314538091421127,-0.0008016182109713554,-0.003352358005940914
1782832015382051600,0.101051513671875,0.002122982405126095,0.00013689231127500534,-0.000535150058567524
1782832015391980500,0.11098046875,-0.002220633439719677,0.00036912038922309875,0.0017453148029744625
1782832015401909500,0.120909423828125,-0.0002089478075504303,-0.0005470849573612213,-0.000012991484254598618
1782832015411838700,0.130838623046875,-0.00038072187453508377,0.0027397889643907547,-0.0000606621615588665
1782832015421767700,0.140767578125,-0.00026310235261917114,0.0028473911806941032,0.00014664744958281517
1782832015431696600,0.150696533203125,0.0013475771993398666,0.0019280686974525452,0.0014183069579303265
1782832015441625600,0.16062548828125,-0.00019245687872171402,-0.0022040316835045815,-0.003653637133538723
1782832015451553500,0.170553466796875,-0.0006260201334953308,0.0010775160044431686,0.0002849115990102291
1782832015461482800,0.180482666015625,0.00014261528849601746,-0.0019692787900567055,-0.0013987934216856956
1782832015471411700,0.19041162109375,0.003383949398994446,-0.0006145285442471504,-0.0011639022268354893
1782832015481340700,0.200340576171875,0.00018208008259534836,-0.0012972578406333923,0.0017497600056231022
1782832015491269600,0.21026953125,0.0014635929837822914,0.0004452485591173172,0.0010663927532732487
1782832015501198800,0.22019873046875,-0.00025442522019147873,-0.0007627028971910477,0.0007237675599753857
1782832015511127800,0.2301279296875,-0.0021948041394352913,-0.0007326090708374977,0.00330650107935071
1782832015521056800,0.240056884765625,-0.000406583771109581,-0.0004391157999634743,0.0025055394507944584
1782832015530985500,0.2499853515625,-0.0004241606220602989,0.0011947331950068474,0.000044778455048799515
1782832015540914400,0.25991455078125,0.0021049864590168,0.0028281984850764275,-0.0029344046488404274
1782832015550843000,0.2698427734375,-0.00204634852707386,0.0014356309548020363,-0.0006720493547618389
1782832015560771600,0.279771484375,-0.0021309005096554756,0.0009076902642846107,-0.001243647187948227
1782832015570700500,0.289700439453125,-0.00023419782519340515,0.002004913054406643,-0.0011536325328052044
1782832015580629500,0.29962939453125,0.0014214226976037025,0.002585378475487232,-0.0006589526310563087
1782832015590558700,0.309558837890625,0.0008515063673257828,0.00145646370947361,-0.000533517450094223
1782832015600487700,0.31948779296875,0.0019181128591299057,-0.002020861953496933,0.0011961222626268864
1782832015610416600,0.329416748046875,0.0008946601301431656,0.00044149626046419144,0.0033740554936230183
1782832015620345600,0.339345703125,0.0016828496009111404,0.001827208325266838,0.0010395017452538013
1782832015630274800,0.34927490234375,-0.0027278773486614227,0.00047991517931222916,-0.0004585264250636101
1782832015640203800,0.359203857421875,0.0006331698969006538,-0.0003719143569469452,0.0018324204720556736
1782832015650131700,0.369131591796875,-0.0012960238382220268,0.0005066627636551857,-0.0009497841820120811
1782832015660060700,0.379060791015625,0.0025068577378988266,0.0016998164355754852,-0.0021937796846032143
1782832015669989600,0.38898974609375,0.0016439929604530334,-0.0032864194363355637,0.0005476786755025387
1782832015679918800,0.3989189453125,-0.002097570337355137,-0.003768189810216427,0.0006257849745452404
1782832015689847800,0.408847900390625,-0.0011153966188430786,-0.0009455056861042976,0.003496939782053232
1782832015699776800,0.41877685546875,0.0008948398754000664,0.0021882588043808937,-0.00029224157333374023
1782832015709705500,0.42870556640625,0.0011062948033213615,0.00012084748595952988,0.000218286644667387
1782832015719634700,0.438634765625,-0.00014976318925619125,0.0008620917797088623,-0.0006296513602137566
1782832015729563600,0.448563720703125,0.00011149328202009201,0.00007379613816738129,0.0010414826683700085
1782832015739492600,0.45849267578125,-0.001237219199538231,-0.0002963906154036522,0.00114808464422822
1782832015749421600,0.468421630859375,0.0007638800889253616,0.0027718376368284225,0.0023659481666982174
1782832015759349500,0.478349609375,-0.0006428016349673271,0.0005555544048547745,-0.0011281194165349007
1782832015769278700,0.48827880859375,-0.00012648291885852814,0.0035307593643665314,-0.0004283292219042778
1782832015779207700,0.498207763671875,-0.00022042077034711838,0.0029284125193953514,0.00019596191123127937
1782832015789136600,0.50813671875,-0.0017333617433905602,0.0002564629539847374,-0.0011159107089042664
1782832015799065600,0.518065673828125,-0.0014845207333564758,-0.00012574996799230576,0.0005254638381302357
1782832015808994800,0.527994873046875,-0.002278941683471203,-0.0006557181477546692,0.00027779070660471916
1782832015818923800,0.537923828125,0.002200419083237648,-0.000775335356593132,0.0007004286162555218
1782832015828852700,0.547852783203125,0.002451288513839245,-0.002249128185212612,-0.000056974589824676514
1782832015838781700,0.55778173828125,0.0018772799521684647,0.0007552122697234154,-0.002470973879098892
1782832015848710700,0.567710693359375,-0.0019752494990825653,-0.00047516822814941406,-0.0007772031240165234
1782832015858638800,0.577638916015625,0.0015136906877160072,-0.0002097068354487419,-0.0006832382641732693
1782832015868567800,0.58756787109375,-0.003657368943095207,-0.00046590249985456467,-0.0012936349958181381
1782832015878496800,0.597496826171875,0.0009342608973383904,0.0000028507784008979797,-0.001199621707201004
1782832015888425500,0.607425537109375,0.0010985778644680977,0.002083045430481434,-0.0013666017912328243
1782832015898354700,0.617354736328125,-0.0000467030331492424,0.0007992619648575783,0.00018318789079785347
1782832015908283600,0.62728369140625,-0.0024440810084342957,-0.0017983857542276382,0.0013230214826762676
1782832015918212000,0.637212158203125,0.000557933934032917,-0.0006684605032205582,0.003503949847072363
1782832015928141000,0.64714111328125,-0.0007318351417779922,0.0010522082448005676,-0.0015605832450091839
1782832015938070000,0.657070068359375,-0.0005166288465261459,-0.00023337174206972122,-0.0016313199885189533
1782832015947999200,0.666999267578125,0.00023384951055049896,-0.0006285849958658218,-0.002293914556503296
1782832015957928200,0.67692822265625,0.0005147140473127365,-0.0017292387783527374,0.0002708663232624531
1782832015967856000,0.686856201171875,0.0016252528876066208,0.0030865557491779327,0.0004359823651611805
1782832015977785000,0.69678515625,0.0003929268568754196,-0.00021046120673418045,0.0003904770128428936
1782832015987714000,0.706714111328125,0.0016304980963468552,0.0016795843839645386,0.0007753041572868824
1782832015997643300,0.716643310546875,0.0003616511821746826,0.0004660850390791893,0.0008262242190539837
1782832016007572200,0.726572265625,0.00011131353676319122,0.001458379440009594,0.0009476649574935436
1782832016017501200,0.736501220703125,-0.000011351890861988068,-0.0007489174604415894,-0.0016496903263032436
1782832016027430100,0.74643017578125,0.0013849437236785889,-0.0019667809829115868,0.002446784172207117
1782832016037359400,0.756359375,-0.0010317889973521233,0.00010995659977197647,-0.003506787121295929
1782832016047288000,0.7662880859375,0.002176254987716675,-0.00039231497794389725,0.0009161909110844135
1782832016057217000,0.776217041015625,0.001132311299443245,-0.0028501981869339943,-0.002104487270116806
1782832016067145200,0.786145263671875,-0.0015007555484771729,-0.0012730741873383522,-0.0005904803983867168
1782832016077074200,0.79607421875,0.000074741430580616,-0.0001837313175201416,-0.00022564968094229698
1782832016087003100,0.806003173828125,-0.000664551742374897,-0.00011768471449613571,-0.0011534951627254486
1782832016096932000,0.81593212890625,0.0010287044569849968,-0.0008117798715829849,0.0007928456179797649
1782832016106861000,0.825861083984375,0.000007915310561656952,0.0018143635243177414,-0.0004753516986966133
1782832016116790000,0.8357900390625,0.0012291232123970985,0.00037585292011499405,-0.0015144175849854946
1782832016126719200,0.84571923828125,-0.0019331136718392372,-0.0010361550375819206,-0.0005373037420213223
1782832016136648200,0.855648193359375,0.0016354536637663841,0.0005507171154022217,-0.000505213625729084
1782832016146577200,0.8655771484375,-0.0005896175280213356,-0.0008786013349890709,0.0005965358577668667
1782832016156506000,0.875506103515625,-0.001421676017343998,0.0007879976183176041,0.00029753847047686577
1782832016166435300,0.885435302734375,0.001309928484261036,-0.00017952919006347656,0.00011591101065278053
1782832016176363300,0.89536328125,0.0012019090354442596,-0.001049097627401352,0.0016070841811597347
1782832016186292200,0.905292236328125,-0.0012165075168013573,-0.0004988890141248703,0.00033888639882206917
1782832016196221200,0.91522119140625,-0.00023250002413988113,-0.001736881211400032,0.001382292713969946
1782832016206150100,0.925150146484375,0.0014484869316220284,0.0006911223754286766,-0.0012012403458356857
1782832016216079400,0.935079345703125,-0.002046099863946438,0.001558191142976284,0.0005501969717442989
1782832016226008000,0.945008056640625,-0.0011797742918133736,0.0014782967045903206,-0.001055689062923193
1782832016235937000,0.95493701171875,0.0014145197346806526,-0.0022203661501407623,-0.0016175871714949608
1782832016245866000,0.964865966796875,0.00046483706682920456,-0.0016983868554234505,-0.0035126921720802784
1782832016255795200,0.974795166015625,0.001539226621389389,0.00030436739325523376,-0.0007014130242168903
1782832016265724200,0.98472412109375,-0.0005343100056052208,0.0006135609000921249,-0.0013863779604434967
1782832016275652000,0.994652099609375,-0.000004427507519721985,-0.0014327997341752052,0.0024293246679008007
1782832016285581000,1.0045810546875,0.0017162412405014038,-0.004437644965946674,0.00003727339208126068
1782832016295510000,1.014510009765625,-0.0002808962017297745,-0.001750655472278595,-0.0016288063488900661
1782832016305439200,1.024439208984375,0.0002879546955227852,-0.00138953048735857,-0.00019309623166918755
1782832016315368200,1.0343681640625,-0.0004154592752456665,0.0028634751215577126,0.0014694677665829659
1782832016325297200,1.044297119140625,-0.0012639425694942474,0.0014256350696086884,-0.001159071922302246
1782832016335226000,1.05422607421875,0.00041367020457983017,-0.000645010732114315,0.004751225933432579
1782832016345155300,1.0641552734375,-0.0023118089884519577,0.0011512916535139084,-0.001451010350137949
1782832016355084300,1.074084228515625,-0.0013082558289170265,0.0006272699683904648,-0.0017639771103858948
1782832016365013200,1.08401318359375,0.00021427404135465622,0.00016654282808303833,0.0026672561652958393
1782832016374941200,1.093941162109375,0.00008390378206968307,0.0006803078576922417,0.002265871036797762
1782832016384870100,1.1038701171875,0.001275935210287571,0.001688314601778984,0.0025769281201064587
1782832016394799400,1.11379931640625,0.0017798803746700287,-0.000763213261961937,0.0008699190802872181
1782832016404728000,1.12372802734375,-0.0014065923169255257,0.0018179221078753471,0.0021618190221488476
1782832016414657000,1.133656982421875,0.00003940146416425705,-0.0022400403395295143,0.0023133265785872936
1782832016424586000,1.1435859375,-0.0010181395336985588,-0.00019899383187294006,-0.000056354328989982605
1782832016434515200,1.15351513671875,-0.0004927022382616997,-0.0004738541319966316,0.00018147798255085945
1782832016444444200,1.163444091796875,-0.0012666163966059685,-0.0021428577601909637,-0.00235757976770401
1782832016454373000,1.173373046875,0.000690811313688755,-0.00004748161882162094,-0.0017906301654875278
1782832016464302000,1.183302001953125,0.0017419606447219849,-0.0005502868443727493,0.0002288450486958027
1782832016474231300,1.193231201171875,0.0014011198654770851,-0.000505274161696434,0.0034577795304358006
1782832016484159200,1.2031591796875,0.0010692905634641647,-0.0018182126805186272,-0.00017503788694739342
1782832016494088200,1.213088134765625,0.0020916378125548363,-0.0021559856832027435,0.002224790398031473
1782832016504017200,1.22301708984375,0.0003557894378900528,0.002078440971672535,-0.0003579435870051384
1782832016513946000,1.232946044921875,0.00034801289439201355,0.0005512386560440063,-0.002920728176832199
1782832016523875300,1.242875244140625,-0.00022936053574085236,0.0001467037945985794,0.002105721738189459
1782832016533804300,1.25280419921875,-0.002412681467831135,0.0018389420583844185,-0.003428197931498289
1782832016543733000,1.26273291015625,0.0019357278943061829,-0.0000966433435678482,-0.00027235178276896477
1782832016553662000,1.272661865234375,-0.00027632154524326324,-0.0002208668738603592,-0.0017829304561018944
1782832016563591200,1.282591064453125,-0.0007684733718633652,0.0016667824238538742,-0.0015019671991467476
1782832016573520100,1.29252001953125,-0.000280892476439476,0.0008766986429691315,0.000431994441896677
1782832016583449000,1.302448974609375,0.0012040864676237106,-0.00023463834077119827,-0.00019464781507849693
1782832016593377000,1.312376953125,0.0007060393691062927,-0.0002628043293952942,0.0020713498815894127
1782832016603306000,1.322305908203125,0.0016261618584394455,-0.0015464471653103828,0.0003650626167654991
1782832016613235200,1.332235107421875,-0.000027350150048732758,-0.004074819386005402,0.001902290154248476
1782832016623164200,1.3421640625,-0.000051851384341716766,-0.0025384416803717613,0.0023217382840812206
1782832016633093000,1.352093017578125,0.0009935460984706879,-0.0042247287929058075,-0.0009197206236422062
1782832016643022000,1.36202197265625,-0.0022882670164108276,0.00039132870733737946,0.001400425098836422
1782832016652951300,1.371951416015625,0.0010711289942264557,-0.0001268591731786728,-0.002258855849504471
1782832016662880300,1.38188037109375,0.002132399007678032,0.001261180266737938,-0.0008002426475286484
1782832016672809200,1.391809326171875,0.0018016127869486809,0.0015378370881080627,0.0003956216387450695
1782832016682738200,1.40173828125,-0.00017178989946842194,-0.0009610066190361977,-0.0011617951095104218
1782832016692666000,1.411666015625,-0.00030201952904462814,-0.0006221979856491089,-0.00023239338770508766
1782832016702595300,1.42159521484375,0.0003243563696742058,0.001061985269188881,0.00017400505021214485
1782832016712524300,1.431524169921875,-0.0012231096625328064,0.0007804315537214279,-0.0004924428649246693
1782832016722453000,1.441452880859375,-0.0011804988607764244,0.0016025491058826447,0.0013621826656162739
1782832016732382000,1.4513818359375,-0.0013038218021392822,-0.001976471394300461,0.001336307730525732
1782832016742311200,1.461311279296875,0.0022882502526044846,0.001806815154850483,0.0005469466559588909
1782832016752240000,1.471240234375,-0.0011807288974523544,0.00040539447218179703,-0.0004799412563443184
1782832016762169000,1.481169189453125,0.000011035241186618805,-0.00006252340972423553,-0.001352126244455576
1782832016772098000,1.49109814453125,0.0025134412571787834,0.0019068168476223946,0.0010506096296012402
1782832016782027300,1.50102734375,0.000010603107511997223,0.0011880295351147652,-0.0010386407375335693
1782832016791956200,1.510956298828125,0.00011036079376935959,-0.0007205838337540627,0.0005644345656037331
1782832016801884200,1.52088427734375,0.0005540437996387482,-0.0017203353345394135,0.0030560875311493874
1782832016811813000,1.530813232421875,0.0011857030913233757,-0.0016118492931127548,0.0036379056982696056
1782832016821742000,1.5407421875,0.0011609354987740517,0.0017802193760871887,0.0001196037046611309
1782832016831671300,1.55067138671875,0.0006050309166312218,-0.002117653377354145,-0.0009793578647077084
1782832016841600300,1.560600341796875,0.00014483742415905,0.0002850508317351341,0.0009319931268692017
1782832016851529200,1.570529296875,0.0016198884695768356,0.0009247623383998871,-0.0007230648770928383
1782832016861458200,1.580458251953125,-0.0015548653900623322,0.000986015424132347,-0.002114832866936922
1782832016871387100,1.59038720703125,0.0006880974397063255,0.0005647465586662292,0.00033541349694132805
1782832016881316000,1.600316162109375,-0.00022616516798734665,0.0004142783582210541,-0.0001639295369386673
1782832016891245000,1.6102451171875,-0.0009732507169246674,-0.00014374498277902603,0.0011027860455214977
1782832016901174000,1.620174072265625,0.0028055086731910706,-0.0014838473871350288,0.0004252777434885502
1782832016911102000,1.63010205078125,-0.0001468658447265625,-0.002854960970580578,0.002613140270113945
1782832016921031400,1.640031494140625,0.0014265300706028938,0.0008532246574759483,0.00029832031577825546
1782832016930960400,1.64996044921875,0.0016855569556355476,0.0015711542218923569,0.00002761976793408394
1782832016940889300,1.659889404296875,0.00025517307221889496,0.00033677928149700165,-0.0015439116396009922
1782832016950818300,1.669818359375,0.00025262124836444855,0.0016589527949690819,0.0011980654671788216
1782832016960747500,1.67974755859375,0.00022013112902641296,0.0003406880423426628,0.0011131102219223976
1782832016970676500,1.689676513671875,-0.0019394690170884132,-0.0019156336784362793,-0.0011968552134931087
1782832016980605400,1.69960546875,-0.000009476207196712494,0.0010884115472435951,-0.00040136929601430893
1782832016990534400,1.709534423828125,-0.0008920524269342422,0.0010318346321582794,-0.002168244682252407
1782832017000463400,1.71946337890625,-0.00014476943761110306,-0.0012025581672787666,-0.0015700985677540302
1782832017010392300,1.729392333984375,-0.0009977761656045914,0.0003234054893255234,0.002039545215666294
1782832017020320500,1.739320556640625,0.00012101791799068451,-0.002752811647951603,0.00030316412448883057
1782832017030249500,1.74924951171875,0.0015439549461007118,-0.00020672660320997238,-0.003247575368732214
1782832017040178200,1.75917822265625,0.0003503253683447838,-0.00023415777832269669,0.001553038600832224
1782832017050107400,1.769107421875,0.0001542307436466217,-0.0022426312789320946,-0.0034641213715076447
1782832017060036400,1.779036376953125,0.0021340250968933105,-0.002052481286227703,0.0019484874792397022
1782832017069965300,1.78896533203125,-0.00016211345791816711,-0.0023793457075953484,0.0011940239928662777
1782832017079894300,1.798894287109375,0.000645623542368412,0.00067849550396204,0.0002185082994401455
1782832017089823500,1.808823486328125,0.0026110634207725525,0.0006102444604039192,-0.0005585146136581898
1782832017099752400,1.81875244140625,0.0004200814291834831,0.0031298603862524033,0.001849249005317688
1782832017109681400,1.828681396484375,0.0015758825466036797,-0.001193343661725521,0.0012041055597364902
1782832017119609300,1.838609375,-0.001075027510523796,0.0007944405078887939,0.001858444418758154
1782832017129538300,1.848538330078125,-0.0008631730452179909,0.0006978139281272888,0.00033771153539419174
1782832017139467500,1.858467529296875,0.0017222240567207336,-0.0007637292146682739,-0.00029851775616407394
1782832017149396500,1.868396484375,0.001348729245364666,0.0024673333391547203,-0.0022393250837922096
1782832017159325400,1.878325439453125,0.001699734479188919,-0.00012498721480369568,0.00009173993021249771
1782832017169254400,1.88825439453125,0.000010110437870025635,-0.0015591569244861603,0.002979311626404524
1782832017179183400,1.898183349609375,-0.000378977507352829,-0.0014153467491269112,0.00009191222488880157
1782832017189112300,1.9081123046875,-0.0009413966909050941,0.00009424984455108643,0.0017574899829924107
1782832017199041300,1.918041259765625,-0.00016268901526927948,-0.0005957754328846931,0.002458167728036642
1782832017208970200,1.92797021484375,-0.0002117576077580452,0.00021306052803993225,-0.00009742751717567444
1782832017218899500,1.9378994140625,-0.0023731794208288193,0.00041679292917251587,0.0025036814622581005
1782832017228827400,1.947827392578125,-0.002062235027551651,0.00009510666131973267,-0.0014284891076385975
1782832017238756400,1.95775634765625,-0.0007303887978196144,-0.001972304657101631,-0.0014314185827970505
1782832017248685300,1.967685302734375,-0.0016012080013751984,-0.0023695752024650574,-0.00038277963176369667
1782832017258614300,1.9776142578125,-0.0009607179090380669,-0.0010012425482273102,-0.00048131635412573814
1782832017268543500,1.98754345703125,0.0007088501006364822,-0.0003536883741617203,0.001297883689403534
1782832017278472400,1.997472412109375,0.000051315873861312866,-0.0005457019433379173,-0.000518125481903553
1782832017288401400,2.0074013671875,-0.000894465483725071,0.0007031392306089401,-0.0015022275038063526
1782832017298330400,2.017330322265625,-0.0018023373559117317,0.0006394898518919945,0.000742817297577858
1782832017308259600,2.027259521484375,-0.0014737723395228386,0.0000723404809832573,-0.0013199420645833015
1782832017318188500,2.0371884765625,0.0008327914401888847,0.0009037787094712257,-0.0010344511829316616
1782832017328117200,2.0471171875,0.0019948501139879227,0.0004141470417380333,-0.001495786476880312
1782832017338045400,2.05704541015625,-0.0010129241272807121,-0.000051107257604599,-0.0009522354230284691
1782832017347974400,2.066974365234375,0.0018950169906020164,0.001903933472931385,-0.00017610052600502968
1782832017357903400,2.0769033203125,0.0009210994467139244,0.0018397513777017593,0.002550177276134491
1782832017367832300,2.086832275390625,-0.00011840742081403732,0.0014800559729337692,0.00009686360135674477
1782832017377761300,2.09676123046875,0.0006232829764485359,-0.0025493064895272255,0.001962674781680107
1782832017387690200,2.106690185546875,0.0013446900993585587,-0.0003568362444639206,0.0016298769041895866
1782832017397619500,2.116619384765625,0.00022030342370271683,-0.0016380827873945236,-0.0009174365550279617
1782832017407548400,2.12654833984375,0.002647191286087036,-0.004356265999376774,0.00034361472353339195
1782832017417477400,2.136477294921875,-0.0013946890830993652,-0.00008535385131835938,-0.0012883702293038368
1782832017427406300,2.14640625,0.00019753165543079376,0.0023588240146636963,0.0007009920664131641
1782832017437335600,2.15633544921875,-0.0004200553521513939,-0.005150757264345884,-0.00019383011385798454
1782832017447263500,2.166263427734375,0.00032394006848335266,-0.0010909680277109146,-0.0014980942942202091
1782832017457192400,2.1761923828125,0.00041528698056936264,-0.0022537047043442726,-0.0013758549466729164
1782832017467121400,2.186121337890625,-0.0009034629911184311,0.0006777625530958176,-0.00010150810703635216
1782832017477050400,2.19605029296875,0.001431063748896122,-0.0005837762728333473,0.000024726148694753647
1782832017486979600,2.2059794921875,0.0002156561240553856,0.0004313187673687935,0.0024507162161171436
1782832017496908500,2.215908447265625,-0.001436568796634674,-0.001291479915380478,0.0002599996514618397
1782832017506837200,2.225837158203125,0.0006889849901199341,0.001602347008883953,-0.0005978560075163841
1782832017516766200,2.23576611328125,0.0013079037889838219,0.0009943470358848572,-0.0012995991855859756
1782832017526695400,2.2456953125,-0.003559805452823639,0.0010584276169538498,0.0010324129834771156
1782832017536624400,2.255624267578125,0.0011316193267703056,0.0007678773254156113,-0.0005127531476318836
1782832017546553300,2.26555322265625,-0.0002873055636882782,0.0010986654087901115,-0.0013841940090060234
1782832017556481300,2.275481201171875,-0.002119826152920723,0.0006328783929347992,0.001707469578832388
1782832017566410200,2.28541015625,0.002575063146650791,-0.0012874146923422813,0.0007112137973308563
1782832017576339500,2.29533935546875,-0.001422608271241188,0.0005171429365873337,0.00452512688934803
1782832017586268400,2.305268310546875,-0.001002982258796692,-0.00030793994665145874,0.0006205220706760883
1782832017596197400,2.315197265625,0.0017629768699407578,0.00031097885221242905,0.0009539495222270489
1782832017606126300,2.325126220703125,0.000008211471140384674,-0.002103332430124283,-0.0007355897687375546
1782832017616055600,2.3350556640625,0.0013134274631738663,-0.000899316743016243,-0.0025995359756052494
1782832017625984500,2.344984619140625,-0.0032179001718759537,-0.0004325537011027336,-0.0003709821030497551
1782832017635913500,2.35491357421875,-0.0012852447107434273,-0.00200568325817585,-0.001483118161559105
1782832017645842400,2.364842529296875,-0.000982474535703659,0.0006282590329647064,-0.0020731547847390175
1782832017655771400,2.374771484375,-0.0013164356350898743,0.0006173402070999146,-0.0006105466745793819
1782832017665699600,2.384699462890625,0.000419040210545063,0.0019036568701267242,-0.0014876071363687515
1782832017675628500,2.394628662109375,0.002170334570109844,0.0004961760714650154,0.0007784762419760227
1782832017685557200,2.40455712890625,0.00046228524297475815,-0.0021439557895064354,-0.0005408916622400284
1782832017695486200,2.414486328125,0.0015400666743516922,0.0012627597898244858,-0.00027058040723204613
1782832017705415400,2.42441552734375,0.0006126342341303825,0.0013473229482769966,0.0019097430631518364
1782832017715344400,2.434344482421875,-0.0007202783599495888,0.0008130930364131927,-0.002314829733222723
1782832017725273300,2.4442734375,0.0012839576229453087,0.0011670365929603577,0.0019525610841810703
1782832017735202300,2.454202392578125,0.0035793362185359,0.0014258958399295807,-0.003205981571227312
1782832017745131500,2.464131591796875,0.000004866160452365875,-0.00016390997916460037,-0.0003045317716896534
1782832017755060500,2.474060546875,-0.00016957055777311325,0.001239841803908348,0.00029973918572068214
1782832017764989400,2.483989501953125,-0.0004894593730568886,-0.0015712017193436623,0.0024228133261203766
1782832017774917400,2.49391748046875,-0.0009358050301671028,-0.0020777350291609764,-0.0009942883625626564
1782832017784846300,2.503846435546875,0.00048332102596759796,0.0017681578174233437,-0.0014965743757784367
1782832017794775600,2.513775634765625,-0.000131336972117424,-0.0003402670845389366,0.0017258506268262863
1782832017804704500,2.52370458984375,0.0005127638578414917,-0.0019738730043172836,0.0015991833060979843
1782832017814633500,2.533633544921875,-0.0016555814072489738,-0.001897440291941166,0.00008544232696294785
1782832017824562400,2.5435625,0.0003050966188311577,-0.0016753226518630981,0.00207393616437912
1782832017834491400,2.553491455078125,0.0026382924988865852,-0.000012977980077266693,0.0036169709637761116
1782832017844420400,2.56342041015625,0.00037658680230379105,0.0007861452177166939,-0.0005788030102849007
1782832017854349300,2.573349365234375,0.0008426401764154434,-0.0011007040739059448,-0.00005735596641898155
1782832017864278300,2.5832783203125,0.0011401809751987457,-0.0008781477808952332,0.001452065072953701
1782832017874207500,2.59320751953125,0.00022085756063461304,0.0015834122896194458,0.0004579070955514908
1782832017884135400,2.603135498046875,-0.0005729096010327339,0.0013465750962495804,0.001339488197118044
1782832017894064400,2.613064453125,0.00021272338926792145,0.0027359463274478912,-0.0008762623183429241
1782832017903993300,2.622993408203125,-0.0018166247755289078,0.00046212878078222275,-0.002233590930700302
1782832017913922300,2.63292236328125,0.00029366370290517807,0.0016238000243902206,0.00035952869802713394
1782832017923854800,2.642854736328125,-0.0003236783668398857,0.0010306471958756447,0.001489370595663786
1782832017933783800,2.65278369140625,0.0008398564532399178,-0.0018317187204957008,0.0005013379268348217
1782832017943712800,2.662712646484375,-0.0019376585260033607,-0.0020755361765623093,-0.00035315100103616714
1782832017953641700,2.672641845703125,-0.0008407030254602432,-0.0018840553238987923,0.0011549973860383034
1782832017963571000,2.682571044921875,0.0011285394430160522,-0.0007105348631739616,0.001023974735289812
1782832017973499600,2.692499755859375,0.0014558415859937668,-0.0012940336018800735,0.0007227710448205471
1782832017983428600,2.7024287109375,-0.0009683165699243546,0.0006353482604026794,0.00044837500900030136
1782832017993356800,2.712356689453125,0.00018030405044555664,-0.00019049830734729767,-0.0011737565509974957
1782832018003285800,2.72228564453125,-0.0022915517911314964,0.0024895230308175087,-0.0007588937878608704
1782832018013214700,2.732214599609375,0.001169757917523384,-0.0012229233980178833,-0.003468127455562353
1782832018023143700,2.742143798828125,-0.001954304054379463,-0.0015743952244520187,-0.0009259069338440895
1782832018033072600,2.75207275390625,-0.001669878140091896,-0.0015834495425224304,-0.0028226105496287346
1782832018043001600,2.762001708984375,0.001025209203362465,0.001705939881503582,-0.0004458804614841938
1782832018052930800,2.771930908203125,0.000563683919608593,0.0034069009125232697,0.000668652355670929
1782832018062859800,2.78185986328125,0.0001179669052362442,-0.001099810004234314,0.0008850386366248131
1782832018072788700,2.791788818359375,0.00047483015805482864,0.0022477833554148674,0.0013303197920322418
1782832018082717700,2.8017177734375,-0.001336389221251011,0.0007360260933637619,-0.0001354818232357502
1782832018092647000,2.81164697265625,0.00021969527006149292,-0.000913003459572792,0.0011995607055723667
1782832018102575900,2.821575927734375,0.00015159975737333298,0.0016833161935210228,-0.0005335411988198757
1782832018112503800,2.83150390625,0.00014946982264518738,-0.0000914139673113823,-0.0009702993556857109
1782832018122432800,2.841432861328125,-0.00008938554674386978,-0.00012661051005125046,0.0009869439527392387
1782832018132361700,2.85136181640625,-0.0008726213127374649,-0.00021529290825128555,-0.0013361312448978424
1782832018142291000,2.861291015625,0.0009074127301573753,0.00040675606578588486,0.0008974578231573105
1782832018152219600,2.8712197265625,-0.0004164446145296097,0.00013751070946455002,0.00012966850772500038
1782832018162148600,2.881148681640625,0.0007083732634782791,-0.0020022112876176834,0.002597171813249588
1782832018172077600,2.89107763671875,0.0009437967091798782,-0.0009758295491337776,-0.0005882349796593189
1782832018182006800,2.9010068359375,0.00043493881821632385,-0.0020437492057681084,-0.0034187580458819866
1782832018191935700,2.910935791015625,-0.0008420469239354134,-0.0006184261292219162,-0.0015606707893311977
1782832018201864700,2.92086474609375,0.0007527247071266174,0.0003915289416909218,0.0026901978999376297
1782832018211793700,2.930793701171875,-0.0024731624871492386,0.00046556536108255386,0.0010347776114940643
1782832018221723000,2.940722900390625,0.001619214192032814,-0.001076989807188511,-0.0014942395500838757
1782832018231650800,2.95065087890625,0.0017326651141047478,0.0012346338480710983,-0.0014548245817422867
1782832018241579800,2.960579833984375,-0.0023279692977666855,0.0017218738794326782,-0.00042054615914821625
1782832018251508700,2.9705087890625,0.0022388193756341934,-0.0010978812351822853,-0.002303134649991989
1782832018261437700,2.980437744140625,0.001742667518556118,-0.00024253129959106445,0.002180136274546385
1782832018271367000,2.990366943359375,0.0009264089167118073,0.0008344510570168495,0.0046081398613750935
1782832018281296000,3.0002958984375,0.002353277988731861,-0.0000231768935918808,-0.001357396598905325
1782832018291224800,3.010224853515625,-0.0009993752464652061,0.0013206535950303078,0.0010977713391184807
1782832018301153500,3.020153564453125,0.0022637955844402313,0.00021277926862239838,-0.000500124879181385
1782832018311082800,3.030082763671875,-0.0004034619778394699,-0.001458682119846344,-0.0027077733539044857
1782832018321011700,3.04001171875,0.0012629572302103043,-0.0007569938898086548,-0.0011655217967927456
1782832018330940700,3.049940673828125,0.0015455186367034912,0.00020280946046113968,-0.0030140220187604427
1782832018340868600,3.05986865234375,0.002045542001724243,-0.0014015641063451767,0.00033767055720090866
1782832018350797600,3.069797607421875,-0.0009337365627288818,-0.0019123591482639313,0.0010631158947944641
1782832018360726800,3.079726806640625,0.0026206765323877335,-0.0022060638293623924,0.003301139920949936
1782832018370655700,3.08965576171875,0.0009269062429666519,-0.0014673024415969849,0.00009416136890649796
1782832018380584700,3.099584716796875,0.0012836670503020287,-0.0022396333515644073,-0.00007177144289016724
1782832018390513700,3.109513671875,0.001989404670894146,0.0008424427360296249,-0.0016486290842294693
1782832018400443000,3.11944287109375,0.00004093814641237259,-0.0006005419418215752,0.0003843172453343868
1782832018410371800,3.129371826171875,0.002293439581990242,0.001371794380247593,0.0004064212553203106
1782832018420300800,3.13930078125,0.0025048479437828064,-0.00005220528692007065,0.0010161050595343113
1782832018430229800,3.149229736328125,-0.00022302847355604172,0.0029145563021302223,-0.0002656746655702591
1782832018440158700,3.15915869140625,0.00047182757407426834,0.0020366767421364784,-0.00158627238124609
1782832018450087700,3.169087646484375,-0.002906125970184803,0.0005924450233578682,-0.001551118679344654
1782832018460015900,3.179015869140625,-0.000021179206669330597,0.0006076106801629066,0.001081650611013174
1782832018469944800,3.18894482421875,0.0002800244837999344,-0.0019215932115912437,-0.00043235626071691513
1782832018479873500,3.19887353515625,0.00021313689649105072,0.0005791718140244484,-0.00039414409548044205
1782832018489802800,3.208802734375,-0.0012372201308608055,0.0007823705673217773,-0.002302831970155239
1782832018499731700,3.218731689453125,0.0005430467426776886,0.0004924442619085312,-0.002170780673623085
1782832018509660700,3.22866064453125,0.0010240133851766586,-0.0008420655503869057,-0.0007611694745719433
1782832018519589600,3.238589599609375,-0.0013890871778130531,-0.0003068540245294571,-0.0012660590000450611
1782832018529518800,3.248518798828125,-0.0015712473541498184,0.0011014249175786972,-0.0013456875458359718
1782832018539447800,3.25844775390625,0.000852375291287899,-0.002246541902422905,0.0020268168300390244
1782832018549376800,3.268376708984375,-0.002552209421992302,0.0005668215453624725,-0.00030691083520650864
1782832018559305700,3.2783056640625,-0.0016224170103669167,0.0005151452496647835,0.0016386471688747406
1782832018569235000,3.28823486328125,-0.0024160388857126236,-0.0001820707693696022,0.0021832631900906563
1782832018579163000,3.298162841796875,0.0013283304870128632,-0.00012620072811841965,0.0003755898214876652
1782832018589091800,3.308091796875,-0.00043468177318573,-0.0015150392428040504,0.0016483147628605366
1782832018599020800,3.318020751953125,0.0015340950340032578,-0.0005789324641227722,-0.000516822561621666
1782832018608949800,3.32794970703125,-0.002279285341501236,-0.0011328700929880142,-0.002939766738563776
1782832018618878700,3.337878662109375,-0.0008646557107567787,-0.0001273592934012413,0.0006082989275455475
1782832018628807700,3.3478076171875,0.0015188734978437424,0.0017762687057256699,0.00003864895552396774
1782832018638736600,3.357736572265625,-0.0017175879329442978,0.0007059210911393166,-0.0007195095531642437
1782832018648665600,3.36766552734375,0.0009652804583311081,0.001351737417280674,0.0014344551600515842
1782832018658594800,3.3775947265625,-0.0009507909417152405,-0.0022650668397545815,0.0034148464910686016
1782832018668523800,3.387523681640625,-0.0006764847785234451,0.000782388262450695,0.0014454391784965992
1782832018678452700,3.39745263671875,0.00265507772564888,0.0009134998545050621,-0.0016424432396888733
1782832018688380700,3.407380615234375,0.0017719734460115433,0.00041522271931171417,0.0018345797434449196
1782832018698309600,3.4173095703125,-0.0015101376920938492,0.00047550443559885025,-0.00008522253483533859
1782832018708238800,3.42723876953125,0.0011988300830125809,-0.001356484368443489,0.0009070714004337788
1782832018718167800,3.437167724609375,0.002224278636276722,0.0006345584988594055,0.0002999338321387768
1782832018728096800,3.4470966796875,0.0005797771736979485,-0.0002639917656779289,0.0025590932928025723
1782832018738025700,3.457025634765625,0.00047711096704006195,0.0009478386491537094,0.0013362867757678032
1782832018747955000,3.466954833984375,-0.0003367513418197632,-0.0022058766335248947,0.0005184300243854523
1782832018757884000,3.4768837890625,0.0012147994711995125,0.0004176562651991844,0.0008339770138263702
1782832018767812600,3.4868125,-0.00041079334914684296,-0.0021568210795521736,0.0007016174495220184
1782832018777741600,3.496741455078125,-0.0007801679894328117,0.00047082360833883286,-0.0008595655672252178
1782832018787670800,3.5066708984375,0.0015596849843859673,0.0011115800589323044,0.0005801389925181866
1782832018797599700,3.516599853515625,-0.00042397622019052505,0.00042239297181367874,-0.0016172286123037338
1782832018807527700,3.526527587890625,0.0012937625870108604,0.000997636467218399,0.0002869316376745701
1782832018817456600,3.53645654296875,-0.0008810423314571381,-0.0007124217227101326,0.0008278898894786835
1782832018827385600,3.546385498046875,-0.001059207133948803,-0.001315627247095108,0.000027876347303390503
1782832018837314800,3.556314697265625,-0.001244882121682167,-0.0001620408147573471,0.0012747524306178093
1782832018847243800,3.566243896484375,-0.0013322336599230766,-0.0014459509402513504,0.0016065826639533043
1782832018857172700,3.5761728515625,-0.000029546208679676056,0.00009584054350852966,0.0009521567262709141
1782832018867101700,3.586101806640625,0.00109137874096632,0.0011712247505784035,0.00013403315097093582
1782832018877031000,3.596031005859375,0.0008790232241153717,0.0009270515292882919,0.00024981284514069557
1782832018886959900,3.6059599609375,0.00015331152826547623,0.0020833956077694893,0.00003702612593770027
1782832018896888800,3.615888916015625,-0.001546718180179596,0.00043194275349378586,0.00048586027696728706
1782832018906817800,3.62581787109375,-0.0010819965973496437,0.0002969196066260338,-0.0011096391826868057
1782832018916744200,3.635744140625,0.0015699416399002075,-0.0015033800154924393,0.0014259498566389084
1782832018926672100,3.645672119140625,-0.0011928221210837364,-0.000892183743417263,0.0012989165261387825
1782832018936601000,3.65560107421875,-0.0009116502478718758,-0.00160983856767416,0.00010543083772063255
1782832018946530300,3.6655302734375,-0.0019516153261065483,-0.001116621308028698,-0.0009731496684253216
1782832018956459300,3.675459228515625,0.0011586472392082214,-0.001931050792336464,0.0023312484845519066
1782832018966388200,3.68538818359375,-0.001310635358095169,-0.0020165378227829933,0.0007762294262647629
1782832018976317200,3.695317138671875,0.001948593184351921,-0.0004325276240706444,0.0007467395626008511
1782832018986246400,3.705246337890625,-0.0022781090810894966,0.0014473972842097282,-0.000051143579185009
1782832018996175400,3.71517529296875,-0.0007953653112053871,0.001928362064063549,-0.0009360471740365028
1782832019006104300,3.725104248046875,-0.0008321171626448631,0.00016881152987480164,0.0022371094673871994
1782832019016033300,3.735033203125,-0.0021903328597545624,0.000802590511739254,0.0002968129701912403
1782832019025962200,3.744962158203125,0.0005199657753109932,0.00174055527895689,0.0007942919619381428
1782832019035891200,3.75489111328125,-0.0010406579822301865,0.00023909099400043488,0.00017019454389810562
1782832019045819400,3.7648193359375,-0.0018364107236266136,-0.000535355880856514,-0.0002636341378092766
1782832019055748400,3.774748291015625,0.0021552806720137596,0.0013945139944553375,-0.00015852553769946098
1782832019065677000,3.784677001953125,-0.0010516978800296783,0.004017726518213749,0.001963747665286064
1782832019075606300,3.794606201171875,0.0006403643637895584,-0.0014546522870659828,0.0008374708704650402
1782832019085535200,3.80453515625,-0.0005476726219058037,-0.0008993837982416153,-0.0008658873848617077
1782832019095464200,3.814464111328125,-0.001734783872961998,0.00023216940462589264,-0.0019848612137138844
1782832019105393200,3.82439306640625,-0.00035446789115667343,-0.003171617165207863,0.0009747100993990898
1782832019115322400,3.834322265625,-0.0005139848217368126,0.0006206678226590157,-0.0003249356523156166
1782832019125251300,3.844251220703125,-0.0021204035729169846,-0.0011612530797719955,0.000006628222763538361
1782832019135180300,3.85418017578125,0.0011645909398794174,0.0011278148740530014,0.0007582767866551876
1782832019145109200,3.864109130859375,0.00033927708864212036,-0.0007846010848879814,0.00044615427032113075
1782832019155038200,3.8740380859375,-0.00009894557297229767,-0.001630866900086403,0.0003334423527121544
1782832019164966400,3.88396630859375,0.0022257277742028236,-0.0005509546026587486,0.0025137728080153465
1782832019174895400,3.893895263671875,-0.001485481858253479,-0.0022511929273605347,-0.0013990523293614388
1782832019184824300,3.90382421875,0.0014000525698065758,-0.0013153580948710442,0.00016289157792925835
1782832019194753300,3.913753173828125,0.0003167474642395973,-0.0017858939245343208,-0.0009776703082025051
1782832019204682200,3.92368212890625,0.00032819900661706924,0.00045781955122947693,-0.001557706855237484
1782832019214611200,3.933611083984375,0.0025715669617056847,-0.001192951574921608,-0.0007784245535731316
1782832019224540200,3.9435400390625,-0.0017440859228372574,-0.0004131784662604332,-0.00020637735724449158
1782832019234469000,3.95346923828125,-0.0011059185490012169,0.00000861380249261856,-0.0012410441413521767
1782832019244398300,3.9633984375,0.001275213435292244,0.001258169300854206,0.0031126919202506542
1782832019254327300,3.973327392578125,-0.00005329865962266922,0.0018282271921634674,0.0017042318359017372
1782832019264256300,3.98325634765625,-0.0009739529341459274,0.0015453994274139404,0.0012594843283295631
1782832019274185200,3.993185302734375,0.00026991497725248337,-0.0011249380186200142,0.00009085610508918762
1782832019284113200,4.003113037109375,-0.00017350167036056519,0.00016776006668806076,-0.0016417964361608028
1782832019294042400,4.01304248046875,0.0015097232535481453,-0.00010391231626272202,0.0014521321281790733
1782832019303971300,4.022971435546875,0.002555813640356064,-0.0015838313847780228,-0.002708790358155966
1782832019313900300,4.032900390625,0.001639086753129959,-0.0016292426735162735,-0.0012872014194726944
1782832019323829200,4.042829345703125,0.000016955658793449402,0.0007425686344504356,0.0005133617669343948
1782832019333758500,4.052758544921875,0.00016345083713531494,-0.00006987620145082474,0.0006774053908884525
1782832019343687200,4.062687255859375,0.0004646545276045799,-0.0006341999396681786,-0.0001801326870918274
1782832019353616100,4.0726162109375,-0.00040980055928230286,-0.0005949977785348892,-0.001514398492872715
1782832019363545000,4.082545166015625,-0.0008042147383093834,0.0016950545832514763,0.003234283998608589
1782832019373474000,4.09247412109375,-0.00008501298725605011,0.001032492145895958,0.00038891471922397614
1782832019383403300,4.1024033203125,-0.0010541370138525963,0.000522230751812458,0.001772160641849041
1782832019393332200,4.112332275390625,0.0015052417293190956,0.002620427869260311,-0.00045381952077150345
1782832019403260200,4.12226025390625,-0.0008548516780138016,0.0011487649753689766,-0.00020534684881567955
1782832019413189000,4.132189208984375,-0.0006356649100780487,0.0001698797568678856,-0.0003564441576600075
1782832019423118300,4.142118408203125,0.002640555612742901,-0.0008386587724089622,0.0000475575216114521
1782832019433047300,4.15204736328125,-0.0008276104927062988,0.00015023350715637207,0.00022817542776465416
1782832019442976300,4.161976318359375,-0.0011450592428445816,0.0017638429999351501,0.0008199303410947323
1782832019452905200,4.1719052734375,0.0016427822411060333,0.0017833439633250237,0.00031081587076187134
1782832019462834200,4.181834228515625,0.00029389094561338425,0.0017220908775925636,0.0005001667886972427
1782832019472763400,4.191763427734375,-0.00036080460995435715,-0.0018946276977658272,-0.0014247149229049683
1782832019482692400,4.2016923828125,-0.002135802060365677,-0.0006980691105127335,-0.0008558640256524086
1782832019492621000,4.21162109375,0.0009335465729236603,-0.0006204061210155487,-0.0005299532786011696
1782832019502550000,4.221550048828125,-0.00012053269892930984,0.0012994669377803802,-0.0004375418648123741
1782832019512479200,4.231479248046875,0.0002565290778875351,-0.00032549910247325897,-0.00045327190309762955
1782832019522407200,4.2414072265625,-0.0005067326128482819,0.00032244715839624405,-0.001923869363963604
1782832019532336000,4.251336181640625,0.0037218285724520683,-0.000372227281332016,0.0008605038747191429
1782832019542265000,4.26126513671875,0.0013731876388192177,-0.0017064716666936874,0.001919376663863659
1782832019552194000,4.271194091796875,0.0010678647086024284,0.0003490941599011421,0.0012598680332303047
1782832019562123300,4.281123291015625,0.0008809110149741173,0.0019403323531150818,0.0007003378123044968
1782832019572052200,4.29105224609375,-0.0014388859272003174,-0.0023304596543312073,-0.0010956665500998497
1782832019581981200,4.300981201171875,-0.0013150488957762718,-0.002544577233493328,0.0003504296764731407
1782832019591910100,4.31091015625,-0.002540385350584984,-0.0004945006221532822,0.00036706775426864624
1782832019601839400,4.32083935546875,-0.0013755187392234802,-0.0022958628833293915,-0.001208724919706583
1782832019611768300,4.330768310546875,0.0009344443678855896,0.00045315828174352646,0.0005349703133106232
1782832019621697300,4.340697265625,0.0015826579183340073,0.002568506635725498,-0.0007739732973277569
1782832019631626200,4.350626220703125,0.000918087549507618,0.001765168271958828,0.0018860828131437302
1782832019641554400,4.360554443359375,0.003343428485095501,0.0006543640047311783,0.0021822256967425346
1782832019651483400,4.3704833984375,-0.00177849642932415,0.0032606087625026703,0.0015477943234145641
1782832019661412400,4.380412353515625,-0.000545453280210495,0.0009958567097783089,0.00044204993173480034
1782832019671341000,4.390341064453125,-0.0008403882384300232,0.00007267668843269348,-0.0008224803023040295
1782832019681270000,4.40027001953125,-0.0005442444235086441,-0.00041015446186065674,-0.001436871476471424
1782832019691199200,4.41019921875,-0.0012872172519564629,-0.000158051960170269,-0.0028086425736546516
1782832019701128200,4.420128173828125,0.0003453008830547333,0.000044347718358039856,-0.0017103548161685467
1782832019711057200,4.43005712890625,-0.0012166425585746765,-0.001485239714384079,-0.002869401127099991
1782832019720986000,4.439986083984375,0.001085127703845501,0.0015837866812944412,0.00020335428416728973
1782832019730915300,4.449915283203125,-0.0008061518892645836,-0.0018348144367337227,0.002095382194966078
1782832019740844300,4.45984423828125,-0.0013763345777988434,-0.002030024304986,-0.001499352976679802
1782832019750773200,4.469773193359375,0.00038528721779584885,-0.0034883860498666763,-0.002347754780203104
1782832019760701200,4.479701171875,-0.0005801087245345116,0.0010461779311299324,-0.0007823486812412739
1782832019770630100,4.489630126953125,0.00012824498116970062,0.00003905501216650009,0.0013286089524626732
1782832019780559400,4.499559326171875,-0.002183379605412483,0.00046622566878795624,-0.0009087128564715385
1782832019790488300,4.50948828125,-0.0012340284883975983,-0.00021202955394983292,-0.0002756747417151928
1782832019800417300,4.519417236328125,0.0007092803716659546,-0.0018597273156046867,0.0006878566928207874
1782832019810346200,4.52934619140625,0.00018313433974981308,0.00022641662508249283,0.0012825317680835724
1782832019820275200,4.539275146484375,-0.0006786640733480453,0.0029550911858677864,0.0004793219268321991
1782832019830204200,4.5492041015625,-0.00039889104664325714,0.0010936427861452103,-0.0015833079814910889
1782832019840133000,4.559133056640625,0.00034732650965452194,-0.0006022583693265915,0.0007208585739135742
1782832019850062000,4.56906201171875,0.0006384318694472313,0.001361684873700142,0.0006950167007744312
1782832019859991300,4.5789912109375,-0.0013434924185276031,0.0018165530636906624,0.0015096771530807018
1782832019869920300,4.588920166015625,-0.0012864386662840843,0.0016632908955216408,-0.0011981143616139889
1782832019879849200,4.59884912109375,0.0009223874658346176,-0.002155415713787079,-0.0037369057536125183
1782832019889777200,4.608777099609375,-0.0007980577647686005,-0.000806925818324089,-0.0017195823602378368
1782832019899706000,4.6187060546875,0.0006043631583452225,-0.0016410285606980324,0.0009489050135016441
1782832019909635300,4.62863525390625,-0.0010118745267391205,-0.0016470691189169884,-0.001648256555199623
1782832019919563500,4.6385634765625,-0.0031099123880267143,-0.004359232261776924,0.0019709793850779533
1782832019929492700,4.64849267578125,0.00011275988072156906,-0.0012027127668261528,0.0016455384902656078
1782832019939421700,4.658421630859375,-0.0023831548169255257,-0.00030522793531417847,-0.0016242903657257557
1782832019949350700,4.6683505859375,0.00259418785572052,-0.0008527105674147606,-0.0013117669150233269
1782832019959279600,4.678279541015625,0.003140668384730816,-0.0002969084307551384,-0.0002888464368879795
1782832019969208800,4.688208740234375,-0.0021741604432463646,0.0022395411506295204,-0.00014704512432217598
1782832019979137500,4.698137451171875,-0.001063888892531395,-0.0007221605628728867,-0.0007270816713571548
1782832019989066500,4.70806640625,0.0007059900090098381,0.00286678783595562,-0.0030123391188681126
1782832019998995500,4.717995361328125,-0.002975030802190304,0.0008518407121300697,-0.0027803778648376465
1782832020008923600,4.727923583984375,0.0005380045622587204,0.0019450364634394646,-0.00008933059871196747
1782832020018852600,4.7378525390625,0.0001960545778274536,-0.0022931182757019997,0.0001444951631128788
1782832020028781600,4.747781494140625,-0.00015070941299200058,0.0017441743984818459,0.0001688338816165924
1782832020038710500,4.75771044921875,0.0001361137256026268,0.00008822046220302582,-0.000756614375859499
1782832020048639500,4.767639404296875,-0.00006646569818258286,-0.00038833823055028915,-0.00020755315199494362
1782832020058568700,4.777568603515625,0.000006237998604774475,-0.00010684225708246231,0.0005178917199373245
1782832020068497700,4.78749755859375,0.0007469002157449722,0.0013951966539025307,0.0003260122612118721
1782832020078426600,4.797426513671875,0.001678474247455597,0.0006689531728625298,-0.0014250162057578564
1782832020088355600,4.80735546875,0.0008959965780377388,-0.0017438353970646858,0.0031219925731420517
1782832020098284800,4.817284912109375,0.0009918706491589546,-0.00110600795596838,0.001807723194360733
1782832020108213800,4.8272138671875,-0.0010905815288424492,0.0008367961272597313,-0.0012973272241652012
1782832020118142700,4.837142822265625,-0.00018430780619382858,-0.0032056160271167755,-0.0005010422319173813
1782832020128070700,4.847070556640625,-0.00035952217876911163,-0.003912440501153469,0.0035959617234766483
1782832020137999600,4.85699951171875,0.0001315651461482048,0.0005369028076529503,-0.0024411585181951523
1782832020147928800,4.8669287109375,0.0017177034169435501,0.0011687902733683586,0.003205899614840746
1782832020157857500,4.876857421875,-0.0009686276316642761,0.0013498850166797638,-0.000533178448677063
1782832020167786500,4.886786376953125,0.001633746549487114,-0.00039594899863004684,0.002333128359168768
1782832020177715500,4.896715576171875,-0.0001018354669213295,0.0013446928933262825,-0.0007529426366090775
1782832020187644700,4.906644775390625,0.002198418602347374,0.00032966770231723785,-0.0004611317999660969
1782832020197573600,4.91657373046875,0.0011629816144704819,-0.0009707538411021233,0.0004960084334015846
1782832020207502600,4.926502685546875,0.0008027860894799232,0.0016331179067492485,0.0008625797927379608
1782832020217431600,4.936431640625,0.00032315030694007874,0.0013095438480377197,0.0025297189131379128
1782832020227360800,4.94636083984375,0.0025357715785503387,0.0015670247375965118,0.000993537250906229
1782832020237289700,4.956289794921875,0.0005445266142487526,0.0019089747220277786,-0.001045911107212305
1782832020247217700,4.9662177734375,0.0009134989231824875,0.0002699606120586395,0.0018019508570432663
1782832020257146600,4.976146728515625,-0.0008210176602005959,-0.00013244245201349258,0.0012288391590118408
1782832020267075600,4.98607568359375,-0.0030615339055657387,0.0009780852124094963,-0.0020757964812219143
1782832020277004800,4.9960048828125,0.0014069834724068642,0.0004904605448246002,0.0005436884239315987
1782832020286933800,5.005933837890625,0.0012305434793233871,-0.0022925902158021927,-0.0015902700833976269
1782832020296862700,5.01586279296875,0.00022067315876483917,-0.001698172651231289,0.0010374709963798523
1782832020306791400,5.02579150390625,0.0036160433664917946,0.00016093533486127853,-0.0008092457428574562
1782832020316720600,5.035720703125,-0.0011134641245007515,-0.002676662988960743,-0.00020470796152949333
1782832020326649600,5.045649658203125,0.0004823198541998863,0.0008187592029571533,0.0007842904888093472
1782832020336578600,5.05557861328125,0.0038450937718153,0.00320468470454216,0.0009893537499010563
1782832020346507500,5.065507568359375,-0.00041698478162288666,-0.00025666411966085434,0.0002608969807624817
1782832020356436700,5.075436767578125,0.000006191432476043701,0.0028357990086078644,-0.0015782820992171764
1782832020366364700,5.08536474609375,-0.0006568413227796555,-0.00021546706557273865,0.0017949659377336502
1782832020376293600,5.095293701171875,0.0017250897362828255,0.002646898850798607,-0.0019449112005531788
1782832020386222600,5.10522265625,0.0004998277872800827,0.0002984125167131424,0.0013934187591075897
1782832020396151600,5.115151611328125,-0.0013031316921114922,0.001667276956140995,-0.0026473961770534515
1782832020406080800,5.125080810546875,0.0011354750022292137,0.0012157019227743149,-0.0006150784902274609
1782832020416009700,5.135009765625,0.003515542484819889,-0.0011795451864600182,0.0003151637502014637
1782832020425938700,5.144938720703125,-0.0005034841597080231,0.0015905071049928665,0.00244480324909091
1782832020435867600,5.15486767578125,-0.00006992090493440628,0.0015244605019688606,0.0017656977288424969
1782832020445796600,5.164796630859375,-0.0010641701519489288,0.00008912943303585052,0.0006947936490178108
1782832020455725600,5.1747255859375,-0.0030173324048519135,-0.0009942445904016495,-0.0004540937952697277
1782832020465654500,5.184654541015625,0.0006312532350420952,-0.0006399741396307945,-0.0014517828822135925
1782832020475583500,5.19458349609375,-0.0011464068666100502,-0.0006330497562885284,-0.0004261997528374195
1782832020485511400,5.204511474609375,-0.0000754091888666153,-0.0009327428415417671,-0.00020428653806447983
1782832020495440600,5.214440673828125,0.002482290379703045,-0.00027414318174123764,-0.0010549002327024937
1782832020505369600,5.22436962890625,0.00046229735016822815,-0.0019803857430815697,0.00023897411301732063
1782832020515298600,5.234298583984375,0.0010660365223884583,-0.00019313767552375793,-0.0006441306322813034
1782832020525227500,5.2442275390625,-0.0013544447720050812,-0.001856294460594654,0.0026900488883256912
1782832020535156700,5.25415673828125,0.0001268051564693451,-0.00010792911052703857,-0.00024022767320275307
1782832020545085700,5.264085693359375,0.001619330607354641,0.0011270362883806229,0.003630866762250662
1782832020555014700,5.2740146484375,0.0006909528747200966,0.0010458100587129593,0.0002111014910042286
1782832020564943600,5.283943603515625,-0.0008795401081442833,-0.00004684086889028549,-0.0011107358150184155
1782832020574872600,5.29387255859375,-0.0006936509162187576,0.0023686466738581657,-0.001447891816496849
1782832020584801800,5.3038017578125,0.00020516477525234222,-0.0004381351172924042,-0.0012951665557920933
1782832020594730500,5.31373046875,-0.0003743395209312439,0.001138988882303238,0.00006996979936957359
1782832020604659500,5.323659423828125,-0.0000925697386264801,0.0010825591161847115,0.0024255039170384407
1782832020614587600,5.333587646484375,-0.00015275739133358002,0.0013579297810792923,0.0002952413633465767
1782832020624516600,5.3435166015625,-0.0002771681174635887,0.0006193909794092178,0.00040061865001916885
1782832020634445600,5.353445556640625,-0.0008984841406345367,-0.00025305990129709244,0.0024552475661039352
1782832020644374500,5.36337451171875,0.00038426369428634644,-0.00018370337784290314,-0.002372482791543007
1782832020654303500,5.373303466796875,0.0025392938405275345,0.0007223039865493774,0.0012478181160986423
1782832020664232700,5.383232666015625,-0.0003266315907239914,-0.0029010018333792686,-0.0016549844294786453
1782832020674161700,5.39316162109375,-0.00011863838881254196,-0.002509516663849354,-0.0010251468047499657
1782832020684090600,5.403090576171875,0.0001812949776649475,-0.0005857851356267929,-0.000611431896686554
1782832020694019600,5.41301953125,-0.0019124830141663551,-0.00042013637721538544,-0.00036615459248423576
1782832020703948500,5.422948486328125,0.0003825826570391655,-0.0010075699537992477,0.0014616199769079685
1782832020713877800,5.432877685546875,0.003651878796517849,-0.0010389946401119232,0.00014095893129706383
1782832020723806700,5.442806640625,0.00337431114166975,0.0019791675731539726,0.0014422130770981312
1782832020733734700,5.452734619140625,-0.001375436782836914,-0.001241925172507763,0.00116391247138381
1782832020743663600,5.46266357421875,-0.002301015891134739,0.0016084983944892883,0.0023266603238880634
1782832020753592800,5.4725927734375,-0.00003333389759063721,0.0020902641117572784,-0.001348236110061407
1782832020763521800,5.482521728515625,-0.00006396323442459106,0.0023683300241827965,0.0012491405941545963
1782832020773450500,5.492450439453125,0.00012671854346990585,0.001052727922797203,0.0013522044755518436
1782832020783379500,5.50237939453125,-0.0007671937346458435,-0.0007588891312479973,0.0009544049389660358
1782832020793308400,5.512308349609375,-0.0017104856669902802,0.0019250446930527687,0.0014332407154142857
1782832020803237600,5.522237548828125,-0.0014021964743733406,0.000273226760327816,-0.0015887869521975517
1782832020813166600,5.53216650390625,0.000010077841579914093,0.0008434094488620758,-0.00022631371393799782
1782832020823095600,5.542095458984375,-0.003206002525985241,0.00023204553872346878,0.0005886266008019447
1782832020833024500,5.5520244140625,-0.0008823946118354797,-0.000657450407743454,0.0003614583984017372
1782832020842953700,5.56195361328125,0.00008492544293403625,-0.00023208372294902802,-0.0005298084579408169
1782832020852881700,5.571881591796875,0.00017840228974819183,0.0011559557169675827,0.0025413488037884235
1782832020862810600,5.581810546875,-0.0000028507784008979797,0.00011536292731761932,0.00033114850521087646
1782832020872739600,5.591739501953125,0.0007209954783320427,0.000029875896871089935,-0.0012326594442129135
1782832020882668500,5.60166845703125,-0.002311750315129757,-0.00039700232446193695,0.0013485206291079521
1782832020892597800,5.61159765625,-0.00007069949060678482,-0.002328060567378998,-0.0017282292246818542
1782832020902526700,5.621526611328125,-0.000637284480035305,-0.0021656937897205353,-0.0002139117568731308
1782832020912455700,5.63145556640625,0.0006032157689332962,-0.002120153047144413,0.00098025007173419
1782832020922385000,5.641385009765625,0.0013020280748605728,-0.0006185630336403847,-0.0004284125752747059
1782832020932313900,5.65131396484375,-0.00034114252775907516,-0.000654781237244606,-0.0009011239744722843
1782832020942242800,5.661242919921875,0.0004636235535144806,-0.001271028071641922,0.0006832336075603962
1782832020952171800,5.671171875,-0.00014251191169023514,0.00016494840383529663,0.0009692576713860035
1782832020962100700,5.681100830078125,-0.0020559336990118027,0.0027095433324575424,-0.000539031345397234
1782832020972030000,5.691030029296875,0.0013233516365289688,0.0007318798452615738,-0.001360350288450718
1782832020981958000,5.7009580078125,-0.00046817678958177567,-0.0010879356414079666,-0.0024360078386962414
1782832020991886800,5.710886962890625,-0.0003576548770070076,0.0017941370606422424,-0.0008114795200526714
1782832021001815800,5.72081591796875,0.0010014679282903671,0.00020851008594036102,0.0014016996137797832
1782832021011745000,5.7307451171875,0.0016137287020683289,0.0009874850511550903,0.00019422313198447227
1782832021021674000,5.740674072265625,-0.0005493881180882454,0.0004999563097953796,0.00009205145761370659
1782832021031603000,5.75060302734375,0.001463429071009159,0.001999049447476864,-0.00011354498565196991
1782832021041532000,5.760531982421875,0.0005386387929320335,-0.0006036879494786263,0.0027980878949165344
1782832021051460900,5.7704609375,-0.0002643046900629997,0.00011217035353183746,-0.0019979989156126976
1782832021061389800,5.780389892578125,-0.0005693761631846428,-0.0017892122268676758,-0.0007426352240145206
1782832021071318800,5.79031884765625,-0.0006127860397100449,-0.00034098513424396515,-0.0011034938506782055
1782832021081247700,5.800247802734375,0.0006011556833982468,-0.0006309989839792252,0.0017398693598806858
1782832021091176700,5.8101767578125,-0.000004979781806468964,-0.00047440454363822937,0.001199514139443636
1782832021101105000,5.82010498046875,0.00026681460440158844,-0.0008303876966238022,0.0019623227417469025
1782832021111033900,5.830033935546875,0.0024604611098766327,-0.0020607681944966316,0.001231551170349121
1782832021120962800,5.839962890625,-0.0018545528873801231,-0.0016413554549217224,0.0019497578032314777
1782832021130891800,5.849891845703125,-0.00023668259382247925,-0.0011111199855804443,-0.0016886531375348568
1782832021140821000,5.859821044921875,0.000022440217435359955,0.001609673723578453,0.001405451912432909
1782832021150750000,5.86975,-0.001437503844499588,-0.0012508276849985123,-0.0004648864269256592
1782832021160679000,5.879678955078125,0.0010194173082709312,-0.0007536374032497406,-0.002247729804366827
1782832021170607900,5.88960791015625,-0.0010719625279307365,-0.0003568259999155998,0.0001634960062801838
1782832021180536800,5.899536865234375,0.001385674811899662,0.0017449408769607544,-0.002342985477298498
1782832021190466000,5.909466064453125,0.0003033662214875221,-0.00036907661706209183,0.00043149571865797043
1782832021200394800,5.919394775390625,0.0003360854461789131,-0.00013750046491622925,0.001291720662266016
1782832021210323700,5.92932373046875,-0.0005392963066697121,-0.0010424423962831497,-0.00033200858160853386
1782832021220252700,5.939252685546875,-0.0013039074838161469,-0.0026091551408171654,0.00032807281240820885
1782832021230180900,5.949180908203125,0.0002087680622935295,-0.0008855573832988739,-0.0000836523249745369
1782832021240109800,5.95910986328125,0.0007075108587741852,-0.00007499754428863525,0.0035162698477506638
1782832021250038800,5.969038818359375,-0.0010006409138441086,-0.00022573210299015045,-0.002506735734641552
1782832021259967700,5.9789677734375,-0.0010756701231002808,-0.000018398277461528778,0.0012712930329144
1782832021269896700,5.988896728515625,0.0009752307087182999,-0.00047619547694921494,0.0036002271808683872
1782832021279826000,5.998825927734375,-0.00044678710401058197,-0.0013995300978422165,0.00013347715139389038
1782832021289755000,6.0087548828125,-0.0004672938957810402,-0.0023572025820612907,0.00007941480726003647
1782832021299683800,6.018683837890625,0.0017805108800530434,0.00044482573866844177,-0.0031424532644450665
1782832021309612800,6.02861279296875,0.0010758377611637115,-0.002338976599276066,0.0016184798441827297
1782832021319542000,6.0385419921875,0.0008177384734153748,0.0004936158657073975,0.001471283845603466
1782832021329471000,6.048470947265625,0.00319833867251873,-0.0005032047629356384,0.0025083180516958237
1782832021339400000,6.05839990234375,0.002551225945353508,0.0025255177170038223,0.00041771912947297096
1782832021349328000,6.068327880859375,-0.0013287337496876717,0.0033748000860214233,-0.001142093911767006
1782832021359256800,6.0782568359375,-0.0005373340100049973,-0.000983547419309616,0.00040513696148991585
1782832021369186000,6.08818603515625,0.0014690915122628212,0.0026175789535045624,0.00298707140609622
1782832021379114800,6.09811474609375,0.0006626658141613007,0.000879836268723011,0.0011871447786688805
1782832021389043700,6.108043701171875,-0.0007629245519638062,-0.0008445605635643005,0.0010254913941025734
1782832021398972700,6.11797265625,0.0010432200506329536,0.001126190647482872,-0.0006100889295339584
1782832021408902000,6.12790185546875,0.0005449429154396057,-0.0004152478650212288,0.00026662368327379227
1782832021418830800,6.137830810546875,0.0007844176143407822,-0.0019226139411330223,-0.0000367211177945137
1782832021428759800,6.147759765625,0.0011668475344777107,-0.0007164683192968369,0.00038725417107343674
1782832021438688800,6.157688720703125,-0.00007564760744571686,-0.0006371550261974335,0.0001758076250553131
1782832021448618000,6.167617919921875,-0.0002482207491993904,0.0000036014243960380554,0.0034522945061326027
1782832021458547000,6.177546875,0.0018786722794175148,0.00033567752689123154,-0.0009143180213868618
1782832021468475000,6.187474853515625,-0.002199959009885788,0.000003314577043056488,-0.000892214011400938
1782832021478403800,6.19740380859375,-0.00109903234988451,-0.0009111352264881134,0.00045830197632312775
1782832021488332800,6.207332763671875,0.0008879518136382103,0.0008625304326415062,0.0003741467371582985
1782832021498262000,6.217261962890625,-0.0024915607646107674,-0.0019860398024320602,-0.0011185677722096443
1782832021508191000,6.22719091796875,-0.00039378833025693893,0.00003103818744421005,-0.0007249526679515839
1782832021518120000,6.237119873046875,-0.0009849397465586662,0.0025983890518546104,0.0012746029533445835
1782832021528048600,6.247048583984375,-0.0004999777302145958,0.0013083545491099358,0.00019682152196764946
1782832021537977900,6.256977783203125,-0.0019103419035673141,0.0005416618660092354,0.0002435934729874134
1782832021547906800,6.26690673828125,-0.0008152499794960022,0.001719578169286251,0.0009983335621654987
1782832021557835800,6.276835693359375,0.002251964993774891,0.00039169564843177795,0.00003156205639243126
1782832021567764700,6.2867646484375,0.0012511489912867546,0.0014361878857016563,0.0022624917328357697
1782832021577694000,6.29669384765625,-0.000617392361164093,0.0006211437284946442,0.0010603219270706177
1782832021587623000,6.306622802734375,-0.0008594738319516182,-0.00036875344812870026,0.0013242410495877266
1782832021597550800,6.31655078125,0.0019131088629364967,0.0005896482616662979,0.0004340745508670807
1782832021607479800,6.326479736328125,0.00021694134920835495,-0.0010175695642828941,0.001957136206328869
1782832021617408800,6.33640869140625,0.0027268165722489357,0.0009695738554000854,0.000010111834853887558
1782832021627338000,6.346337890625,-0.0013970881700515747,-0.0009063566103577614,0.0024303928948938847
1782832021637267000,6.356266845703125,-0.0004018722102046013,-0.0018056044355034828,0.0024851439520716667
1782832021647196000,6.36619580078125,0.0017917733639478683,-0.0016133245080709457,0.0013327943161129951
1782832021657124900,6.376124755859375,0.0018888330087065697,-0.0028319135308265686,-0.0027240575291216373
1782832021667053800,6.3860537109375,-0.000932786613702774,-0.000842532142996788,0.0006182091310620308
1782832021676982800,6.395982666015625,-0.0019185608252882957,-0.0019450578838586807,-0.0014988798648118973
1782832021686911700,6.405911865234375,0.002252482809126377,-0.001110423356294632,-0.0013300352729856968
1782832021696840700,6.4158408203125,0.0014890264719724655,-0.0005571683868765831,-0.0023555299267172813
1782832021706770000,6.42577001953125,-0.0005408348515629768,-0.00048739276826381683,0.0006818058900535107
1782832021716699000,6.435698974609375,0.0001975996419787407,0.001882084645330906,0.000810232013463974
1782832021726626800,6.445626708984375,-0.0003315703943371773,0.00008551590144634247,-0.0030409651808440685
1782832021736555800,6.4555556640625,-0.0008176006376743317,0.0006048567593097687,-0.0035022045485675335
1782832021746484700,6.465484619140625,-0.00008230190724134445,-0.0006193984299898148,0.0013567330315709114
1782832021756414000,6.4754140625,0.0007793568074703217,-0.0018455488607287407,0.0018539964221417904
1782832021766343000,6.485343017578125,0.0009953388944268227,-0.000648990273475647,0.00025396933779120445
1782832021776272000,6.49527197265625,0.0004916861653327942,-0.00012805219739675522,-0.0004897136241197586
1782832021786200800,6.505200927734375,-0.00029687583446502686,-0.0009150169789791107,0.001631227321922779
1782832021796130000,6.515130126953125,-0.00043043680489063263,-0.0009648026898503304,0.0004680934362113476
1782832021806059000,6.52505908203125,-0.0009023481979966164,-0.004138758406043053,-0.0005247327499091625
1782832021815987700,6.53498779296875,0.0013084588572382927,0.000036242417991161346,-0.0005395393818616867
1782832021825916700,6.544916748046875,0.0012996699661016464,0.00013930723071098328,0.002543069887906313
1782832021835846000,6.554845947265625,-0.0007879948243498802,-0.0022260555997490883,-0.000505231786519289
1782832021845773800,6.56477392578125,0.0004663541913032532,-0.0019679954275488853,-0.000736393965780735
1782832021855702800,6.574702880859375,-0.0011868597939610481,-0.0009000115096569061,-0.0001417752355337143
1782832021865631700,6.5846318359375,-0.00015594996511936188,-0.0011127982288599014,-0.0006238077767193317
1782832021875560700,6.594560791015625,0.0011963583528995514,-0.0021331077441573143,0.000362954568117857
1782832021885490000,6.604489990234375,0.001314602792263031,-0.00004545506089925766,-0.0007148268632590771
1782832021895419000,6.6144189453125,-0.0004661045968532562,-0.002518303692340851,-0.0010572141036391258
1782832021905347800,6.624347900390625,0.00170836690813303,-0.00003170967102050781,0.0001526600681245327
1782832021915276800,6.63427685546875,0.0004509389400482178,-0.0005757855251431465,0.002042368520051241
1782832021925205000,6.644205078125,-0.0001565283164381981,-0.000495358370244503,0.0004924084059894085
1782832021935134000,6.654134033203125,-0.004665335640311241,-0.0004641367122530937,-0.0002694888971745968
1782832021945063000,6.66406298828125,-0.0036535998806357384,0.0004996610805392265,0.0021691671572625637
1782832021954992000,6.6739921875,0.0003270059823989868,0.0018486464396119118,-0.00037336768582463264
1782832021964921000,6.683921142578125,-0.00025329645723104477,0.001457960344851017,-0.0008269036188721657
1782832021974849000,6.69384912109375,-0.001972564496099949,-0.0012797387316823006,-0.0017245044000446796
1782832021984778000,6.703778076171875,0.0013558538630604744,0.002749091014266014,0.00009816326200962067
1782832021994707000,6.71370703125,-0.000936201773583889,0.003390382044017315,-0.0007071667350828648
1782832022004636200,6.72363623046875,0.0005335966125130653,0.0010534580796957016,0.00024704402312636375
1782832022014564900,6.73356494140625,0.0012060124427080154,-0.002271863631904125,-0.00045792432501912117
1782832022024493800,6.743493896484375,0.0005079973489046097,-0.002655092626810074,-0.004296338185667992
1782832022034422800,6.7534228515625,0.00006366521120071411,-0.0006344811990857124,-0.0009619700722396374
1782832022044352000,6.76335205078125,0.00048577599227428436,-0.002689110115170479,0.0017464649863541126
1782832022054281000,6.773281005859375,-0.000971037894487381,0.0005440851673483849,-0.00011384766548871994
1782832022064210000,6.7832099609375,0.0009863851591944695,-0.0010213209316134453,0.000479238573461771
1782832022074139000,6.793138916015625,0.003286796621978283,-0.00011047255247831345,-0.0014932439662516117
1782832022084068000,6.803068115234375,-0.0003161942586302757,-0.0011989064514636993,-0.0036876886151731014
1782832022093996000,6.81299609375,0.0008316440507769585,0.000644187442958355,-0.0006912569515407085
1782832022103925000,6.822925048828125,0.0005621323361992836,-0.0011734208092093468,0.0021676463074982166
1782832022113854000,6.83285400390625,0.0014495337381958961,-0.0009391661733388901,0.00130755128338933
1782832022123783000,6.842782958984375,0.0024799108505249023,-0.00039668008685112,0.0003251112066209316
1782832022133712100,6.852712158203125,-0.00035595614463090897,0.001090257428586483,0.0007425998337566853
1782832022143641000,6.86264111328125,0.000045915134251117706,-0.002068784087896347,0.0015266337431967258
1782832022153570000,6.872570068359375,-0.0002459874376654625,0.0012129908427596092,-0.0037448713555932045
1782832022163498800,6.882498779296875,-0.0014172457158565521,0.0012215133756399155,-0.0037355502136051655
1782832022173428000,6.892427978515625,0.0005696192383766174,0.0013023726642131805,-0.00005015917122364044
1782832022183357000,6.90235693359375,-0.0015025865286588669,0.0006349841132760048,0.0010249586775898933
1782832022193286000,6.912285888671875,0.0009556673467159271,0.0004050498828291893,0.00015037460252642632
1782832022203214800,6.92221484375,0.0005817599594593048,-0.0006879111751914024,0.0033821198157966137
1782832022213144000,6.93214404296875,-0.0007035750895738602,0.00002419017255306244,0.00046113086864352226
1782832022223072000,6.942072021484375,0.0005808677524328232,0.0005179401487112045,-0.0011868332512676716
1782832022233001000,6.9520009765625,-0.0010451506823301315,-0.0006141038611531258,0.0005839262157678604
1782832022242930000,6.961929931640625,-0.0008448809385299683,-0.0024050800129771233,-0.0008171629160642624
1782832022252859000,6.97185888671875,0.0016950052231550217,-0.0009832857176661491,0.0006468319334089756
1782832022262788000,6.9817880859375,0.00008965190500020981,0.0012540360912680626,0.0019584386609494686
1782832022272717000,6.991717041015625,-0.00029781460762023926,-0.0008153645321726799,0.0011800243519246578
1782832022282646000,7.00164599609375,0.0019807862117886543,0.0007111597806215286,-0.0005925758741796017
1782832022292575000,7.011574951171875,-0.00014410074800252914,0.0011233845725655556,0.0020744879730045795
1782832022302504000,7.02150390625,0.0007358072325587273,0.001552952453494072,0.004427124280482531
1782832022312433000,7.031432861328125,-0.0014325492084026337,0.00017698202282190323,0.0010734274983406067
1782832022322361900,7.04136181640625,0.0007757432758808136,-0.0014922870323061943,-0.0015993211418390274
1782832022332290800,7.051290771484375,0.0036899996921420097,0.003968021832406521,-0.00007457425817847252
1782832022342220000,7.061219970703125,-0.0013255318626761436,-0.0002714637666940689,0.0009171869605779648
1782832022352148000,7.07114794921875,0.0013550566509366035,-0.000280856154859066,0.0001129363663494587
1782832022362077000,7.081076904296875,0.00010283850133419037,0.0009649703279137611,0.0028197732754051685
1782832022372006000,7.091005859375,0.0015760231763124466,-0.0001699822023510933,-0.00001626834273338318
1782832022381934800,7.100934814453125,0.0010279454290866852,-0.0011300519108772278,-0.0008743391372263432
1782832022391864000,7.110864013671875,-0.0005712723359465599,0.0012593260034918785,0.00017281388863921165
1782832022401793000,7.12079296875,-0.0015340056270360947,-0.0009308578446507454,0.000879350584000349
1782832022411722000,7.130721923828125,-0.001003354787826538,-0.0023470399901270866,0.000044572632759809494
1782832022421651000,7.14065087890625,0.0003508627414703369,-0.00143330916762352,0.001811313908547163
1782832022431580200,7.150580078125,-0.0000016354024410247803,-0.0013234205543994904,0.0009770318865776062
1782832022441509000,7.160509033203125,0.00008225347846746445,-0.001933816820383072,0.0003642383962869644
1782832022451437800,7.170437744140625,-0.0005352599546313286,-0.001422862522304058,0.001768243033438921
1782832022461366800,7.18036669921875,0.0016035251319408417,0.00007143709808588028,0.0008515832014381886
1782832022471295000,7.190294921875,-0.0029528262093663216,-0.00016263313591480255,-0.0008231247775256634
1782832022481224000,7.200223876953125,0.0019322102889418602,-0.0021845055744051933,-0.00034348946064710617
1782832022491153000,7.21015283203125,0.0012400168925523758,0.0014482652768492699,-0.0007276549004018307
1782832022501081900,7.220081787109375,0.00038940273225307465,-0.002186417579650879,0.0016899630427360535
1782832022511010800,7.2300107421875,0.0014335466548800468,0.000069458968937397,0.0009886221960186958
1782832022520940000,7.23993994140625,-0.00053452979773283,0.0017384616658091545,0.000025357119739055634
1782832022530869000,7.249868896484375,-0.0014394819736480713,0.0005641812458634377,0.0017591891810297966
1782832022540798000,7.2597978515625,-0.0002144286409020424,0.0010278373956680298,0.0006379988044500351
1782832022550727000,7.269726806640625,-0.00029196590185165405,-0.0009418400004506111,-0.00032699527218937874
1782832022560656100,7.27965625,-0.00046693533658981323,0.0008770991116762161,0.0036842580884695053
1782832022570585000,7.289585205078125,0.001202552579343319,-0.00045144371688365936,0.000864141620695591
1782832022580514000,7.29951416015625,0.0026864660903811455,0.002215978689491749,0.0005650687962770462
1782832022590443000,7.309443115234375,-0.0003360845148563385,-0.0005666455253958702,0.0022543752565979958
1782832022600371000,7.319370849609375,-0.0005107885226607323,-0.0009243078529834747,0.002022947184741497
1782832022610300200,7.329300048828125,-0.0022776490077376366,-0.0005538146942853928,0.0012428546324372292
1782832022620229000,7.33922900390625,0.000033974647521972656,-0.0005167964845895767,-0.000020015984773635864
1782832022630157800,7.34915771484375,-0.000012335367500782013,-0.000638558529317379,0.0010430151596665382
1782832022640086800,7.359086669921875,-0.00033058319240808487,-0.003269229084253311,-0.00000467151403427124
1782832022650016000,7.36901611328125,-0.0010402239859104156,0.00012929178774356842,-0.0001358194276690483
1782832022659945000,7.378945068359375,-0.001438632607460022,0.0012416942045092583,-0.00015952158719301224
1782832022669874000,7.3888740234375,0.00024383608251810074,-0.0004357481375336647,0.0022945208474993706
1782832022679803000,7.398802978515625,0.0008992403745651245,-0.0003153737634420395,0.00008462928235530853
1782832022689732000,7.408732177734375,-0.002560203894972801,0.0036142459139227867,0.000929003581404686
1782832022699661000,7.4186611328125,-0.00001741759479045868,0.0006221840158104897,-0.0005176253616809845
1782832022709590000,7.428590087890625,0.001680079847574234,-0.000756419263780117,0.00001591350883245468
1782832022719518000,7.43851806640625,-0.00019957870244979858,0.0022015534341335297,-0.002370278351008892
1782832022729447000,7.448447021484375,0.0013244124129414558,0.0018516229465603828,-0.0003575459122657776
1782832022739376000,7.458376220703125,-0.0003019804134964943,0.0025983741506934166,-0.002142929006367922
1782832022749305000,7.46830517578125,-0.0012845080345869064,-0.0015543298795819283,-0.0014291969127953053
1782832022759234000,7.478234130859375,-0.000331362709403038,0.001919764094054699,0.00005897786468267441
1782832022769163000,7.4881630859375,-0.001261761412024498,0.00086992047727108,0.0011094221845269203
1782832022779092000,7.498092041015625,-0.0004484318196773529,-0.000934903509914875,0.001565622165799141
1782832022789021000,7.50802099609375,0.0002851933240890503,0.000965554267168045,0.00004593748599290848
1782832022798950000,7.517949951171875,-0.0010794103145599365,-0.0016744378954172134,0.0011527473106980324
1782832022808878800,7.52787890625,0.0012523848563432693,0.0009912196546792984,0.0023663435131311417
1782832022818808000,7.53780810546875,0.00019724015146493912,-0.00018856115639209747,0.0004643145948648453
1782832022828737000,7.547737060546875,-0.0010278262197971344,-0.001026173122227192,-0.0028613246977329254
1782832022838666000,7.557666015625,0.0011050999164581299,0.0014705397188663483,-0.001646657008677721
1782832022848595000,7.567594970703125,-0.0013812528923153877,0.0005534328520298004,-0.000055744312703609467
1782832022858523000,7.57752294921875,-0.0006693899631500244,0.000664752908051014,0.00038527511060237885
1782832022868452000,7.5874521484375,0.001205497421324253,-0.001973304897546768,0.002798188477754593
1782832022878381000,7.597381103515625,-0.0001220889389514923,0.0011612353846430779,0.0015757977962493896
1782832022888310000,7.60731005859375,0.0000817691907286644,-0.000029566697776317596,-0.00033889850601553917
1782832022898239000,7.617239013671875,-0.002483121119439602,-0.0003342321142554283,0.002216404303908348
1782832022908168200,7.627168212890625,-0.0013341978192329407,-0.0007772697135806084,-0.00013971980661153793
1782832022918097000,7.637096923828125,0.0004842085763812065,0.002300545573234558,-0.0013221632689237595
1782832022928026600,7.647026611328125,0.00048297084867954254,0.002629709430038929,-0.0009521259926259518
1782832022937955600,7.65695556640625,-0.0015732552856206894,0.00041662249714136124,-0.0016256393864750862
1782832022947884500,7.666884521484375,0.00023357197642326355,-0.0010792892426252365,-0.00021435553207993507
1782832022957813500,7.6768134765625,-0.0010053310543298721,0.0004933075979351997,-0.00020263763144612312
1782832022967742700,7.68674267578125,0.00022107549011707306,0.0007742401212453842,-0.0001986897550523281
1782832022977670700,7.696670654296875,0.0005419868975877762,-0.0017584264278411865,0.0032660821452736855
1782832022987599600,7.706599609375,0.00018356181681156158,-0.000901482068002224,0.0009670881554484367
1782832022997528600,7.716528564453125,0.00119849294424057,-0.0005725817754864693,0.001400650478899479
1782832023007457500,7.72645751953125,0.00006719585508108139,-0.0021856827661395073,-0.0013026008382439613
1782832023017386800,7.73638671875,-0.003008754923939705,-0.002699405886232853,0.004191500134766102
1782832023027315700,7.746315673828125,0.00016602035611867905,-0.0026861801743507385,0.00003718957304954529
1782832023037244700,7.75624462890625,-0.0010675564408302307,-0.0009873490780591965,-0.0006349924951791763
1782832023047173400,7.76617333984375,0.0013294005766510963,0.0003276718780398369,0.0006395522505044937
1782832023057102600,7.7761025390625,0.001792258583009243,0.001166035421192646,0.0005498034879565239
1782832023067031600,7.786031494140625,-0.00018763821572065353,0.0006741322576999664,-0.0005303765647113323
1782832023076960500,7.79596044921875,0.0015021376311779022,-0.00006143283098936081,0.0009157201275229454
1782832023086889500,7.805889404296875,-0.0007673138752579689,-0.0009429678320884705,0.002904552035033703
1782832023096818700,7.815818603515625,0.001036444678902626,0.0018424326553940773,0.0016494039446115494
1782832023106746600,7.82574658203125,0.0006534522399306297,-0.0016212556511163712,-0.0009122793562710285
1782832023116675600,7.835675537109375,0.0006649037823081017,-0.0009426819160580635,-0.0003732554614543915
1782832023126604500,7.8456044921875,0.0020608780905604362,0.00015693530440330505,-0.0024396139197051525
1782832023136533500,7.855533447265625,0.002991120330989361,0.0013164756819605827,-0.0017434637993574142
1782832023146462700,7.865462646484375,-0.0007265591993927956,-0.0002548014745116234,0.0011682352051138878
1782832023156391700,7.8753916015625,-0.0012317607179284096,-0.0009962255135178566,-0.000783329363912344
1782832023166320600,7.885320556640625,0.0014644302427768707,-0.0005391770973801613,-0.0015467558987438679
1782832023176249600,7.89524951171875,0.00017625931650400162,-0.000657954253256321,0.0005781799554824829
1782832023186178600,7.905178466796875,0.0013764239847660065,0.00030244607478380203,0.003166547045111656
1782832023196107500,7.915107421875,-0.0015791524201631546,-0.0020238254219293594,0.0005654376000165939
1782832023206036500,7.925036376953125,0.00011594034731388092,-0.000042662955820560455,-0.00003622286021709442
1782832023215965400,7.93496533203125,-0.0008302805945277214,-0.00002029258757829666,-0.00028815772384405136
1782832023225893400,7.944893310546875,0.0002088882029056549,-0.0015036920085549355,-0.0006048912182450294
1782832023235822600,7.954822509765625,-0.00023958832025527954,-0.0019116876646876335,-0.0007702736184000969
1782832023245751600,7.96475146484375,-0.0020862100645899773,-0.0008901413530111313,-0.001559934113174677
1782832023255680500,7.974680419921875,-0.00027153175324201584,-0.00041716359555721283,0.00036180298775434494
1782832023265609500,7.984609375,0.00045618973672389984,0.0014391979202628136,-0.005061041563749313
1782832023275538700,7.99453857421875,-0.0021806061267852783,0.0005004331469535828,0.0003046952188014984
1782832023285467600,8.004467529296875,0.001339382492005825,-0.00009219441562891006,-0.00010120496153831482
1782832023295396600,8.014396728515624,-0.000010307878255844116,-0.00001762527972459793,-0.0009214584715664387
1782832023305325600,8.02432568359375,0.00010019447654485703,0.0010148705914616585,0.00004204269498586655
1782832023315254800,8.0342548828125,0.0005574589595198631,0.0004140622913837433,0.0002724062651395798
1782832023325183700,8.044183837890625,-0.0010514957830309868,0.00008665584027767181,0.0008929697796702385
1782832023335112400,8.054112548828124,-0.0012483028694987297,-0.00004463735967874527,-0.001149674877524376
1782832023345041400,8.06404150390625,0.0006223944947123528,0.0010803565382957458,-0.00016274349763989449
1782832023354969600,8.073969482421875,-0.001300940290093422,0.0015591932460665703,0.0018985429778695107
1782832023364898600,8.083898681640624,-0.0007129563018679619,-0.0006573684513568878,-0.0016052788123488426
1782832023374827500,8.09382763671875,0.0026463549584150314,-0.00027893297374248505,0.002863505855202675
1782832023384756500,8.103756591796875,0.0003609210252761841,-0.00013303011655807495,-0.004105777014046907
1782832023394685400,8.113685546875,0.0007934179157018661,-0.0012720637023448944,-0.0012764348648488522
1782832023404614700,8.12361474609375,-0.0005465066060423851,0.0007830606773495674,-0.00034696655347943306
1782832023414543600,8.133543701171876,-0.00020455662161111832,-0.000613766722381115,-0.0016186260618269444
1782832023424472600,8.14347265625,0.001387489028275013,0.002322014421224594,-0.0003044763579964638
1782832023434401500,8.153401611328125,-0.0008823228999972343,-0.0009672557935118675,0.000271565280854702
1782832023444330800,8.163330810546874,0.0015589557588100433,0.0012536337599158287,-0.002991114743053913
1782832023454259700,8.173259765625,0.002254040911793709,-0.0007831519469618797,-0.00085073197260499
1782832023464188700,8.183188720703125,0.0007520820945501328,0.000285259447991848,0.0013635838404297829
1782832023474117600,8.19311767578125,0.0005938904359936714,0.00039791129529476166,-0.0019368715584278107
1782832023484045600,8.203045654296876,0.0016321269795298576,0.0002813199535012245,0.0005867592990398407
1782832023493974800,8.212974853515625,0.0001857643947005272,0.0023497967049479485,0.0003880877047777176
1782832023503903700,8.22290380859375,0.001150958240032196,0.0017207013443112373,-0.0009337919764220715
1782832023513832400,8.23283251953125,0.0011589480563998222,0.0010778149589896202,-0.0040952302515506744
1782832023523761400,8.242761474609376,0.0007758056744933128,-0.0006220247596502304,-0.0012697339989244938
1782832023533690600,8.252690673828125,0.0011864649131894112,0.000019264407455921173,-0.002866299357265234
1782832023543619600,8.26261962890625,-0.0016231834888458252,-0.00096855778247118,-0.0008449857123196125
1782832023553548500,8.272548583984374,0.00030760839581489563,0.0011521168053150177,0.0002405187115073204
1782832023563477500,8.2824775390625,-0.0009463084861636162,-0.000933496281504631,0.0008419128134846687
1782832023573406700,8.29240673828125,-0.0003018239513039589,0.0010383082553744316,-0.0026604104787111282
1782832023583335700,8.302335693359375,0.0005003036931157112,-0.0009015938267111778,-0.0005573397502303123
1782832023593264600,8.3122646484375,-0.0009074434638023376,-0.0008376780897378922,0.0003614509478211403
1782832023603193600,8.322193603515625,0.0004052966833114624,-0.002837701700627804,0.0020777229219675064
1782832023613121500,8.33212158203125,-0.0006522452458739281,-0.00019930768758058548,0.0015536127611994743
1782832023623050800,8.34205078125,-0.0017445897683501244,-0.0012009590864181519,-0.0016902713105082512
1782832023632979700,8.351979736328126,0.0008093817159533501,-0.0014342525973916054,-0.0016465955413877964
1782832023642908700,8.36190869140625,0.0003236774355173111,-0.001597878523170948,-0.00006731320172548294
1782832023652837600,8.371837646484375,-0.00013891328126192093,-0.00012009032070636749,-0.0004313676618039608
1782832023662766600,8.3817666015625,0.00043383799493312836,0.001193653792142868,-0.0025866557843983173
1782832023672695600,8.391695556640625,8.083879947662354e-7,-0.0007480569183826447,0.0019279345870018005
1782832023682624500,8.40162451171875,0.00003980938345193863,0.00031087081879377365,0.0009901877492666245
1782832023692553500,8.411553466796875,-0.0008006840944290161,0.0004304470494389534,0.0018064463511109352
1782832023702482700,8.421482666015624,0.00039641279727220535,0.001804177649319172,-0.0010126745328307152
1782832023712411600,8.43141162109375,0.0002829618752002716,0.000661148689687252,-0.0006946930661797523
1782832023722340600,8.441340576171875,0.000946488231420517,0.0015226127579808235,-0.001108716707676649
1782832023732268500,8.4512685546875,0.00016165431588888168,-0.000934152863919735,-0.0011603818275034428
1782832023742197500,8.461197509765626,0.0004579499363899231,0.00005960091948509216,-0.00034292787313461304
1782832023752126700,8.471126708984375,-0.0010264962911605835,-0.001327107660472393,0.0003345804288983345
1782832023762055700,8.4810556640625,-0.0008720038458704948,0.001255095936357975,-0.0001860423944890499
1782832023771984600,8.490984619140624,0.002340300939977169,-0.0003321487456560135,0.0011420762166380882
1782832023781913600,8.50091357421875,-0.00020614080131053925,-0.0009533120319247246,-0.00043690064921975136
1782832023791842800,8.5108427734375,-0.0026168348267674446,-0.00022227410227060318,0.00009706337004899979
1782832023801771500,8.520771484375,-0.0004235468804836273,0.0006896518170833588,-0.0012126024812459946
1782832023811700500,8.530700439453126,-0.0003002425655722618,-0.0006432598456740379,0.0008034100756049156
1782832023821629400,8.54062939453125,0.0014677466824650764,0.00005057547241449356,0.0019099870696663857
1782832023831558700,8.55055859375,-0.0014699865132570267,0.0019310340285301208,0.00020636245608329773
1782832023841487600,8.560487548828124,-0.0001302715390920639,-0.0016517946496605873,-0.0009777857922017574
1782832023851416600,8.57041650390625,0.004293238744139671,0.0030651967972517014,-0.00034075742587447166
1782832023861344500,8.580344482421875,0.0000423947349190712,0.0008271066471934319,0.0017647650092840195
1782832023871273500,8.5902734375,0.001546282321214676,0.0022686757147312164,-0.0009037223644554615
1782832023881202700,8.60020263671875,0.0005482742562890053,0.0026794420555233955,-0.0007555950433015823
1782832023891131600,8.610131591796875,-0.0004821028560400009,0.002803811803460121,-0.0006767655722796917
1782832023901060600,8.620060546875,0.0014425860717892647,0.0037600677460432053,0.0028424719348549843
1782832023910989600,8.629989501953125,0.0005152737721800804,0.002947804518043995,-0.0008659795857965946
1782832023920919000,8.6399189453125,-0.0004770951345562935,0.00001874193549156189,-0.0030278521589934826
1782832023930848000,8.649847900390625,0.0032755648717284203,-0.0016814209520816803,0.0009881947189569473
1782832023940776700,8.659776611328125,-0.0017479974776506424,-0.0010409234091639519,-0.0014095436781644821
1782832023950705700,8.66970556640625,0.0015109134837985039,0.0014238320291042328,-0.00029873941093683243
1782832023960635000,8.679634765625,0.00001168716698884964,-0.0003609172999858856,0.0014380859211087227
1782832023970563800,8.689563720703125,0.0010420642793178558,0.0015682773664593697,0.00013100635260343552
1782832023980491800,8.69949169921875,-0.0014338931068778038,-0.00264845322817564,-0.00009649433195590973
1782832023990420700,8.709420654296874,-0.0009414739906787872,0.0006687799468636513,0.003222070634365082
1782832024000349700,8.719349609375,-0.0008179899305105209,-0.0020858822390437126,0.0010624639689922333
1782832024010279000,8.72927880859375,-0.00005446095019578934,-0.003927990794181824,-0.0005186544731259346
1782832024020207900,8.739207763671875,-0.0025898469612002373,0.00023875758051872253,-0.0004642503336071968
1782832024030136800,8.74913671875,-0.001534702256321907,-0.0005862899124622345,0.0020971782505512238
1782832024040065800,8.759065673828125,0.0009983479976654053,-0.00028979312628507614,0.0004435032606124878
1782832024049995000,8.7689951171875,0.00030858907848596573,0.0017216922715306282,0.0009977072477340698
1782832024059924000,8.778924072265625,0.001996624283492565,-0.00004827138036489487,-0.0008050333708524704
1782832024069853000,8.78885302734375,-0.0011102193966507912,0.0013874387368559837,0.00019045639783143997
1782832024079782000,8.798781982421875,0.002184981480240822,0.0009120060130953789,0.002517438493669033
1782832024089710800,8.8087109375,0.0010608620941638947,0.0015128152444958687,0.0008300598710775375
1782832024099639800,8.818639892578124,0.0007249955087900162,0.003019525669515133,-0.0016785874031484127
1782832024109568000,8.828568115234376,-0.001242813654243946,0.002936967648565769,-0.0004506036639213562
1782832024119496700,8.83849658203125,-0.000042523257434368134,0.0012526307255029678,-0.0017065382562577724
1782832024129425700,8.84842578125,-0.0012321574613451958,0.0010486319661140442,-0.001327304169535637
1782832024139355000,8.85835498046875,-0.000901736319065094,-0.0019699111580848694,-0.001482272520661354
1782832024149283800,8.868283935546875,-0.002169933170080185,0.0005819294601678848,-0.0000897059217095375
1782832024159212800,8.878212890625,0.0002892864868044853,-0.0005079749971628189,0.0014296052977442741
1782832024169141800,8.888141845703124,-0.0011059436947107315,-0.00035750679671764374,0.0014732806012034416
1782832024179071000,8.898071044921876,-0.0011324211955070496,0.001038731075823307,-0.0005029928870499134
1782832024189000000,8.908,-0.0008669048547744751,-0.00020310096442699432,0.0012267306447029114
1782832024198929000,8.917928955078125,0.002208830788731575,-0.0016573453322052956,0.0008055530488491058
1782832024208857900,8.92785791015625,0.0001131892204284668,0.002072678878903389,-0.000035206787288188934
1782832024218787000,8.937787109375,0.0006413981318473816,-0.00019385945051908493,-0.00012612249702215195
1782832024228715800,8.9477158203125,-0.0020286869257688522,-0.0011874847114086151,-0.0013453178107738495
1782832024238644000,8.95764404296875,-0.0010286737233400345,-0.000021805986762046814,-0.0030216812156140804
1782832024248573000,8.967572998046874,0.0006456561386585236,-0.0006543062627315521,0.001063341274857521
1782832024258502000,8.977501953125,-0.0004164949059486389,0.0002578478306531906,0.0018826862797141075
1782832024268430800,8.987430908203125,-0.00028440169990062714,0.0024216659367084503,-0.000711499247699976
1782832024278359800,8.99735986328125,0.0002550790086388588,0.0006515095010399818,-0.0005163569003343582
1782832024288288800,9.007288818359376,-0.0020701270550489426,0.00010769255459308624,-0.00015203654766082764
1782832024298217700,9.0172177734375,-0.001165245659649372,0.0028171567246317863,-0.0015520104207098484
1782832024308147000,9.02714697265625,-0.00034579169005155563,0.0011116685345768929,-0.00006596650928258896
1782832024318076000,9.037075927734374,-0.0005255239084362984,0.00013620033860206604,-0.0030197263695299625
1782832024328004900,9.0470048828125,0.0005962001159787178,-0.0010417159646749496,0.0002948436886072159
1782832024337933800,9.056933837890625,-0.0018083695322275162,0.00044173188507556915,-0.0009740833193063736
1782832024347863000,9.066863037109375,-0.0005649393424391747,-0.00012232549488544464,-0.0000342540442943573
1782832024357791000,9.076791015625,0.0011295871809124947,-0.0003492012619972229,-0.0012917486019432545
1782832024367720000,9.086719970703125,0.00003502797335386276,-0.002342044375836849,0.0022241566330194473
1782832024377649000,9.09664892578125,0.00018632877618074417,-0.0014096051454544067,0.002250351943075657
1782832024387577900,9.106577880859374,0.00007900316268205643,-0.0016173319891095161,-0.0013606278225779533
1782832024397507000,9.116507080078126,0.0011390801519155502,-0.0024167317897081375,0.0015016421675682068
1782832024407435800,9.126435791015625,0.0003334740176796913,-0.0011141803115606308,-0.0000653611496090889
1782832024417364700,9.13636474609375,-0.0032849563285708427,-0.0007845964282751083,-0.002181705553084612
1782832024427293700,9.146293701171874,-0.0006971629336476326,0.001816246658563614,-0.00047089066356420517
1782832024437223000,9.156222900390626,0.0005677258595824242,-0.0000021336600184440613,0.0007796725258231163
1782832024447151900,9.16615185546875,-0.0017636055126786232,0.00014087744057178497,0.0005839308723807335
1782832024457080800,9.176080810546875,0.0005911421030759811,-0.00005984306335449219,-0.0009389128535985947
1782832024467009800,9.186009765625,0.0025440379977226257,-0.0018915655091404915,-0.0014656861312687397
1782832024476939000,9.19593896484375,-0.00008744839578866959,0.001988952048122883,0.0001318957656621933
1782832024486867000,9.205866943359375,0.00013519171625375748,0.00037001632153987885,-0.00046438630670309067
1782832024496796000,9.2157958984375,-0.0023288866505026817,-0.000554647296667099,-0.001151504460722208
1782832024506724900,9.225724853515626,0.0012956755235791206,0.0013995803892612457,0.0008309530094265938
1782832024516653800,9.23565380859375,-0.0000031953677535057068,-0.0011757276952266693,-0.0017878408543765545
1782832024526583000,9.2455830078125,0.00033049844205379486,-0.0015072915703058243,-0.0008501419797539711
1782832024536512000,9.255511962890624,-0.0002690330147743225,0.0012741191312670708,-0.0009372658096253872
1782832024546441000,9.26544091796875,-0.0010541323572397232,-0.0008180597797036171,0.0012071114033460617
1782832024556369700,9.27536962890625,-0.0005568321794271469,0.0005805855616927147,0.0005036313086748123
1782832024566299000,9.285298828125,0.0006652930751442909,-0.0005342131480574608,-0.0007302113808691502
1782832024576227800,9.295227783203124,-0.002434208057820797,-0.00178433395922184,0.0037018675357103348
1782832024586156800,9.30515673828125,-0.001634194515645504,-0.00014356058090925217,-0.0021123462356626987
1782832024596085800,9.315085693359375,-0.0018471674993634224,-0.0020517418161034584,-0.0008555706590414047
1782832024606015000,9.325014892578125,-0.000936366617679596,0.00034350529313087463,0.0007002484053373337
1782832024615943000,9.33494287109375,-0.00029086973518133163,0.0007888469845056534,-0.0011104983277618885
1782832024625872000,9.344871826171875,0.001879340037703514,-0.0004918668419122696,-0.0029986798763275146
1782832024635800800,9.35480078125,-0.000882868655025959,0.0005850568413734436,-0.0012429943308234215
1782832024645729800,9.364729736328124,-0.00006581097841262817,0.000031120143830776215,0.00023559294641017914
1782832024655659000,9.374658935546876,0.0003254702314734459,0.0014809025451540947,-0.000654357485473156
1782832024665588000,9.384587890625,0.0007177535444498062,0.001447346992790699,0.0008394094184041023
1782832024675517000,9.394516845703125,0.000859617255628109,0.0004732757806777954,-0.00032886769622564316
1782832024685446000,9.40444580078125,0.00037572067230939865,0.00027114152908325195,0.0006122933700680733
1782832024695374800,9.414374755859376,-0.00027921702712774277,0.0018832450732588768,-0.0018286844715476036
1782832024705303800,9.4243037109375,0.0010339878499507904,0.0006549954414367676,-0.00019483501091599464
1782832024715232800,9.434232666015625,-0.0009857481345534325,-0.00047996826469898224,-0.00035141734406352043
1782832024725161700,9.44416162109375,0.000905361957848072,-0.0005132574588060379,-0.0008638096041977406
1782832024735091000,9.454091064453126,0.0025923317298293114,-0.0002989126369357109,0.0014473386108875275
1782832024745019000,9.464018798828125,-0.0004223668947815895,-0.00282199215143919,-0.0004277932457625866
1782832024754947800,9.47394775390625,-0.0005133682861924171,0.0003043264150619507,0.0008060093969106674
1782832024764876800,9.483876708984376,-0.0004132334142923355,-0.0021063676103949547,0.0023455824702978134
1782832024774805800,9.4938056640625,0.0007644444704055786,-0.0021660691127181053,-0.0012715710327029228
1782832024784735000,9.50373486328125,-0.00007711444050073624,-0.0012123910710215569,-0.003052160609513521
1782832024794664000,9.513663818359374,0.0011142734438180923,0.00002294778823852539,-0.00045168306678533554
1782832024804593000,9.523593017578126,0.0011869780719280243,-0.0006026281043887138,-0.000002673827111721039
1782832024814521900,9.53352197265625,0.0011457474902272224,-0.0001865653321146965,-0.00017758319154381752
1782832024824451000,9.543451171875,-0.0006742570549249649,0.003193252719938755,0.00004985090345144272
1782832024834380000,9.553380126953124,0.0008963542059063911,0.0025861170142889023,0.000013697892427444458
1782832024844308700,9.563308837890625,-0.00031032413244247437,0.001147744245827198,-0.0015884595923125744
1782832024854237700,9.57323779296875,-0.0007153861224651337,0.0008566649630665779,0.0005491571500897408
1782832024864167000,9.5831669921875,0.0005996823310852051,-0.0009119398891925812,-0.0018735206685960293
1782832024874094800,9.5930947265625,0.0002667410299181938,0.0019223447889089584,-0.0003949785605072975
1782832024884023800,9.60302392578125,0.0003998987376689911,0.0009361766278743744,-0.001938813365995884
1782832024893952800,9.612952880859375,0.0015451060608029366,0.0009711142629384995,0.000087028369307518
1782832024903881700,9.6228818359375,-0.0014589391648769379,0.00022383127361536026,0.00023376941680908203
1782832024913811000,9.63281103515625,0.00014520250260829926,-0.00023522693663835526,0.002059612423181534
1782832024923740000,9.642739990234375,-0.002605842426419258,-0.0012509571388363838,0.0009006047621369362
1782832024933668900,9.6526689453125,-0.0020272014662623405,0.00006976630538702011,-0.0018202834762632847
1782832024943597800,9.662597900390624,0.0016807178035378456,-0.0011741956695914268,0.002201622352004051
1782832024953527000,9.672527099609376,-0.0015135398134589195,-0.0020869551226496696,-0.00025216303765773773
1782832024963456000,9.6824560546875,-0.0007518753409385681,-0.0008134311065077782,-0.000010347925126552582
1782832024973385000,9.692385009765625,-0.0004895851016044617,-0.00042506027966737747,0.0005522575229406357
1782832024983314000,9.70231396484375,-0.002237417735159397,0.016276687383651733,0.00307533610612154
1782832024993243000,9.712242919921875,0.000837382860481739,-0.000663277693092823,-0.0001144949346780777
1782832025003171000,9.722171142578125,-0.000301385298371315,0.0011692438274621964,-0.0007347450591623783
1782832025013100000,9.73210009765625,-0.0006360374391078949,-0.0062120771035552025,-0.003686044365167618
1782832025023028700,9.74202880859375,0.0013906285166740417,-0.00856870785355568,-0.004505232907831669
1782832025032957700,9.751957763671875,0.0003866851329803467,-0.0042428988963365555,0.00017053168267011642
1782832025042887000,9.761886962890625,-0.0011406373232603073,0.0008498635143041611,-0.0020598657429218292
1782832025052816000,9.77181591796875,0.0011583799496293068,-0.0013935333117842674,0.0007421346381306648
