time,seconds_elapsed,z,y,x
1782829731912212700,0.079212646484375,-0.12222118904590606,-0.009117335902713238,0.03617989567760378
1782829731922141000,0.089140869140625,-0.030941666230559346,-0.014910011761588975,0.03592060542060062
1782829731932070000,0.09906982421875,-0.1362877083212137,-0.012487570387637242,-0.005720788799598813
1782829731941997800,0.108997802734375,-0.009995324313640594,-0.0008213445865549147,0.012801915300125255
1782829731951927000,0.118927001953125,-0.11638999867439269,0.002854585713520646,0.01880494597405195
1782829731961855000,0.12885498046875,-0.05788111108243465,0.009946178809134289,0.025622005577757952
1782829731971784000,0.138783935546875,-0.072095514395833,0.006991228860523551,0.032911039207922294
1782829731981712000,0.1487119140625,-0.09259469706714153,-0.010351289011305198,0.01976251156036742
1782829731991640800,0.158640869140625,-0.03618307401537895,-0.0061749897073488675,0.02502325423331931
1782829732001568800,0.16856884765625,-0.0942430487960577,-0.016150540741439907,0.0133905471093487
1782829732011498000,0.178498046875,-0.057282560667395586,-0.01316787166884169,0.025903589864959938
1782829732021426000,0.188426025390625,-0.08376607844531536,-0.008992924071755259,0.0357774980223272
1782829732031355000,0.19835498046875,-0.10711071367561817,-0.012245012069726361,0.032721233990555626
1782829732041282800,0.20828271484375,-0.038428807115554804,-0.005189504067646339,0.02959224264929071
1782829732051211800,0.218211669921875,-0.11878536937832831,-0.0021768417155835777,0.009053084160620346
1782829732061139700,0.2281396484375,-0.04501519976854324,0.002879774953704327,0.016391756485635414
1782829732071069000,0.23806884765625,-0.07898293582201003,0.013252024554647504,0.012738558607175945
1782829732080996900,0.247996826171875,-0.08152677508592605,0.011182698334148153,0.024700305889267474
1782829732090925800,0.25792578125,-0.04740940142869949,0.008811749685415997,0.02891216969694942
1782829732100854000,0.26785400390625,-0.09365092812180519,-0.0032581980783492324,0.025391028099786488
1782829732110783000,0.277782958984375,-0.047862405893206596,-0.010924969846569,0.019114212852623314
1782829732120711000,0.2877109375,-0.08931377570033074,-0.021966332614421845,0.025870052921539172
1782829732130640000,0.297639892578125,-0.0664186378031969,-0.006338281377125531,0.031548345153126864
1782829732140567800,0.30756787109375,-0.072104866746068,-0.004074053639033809,0.0359149154653307
1782829732150497000,0.3174970703125,-0.08961480447351931,-0.014923885023314504,0.021719280784484
1782829732160425000,0.327425048828125,-0.06238017606735229,-0.006223861217219382,0.01889392116544768
1782829732170354000,0.33735400390625,-0.06986264077723026,-0.001704611960798502,0.007367076435592025
1782829732180281900,0.34728173828125,-0.06163257257044315,0.009592013342911376,0.017490200980519875
1782829732190210800,0.3572109375,-0.07345335874557495,0.007566197470575571,0.017562672561686483
1782829732200138800,0.367138671875,-0.07435176889002322,0.0050021100030746305,0.020642655395762995
1782829732210068000,0.37706787109375,-0.06432897204756736,-0.0008140380629338324,0.016951490993937477
1782829732219996000,0.386995849609375,-0.07884791126549244,-0.006411392279108986,0.015833063156949354
1782829732229924900,0.3969248046875,-0.05969838963747024,-0.014615102201933041,0.018774304240616036
1782829732239852800,0.406852783203125,-0.09336977309286594,-0.01558678764514625,0.013310129683744162
1782829732249781800,0.41678173828125,-0.06463935317099094,-0.021553733225539325,0.030510042480798437
1782829732259710000,0.4267099609375,-0.080204586571455,-0.010978599729947745,0.030657816921034826
1782829732269638700,0.436638671875,-0.07257248425781726,-0.004763131881738081,0.018019850877812132
1782829732279567000,0.446567138671875,-0.053420624542236325,-0.0032875520369969307,0.016043244442064314
1782829732289496000,0.45649609375,-0.09352642495930194,-0.0019012031119782476,0.018154911966947837
1782829732299424000,0.466424072265625,-0.06928688671588898,0.005288516595866531,0.028786497490666803
1782829732309353000,0.47635302734375,-0.07976502611041068,0.008573027292406186,0.02393044489477761
1782829732319281000,0.486281005859375,-0.0734820003181696,-0.0046757184597663575,0.011147161229886115
1782829732329209900,0.4962099609375,-0.06974573639929295,0.0012923048328608274,0.014416547422530129
1782829732339137800,0.5061376953125,-0.08396598493158816,-0.011874553055828437,0.018468498827610164
1782829732349070800,0.51607080078125,-0.05942834052443504,-0.013909547748463227,0.014698615766922012
1782829732358998800,0.525998779296875,-0.07275134795606136,-0.020504571232479063,0.01423911762954667
1782829732368928000,0.535927978515625,-0.0640747050255537,-0.01304258305504918,0.030764272970193997
1782829732378856000,0.54585595703125,-0.07395429400503635,-0.004657150756614282,0.03155740524241701
1782829732388785000,0.555784912109375,-0.08173778748810291,-0.0032795787930954244,0.014092356969462707
1782829732398712800,0.565712890625,-0.06363280647695065,-0.00088007990331389,0.01749078550240956
1782829732408641800,0.575641845703125,-0.07231120297312736,0.002558571042167023,0.003986576284980401
1782829732418569700,0.58556982421875,-0.0754553462177515,0.01328241055975668,0.02395281199021265
1782829732428499000,0.5954990234375,-0.08099193755686282,0.006800939585966989,0.02040801552282646
1782829732438427000,0.605427001953125,-0.07635609444975852,0.0012265369871165602,0.02188267291896045
1782829732448355800,0.61535595703125,-0.08070201469957829,-0.01182934394092299,0.028750503728678448
1782829732458283800,0.62528369140625,-0.08025543997585773,-0.022882196217169984,0.015693207161687314
1782829732468212700,0.635212646484375,-0.0759171185106039,-0.01846717452020384,0.019558705217111855
1782829732478141000,0.645140869140625,-0.073973583227396,-0.010779496961273251,0.018866055910987778
1782829732488070000,0.65506982421875,-0.07277648239731788,-0.008504738696012645,0.02440709509635344
1782829732497998000,0.664998046875,-0.06843874545395374,0.0007918353642802684,0.018582069604145362
1782829732507927000,0.674927001953125,-0.07562310400009155,-0.0090546276637353,0.005208975953096524
1782829732517855000,0.68485498046875,-0.07637304558455944,0.0014189999524503946,0.0029802579198032614
1782829732527784000,0.694783935546875,-0.06919453225731849,0.004822917511267588,0.01650516286538914
1782829732537711900,0.7047119140625,-0.07099427515566349,0.007240162120293826,0.014650091316923498
1782829732547640800,0.714640869140625,-0.07623451389670372,-0.0006275573138147592,0.017845599422603844
1782829732557568800,0.72456884765625,-0.06591244184672831,-0.007370784496329725,0.02024466905412264
1782829732567498000,0.734498046875,-0.08432078971862793,-0.009608078561723231,0.016953491154778746
1782829732577426000,0.744426025390625,-0.08058160319030284,-0.010254705902189016,0.013965625317255034
1782829732587355000,0.75435498046875,-0.07743921351134776,-0.016464255466265603,0.018641088048694653
1782829732597282800,0.76428271484375,-0.08566928171813487,-0.010566950189135968,0.019947540137916803
1782829732607211800,0.774211669921875,-0.07205109073221683,-0.0024547636078204958,0.025611109724408013
1782829732617139700,0.7841396484375,-0.061874564632773396,0.0011113679085392504,0.0119821507493034
1782829732627069000,0.79406884765625,-0.07040507709085941,0.006558235137583687,-0.0037132209700066593
1782829732636996900,0.803996826171875,-0.0777384887188673,0.011494540762295946,0.007132189967483282
1782829732646925800,0.81392578125,-0.07459785260558129,0.007605433502420783,0.013041295280260965
1782829732656854000,0.82385400390625,-0.06532324378192425,0.003283222921751439,0.011149919442553072
1782829732666783000,0.833782958984375,-0.08343173192441462,-0.0037100243659224357,0.015996829750761388
1782829732676711000,0.8437109375,-0.07834522244036198,-0.008116333033470436,0.016769056232273576
1782829732686639900,0.853639892578125,-0.0632335780262947,-0.018817202667426317,0.018560268764290958
1782829732696567800,0.86356787109375,-0.07191255904436111,-0.002348608952760696,0.00994750311654061
1782829732706497000,0.8734970703125,-0.06906710648536682,-0.0066214091674424705,0.010946980748977512
1782829732716425000,0.883425048828125,-0.08208382444679736,-0.005752005921769887,0.020686859863670543
1782829732726354000,0.89335400390625,-0.08223229300677776,0.0022342983907088637,0.020645806334074587
1782829732736281900,0.90328173828125,-0.06637129153013228,0.006911030630627647,0.011848413967574014
1782829732746210800,0.9132109375,-0.06547463495135307,-0.0038220790388062593,0.006838294187979772
1782829732756138800,0.923138671875,-0.07056114443540573,-0.0027408505402039735,0.013910296667134388
1782829732766068000,0.93306787109375,-0.07594926721453667,0.0074271725923754275,0.01794973565051332
1782829732775996000,0.942995849609375,-0.07250935589373111,-0.0022393124925438315,0.018459959328128023
1782829732785924900,0.9529248046875,-0.08253916699886321,0.0014107344476040453,0.01123304028189741
1782829732795852800,0.962852783203125,-0.07251812372207642,-0.00555932376072742,0.017289764771284535
1782829732805781800,0.97278173828125,-0.062492988792061804,-0.007424249982926994,0.015550227627577259
1782829732815710000,0.9827099609375,-0.0729670365333557,-0.014354396305978297,0.00991572887194343
1782829732825638700,0.992638671875,-0.08404080373346805,-0.006102582058263942,0.019696177459042518
1782829732835567000,1.002567138671875,-0.06339139893651008,0.0006762278942856937,0.014012158739566802
1782829732845496000,1.01249609375,-0.07177285831272602,0.0010927180069964378,0.014886977945873512
1782829732855424000,1.022424072265625,-0.07551847458183765,0.005071741173183545,0.006067081486620008
1782829732865353000,1.03235302734375,-0.06953647756278515,0.00992626853226684,0.005852772015659138
1782829732875281000,1.042281005859375,-0.074775547260046,0.007176677563181147,0.006231386936549097
1782829732885209900,1.0522099609375,-0.07492693842947483,-0.00035893297288566825,0.01668941512480378
1782829732895137800,1.0621376953125,-0.07373276020884513,-0.0027269224795512855,0.015218721517734228
1782829732905067000,1.07206689453125,-0.07433131062388419,-0.006097522290656343,0.012612338411621748
1782829732914995000,1.081994873046875,-0.07612754639089107,-0.006820438870880753,0.020380214200448242
1782829732924924000,1.091923828125,-0.0780740042835474,-0.014091407121391966,0.012666762879444286
1782829732934851800,1.101851806640625,-0.07792787381112574,-0.01096746641458012,0.017578463785862548
1782829732944780800,1.11178076171875,-0.06909867066740989,0.003720774088799953,0.01829714258238673
1782829732954708700,1.121708740234375,-0.07044599362313747,0.0017961170359980314,0.022540123047539964
1782829732964638000,1.131637939453125,-0.06356383289396762,0.010842132135014981,0.008758969185408205
1782829732974566000,1.14156591796875,-0.06326689577400683,0.008333446382870898,0.005449598042247816
1782829732984494800,1.151494873046875,-0.07269640289843082,-0.000740242174360901,0.0060886905302293595
1782829732994423000,1.161423095703125,-0.06925532253384589,0.00011778116077184677,0.013108962822146714
1782829733004351700,1.171351806640625,-0.07524082668423653,-0.007374620421230793,0.023304778143949805
1782829733014280000,1.181280029296875,-0.07105331186652183,-0.010384734623180701,0.00960117389690131
1782829733024209000,1.191208984375,-0.07703940053880214,-0.012017377326311543,0.020462028998695314
1782829733034136800,1.20113671875,-0.0800344907015562,-0.010332566044526174,0.015392781176697462
1782829733044066000,1.211066162109375,-0.06896247706711292,-0.009824232929898426,0.017332663198094813
1782829733053994000,1.220993896484375,-0.078688336789608,0.00436198546863161,0.012186824742238967
1782829733063923000,1.2309228515625,-0.06746843911707401,0.004429735208908095,0.019946508091455324
1782829733073851000,1.240850830078125,-0.06761924576461315,-0.00009885726459324359,0.011417201209766789
1782829733083779800,1.25077978515625,-0.0792939014673233,0.008006050192564725,0.002058832225948572
1782829733093707800,1.260707763671875,-0.07525368616580963,0.003067981869028881,0.011451688001258299
1782829733103637000,1.270636962890625,-0.07645195603966712,-0.00026807635165750977,0.00561802254486829
1782829733113565000,1.28056494140625,-0.08109305984377861,-0.002983034398779273,0.01759426414319314
1782829733123494000,1.290493896484375,-0.07271569212079047,-0.0058164677264168855,0.017393617871403692
1782829733133421800,1.300421875,-0.07541150707602501,-0.013853981636324897,0.020210026999004184
1782829733143350800,1.310350830078125,-0.0671814388692379,-0.011344145106710493,0.016814667205978184
1782829733153278700,1.32027880859375,-0.07286825233399867,-0.0036585042412392793,0.008285926579870283
1782829733163207700,1.330207763671875,-0.0795990218937397,-0.006235725184949114,0.0010676109652034938
1782829733173136000,1.340135986328125,-0.07331190444827079,-0.0015852142316754906,0.014633514641458168
1782829733183064800,1.35006494140625,-0.07331248897016047,0.006366164897894487,0.01803750526551157
1782829733192993000,1.359992919921875,-0.07735211974978447,0.014258123724116011,0.016558007297478614
1782829733202922000,1.369921875,-0.07166705985069274,0.009076894294470549,0.0057137014716863626
1782829733212850000,1.379849853515625,-0.08064765416383743,0.0109828466468025,0.00014164609354920684
1782829733222779000,1.38977880859375,-0.06658230393230914,-0.0009838782045058906,0.008313371709221973
1782829733232706800,1.399706787109375,-0.07152209842205047,-0.008498418553080408,0.010552665935456753
1782829733242636000,1.409635986328125,-0.07825871320068836,-0.011589863496087491,0.021887002034205943
1782829733252564000,1.41956396484375,-0.0763134243518114,-0.005907022953545674,0.017938017813256008
1782829733262493000,1.429492919921875,-0.0740700293391943,-0.0009031411184929311,0.020600451088696715
1782829733272420900,1.4394208984375,-0.07960662067830562,-0.00649364546877332,0.015403613097965717
1782829733282349800,1.449349853515625,-0.07421849789917469,-0.0008704535584431141,0.015198902572412043
1782829733292277800,1.45927783203125,-0.0791547852575779,0.012979262894717975,0.013923019151389599
1782829733302207000,1.46920703125,-0.08020283300578594,-0.001304433662071824,0.00921151699218899
1782829733312135000,1.479135009765625,-0.07826046676635742,0.008299334050714969,0.007072879261989146
1782829733322064000,1.48906396484375,-0.07317395728230476,0.007388932074373587,0.00046417431249283253
1782829733331991800,1.49899169921875,-0.071381228646636,0.0024898531875107437,0.009567107230518013
1782829733341917700,1.508917724609375,-0.07063420967161654,-0.0006696794224902987,0.007355906587606296
1782829733351845600,1.518845703125,-0.08290624674558639,-0.01293773444108665,0.0028385844267904757
1782829733361774600,1.528774658203125,-0.07048866372108459,-0.012689367436897008,0.01709905537161976
1782829733371702800,1.538702880859375,-0.08006371679604053,-0.008923110238555819,0.0096443189188838
1782829733381631700,1.5486318359375,-0.07138239769041538,-0.009626673664338887,0.006635556423803791
1782829733391560000,1.558559814453125,-0.07482289353311061,-0.009181450647488236,0.0022757811785675585
1782829733401489000,1.568489013671875,-0.07976093445718288,0.0000621237170882523,0.007271726302336901
1782829733411416800,1.578416748046875,-0.07212766309976577,0.007289828214608132,0.023498455818835643
1782829733421345800,1.588345703125,-0.07960837424397468,0.01094089806806296,0.017248135852953417
1782829733431273700,1.598273681640625,-0.07990764945149421,0.009884968407498673,0.005659222204936668
1782829733441203000,1.608202880859375,-0.07572013463377952,0.002881528519373387,0.0057396213642321526
1782829733451131000,1.618130859375,-0.0779652832120657,-0.005479454324394464,0.018413234109571203
1782829733461059800,1.628059814453125,-0.06779167972207069,-0.005497674967674538,0.014186875985655933
1782829733470987800,1.63798779296875,-0.07138298221230506,-0.01021608179169707,0.009032982087507843
1782829733480916700,1.647916748046875,-0.06779226424396037,-0.011106162499217316,0.010663113173143937
1782829733490844700,1.6578447265625,-0.06659633245766163,-0.009252698385948315,0.0107990601782687
1782829733500773600,1.667773681640625,-0.07228256140053271,-0.006207750332634896,-0.00346617827322334
1782829733510701600,1.67770166015625,-0.07737023992836475,-0.002931011950597167,-0.0008709558819420635
1782829733520630800,1.687630859375,-0.07078735440671444,0.007920956591842696,0.009177678654668852
1782829733530558700,1.697558837890625,-0.06944587666988372,0.007963343561999498,0.013236269863089546
1782829733540487700,1.70748779296875,-0.07782850508987903,0.001533410979202017,0.006283473316812887
1782829733550416000,1.717415771484375,-0.07558452555537223,0.0019727613776922225,-0.004079633996449411
1782829733560344600,1.727344482421875,-0.08052373552322387,0.0016540234178770332,0.008675802680291235
1782829733570272800,1.737272705078125,-0.0808235952526331,-0.004747788182133808,0.015249655512114987
1782829733580202000,1.747201904296875,-0.07588613885045051,-0.003614117110241204,0.020790146708209067
1782829733590130000,1.7571298828125,-0.08127426162958144,-0.0018939696535933762,0.01643644501073286
1782829733600059000,1.767058837890625,-0.07723463084995746,-0.016612002507038412,0.017245021447259933
1782829733609986800,1.77698681640625,-0.07424187877476215,-0.008983480389975011,0.007373140850197524
1782829733619915800,1.786915771484375,-0.05837853921055793,-0.003937723041418939,-0.0016481325332075357
1782829733629843700,1.79684375,-0.07797931173741816,0.009666686014318839,0.003396784565132111
1782829733639772700,1.806772705078125,-0.0740875649958849,0.00793231823607348,0.015948378365999088
1782829733649700600,1.81670068359375,-0.07753098344802856,0.011671997954742983,0.012390832014894113
1782829733659629800,1.8266298828125,-0.07528700391352176,0.004514637013385072,0.004131409849459305
1782829733669557800,1.836557861328125,-0.07454056946039199,-0.0012327566653490066,-0.001197000365378335
1782829733679486700,1.84648681640625,-0.06376783103346824,0.004930195544334128,0.010094592570187523
1782829733689414700,1.85641455078125,-0.07424363234043121,-0.008493495782790706,0.010329515570914372
1782829733699343600,1.866343505859375,-0.08112754663527011,-0.016358740132022646,0.010313980075065047
1782829733709271600,1.876271484375,-0.07244856561720371,-0.0025566165470983834,0.007874724563630297
1782829733719200800,1.88620068359375,-0.07559095529615878,-0.006429859517561271,0.012298669352568686
1782829733729129000,1.89612890625,-0.07020341703891754,0.002719853417947888,0.009089963838597758
1782829733739057700,1.9060576171875,-0.07379355048537253,0.004593182142311707,0.014245565636642277
1782829733748985900,1.91598583984375,-0.07034954751133918,0.0029707868385594337,0.013002232778351754
1782829733758914800,1.925914794921875,-0.06137012224197387,0.006241643469082191,0.004822077261051163
1782829733768842800,1.9358427734375,-0.07633388261795043,0.005457123761577531,-0.003036691681621596
1782829733778772000,1.94577197265625,-0.06795534585118293,-0.0036049291567876933,0.005240549268294125
1782829733788700000,1.955699951171875,-0.06720832687616347,-0.0014623824364505707,0.01633641870236024
1782829733798628900,1.96562890625,-0.07768529722690581,-0.004245656479429453,0.011061391775729134
1782829733808556800,1.975556884765625,-0.07289923199415206,-0.017344554565288127,0.0008257285007275641
1782829733818485800,1.98548583984375,-0.07933481799960136,-0.014687308921618385,0.004167120483657345
1782829733828413700,1.99541357421875,-0.08517185359001159,-0.003974666651478037,0.00038183892443776127
1782829733838342700,2.0053427734375,-0.07185352233350277,0.003976356285065413,0.007002197779109701
1782829733848270600,2.0152705078125,-0.0757429309874773,-0.0020231763906776905,0.0017167590563185512
1782829733858199800,2.02519970703125,-0.07215045945346354,0.006060660878987983,0.0042057902599219234
1782829733868127700,2.035127685546875,-0.07753858223259448,0.010191979396902024,0.011228464571479708
1782829733878056700,2.045056640625,-0.07215396658480167,-0.0016961089939344673,0.002141359410248697
1782829733887984600,2.054984619140625,-0.07319967624545097,0.005629146727081388,-0.002971133898431435
1782829733897913600,2.06491357421875,-0.07065759054720401,-0.000627913506841287,0.00023495040019042788
1782829733907841800,2.074841796875,-0.06856324861645698,-0.010023646225826814,0.008134699807222931
1782829733917770800,2.084770751953125,-0.07649345709383487,-0.01457458752845414,0.013943358686519787
1782829733927699000,2.094698974609375,-0.06931085211336613,-0.006933014133572578,0.012100982222845778
1782829733937628000,2.1046279296875,-0.07828618572950363,-0.005952040272206068,0.019486827290989456
1782829733947555800,2.114555908203125,-0.08262450719475746,-0.004701473955530673,0.009808889230294153
1782829733957484800,2.12448486328125,-0.07753682866692542,0.00285592828723602,0.0022813980686012653
1782829733967412700,2.134412841796875,-0.07110182718336581,0.00012891447613947092,0.00320083273476921
1782829733977341700,2.144341796875,-0.06736030256748199,0.0031701179360970853,0.008112360111251472
1782829733987270000,2.154269775390625,-0.0715513245165348,0.006621619229996577,0.0041336018065456295
1782829733997198800,2.16419873046875,-0.07125438739657401,0.005496697720140218,0.013605760762607678
1782829734007126800,2.174126708984375,-0.08098083164095878,0.006185154908336698,-0.00024736235719174146
1782829734017055700,2.1840556640625,-0.07798749504387378,-0.008877289202297106,0.0037551969482097773
1782829734026983700,2.193983642578125,-0.07813830169141292,-0.0044658751013688745,0.008139147653477266
1782829734036912600,2.20391259765625,-0.07769114244580268,-0.006389253512537107,0.005444510875176638
1782829734046840600,2.213840576171875,-0.07873919019401072,-0.009320438993070274,0.010452365632448345
1782829734056769800,2.223769775390625,-0.06661795976758003,-0.0002637929021846503,0.005419586496474221
1782829734066697700,2.23369775390625,-0.08367664659619331,-0.005353882582811638,-0.0017654935688711701
1782829734076626700,2.243626708984375,-0.07036065342724322,0.0026967830696143207,0.0026717034272849558
1782829734086555000,2.253554931640625,-0.0663181000381708,0.0016031426140107213,0.005823755983728915
1782829734096483600,2.263483642578125,-0.0794856246471405,0.013735214094864204,0.008711860374361276
1782829734106411800,2.273411865234375,-0.07709142298698425,0.005173192253662273,0.007567914503626525
1782829734116341000,2.283341064453125,-0.07873802115023136,0.00496895665214397,0.0013111008648760615
1782829734126269000,2.29326904296875,-0.0784399149864912,0.0008002013338264078,0.005518032769113779
1782829734136198000,2.303197998046875,-0.08756663977205753,-0.00548064163448289,0.002897475007176399
1782829734146125800,2.313125732421875,-0.09040975424349307,-0.004070610439777374,0.004129053495591506
1782829734156054800,2.3230546875,-0.0748456898868084,-0.014074629516527055,0.014426977484999224
1782829734165982700,2.332982666015625,-0.07813830169141292,-0.009415871324716135,0.014542110030958429
1782829734175911700,2.34291162109375,-0.07110474979281425,-0.00022159772827289997,0.00839684874159284
1782829734185839600,2.352839599609375,-0.07170154664218426,0.0025785361179616302,0.0019277988579589872
1782829734195768800,2.362768798828125,-0.06930617593824863,0.002086861877189949,-0.009242103926697746
1782829734205696800,2.37269677734375,-0.07529518721997737,0.009301706893136724,0.007984916072990745
1782829734215625700,2.382625732421875,-0.0761959354519844,0.006050541343772783,0.016108546496927736
1782829734225553700,2.3925537109375,-0.07604805141389369,0.0013102880141232162,0.008587320679239929
1782829734235482600,2.402482666015625,-0.0762006116271019,-0.005373391000879928,0.001767374998703599
1782829734245410600,2.41241064453125,-0.07455518250763415,-0.002868385910009965,0.001480557413958013
1782829734255339800,2.42233984375,-0.08472995504140854,-0.009166846733400598,0.01664859905722551
1782829734265268000,2.43226806640625,-0.07590016737580299,-0.009203425017278642,0.01864282334805466
1782829734275196700,2.44219677734375,-0.06871463978588581,-0.00783066622619517,0.00905510258777067
1782829734285124900,2.452124755859375,-0.06646773764193058,0.0019117153728380799,0.005589152643410489
1782829734295053800,2.4620537109375,-0.08098258520662784,-0.0021416425380390135,0.004372022805456072
1782829734304981800,2.471981689453125,-0.07499883462190628,0.00348791518099606,0.003715257663466036
1782829734314910700,2.48191064453125,-0.06871405526399613,0.0026310974222607908,0.0020783132445532826
1782829734324839000,2.4918388671875,-0.07739303628206252,0.006779568004375324,0.013818197936890646
1782829734334767900,2.501767822265625,-0.07559855408072472,0.0048322607283480465,-0.0007044310754630714
1782829734344694800,2.51169482421875,-0.06856617122590541,0.008525808883504942,0.0038058585563674565
1782829734354624000,2.5216240234375,-0.0712596480935812,-0.0063538808050565415,-0.0025777963324449954
1782829734364552000,2.531552001953125,-0.079490300822258,-0.001736605401104316,0.00022705022152513265
1782829734374481000,2.54148095703125,-0.07125906357169151,-0.010992829184699803,-0.0027891466613393276
1782829734384408800,2.551408935546875,-0.0652729748994112,-0.009842617969959973,0.009229838100168853
1782829734394337800,2.561337890625,-0.08562544257640838,-0.008468534871470182,0.017936675239540636
1782829734404266000,2.571265869140625,-0.07964110746979713,-0.0059231612375937395,0.014250926798349245
1782829734414195000,2.58119482421875,-0.07320669050812721,-0.0018547336217481641,0.005513374860305339
1782829734424123000,2.591122802734375,-0.07156184591054916,0.0011270769343245774,0.005651468156743794
1782829734434052000,2.601052001953125,-0.08069032426178455,-0.0018314258113969117,0.0015249171454925089
1782829734443980000,2.61097998046875,-0.07290741530060768,0.011618897794326767,0.015420363303367048
1782829734453909000,2.620908935546875,-0.0702139384329319,0.002171060428768396,0.010897561249835416
1782829734463837000,2.6308369140625,-0.08592880943715572,-0.004186711100116372,0.0060914396097417915
1782829734473766000,2.640765869140625,-0.06722586253285408,-0.014436686028260736,0.010634161073295399
1782829734483693800,2.65069384765625,-0.07081716502308845,-0.017212534816609695,0.014876904076430946
1782829734493623000,2.660623046875,-0.07575403690338134,-0.00962403418268077,0.014184044707752764
1782829734503551000,2.670551025390625,-0.07261106270253657,-0.001407209049956873,0.008525288293696939
1782829734513480000,2.68047998046875,-0.07276186935007571,0.00007839899845421314,0.006127287241257727
1782829734523408000,2.690407958984375,-0.07770049479603768,-0.0004701108629349619,0.001631784186605364
1782829734533336800,2.7003369140625,-0.07425882990956306,0.009435708536347374,0.0031379418327007443
1782829734543264800,2.7102646484375,-0.08203998530507087,-0.003169615612598136,0.006292177213076502
1782829734553193700,2.72019384765625,-0.07021978365182877,0.0031184425477869806,0.0016445797360967844
1782829734563122000,2.730121826171875,-0.0750105250597,0.004404591634497046,0.009764757827622815
1782829734573051000,2.74005078125,-0.08129822702705859,-0.0034745990416966376,0.0021068178198300302
1782829734582979800,2.749979736328125,-0.07561316712796688,-0.008574287667730822,0.010073220988595857
1782829734592908000,2.759907958984375,-0.06947568728625773,-0.00047022959394380447,0.007781429390143603
1782829734602836700,2.769836669921875,-0.07052373503446578,-0.014636300253588705,0.008052501416485756
1782829734612765000,2.779764892578125,-0.07546236048042773,-0.009654392788326367,0.013937778329104185
1782829734622694000,2.78969384765625,-0.07830722851753234,0.005259080438828096,0.004504517478169873
1782829734632622000,2.7996220703125,-0.06693418610990047,0.0039030353205278512,0.015021006988547742
1782829734642551000,2.809551025390625,-0.06962707845568657,0.0009021912704221904,0.00892946691410616
1782829734652479000,2.81947900390625,-0.07471417246162891,-0.00046338886120356616,0.0065606097577605394
1782829734662408000,2.829407958984375,-0.08145020271837711,0.0018475640954449771,0.008992440014565364
1782829734672336000,2.8393359375,-0.07127601470649242,0.003482298290962353,0.000946724531892687
1782829734682265000,2.84926513671875,-0.07277414430975913,0.0032275015459861606,0.009320210664207115
1782829734692193000,2.859193115234375,-0.07516951501369476,-0.0034940983266104012,0.009464477973105385
1782829734702122000,2.8691220703125,-0.06724047558009624,-0.007011011273227632,0.001020794415101409
1782829734712050000,2.8790498046875,-0.0690372958689928,-0.008898103661462663,0.005298252538591623
1782829734721979000,2.888978759765625,-0.0690372958689928,-0.012545118394307792,0.0079608136781957
1782829734731906800,2.89890673828125,-0.07921382196843624,0.006514039802830666,0.006406295978883281
1782829734741835800,2.908835693359375,-0.08759469682276248,0.0014403532677330075,0.005734634661860764
1782829734751763700,2.918763671875,-0.07083411615788936,-0.0007854786887299269,0.0022397874165792017
1782829734761693000,2.92869287109375,-0.07831658086776733,0.0033899072997737676,0.0040122221828904
1782829734771620900,2.938620849609375,-0.08116027986109256,0.0011207385250832885,-0.0011595270323567091
1782829734781549800,2.9485498046875,-0.08250877186059952,-0.0011697013664990663,0.0007138656240887939
1782829734791478000,2.95847802734375,-0.07936872026920318,0.0006169537214096635,0.007822400721348821
1782829734801407000,2.968406982421875,-0.07682721909284591,-0.0031909232621081174,0.0020033026464283464
1782829734811335000,2.9783349609375,-0.07488309928774833,0.0006508103252388537,0.005211405372200533
1782829734821264100,2.98826416015625,-0.07892331458926201,-0.006518880374729633,0.006110893228882923
1782829734831192000,2.998192138671875,-0.06560264524519444,-0.012096598308673127,0.012319821738451718
1782829734841121000,3.00812109375,-0.07383329797387123,-0.004948909377958625,0.009416647642850875
1782829734851049000,3.018049072265625,-0.07532967401146888,-0.0008415379912126809,-0.0002485131346620619
1782829734860978000,3.02797802734375,-0.0870014071047306,0.009918888943409547,0.0033439766656607386
1782829734870905900,3.03790576171875,-0.07218669981062412,-0.004628061659447849,0.004612845824006944
1782829734880834800,3.047834716796875,-0.06964402959048747,-0.0025834314887877552,0.00474172376752831
1782829734890763000,3.057762939453125,-0.07682605004906654,0.00744191350378096,0.0015001662967260925
1782829734900692000,3.06769189453125,-0.07278525022566318,0.003921109833335504,0.00878692577141337
1782829734910620000,3.077619873046875,-0.0718868400812149,-0.001113632930861786,0.014215919417049735
1782829734920548900,3.087548828125,-0.06979016006290913,0.0009249236920382827,0.010718935013609007
1782829734930476800,3.097476806640625,-0.07981587951481342,-0.007621188193978741,0.02223629039591178
1782829734940405800,3.10740576171875,-0.07128478253483772,-0.009811464779870584,0.006530634744605049
1782829734950334000,3.117333984375,-0.07248246788680553,-0.007861189228622242,0.011604577008029445
1782829734960263000,3.127262939453125,-0.07622457702457905,-0.004637012150883675,0.006028758770227432
1782829734970191000,3.137191162109375,-0.07547814257144927,0.0010117343258112669,0.007718702884856611
1782829734980120000,3.1471201171875,-0.06575345189273357,-0.0003519461096730083,0.005704824045486748
1782829734990048000,3.157048095703125,-0.08176584453880786,0.010667825880879535,-0.007781502455379814
1782829734999977000,3.16697705078125,-0.07712474073469638,0.006674518461013213,0.00002887903461232781
1782829735009905000,3.17690478515625,-0.07353285372257232,0.006396423038840294,0.0021156130476389077
1782829735019834000,3.186834228515625,-0.07547814257144927,0.004126450546551495,0.006208855444332585
1782829735029762000,3.196761962890625,-0.07128887418806552,-0.0008669738265685736,0.011652379938820377
1782829735039691000,3.20669091796875,-0.06949263842105866,0.0016508450801018624,0.0013339246180374175
1782829735049619000,3.216618896484375,-0.08101531843245029,-0.003287716433778405,0.005946121988072991
1782829735059548000,3.2265478515625,-0.0802653768479824,0.00025848653940483925,0.011720595469977706
1782829735069475800,3.236475830078125,-0.08325812892317772,0.0036886619174852967,0.01324332065838389
1782829735079404800,3.24640478515625,-0.07577683325707912,0.00834015011829324,0.010661350474320352
1782829735089332700,3.256332763671875,-0.07667290531396866,0.0085933759606909,0.012702071654843166
1782829735099262000,3.266261962890625,-0.0751759447544813,0.007107292988244444,0.013571867626160382
1782829735109190000,3.27618994140625,-0.08460252926945686,0.0008526987060438841,0.007662205190956592
1782829735119118800,3.286118896484375,-0.07427578104436397,0.005622570855822414,0.0028780487874988463
1782829735129047000,3.296047119140625,-0.06679273181259632,0.007378812539158388,0.007584418113855644
1782829735138975700,3.305975830078125,-0.07786591449081898,-0.000030212475173175335,0.01021800888730213
1782829735148904000,3.315904052734375,-0.07562368852198123,-0.0038971718353219328,0.006644031991204246
1782829735158833200,3.325833251953125,-0.08250643377304076,-0.0064982211791910225,0.011269974758801982
1782829735168761900,3.335761962890625,-0.0769715959995985,-0.005060425194725394,0.010978627129411325
1782829735178690000,3.34568994140625,-0.0804138454079628,-0.0033924463167320936,0.0031497236020397393
1782829735188619000,3.355618896484375,-0.06559913811385631,-0.004623312419094145,0.005572977826744318
1782829735198547000,3.365546875,-0.07756956189274787,-0.0004596442678477615,0.01636712436787784
1782829735208476000,3.375475830078125,-0.06888999635279178,0.01153126517664641,0.01030597943169996
1782829735218403800,3.38540380859375,-0.07188157938420772,0.002051617033872753,0.008552906952984631
1782829735228333000,3.3953330078125,-0.07262918288111686,-0.0013674615614581852,0.010390114051196723
1782829735238261000,3.405260986328125,-0.07292728904485703,-0.0031543815108481792,0.004742975009698421
1782829735248190000,3.41518994140625,-0.07561959686875343,0.0011589881762396543,0.013097528112679719
1782829735258118000,3.425117919921875,-0.07501753932237624,-0.002810454310849309,0.007656323439441621
1782829735268046800,3.435046875,-0.07411796013414859,-0.0027145835877861826,0.009403578098723664
1782829735277974800,3.444974853515625,-0.08728840735256671,-0.002245559570239857,0.0008261851584538816
1782829735287904000,3.454904052734375,-0.07890928606390953,-0.011489581459388136,0.009013208807958289
1782829735297832000,3.46483203125,-0.08130348772406577,-0.007845671999081968,0.011792464262945578
1782829735307761000,3.474760986328125,-0.07831073564887046,-0.005896976483566686,0.0011709434755146503
1782829735317688800,3.484688720703125,-0.07187748773097992,0.010521622343221678,0.0008623981161508708
1782829735327617800,3.49461767578125,-0.08474690617620945,0.008906688826717435,0.009830836200620979
1782829735337546000,3.5045458984375,-0.06634381900131701,0.006986753614805639,0.008329117267625407
1782829735347475200,3.51447509765625,-0.07203121698796748,0.0011919405977707355,0.0009834306799340992
1782829735357403400,3.5244033203125,-0.07427636556625365,-0.0034088585954159495,0.007736987460218369
1782829735367332000,3.53433203125,-0.08220832760930061,-0.004792549772467464,0.016927479930687696
1782829735377260300,3.54426025390625,-0.09013970513045787,-0.006551111277053132,0.00959200420975685
1782829735387189200,3.554189208984375,-0.07532675140202046,-0.006394313280144706,0.010192070728447288
1782829735397117400,3.564117431640625,-0.0744271722137928,-0.00311651545218192,0.014492599200271069
1782829735407046400,3.57404638671875,-0.07726970216333866,-0.0062762215921189635,0.007489296309463679
1782829735416974300,3.583974365234375,-0.06903963395655155,-0.001658726992458105,0.0011994754502549767
1782829735426903300,3.5939033203125,-0.07262976740300654,0.0003804963507223874,0.004604854313796386
1782829735436831200,3.603831298828125,-0.06694470750391483,0.0015501155188307166,0.004469875423051417
1782829735446760200,3.61376025390625,-0.0789145467609167,0.008063333337754011,-0.0016394377700984478
1782829735456688000,3.623688232421875,-0.08011223211288451,0.004164133942127227,0.0034017256017308682
1782829735466617300,3.633617431640625,-0.0804132608860731,0.0014611768600530921,0.00012259433320723474
1782829735476545300,3.643545166015625,-0.08385960194766522,0.0031244430303107944,0.0058680426500272
1782829735486474200,3.65347412109375,-0.079372811922431,-0.001299830552190542,0.010217460898030549
1782829735496402200,3.663402099609375,-0.07234159811139107,-0.006991950379731133,0.0034552184877917167
1782829735506331100,3.6733310546875,-0.08057225084006786,-0.009530273218313231,-0.0021183438608422876
1782829735516259000,3.683259033203125,-0.07249123571515083,-0.005670620381785557,0.005086308554653078
1782829735526188300,3.693188232421875,-0.07458674668967723,0.0008208970619831234,0.01210350297349505
1782829735536116500,3.703116455078125,-0.07264204236268997,-0.0038287097089923917,-0.004615914563927799
1782829735546045200,3.713045166015625,-0.07189443886578083,0.0022946320095099506,0.0038715350705664604
1782829735555973400,3.722973388671875,-0.06860299610495567,0.011578099993057549,0.002836191540304571
1782829735565902300,3.73290234375,-0.06710603554546833,-0.0015004220250528304,0.008374792173411697
1782829735575830300,3.742830322265625,-0.07413900292217732,-0.001276276146667078,0.008744182608230039
1782829735585759200,3.75275927734375,-0.07847732438743114,-0.0016417393250390887,-0.0027455906474031506
1782829735595687200,3.762687255859375,-0.06545885286033153,-0.004252597676869482,0.01652516447380185
1782829735605616400,3.772616455078125,-0.07323942373394966,0.002653975974349305,0.0048239678240381174
1782829735615544300,3.78254443359375,-0.06994681192934513,-0.002569092436181381,0.002183481518924236
1782829735625473300,3.792473388671875,-0.07997253138124942,-0.0058118006844539195,0.0061153593414463095
1782829735635402200,3.80240234375,-0.0745838240802288,-0.0037947526404634117,0.002899730896344408
1782829735645330200,3.812330078125,-0.08341478078961372,0.0010767167202662676,-0.003648713499587029
1782829735655259400,3.82225927734375,-0.08177110523581504,0.002994396043010056,0.0004191295943688601
1782829735665187300,3.832187255859375,-0.07489069807231426,0.0061817025759257375,0.005100455811014398
1782829735675116300,3.8421162109375,-0.07892915980815887,0.005015718403318896,0.005022294274577871
1782829735685044200,3.852044189453125,-0.06785422356426715,-0.0050601603332441295,0.009290984569722787
1782829735694973200,3.86197314453125,-0.06546177546977996,0.0005172927392181008,0.005931097948877141
1782829735704901000,3.871901123046875,-0.0742921476572752,0.0036472704611718652,0.006753291918803006
1782829735714830000,3.881830078125,-0.08237491634786129,-0.01173210324468091,0.009916103331279008
1782829735724758300,3.89175830078125,-0.08386953881978988,-0.005307577489363029,0.003292757935076952
1782829735734687200,3.901687255859375,-0.06770926213562488,-0.00023266711155883965,-0.00048558242670260367
1782829735744615400,3.911615478515625,-0.06980360406637191,-0.0018873937823344021,0.007786461758287623
1782829735754544400,3.92154443359375,-0.07279577161967754,0.0028299353294540196,0.007322835435066372
1782829735764472300,3.931472412109375,-0.06561316663920878,0.005877531997580081,0.000928814415866509
1782829735774401300,3.9414013671875,-0.06800619925558567,0.00555584402885288,0.007590181134361773
1782829735784329200,3.9513291015625,-0.07294365565776824,0.0037169107644353058,0.006644607379939407
1782829735794258400,3.961258544921875,-0.07967851687073707,0.0035167850824538616,0.012225494518503546
1782829735804186400,3.971186279296875,-0.06875614084005355,0.004987250360660255,0.004494397942954674
1782829735814115300,3.981115234375,-0.07983049256205559,-0.0018390793948899952,-0.0023080760129727423
1782829735824043300,3.991043212890625,-0.07788695727884769,-0.003782879539579153,0.0036398452065419403
1782829735833972200,4.00097216796875,-0.07474573664367198,-0.002775236866995692,0.007671064350847154
1782829735843900200,4.010900146484375,-0.08432020519673823,-0.001247625440917909,0.013236096333153546
1782829735853829000,4.0208291015625,-0.0856681126743555,-0.005507529641408473,0.002653099191514775
1782829735863757300,4.03075732421875,-0.08297346676290035,-0.004095580484252423,0.005556455950206146
1782829735873686300,4.040686279296875,-0.0832715729266405,0.0067296918475069105,0.007119138689665123
1782829735883614200,4.0506142578125,-0.07698562452495097,0.010460119680641219,0.00015661533381789922
1782829735893543200,4.060543212890625,-0.06381868443787098,0.003615916341682896,0.0020610515824984756
1782829735903471000,4.07047119140625,-0.07324468443095683,0.0023768212670926005,0.009759551929542793
1782829735913400000,4.080400146484375,-0.07593757677674293,0.00015677973059937357,0.006267755157873034
1782829735923328300,4.090328369140625,-0.08506605512797832,-0.005158442209102213,0.0034748821694869547
1782829735933257200,4.10025732421875,-0.07414075648784638,-0.0002344024109188467,0.01377123525631614
1782829735943185400,4.110185302734375,-0.06621054801046848,0.004566988255130127,0.0077849365214817225
1782829735953114400,4.1201142578125,-0.07683481787741184,-0.002927285623550415,0.007242061816435307
1782829735963042300,4.130042236328125,-0.08132336146831512,-0.0006915076618082821,0.0015791041512973605
1782829735972971300,4.13997119140625,-0.07473989142477512,0.0020285832181572913,-0.004868217957718297
1782829735982899200,4.149899169921875,-0.07937982618510722,0.007192048662248998,0.005744480202440172
1782829735992828400,4.159828369140625,-0.07833353200256823,0.001857135641388595,-0.00015350092812441287
1782829736002756400,4.16975634765625,-0.08102700887024403,0.004773899870924652,0.0026303119709715247
1782829736012685300,4.179685302734375,-0.07608955246806144,-0.0015045684772077947,0.010536737713962793
1782829736022613200,4.18961328125,-0.07923135762512683,0.008089079700363799,0.009973943598894402
1782829736032542200,4.199542236328125,-0.08057809605896472,-0.0037037590219173577,0.0015964662780519575
1782829736042470100,4.20947021484375,-0.08012918324768543,0.0009497110734228044,0.0005844122918322682
1782829736052399000,4.219399169921875,-0.0689069474875927,0.0011551887839566916,0.014484379361197352
1782829736062327000,4.2293271484375,-0.07519172684550285,-0.0009405870520509779,0.008159012264572083
1782829736072256300,4.23925634765625,-0.07249883449971675,-0.0009245127000845968,0.009405852254200726
1782829736082185200,4.249185302734375,-0.06845920372009277,0.007175599850947037,0.0028833277508150783
1782829736092113200,4.259113037109375,-0.07609072151184082,0.0048024409788195044,0.0034722152883652595
1782829736102042000,4.2690419921875,-0.07579144630432129,0.008529434745851903,0.0037722485477104783
1782829736111970300,4.27897021484375,-0.07189853051900863,0.011389701281487941,0.011790655898349359
1782829736121899300,4.288899169921875,-0.06665946082174777,0.009951594769768417,0.008286894694250077
1782829736131827500,4.298827392578125,-0.07070084516704082,0.0029240707531571386,0.00473396058618091
1782829736141756400,4.30875634765625,-0.07040156995952129,0.0030696441031526772,0.009827940990636124
1782829736151684400,4.318684326171875,-0.07219780572652816,-0.0038512594675179567,0.004030241896770894
1782829736161613300,4.32861328125,-0.08207447209656238,-0.008386290814960375,-0.0037462555899284776
1782829736171541200,4.338541259765625,-0.07623743650615215,-0.0024925383349414915,0.008642247470561415
1782829736181470200,4.34847021484375,-0.08342121053040027,-0.005707299130363389,0.0102731731406413
1782829736191398100,4.358398193359375,-0.06771160022318362,0.001953645685268566,0.0023211820897180587
1782829736201327400,4.368327392578125,-0.06666589056253433,-0.0000534015545155853,0.0036026002023834733
1782829736211255300,4.37825537109375,-0.06995791784524917,-0.00430338714919053,0.004741961229545995
1782829736221184300,4.388184326171875,-0.07130231819152831,0.002790781495999545,0.004411651562945917
1782829736231112200,4.3981123046875,-0.0662140551418066,0.011980077523225918,0.011916501634567976
1782829736241041200,4.408041259765625,-0.07504267376363277,0.01122011686824262,0.008602755710389464
1782829736250969000,4.417968994140625,-0.07549334014058112,0.003004670841852203,0.01835336628165096
1782829736260898300,4.427898193359375,-0.07130407175719737,0.0004598999961744994,0.005591782991914079
1782829736270826200,4.437826171875,-0.07908698071837425,0.008683940320974215,0.00002443118835799396
1782829736280755200,4.447755126953125,-0.07774258037209511,-0.003105336471041664,0.007369734183559194
1782829736290683400,4.457683349609375,-0.08073533244729042,-0.004232203342812136,0.005880975196836516
1782829736300612000,4.467612060546875,-0.08103519217669963,-0.0029605668386444447,0.007562251947820186
1782829736310540300,4.477540283203125,-0.06861351749897003,0.0030611959352158007,0.009351089859660714
1782829736320469200,4.48746923828125,-0.0853723445981741,0.006880151435174047,0.0006559705575462431
1782829736330397400,4.4973974609375,-0.07714227639138699,0.007712035682052374,0.0016703626313246786
1782829736340326400,4.507326416015625,-0.07280220136046409,0.007276685605244711,0.004548411418823525
1782829736350254300,4.51725439453125,-0.07384674197733401,0.006983465679176151,0.005746078504482284
1782829736360183600,4.52718359375,-0.06651274582743644,-0.0009448796346783637,0.006453194727376103
1782829736370111500,4.537111572265625,-0.0813286221653223,0.001025689785927534,0.008748064198903739
1782829736380040400,4.54704052734375,-0.07489712781310082,-0.0018183197346515953,0.0035246578616555777
1782829736389968400,4.556968505859375,-0.08118366073668003,-0.007155497777834534,0.0022575057363603264
1782829736399897300,4.5668974609375,-0.07804185557961464,-0.005155227338708937,0.005829975661961362
1782829736409825300,4.5768251953125,-0.07085925059914588,-0.005562803492601961,0.006152942272322252
1782829736419754200,4.586754150390625,-0.07818973961770534,-0.0015772044551558792,-0.000498816367611289
1782829736429682400,4.596682373046875,-0.06786240687072277,0.002851334310509264,0.011444956866372376
1782829736439611400,4.606611328125,-0.07190379121601581,0.008499651528941467,0.01188250803342089
1782829736449539300,4.616539306640625,-0.07504618089497089,-0.002096935746632516,-0.00005657075913622975
1782829736459468300,4.62646826171875,-0.07863689886331558,0.005057557384204119,0.007430917185731232
1782829736469397200,4.636397216796875,-0.07474573664367198,0.0007500785817857831,0.003521534322807565
1782829736479325200,4.6463251953125,-0.07250058806538581,-0.0005342895397916436,-0.002994971431745216
1782829736489254400,4.65625439453125,-0.07699088522195816,-0.0041057456852402535,-0.0001158540651667863
1782829736499182300,4.666182373046875,-0.07489478972554206,-0.0038512229348998516,0.006836330559756606
1782829736509111300,4.676111328125,-0.06636486178934574,0.0019036507973913103,0.008423828080063686
1782829736519039500,4.68603955078125,-0.07609189055562018,-0.0019991196616552767,-0.005853831461584195
1782829736528968400,4.695968505859375,-0.07549158657491206,0.001626349959662184,0.008196905722701922
1782829736538896400,4.705896484375,-0.075489833009243,-0.0012860394888557494,0.014281650730175897
1782829736548825600,4.71582568359375,-0.07159983983337878,0.008851378442905842,0.005180106051638722
1782829736558753500,4.72575341796875,-0.07474281403422355,0.00380139244380407,0.012779621269926428
1782829736568682500,4.7356826171875,-0.072349196895957,0.0033466161473188548,0.004811537600727752
1782829736578610400,4.7456103515625,-0.07593991486430168,0.002562690094858408,0.011707379795378073
1782829736588539400,4.755539306640625,-0.07803659488260746,0.0016662892444059252,0.01519500271542929
1782829736598467300,4.76546728515625,-0.0753419489711523,0.00009148680889047681,0.009931556628737598
1782829736608396300,4.775396240234375,-0.08222469422221183,0.010268296036124228,0.012343567940220236
1782829736618324200,4.78532421875,-0.0819254190146923,0.0018346498149447142,0.008304256821004673
1782829736628253400,4.79525341796875,-0.0783352855682373,-0.0026307686286978424,0.005973539717961102
1782829736638181400,4.805181396484375,-0.08551672150492667,0.001781092996802181,0.01063230704292655
1782829736648110300,4.8151103515625,-0.08267302251160144,0.004196976765803992,0.00023853972991928456
1782829736658038300,4.825038330078125,-0.0781827253550291,0.00037599370554089543,0.0028931458919309078
1782829736667967200,4.83496728515625,-0.08282149107158183,0.007031789199775085,0.011062259425409138
1782829736677895400,4.8448955078125,-0.07848083151876926,0.006076662165718153,0.008582562305731699
1782829736687824400,4.854824462890625,-0.07458966929912567,0.0005904310406651348,0.007662753180228173
1782829736697752600,4.864752685546875,-0.08311784366965293,0.0018249412716832012,0.013066164860036223
1782829736707681500,4.874681640625,-0.07862988460063934,0.003941129708057269,0.008674396174494177
1782829736717609500,4.884609375,-0.07099895133078098,0.0000584613221231848,0.011161034491611644
1782829736727538400,4.894538330078125,-0.07189619243144989,0.0012378255661111325,0.010325652246549724
1782829736737466400,4.90446630859375,-0.07070026064515113,-0.003188356845686212,0.004426008881861344
1782829736747395300,4.914395263671875,-0.06875614084005355,-0.002746914954809472,0.004029383380245417
1782829736757323500,4.924323486328125,-0.07429039409160614,-0.0013083791848272084,0.014386325814202428
1782829736767252500,4.93425244140625,-0.07533844183981418,0.010982636584248393,0.01031599850221537
1782829736777180400,4.944180419921875,-0.0813245305120945,-0.0014155658863484858,0.00522410959014669
1782829736787109400,4.954109375,-0.07833236295878887,0.0017999803603626786,0.010899460945976897
1782829736797037300,4.964037353515625,-0.07623743650615215,0.006559267184045165,0.007126573077449574
1782829736806966300,4.97396630859375,-0.07533961088359356,0.0011146375778596847,0.008835413688793778
1782829736816894200,4.983894287109375,-0.0846183113604784,0.004993004248011857,0.009063614687789231
1782829736826823400,4.993823486328125,-0.07279810970723628,0.0060349419158417725,0.002063006077567115
1782829736836752400,5.00375244140625,-0.0811801536053419,0.00549907234031707,0.016782281040027738
1782829736846680300,5.013680419921875,-0.07938333331644534,-0.0017260748739354312,-0.0009905362741556018
1782829736856609300,5.023609375,-0.08282441368103027,0.003323235271731391,0.003680679540429264
1782829736866537200,5.033537109375,-0.07294716278910636,0.008880951597262174,0.00876761828274466
1782829736876466200,5.043466064453125,-0.07653612719178199,0.0035442758775781837,0.00979068685332313
1782829736886394600,5.05339453125,-0.07713584665060043,0.0005538527567870915,0.00565180608346127
1782829736896323300,5.0633232421875,-0.0707014296889305,0.001565788011997938,0.002791201621107757
1782829736906251500,5.07325146484375,-0.07399345697164535,0.0053982788469642395,0.0007411920224316417
1782829736916180500,5.083180419921875,-0.07788520371317863,-0.002429272973537445,0.008496171797066927
1782829736926108400,5.0931083984375,-0.07743862898945808,0.003538896449562162,0.007962083186674863
1782829736936037400,5.103037353515625,-0.08177928854227065,-0.0006500979391857981,0.005928787260781973
1782829736945965300,5.11296533203125,-0.0723532885491848,0.001825324864173308,0.008815539944544435
1782829736955894500,5.12289453125,-0.07818915509581566,-0.004668046609964222,0.00010575279626064002
1782829736965822500,5.132822509765625,-0.07040858422219753,-0.0027191684313584118,0.002125613851845264
1782829736975751400,5.14275146484375,-0.06188040985167026,0.003219153842749074,0.004376653314800933
1782829736985679400,5.152679443359375,-0.08058569484353065,-0.0011329495526850224,0.008941897137416527
1782829736995608300,5.1626083984375,-0.07923895640969277,0.0008685903949197381,0.00340146987340413
1782829737005536300,5.172536376953125,-0.07280278588235378,0.005874189263023436,0.0018566607173532246
1782829737015465500,5.182465576171875,-0.0711550186753273,0.0026507519708015024,0.00849801669428125
1782829737025393400,5.192393310546875,-0.06786240687072277,-0.0013394136439077555,0.00297089643641375
1782829737035322400,5.202322265625,-0.06486965479552745,0.001272367156529799,0.0067524516685865815
1782829737045250300,5.212250244140625,-0.07205167525410652,0.0010743055674713104,0.010133198414370418
1782829737055179300,5.22217919921875,-0.08267652964293956,-0.007279242888512089,0.008256179895577951
1782829737065107500,5.232107421875,-0.07130407175719737,-0.0021330756390932947,0.012334708780329674
1782829737075036200,5.2420361328125,-0.07474573664367198,-0.000724916741065681,0.009732864852016791
1782829737084964400,5.25196435546875,-0.070109309014678,0.00737254719515331,0.005634955413360149
1782829737094893600,5.2618935546875,-0.07743862898945808,0.0006151088241953403,0.00976161602246575
1782829737104821500,5.271821533203125,-0.07579378439188003,-0.003843286223616451,0.009273503711959346
1782829737114750500,5.28175048828125,-0.06815992851257324,0.006132958930218592,0.006985292310081422
1782829737124678400,5.291678466796875,-0.0735468822479248,0.0051072143453638995,0.009278024623449892
1782829737134607400,5.301607421875,-0.06860825680196285,0.0012393873355351387,0.004075277481740341
1782829737144535300,5.311535400390625,-0.07863339173197746,0.0011731262994464486,0.006937525911908596
1782829737154464500,5.321464599609375,-0.07234627428650856,0.0033501780775841324,0.012375999771943315
1782829737164389400,5.331389404296875,-0.07848258508443832,0.002467869684565812,0.002511087771784514
1782829737174318300,5.341318359375,-0.07743629090189934,-0.0035358003101777285,0.0013663016508333385
1782829737184246300,5.351246337890625,-0.071302902713418,-0.004893635526765138,0.007333676489489152
1782829737194175500,5.361175537109375,-0.07668868740499019,-0.004359811777854338,0.01064808000079356
1782829737204103400,5.371103515625,-0.08401917642354964,0.0016449998612049967,-0.002471385949058458
1782829737214032400,5.381032470703125,-0.08192483449280262,-0.00126467704041861,0.006687852866621688
1782829737223960300,5.390960205078125,-0.07698620904684067,0.004385220213746652,0.0007014354007784276
1782829737233889300,5.40088916015625,-0.0747410604685545,0.005893177091283723,0.0028937852127477524
1782829737243817200,5.410817138671875,-0.07309621587097645,-0.002554515921557322,0.005565744368359446
1782829737253746200,5.42074609375,-0.07773381254374981,0.006762151078693568,0.007628248122427612
1782829737263674600,5.430674560546875,-0.06920271556377411,0.004732060890039429,-0.002995802548807114
1782829737273603300,5.440603271484375,-0.07967793234884739,-0.0029996932726353404,0.005390606997162103
1782829737283531500,5.450531494140625,-0.08581307410299778,0.0016896244542207567,0.007943835143931209
1782829737293460500,5.46046044921875,-0.07758417493999004,0.0014563180218450725,0.00880395910460502
1782829737303389200,5.47038916015625,-0.08192308092713356,0.004456805878924205,0.00826119399741292
1782829737313317400,5.4803173828125,-0.08072656461894512,0.008371120645292102,0.002315291205048561
1782829737323246600,5.49024658203125,-0.08701134397685527,-0.00212933104573749,0.004372726058354601
1782829737333174500,5.500174560546875,-0.07429448574483394,-0.005915133194765076,0.003992165775550529
1782829737343103500,5.510103515625,-0.07609189055562018,-0.001994096426665783,0.0000012786416336894034
1782829737353031200,5.52003125,-0.07190262217223643,0.005548902831412851,0.0016215459203813224
1782829737362960100,5.529960205078125,-0.06831190420389174,0.009074218280194326,-0.003715412927092984
1782829737372888000,5.53988818359375,-0.07339958273172378,0.0027305940076708794,0.005260075952671468
1782829737382817000,5.549817138671875,-0.08626607856750487,0.0029846327008213845,0.004689646520419046
1782829737392745000,5.559744873046875,-0.07190028408467769,0.004724516904400661,-0.0028266017280519007
1782829737402674000,5.569673828125,-0.07204875264465808,0.0021007625383790583,0.00850928700696677
1782829737412601900,5.579601806640625,-0.0789320824176073,-0.003319600276229903,0.01507537665744312
1782829737422531000,5.589531005859375,-0.08042962749898433,0.002182568203471601,0.009749898185208439
1782829737432459000,5.599458984375,-0.07683481787741184,0.003077608213899657,0.015127536102943121
1782829737442388000,5.609387939453125,-0.07832885582745075,0.003185689964564517,0.00637830286026001
1782829737452316200,5.619316162109375,-0.07982464734315872,-0.008406456820154562,0.0011101805984508246
1782829737462244900,5.629244873046875,-0.07159633270204067,0.005003626106726005,0.006727198496321216
1782829737472173000,5.639173095703125,-0.0704009854376316,0.0038347741235978897,-0.0002371606235858053
1782829737482102300,5.649102294921875,-0.0715992553114891,0.010534920216212048,0.005103615882480516
1782829737492030200,5.6590302734375,-0.0684580346763134,0.004216813977435231,0.017008664541272447
1782829737501959200,5.668959228515625,-0.08087795578837394,-0.00003391140275634825,0.007173243497079238
1782829737511887000,5.67888720703125,-0.07654138788878917,0.003125776470871642,0.004393229990266263
1782829737521816000,5.688816162109375,-0.07190262217223643,0.0008742164181079715,0.004994465552736073
1782829737531744000,5.698743896484375,-0.06980535763204097,-0.00215066609471105,-0.002130317426426336
1782829737541673000,5.7086728515625,-0.06995557975769043,0.0031263792590703813,0.0074267616004217414
1782829737551601000,5.718600830078125,-0.06367196944355964,-0.0015160305861383675,0.010618589044827967
1782829737561530000,5.728530029296875,-0.06696516577005386,-0.0012238518396858126,-0.004145136980712414
1782829737571458000,5.7384580078125,-0.07444763047993183,0.004305743503058329,0.0024254005160182714
1782829737581387000,5.748386962890625,-0.07100362750589848,0.008974018441885709,0.003211692055501044
1782829737591315000,5.75831494140625,-0.07624094363749027,0.005090783800370991,0.004557179247168824
1782829737601244000,5.768243896484375,-0.06950958955585956,0.007758167245564982,0.008049889334291219
1782829737611171800,5.778171875,-0.0941992096543312,0.0008335738804657012,0.003504911981569603
1782829737621101000,5.78810107421875,-0.08357844691872596,0.0004922496295068412,0.0020758929586037994
1782829737631030000,5.798030029296875,-0.07504793446063995,0.00044230954055674373,0.0093187493594829
1782829737640958000,5.8079580078125,-0.08971066606342792,-0.004682887986069545,0.014642236804030834
1782829737650887000,5.817886962890625,-0.08073240983784198,0.006865291792759671,0.006941727162990719
1782829737660815000,5.827815185546875,-0.06666530604064465,0.009150379655789584,0.005467206764174625
1782829737670744000,5.837744140625,-0.07070376777648925,0.004448248113133013,0.013528430343233049
1782829737680672300,5.84767236328125,-0.06412029773294925,0.009416802906477824,0.007364573951251804
1782829737690601200,5.857601318359375,-0.06980594215393066,0.0038515334621537474,0.009040434741601348
1782829737700529200,5.867529052734375,-0.07968319304585457,0.0034838600603863596,0.013185672187013551
1782829737710458000,5.8774580078125,-0.07115677224099635,0.0006600256781559437,0.004310163949849084
1782829737720386000,5.887385986328125,-0.08402735973000526,0.008133695160225033,0.006579698050720617
1782829737730315000,5.89731494140625,-0.07878945907652378,-0.0006198123987764119,-0.004507504019699991
1782829737740243000,5.907242919921875,-0.0775906046807766,-0.002999501476390287,0.0034879243141505865
1782829737750172200,5.917172119140625,-0.06771452283263206,0.0007055087876971811,0.014387248262809588
1782829737760100000,5.92710009765625,-0.06292611951231956,-0.00348879196383059,0.011223852328443898
1782829737770029000,5.937029052734375,-0.07908931880593299,0.007910197735810653,0.0048797165992669755
1782829737779957000,5.94695703125,-0.0717559071779251,0.0034404045111499724,-0.00159570822622627
1782829737789886000,5.956885986328125,-0.08088321648538112,-0.0008822170614730566,-0.0007771857844199985
1782829737799814000,5.96681396484375,-0.08402502164244652,0.007916855805460364,0.012564462415594608
1782829737809745200,5.9767451171875,-0.073699442461133,0.006150996910408139,0.00044792643059045074
1782829737819673000,5.986673095703125,-0.06666472151875495,-0.006390239893225952,0.004626143696997314
1782829737829602000,5.99660205078125,-0.06816051303446292,0.002803832773817703,0.007390265514934435
1782829737839530000,6.006530029296875,-0.07564239322245121,0.0005016933112870902,0.011561815578537062
1782829737849459000,6.016458984375,-0.074893036159873,-0.00004932816759683191,0.006936713061155751
1782829737859388200,6.02638818359375,-0.08132686859965324,-0.0010786803484894335,0.003745132211921736
1782829737869316000,6.036316162109375,-0.08162614380717277,-0.0011026000801939518,0.005606450838083401
1782829737879245000,6.0462451171875,-0.07444178526103497,-0.006265864594886079,0.008387048866786062
1782829737889173000,6.056173095703125,-0.07967851687073707,-0.004375593868875875,0.0055841659410391
1782829737899102000,6.06610205078125,-0.07534253349304199,-0.0004975925249047577,0.0022701186227612196
1782829737909030000,6.07602978515625,-0.08042904297709465,-0.004217270635161549,0.00700415227417834
1782829737918959000,6.085958984375,-0.0750415047198534,0.00038308103345334525,0.010742032761406152
1782829737928887000,6.095886962890625,-0.06965338194072246,0.0034928927502129226,0.004520929756853729
1782829737938816000,6.10581591796875,-0.08222410970032215,-0.0008210705919191241,0.0070576634265482425
1782829737948744000,6.115743896484375,-0.07713526212871075,0.007119321352755651,0.004754382319701835
1782829737958673000,6.1256728515625,-0.07833294748067855,0.004368926666071638,0.008120470352470875
1782829737968601000,6.13560107421875,-0.07698445548117161,-0.0036029929280281064,-0.0005985595481935889
1782829737978530000,6.145530029296875,-0.07009878762066364,-0.005399109964026138,0.009931209568865597
1782829737988458200,6.155458251953125,-0.07234393619894981,-0.00260958884335123,0.00807037499989383
1782829737998387200,6.16538720703125,-0.08221943352520465,-0.0022134656652342526,0.008253841808019205
1782829738008315100,6.175315185546875,-0.09089607645571231,-0.0055552412406541405,0.009355355042824521
1782829738018244000,6.185244140625,-0.06785071643292903,0.0039178401640150694,0.001873182593891397
1782829738028172000,6.195172119140625,-0.07877484602928161,0.004828625732846558,0.005394689517235383
1782829738038101000,6.20510107421875,-0.08012216898500919,0.0019246570528019219,0.009210274883173405
1782829738048029000,6.21502880859375,-0.08670739259421825,0.0014983487989753484,0.006698447325872257
1782829738057958100,6.224958251953125,-0.09149579591453075,-0.0019830818423070013,0.0018225575183518229
1782829738067886000,6.234885986328125,-0.07713000143170357,-0.005833108333963901,0.006003112872317433
1782829738077815000,6.24481494140625,-0.07563187182843685,-0.005623703366983682,0.012997209543362259
1782829738087743000,6.254742919921875,-0.07368833654522895,0.0003665682900696993,0.009136953918635844
1782829738097672000,6.264671875,-0.07847557082176208,-0.0015973521940410135,0.004325571581535041
1782829738107600000,6.274599853515625,-0.06874912657737732,-0.006242438053525984,0.012106498648179694
1782829738117529000,6.284529052734375,-0.07338730777204036,0.0016018457060679792,0.012794919303758069
1782829738127457000,6.29445703125,-0.0741354957908392,-0.0007720712178852408,0.01026456057592295
1782829738137386000,6.304385986328125,-0.0792243433624506,0.008186484793387353,-0.0023058018574956805
1782829738147314200,6.314314208984375,-0.07653086649477481,0.0014811510690022258,0.0014314301757607608
1782829738157243100,6.3242431640625,-0.07219429859519004,0.007705459810793399,0.003527178612304851
1782829738167171800,6.334171875,-0.0852104320347309,-0.0014360058861784637,0.006149645203538239
1782829738177100000,6.34410009765625,-0.07144143440127372,-0.004892210754659026,0.009758273287909104
1782829738187029200,6.354029296875,-0.07727730094790458,-0.0055457792925648385,0.0026794300760142505
1782829738196957200,6.363957275390625,-0.07832534869611263,0.004706862516701221,0.01278109170780517
1782829738206886100,6.37388623046875,-0.06964636767804622,-0.0024194274329580366,0.008520520787034183
1782829738216814000,6.38381396484375,-0.0741354957908392,-0.0007761172053404152,0.00823484484660439
1782829738226743000,6.393742919921875,-0.08176526001691818,0.009358231986500322,0.010869686862220987
1782829738236671000,6.4036708984375,-0.07667875053286552,0.001349131320323795,-0.003164080920955166
1782829738246600200,6.41360009765625,-0.08580605984032154,-0.000712185123655945,-0.0012925696943420916
1782829738256528100,6.423528076171875,-0.07353636085391044,0.0031248814217280595,0.005178197222342714
1782829738266457000,6.43345703125,-0.07428454887270927,0.001472584170056507,0.0026898418721742925
1782829738276385000,6.443385009765625,-0.07518178997337818,-0.004157074013678356,0.011928447800688444
1782829738286314000,6.45331396484375,-0.07368424489200115,-0.0023439419107977298,0.0054908616343978785
1782829738296242000,6.463241943359375,-0.07667465887963772,-0.0013646211504004895,0.012474793104454875
1782829738306171000,6.4731708984375,-0.08400514789819717,0.0019403021465055643,0.006385508919181302
1782829738316099000,6.48309912109375,-0.07038871047794819,0.005974334302404895,0.008903017298597842
1782829738326028000,6.493028076171875,-0.0694908848553896,0.00916781484778039,0.006524241536436602
1782829738335956200,6.502956298828125,-0.07023907287418842,-0.00028378537744283675,0.007110736187500879
1782829738345885000,6.512885009765625,-0.08565233058333396,0.0033429628855083135,0.00560685269688256
1782829738355812600,6.5228125,-0.07143675822615624,-0.00320471432544291,0.0042646077750716355
1782829738365741800,6.532741943359375,-0.07652326771020888,0.0037063163051847367,0.012295061756530777
1782829738375669800,6.542669677734375,-0.07488076120018959,-0.006084334015520289,0.007169553702650592
1782829738385598700,6.5525986328125,-0.06859481279850006,0.0014598160200286656,0.003479028621641919
1782829738395526700,6.562526611328125,-0.0666495239496231,0.0011998316432815044,0.007134281459869817
1782829738405455600,6.57245556640625,-0.0732329939931631,-0.0009070044428575783,0.0010118713231291622
1782829738415383600,6.582383544921875,-0.07802081279158592,-0.0026722422834020106,0.012932702072942628
1782829738425312500,6.5923125,-0.08834580745100974,-0.0006026055356487632,0.013519498118106274
1782829738435240700,6.60224072265625,-0.08475508948266505,0.011080187807744368,0.006564208220643923
1782829738445169700,6.612169677734375,-0.08146423124372959,0.005232658222783356,0.006052751567168161
1782829738455098600,6.6220986328125,-0.07068915472924708,0.006192826758138835,0.004273777462216094
1782829738465026600,6.632026611328125,-0.07892097650170325,0.00026898053395561875,0.013482052184548229
1782829738474955500,6.64195556640625,-0.07488076120018959,-0.001586648136936128,0.005735758039867505
1782829738484883500,6.651883544921875,-0.07592763990461826,0.007973499629832804,0.00966400086688809
1782829738494812700,6.661812744140625,-0.07921908266544342,0.006780143393110483,0.0044494171569123865
1782829738504740600,6.67174072265625,-0.07846972560286522,-0.0035685152696911244,0.004281257515773177
1782829738514669600,6.681669677734375,-0.07398001296818256,0.0024554851270280776,0.009205507376510649
1782829738524597800,6.69159765625,-0.07038929499983787,0.0023739077907986936,0.005952451264159753
1782829738534526500,6.7015263671875,-0.0729325497418642,0.0055826772368513045,0.00972114701475948
1782829738544454700,6.71145458984375,-0.06081073479354381,-0.007555091554671526,0.01001692422409542
1782829738554383600,6.721383544921875,-0.08340542843937873,-0.003777810638817027,0.0037973281900398432
1782829738564311800,6.731311767578125,-0.07382745275497436,-0.000679625427769497,-0.0001931570850778371
1782829738574240800,6.74124072265625,-0.07307984925806522,0.0012828885505441576,0.00008262764899991453
1782829738584168700,6.751168701171875,-0.07547521996200084,0.010865019820258021,0.00802659979024902
1782829738594097700,6.76109765625,-0.0717342798680067,-0.00022927871122956273,0.01459720121906139
1782829738604025600,6.771025634765625,-0.06634557256698607,0.0035945447600912303,0.0038256501022260634
1782829738613954600,6.78095458984375,-0.07981354142725468,0.0038850430061109363,0.0064597614654805504
1782829738623882500,6.790882568359375,-0.08175649218857288,0.004015062593948096,0.002638084285473451
1782829738633811700,6.800811767578125,-0.07726677955389022,-0.0025400124721694736,0.001557814768096432
1782829738643739600,6.81073974609375,-0.0757686499506235,0.007867966029280795,0.019590406396472825
1782829738653668600,6.820668701171875,-0.06993395244777202,0.0001760232871863991,0.008579895424610004
1782829738663596500,6.830596435546875,-0.06709083797633647,-0.0027017423725221304,0.00014127163421362638
1782829738673525500,6.840525390625,-0.08100830416977405,-0.0025561598893720657,0.0050774219952989365
1782829738683453400,6.850453369140625,-0.07831424278020858,-0.007061736813466996,-0.003045541708357632
1782829738693382700,6.860382568359375,-0.07801321400702,0.003852611174387857,-0.00022704108837060628
1782829738703310800,6.870310791015625,-0.08639350433945656,-0.003238169070472941,0.013105282160872592
1782829738713239600,6.880239501953125,-0.08280278637111187,-0.003049889089912176,0.00882428950658068
1782829738723167700,6.890167724609375,-0.0733773708999157,-0.0008921265341341495,0.007358546069264412
1782829738733096700,6.9000966796875,-0.07576981899440288,-0.0007297938455827534,0.0030100411367136983
1782829738743024600,6.910024658203125,-0.07980944977402686,-0.0021368476319126783,0.005108511253306642
1782829738752953600,6.91995361328125,-0.07606792515814303,-0.006365717373322695,0.004293459410220384
1782829738762882800,6.9298828125,-0.07516893049180508,-0.002244965915195644,0.004939310432551428
1782829738772810800,6.939810791015625,-0.0763660313218832,0.0014073277809657156,0.0024530009089969097
1782829738782739700,6.94973974609375,-0.07217734746038913,-0.006157390118576586,0.005997879574773833
1782829738792667600,6.959667724609375,-0.08339958322048187,0.0035571262259967624,0.006701662196265533
1782829738802596600,6.9695966796875,-0.07696516625881195,-0.002818299690587446,0.009447271109977737
1782829738812524500,6.979524658203125,-0.07756430119574069,0.0012886698373593389,0.0029183259989600625
1782829738822453800,6.989453857421875,-0.07606734063625335,-0.0031297402599360794,0.002611662069428712
1782829738832381700,6.999381591796875,-0.07292319739162921,0.008793118050182238,0.011012027075514196
1782829738842310700,7.009310546875,-0.07038052717149257,0.003969908277969807,0.00789232415240258
1782829738852238600,7.019238525390625,-0.07501753932237624,0.0011487225105520336,0.010114996037399395
1782829738862167600,7.02916748046875,-0.08758709803819656,-0.008664413636596873,0.013079791526589541
1782829738872095500,7.039095458984375,-0.0835462982147932,-0.005139627910777926,0.004993433506274595
1782829738882024400,7.0490244140625,-0.07950549839138984,0.008608317801496013,0.005783095179777592
1782829738891952600,7.05895263671875,-0.07726151885688304,0.003453227460104972,0.007107375186635181
1782829738901881600,7.068881591796875,-0.09013035278022288,0.0002717935455497354,0.000670748001569882
1782829738911809800,7.078809814453125,-0.07935702983140945,0.0029487302703782915,0.004664183285599574
1782829738921738800,7.08873876953125,-0.08070201469957829,0.0033281306425575166,0.006254548616427928
1782829738931666700,7.098666748046875,-0.08100128990709782,0.0038329840253107247,0.010466193228401243
1782829738941595600,7.108595703125,-0.07007716031074523,0.007982084795087576,0.010019801167771219
1782829738951523600,7.118523681640625,-0.06558569411039351,0.002842959207808599,0.0036614085843786597
1782829738961452800,7.128452880859375,-0.07411386848092079,-0.00570960068530403,0.009476067946199327
1782829738971380700,7.138380615234375,-0.08399111937284469,-0.0022562544941902157,0.007805248657148331
1782829738981309700,7.148309814453125,-0.07965221338570118,0.00014382891748100518,0.006734906878741458
1782829738991237600,7.158237548828125,-0.06678104137480259,-0.003938024435518309,0.005519704136392101
1782829739001166600,7.16816650390625,-0.06573533171415329,-0.005547651589242741,0.006175893889646977
1782829739011094500,7.178094482421875,-0.0844394476622343,-0.004365501733124256,0.0008829385806806386
1782829739021023700,7.188023681640625,-0.08069967661201953,0.0014738262790720909,0.013516274114558472
1782829739030952700,7.19795263671875,-0.08144786463081836,0.0014511395232286303,0.012773995246738194
1782829739040880600,7.207880615234375,-0.07321896546781062,-0.004808130934089422,0.011600275292247534
1782829739050809600,7.2178095703125,-0.07651157727241516,-0.0002026738320942968,-0.001955298786237836
1782829739060737500,7.227737548828125,-0.06932780324816704,-0.003962793550593778,0.006065528850350528
1782829739070666500,7.23766650390625,-0.08384206629097461,-0.0027597561700735238,0.005075138706667349
1782829739080594400,7.247594482421875,-0.06827975549995899,0.00024315197295509278,0.004467948327446356
1782829739090523600,7.257523681640625,-0.06947685633003711,-0.004298062520101666,0.011602485515642911
1782829739100451600,7.26745166015625,-0.06797931124866008,-0.005021216562343761,0.013726108339801429
1782829739110380500,7.277380615234375,-0.07201894202828407,0.00022047435026615857,0.007199574381578713
1782829739120308700,7.287308837890625,-0.07950140673816204,-0.009958115842100232,0.0077464402751531445
1782829739130237700,7.29723779296875,-0.08518763568103313,-0.005322391466004774,0.008347986364876851
1782829739140165600,7.30716552734375,-0.06678221041858196,0.0006915441944263875,0.012159854536922648
1782829739150094800,7.3170947265625,-0.06797931124866008,0.004418227434204891,0.014374480112781748
1782829739160022800,7.327022705078125,-0.0717208358645439,0.006467524646827951,0.0125250893864315
1782829739169951700,7.33695166015625,-0.07486381006538867,-0.004321187667362392,0.012097201096871867
1782829739179879700,7.346879638671875,-0.07471534150540829,-0.0015203688345383853,0.00414552057320252
1782829739189808600,7.35680859375,-0.08085106778144836,-0.006327796515729278,0.009491566909430548
1782829739199736600,7.366736572265625,-0.0853413649380207,-0.0004918477707076817,0.011300835687946528
1782829739209665500,7.37666552734375,-0.07321896546781062,-0.0008594024414662272,0.011222263159556314
1782829739219593500,7.386593505859375,-0.08070201469957829,0.0030818642639089374,-0.0018760869370307773
1782829739229522700,7.396522705078125,-0.07711012768745422,-0.0030382808505091813,0.014331545153353362
1782829739239450600,7.40645068359375,-0.08324526944160461,-0.00493510004831478,0.01291144008920528
1782829739249379600,7.416379638671875,-0.07666063035428523,-0.011047993438038974,0.01405693859620951
1782829739259307500,7.4263076171875,-0.06783318077623844,-0.00011045637084171175,0.005222237293468788
1782829739269236500,7.436236572265625,-0.07830839756131172,-0.0018886267581954598,0.011486412254767491
1782829739279164700,7.44616455078125,-0.08893325195014476,0.0018896405383478849,0.00838950568535365
1782829739289093600,7.45609375,-0.06768471221625805,-0.002036757391458377,0.005287374951550737
1782829739299021800,7.466021728515625,-0.06588847644925117,-0.0025243947779294102,0.0008278747920412569
1782829739308950800,7.47595068359375,-0.07067629524767398,-0.0051790100730955595,0.0019597192330285907
1782829739318879500,7.48587939453125,-0.07441606629788876,0.0030399430846329775,0.003206805817829445
1782829739328807700,7.4958076171875,-0.07471651054918765,-0.0045949083085171875,0.007717095449659973
1782829739338736600,7.505736572265625,-0.07232464697659015,-0.0019946352827828378,0.008322641861066222
1782829739348664600,7.51566455078125,-0.07636486227810382,-0.0005539166888687759,0.004057732691895216
1782829739358594600,7.525594482421875,-0.0718739805996418,-0.002505160354496911,0.006150001396564767
1782829739368522800,7.535522705078125,-0.06813187146186828,0.0025855138480197636,0.004069203933980315
1782829739378451700,7.54545166015625,-0.07666296844184398,-0.002559045966202393,0.0062283547292463475
1782829739388379600,7.555379638671875,-0.07771160071194172,-0.0025724260375835,0.004489082447020337
1782829739398308900,7.565308837890625,-0.06484276678860187,-0.003472671946091577,0.006905578137375414
1782829739408236800,7.57523681640625,-0.07202420272529125,-0.006173546668933704,0.012833351618004961
1782829739418165800,7.585165771484375,-0.07381868492662906,-0.0006377773137297481,0.012613808849500491
1782829739428093700,7.59509375,-0.0706757107257843,-0.0010336173640564084,0.015716907697683198
1782829739438022700,7.605022705078125,-0.06843114666938781,-0.004900403194269165,0.008940929023036732
1782829739447950600,7.61495068359375,-0.07516483883857726,-0.0020215963549446315,0.006773119997279718
1782829739457879600,7.624879638671875,-0.07681085247993469,-0.002420550810964778,0.006327294192230329
1782829739467807500,7.634807373046875,-0.07277063717842101,-0.004189113119756803,0.0036439642592333253
1782829739477736700,7.64473681640625,-0.07516425431668758,-0.003412201329972595,0.0037752350892405954
1782829739487664600,7.65466455078125,-0.0766623839199543,-0.00423091556802392,0.011316699977358803
1782829739497593600,7.664593505859375,-0.07322130355536938,-0.010453297214210032,0.003251275147218257
1782829739507521500,7.674521484375,-0.08040332401394844,-0.0021591416621115057,0.008188503220537676
1782829739517450500,7.684450439453125,-0.07800970687568187,0.002322935655387118,0.00797806620709598
1782829739527378400,7.69437841796875,-0.07696341269314289,-0.006660042411088943,0.013883171198191121
1782829739537307600,7.7043076171875,-0.07965805860459804,0.0069548423728905615,0.008210870315972715
1782829739547235800,7.71423583984375,-0.07262392218410968,0.007568489892361685,0.013676213916623964
1782829739557164500,7.72416455078125,-0.07471767959296703,0.003273870571516454,0.00736926839267835
1782829739567092700,7.7340927734375,-0.07531564548611641,-0.007596921402402221,0.008333099322998895
1782829739577021700,7.744021728515625,-0.07561725878119469,-0.002455110667692497,0.0041637960154097525
1782829739586950700,7.75395068359375,-0.07352116328477859,-0.0016028138204477727,0.0036238256535027174
1782829739596878600,7.763878662109375,-0.07800970687568187,0.000773523389454931,0.005772710783081129
1782829739606807800,7.773807861328125,-0.0747188486367464,0.002718529110541567,0.004219343861239031
1782829739616735700,7.78373583984375,-0.08264964163601397,-0.0001541219826322049,0.011814210303872823
1782829739626664700,7.793664794921875,-0.07576572734117508,-0.0015411284947767852,0.006757611900893971
1782829739636592600,7.803592529296875,-0.07786182283759116,0.0014768858858384192,0.004134149795817211
1782829739646521600,7.813521484375,-0.07606617159247397,0.007615653502335771,0.005408654110506177
1782829739656449500,7.823449462890625,-0.06663958707749844,-0.0002514996761921793,0.004008331459062174
1782829739666378800,7.833378662109375,-0.07831132017076015,-0.002569037637254223,0.009076236707344651
1782829739676306700,7.843306640625,-0.0693336484670639,0.00027158348299562927,0.008735442179348319
1782829739686235600,7.853235595703125,-0.07906009271144866,-0.0012813267811201511,0.012106169854616745
1782829739696163600,7.86316357421875,-0.07352291685044765,0.0014292838844470678,-0.004515057138493284
1782829739706092500,7.873092529296875,-0.07277297526597976,0.00415463546141982,0.001677258162992075
1782829739716020500,7.8830205078125,-0.06947977893948555,-0.004464450329262763,0.010068161220988258
1782829739725949400,7.892949462890625,-0.07247019292712212,0.0028835195470601318,0.009137547573680058
1782829739735877600,7.902877685546875,-0.08129705798327923,-0.0032590291954111305,0.0032716055491939186
1782829739745806600,7.912806640625,-0.0818950238764286,0.0009725713592022657,0.001407857503928244
1782829739755734800,7.92273486328125,-0.07635843253731728,-0.0029777463023085145,0.00965876756934449
1782829739765663700,7.932663818359375,-0.06543722555041313,-0.000218802982987836,0.00548705310896039
1782829739775591700,7.942591796875,-0.08638473651111125,0.0003031202655751258,0.007096369735430925
1782829739785520600,7.952520751953125,-0.07501169410347938,-0.01310343726365827,-0.0035532720347866416
1782829739795448600,7.962448486328125,-0.07201894202828407,-0.008203024936234577,0.010188362667709588
1782829739805377800,7.972377685546875,-0.07860241207182407,0.00003543663956224918,0.005729474429553375
1782829739815305700,7.9823056640625,-0.07680676082670689,-0.0002724693989846855,0.011748195862956345
1782829739825234700,7.992234619140625,-0.07381225518584252,0.004200803557550535,0.001732906473521143
1782829739835162600,8.00216259765625,-0.08353694586455822,0.00692907774397172,0.0122530309794005
1782829739845091600,8.012091552734375,-0.08622925368845462,0.0001388239488005638,0.016519191390741615
1782829739855020500,8.0220205078125,-0.07111702475249766,-0.003034380993526429,0.011850532859424128
1782829739864948700,8.03194873046875,-0.07530570861399173,-0.0024963285940699277,0.01589638331728056
1782829739874877700,8.041877685546876,-0.07440729846954346,-0.0007056914507877081,0.00740214774897322
1782829739884805600,8.0518056640625,-0.07276011578440665,-0.0025693024987354872,0.0017343129793182014
1782829739894734600,8.061734619140625,-0.08188917865753173,-0.0037679924977011975,0.009894430355587973
1782829739904662500,8.07166259765625,-0.0730628981232643,-0.00022774434126913545,0.005582732035778463
1782829739914591500,8.081591552734375,-0.07156652208566665,-0.0022129998743534085,0.010712779267458245
1782829739924519400,8.09151953125,-0.0748579648464918,-0.004401440696185454,0.00480993929868564
1782829739934448600,8.10144873046875,-0.07455985868275165,-0.005382505889097228,0.009456659992830827
1782829739944376800,8.111376953125,-0.07500935601592064,-0.004109243683423846,0.010356047384813428
1782829739954305500,8.121305419921875,-0.0721656570225954,-0.00014501622756943105,0.008572205308498814
1782829739964233700,8.131233642578126,-0.062439797300100325,-0.004428292170492932,0.01132366857426241
1782829739974162700,8.14116259765625,-0.06602934622466564,-0.0058266694600228215,0.004659443178400397
1782829739984090600,8.151090576171875,-0.0711158557087183,-0.0030743659440428017,0.000300718245934695
1782829739994019800,8.161019775390624,-0.06887246069610119,0.000520169682893902,0.0027451157233677804
1782829740003947800,8.17094775390625,-0.07022153721749783,-0.0037314233469776807,0.00009935958809219301
1782829740013876700,8.180876708984375,-0.07650456300973892,-0.0003142079151701182,0.0033527992929331956
1782829740023804700,8.1908046875,-0.08114274420440197,-0.0027456454463303088,0.00964286674731411
1782829740033733600,8.200733642578125,-0.08219020743072032,-0.0077441295870579775,0.012680106418207287
1782829740043661600,8.21066162109375,-0.06902151377797126,-0.0007553666782565415,0.009429726320132613
1782829740053590500,8.220590576171874,-0.07530453957021235,-0.005760664152260869,0.0019716471328400076
1782829740063518500,8.2305185546875,-0.07365794140696526,-0.0061671443276107305,-0.003008799027698114
1782829740073447700,8.24044775390625,-0.08069090878367424,-0.004519002661248669,0.015564027824066578
1782829740083375600,8.250375732421874,-0.08607903156280516,-0.0035168124819174407,0.02197617815500125
1782829740093304600,8.2603046875,-0.07710019081532955,0.000013416603999212384,0.006961290379986167
1782829740103233500,8.270233642578125,-0.07470715819895267,0.0009119089468382298,0.012848074263101443
1782829740113161500,8.280161376953124,-0.08428454936146736,-0.010494834800995886,0.00980080638853833
1782829740123090700,8.290090576171876,-0.08353636134266852,-0.004124167257919907,0.004095370421698317
1782829740133018600,8.3000185546875,-0.07829729164540768,-0.004340787416975945,0.009473218401987105
1782829740142947600,8.309947509765625,-0.07261106270253657,-0.0073714603497646745,0.006454391170619056
1782829740152875800,8.319875732421876,-0.07036766768991946,0.006902016207110137,0.017118298928206786
1782829740162804500,8.329804443359375,-0.07066811194121837,0.006029982612933963,0.003326614538906142
1782829740172732700,8.339732666015625,-0.07919628631174563,-0.0002837031790520996,0.0019171769992448388
1782829740182661600,8.34966162109375,-0.07904664870798588,-0.002764879869762808,0.007710245583765208
1782829740192589600,8.359589599609375,-0.08293722640573978,-0.0035810094250831753,0.004500480623869225
1782829740202518800,8.369518798828125,-0.07425766086578368,-0.00779723888062872,0.00573086266904138
1782829740212446700,8.37944677734375,-0.07396013922393321,-0.005499720794288441,0.009188556241709738
1782829740222375700,8.389375732421875,-0.070666942897439,-0.0021540636281948537,0.007939414697140455
1782829740232303600,8.3993037109375,-0.07500584888458252,-0.0033611013303976502,0.0064290375336539
1782829740242232600,8.409232666015624,-0.06482932278513907,-0.0015228347862605005,0.011748415058664977
1782829740252160500,8.419160400390625,-0.08009177384674548,-0.0029648320218082515,0.0017148867596406489
1782829740262089700,8.42908984375,-0.0796422765135765,-0.0033474381312262264,0.009818323778919875
1782829740272017700,8.439017578125,-0.07440320681631565,-0.004470971401594579,0.012660497535439207
1782829740281946600,8.448946533203125,-0.06916589068472385,-0.002038255228800699,0.006520570008317008
1782829740291874600,8.45887451171875,-0.08053834857046603,-0.002750056759966537,0.0035447873342316595
1782829740301803500,8.468803466796874,-0.07530220148265361,-0.0031246713591739535,0.005528325834264978
1782829740311731500,8.4787314453125,-0.07500292627513408,-0.004167595407692715,0.008537051796726883
1782829740321660400,8.488660400390625,-0.07889467301666736,-0.003968456106400117,0.01428244531461969
1782829740331588900,8.4985888671875,-0.07500526436269282,-0.006225304255634546,0.0088056852708105
1782829740341517600,8.508517578125,-0.08069090878367424,-0.0002443666825070977,0.012499343023821712
1782829740351445200,8.5184453125,-0.08712707931101321,-0.0038158958931919186,0.012256958235846832
1782829740361374200,8.528374267578124,-0.08503449094593525,0.001901294443523511,-0.001095722814835608
1782829740371303200,8.53830322265625,-0.0836906751215458,-0.00392344792089425,0.0048538515056483445
1782829740381231000,8.548231201171875,-0.07321721190214156,-0.0033633024206385013,0.008942025001579895
1782829740391160300,8.558160400390625,-0.07576105116605758,-0.0042929114209488035,0.0077392159499228
1782829740401088300,8.568088134765626,-0.07471008080840111,-0.007901082847593352,0.005173064389498904
1782829740411017200,8.578017333984375,-0.07441080560088158,-0.006070953944139182,0.006118957804329693
1782829740420945200,8.587945068359375,-0.07770458644926548,-0.006123186454875394,0.006174807044258341
1782829740430874000,8.5978740234375,-0.06947393372058867,-0.0036712906575761734,0.00939677389860153
1782829740440802000,8.607802001953125,-0.07022153721749783,-0.006445066219847649,0.010761778641492128
1782829740450731300,8.617731201171875,-0.07291618312895297,-0.00016461597718298433,0.010013051766576245
1782829740460659200,8.6276591796875,-0.07905132488310336,-0.00583779364223592,0.008517835639603436
1782829740470588200,8.637588134765625,-0.08174480175077915,-0.004860399977443739,0.009827192071964964
1782829740480516000,8.64751611328125,-0.07351473354399204,-0.009370415614638477,0.016820731620583684
1782829740490445000,8.657445068359374,-0.07635843253731728,-0.0001574921166524291,0.00605916304164566
1782829740500373200,8.667373291015625,-0.07575754403471946,0.0016568090300075708,0.014069935075100511
1782829740510302000,8.677302001953125,-0.0777034174054861,0.004043494103988633,0.012116855645412579
1782829740520230400,8.68723046875,-0.0567547374010086,-0.0031096838525962083,0.00481604937906377
1782829740530159400,8.697159423828126,-0.07351297997832298,-0.0003304101312998682,0.013928416845714673
1782829740540087300,8.70708740234375,-0.07276596100330353,-0.0013212660658638924,0.007290193540789186
1782829740550016300,8.717016357421874,-0.08219313004016876,-0.00005996829262003302,0.009302172684017567
1782829740559944200,8.726944091796875,-0.08773089042305945,-0.0013801840457133949,0.0090637425519526
1782829740569873200,8.736873046875,-0.08174538627266884,-0.008345246418518946,0.012714593209698796
1782829740579801000,8.746801025390624,-0.07022270626127719,-0.00773726145485416,0.0046552967262454325
1782829740589730300,8.756730224609376,-0.07875029610991477,-0.0012602839930914342,0.010108127905195578
1782829740599658200,8.766658203125,-0.06857435453236102,-0.0031230730571318414,0.014149767978815361
1782829740609587200,8.776587158203125,-0.07351239545643329,0.002646322390856221,0.01651272511733696
1782829740619516200,8.78651611328125,-0.07665478513538837,-0.000637439387012273,-0.0021681378193199635
1782829740629444000,8.796444091796875,-0.06513210512399673,-0.01009467476857826,0.0003766238932032138
1782829740639373000,8.806373046875,-0.0762047032803297,-0.010376587849343194,0.008571383324591442
1782829740649301200,8.81630126953125,-0.07201601941883563,-0.005641284689446911,0.0043595651826821265
1782829740659230200,8.826230224609375,-0.07665595417916775,-0.0034027759145013985,0.004953987411875278
1782829740669158100,8.836158203125,-0.0777034174054861,-0.01109954096218571,0.009505458437465131
1782829740679087000,8.846087158203124,-0.07665595417916775,-0.0008483056587167084,0.012827488132799044
1782829740689015000,8.85601513671875,-0.08114625133574009,-0.002082121769990772,0.0050962454267777495
1782829740698944000,8.865944091796875,-0.072466685795784,-0.0006659896280616521,0.010774628989910707
1782829740708872200,8.8758720703125,-0.07366495566964149,0.0003994202469009906,0.0141616684791632
1782829740718801200,8.88580126953125,-0.07680734534859657,-0.005259582762327045,0.002921696132980287
1782829740728729300,8.895729248046875,-0.07216974867582321,0.0028121713439002633,0.007865344813931733
1782829740738658300,8.905658203125,-0.0808493142157793,-0.00025697956890799104,0.0014300510694272815
1782829740748586200,8.915586181640625,-0.0778559776186943,0.0037075858136638995,0.00810863378420472
1782829740758515200,8.92551513671875,-0.07022329078316689,-0.004344413279322907,0.002365167361916974
1782829740768443100,8.935443115234374,-0.06992518461942672,0.0024813684869557616,0.01387723464774899
1782829740778372400,8.945372314453126,-0.07546236048042773,-0.00792720366953872,0.0098154559683986
1782829740788300300,8.95530029296875,-0.0742658441722393,-0.0022229184801690277,0.01115115241841413
1782829740798229200,8.965229248046874,-0.07770634001493454,-0.005801041828421875,0.012056695556547491
1782829740808157200,8.9751572265625,-0.07411386848092079,-0.010935838300455362,0.01236995362364687
1782829740818086100,8.985086181640625,-0.06603285335600376,-0.0011163911435287444,0.01597483711466193
1782829740828014000,8.99501416015625,-0.07351473354399204,-0.0016239479400217533,0.0069297353310976174
1782829740837943000,9.004943115234376,-0.07560907547473907,-0.010163785348879174,0.006253352173184975
1782829740847871000,9.01487109375,-0.07156944469511509,-0.013930855397973209,0.011651274827122688
1782829740857800200,9.02480029296875,-0.06304010128080845,-0.0038204990030732003,0.0070799848562106485
1782829740867729200,9.034729248046874,-0.07845569707751274,-0.006290816373052075,0.007150054417736828
1782829740877657000,9.044656982421875,-0.08114917394518852,-0.0034684615618549284,0.004946553024090826
1782829740887586000,9.0545859375,-0.07621288658678531,-0.004775900031765923,0.0072667395999655125
1782829740897514000,9.064513916015626,-0.07247194649279118,-0.006255489331344143,0.009343527607712895
1782829740907443200,9.074443115234375,-0.06948036346137523,-0.0021020594463218,0.012678142789984121
1782829740917371400,9.084371337890625,-0.07501753932237624,-0.009487009465321898,0.0014006423118524253
1782829740927300000,9.094300048828124,-0.07442132699489593,-0.003958820628374815,0.006080909082572907
1782829740937228300,9.104228271484375,-0.0829489168435335,0.005184307302720844,0.005238521707989275
1782829740947157200,9.1141572265625,-0.08325053013861179,-0.004400783109059557,0.002318104216642678
1782829740957085200,9.124085205078124,-0.0718780722528696,-0.007456672681495547,0.006260457767406478
1782829740967014100,9.13401416015625,-0.07995791833400726,-0.006139498268859461,0.008687894976884126
1782829740976942000,9.143942138671875,-0.08669219502508639,-0.001840230172360316,0.00989095975686796
1782829740986871300,9.153871337890624,-0.07157996608912945,-0.006704484341014176,0.009355144980270414
1782829740996799200,9.16379931640625,-0.09058569533228873,0.0009014332185965031,0.010354823542106897
1782829741006728200,9.173728271484375,-0.08220774308741093,-0.008659518265770747,0.006733409041399136
1782829741016656100,9.18365625,-0.07188099486231804,0.002848201638506725,0.009540411019837483
1782829741026585000,9.193585205078126,-0.07023498122096061,-0.0034586160212755203,0.007580445191636681
1782829741036513000,9.203512939453125,-0.07442600317001342,-0.0017368245968129485,0.010520234103733673
1782829741046442200,9.213442138671875,-0.07367723062932491,0.0010040076770819722,0.010225260611996054
1782829741056370200,9.2233701171875,-0.07771686140894889,-0.0014630308904219418,0.006162933943374082
1782829741066299100,9.233299072265625,-0.08190729883611202,-0.002941862138174474,-0.0037524844013154504
1782829741076227000,9.24322705078125,-0.07263093644678592,-0.0037966888692229986,0.011771439741225912
1782829741086156000,9.253156005859376,-0.0700876817047596,0.0012597542701289057,0.004208822467224672
1782829741096085000,9.2630849609375,-0.06619885757267474,-0.002575741372676566,0.00052420653719455
1782829741106013200,9.27301318359375,-0.08235971877872944,-0.0070537544364109635,0.004067112441593781
1782829741115942100,9.282942138671874,-0.07173661795556545,-0.007837032034900038,0.00780595191004686
1782829741125870300,9.292870361328125,-0.07308160282373428,-0.0018730364634189753,0.012824665988050401
1782829741135799300,9.30279931640625,-0.07981471047103404,-0.0006543813886586577,0.007810080095892772
1782829741145727200,9.312727294921874,-0.07787000614404678,-0.00021214491333812474,-0.0026215624089352785
1782829741155656200,9.32265625,-0.08221125021874905,-0.0033368436719756573,0.0039449291003402324
1782829741165582000,9.33258203125,-0.08550561558902263,0.0016395930337253957,0.01068854900849983
1782829741175511000,9.342510986328126,-0.08161971406638621,-0.0007026318440213799,0.006284578428510576
1782829741185439200,9.352439208984375,-0.08281681489646435,0.006524652528390288,-0.0012059691231232135
1782829741195368200,9.3623681640625,-0.06845102041363715,0.007606675611436366,0.010138860970176756
1782829741205296400,9.37229638671875,-0.07144377248883246,0.00017805084749124942,0.013260481855738908
1782829741215225300,9.382225341796875,-0.08042261323630809,-0.00383534951233305,0.00786825829022564
1782829741225153300,9.3921533203125,-0.07802782705426216,-0.008183498251857236,0.006445924736373126
1782829741235082200,9.402082275390624,-0.0684492668479681,-0.006863556493399665,-0.0005364632305689156
1782829741245010200,9.41201025390625,-0.07368541393578053,-0.00398086806340143,0.0023260226616170256
1782829741254939100,9.421939208984375,-0.0721872843325138,-0.005456968497950583,0.01163090789252892
1782829741264867000,9.4318671875,-0.06829904472231864,-0.0047726212292909615,0.006139863595040515
1782829741274796300,9.44179638671875,-0.0739864427089691,0.0016649740701541304,-0.00231211286727339
1782829741284724200,9.45172412109375,-0.07533259662091732,-0.001987219161307439,0.010641357999062165
1782829741294653200,9.461653076171874,-0.07293839496076107,0.003113127051852643,0.011977310177404433
1782829741304581000,9.4715810546875,-0.0709936906337738,-0.004785024053137749,0.013310239281598477
1782829741314510000,9.481510009765625,-0.08850187479555606,-0.0013252115886192768,0.004912888216506689
1782829741324438000,9.49143798828125,-0.07758008328676223,0.007203346374398097,0.014124067281978204
1782829741334367200,9.5013671875,-0.08236907112896442,-0.0012017678720410913,-0.0014623550369869916
1782829741344295200,9.511295166015625,-0.07548457231223583,-0.0028474344535265117,0.000835820636479184
1782829741354223600,9.5212236328125,-0.06785305452048779,-0.004325927774561569,0.0029402364366687833
1782829741364151800,9.53115185546875,-0.07084639111757278,-0.010858069489663466,0.00025626718285493553
1782829741374080800,9.541080810546875,-0.08969956014752388,-0.0026782427659258244,-0.004351546273007989
1782829741384008700,9.5510087890625,-0.08266542372703552,-0.0030673151487484573,0.008543764665303752
1782829741393938000,9.56093798828125,-0.08236673304140567,-0.003105199473723769,0.005445944780437276
1782829741403867000,9.570866943359375,-0.08042261323630809,0.004401002304768189,0.008821147701423615
1782829741413794800,9.580794921875,-0.07324000825583935,0.007630239150114357,0.009303999314922838
1782829741423723800,9.590723876953126,-0.07354045250713825,-0.0014957001841627061,0.004536035994440317
1782829741433651700,9.600651611328125,-0.07548807944357394,0.00103143454012461,0.004614197530876845
1782829741443581000,9.610580810546875,-0.07444236978292465,-0.0064833158710040145,0.0009680595808662473
1782829741453508900,9.6205087890625,-0.06321838045716285,0.0017652104410808532,-0.001743537465389818
1782829741463437800,9.630437744140625,-0.06486439409852028,0.002298696263274178,0.0034670824555214494
1782829741473365800,9.64036572265625,-0.07429097861349582,0.0011519739135634154,0.0018935403953306376
1782829741483294700,9.650294677734376,-0.0720475836008787,-0.004682486127270386,0.012742111404286697
1782829741493222700,9.66022265625,-0.07863222268819808,0.00453615472544916,0.004817455884860828
1782829741503151600,9.670151611328125,-0.06501695431172848,-0.007331950323283672,0.0009993863008916377
1782829741513079600,9.68007958984375,-0.06756137809753418,-0.0011312964517157524,0.0029340624242089686
1782829741523008800,9.6900087890625,-0.06741407858133315,0.0025432273425627498,0.0018778770353179424
1782829741532936700,9.699936767578125,-0.07788987988829613,-0.00198786761527881,0.010970014564692973
1782829741542865700,9.70986572265625,-0.0744487995237112,0.004100457588769495,0.0007390457311179489
1782829741552793900,9.7197939453125,-0.07280220136046409,0.004615083446865901,0.0034866822051350024
1782829741562722600,9.72972265625,-0.08222937039732933,0.0033092889447696506,0.0007204688948113471
1782829741572650800,9.739650634765624,-0.07055588373839855,-0.0029984968293923883,0.0021668043787591157
1782829741582580000,9.749580078125,-0.06172784963846206,-0.0005132010859902948,0.0026329514526296405
1782829741592508000,9.7595078125,-0.06816343564391136,-0.0011542572021950035,0.01068494141246192
1782829741602436900,9.769436767578124,-0.07385083363056183,0.002897374542476609,0.004944233202841133
1782829741612364800,9.77936474609375,-0.07340250534117221,-0.00562531080218032,0.01073573088478297
1782829741622293800,9.789293701171875,-0.07519932563006877,0.0004217508097179234,-0.0060765434347093104
1782829741632221700,9.7992216796875,-0.0734030898630619,0.005027244444331154,0.004888064302504063
1782829741642151000,9.80915087890625,-0.08582534906268119,-0.0012060421883594245,0.006766361462930217
1782829741652079900,9.819079833984375,-0.07116027937233448,-0.0027604411566630005,0.0066088419468142085
1782829741662007800,9.8290078125,-0.06517828235328198,-0.0015416764840483666,0.0043595195169094944
1782829741671936800,9.838936767578126,-0.0029348844081163407,0.009839110838621854,0.003525616842880845
1782829741681864700,9.84886474609375,-0.11082827289402485,-0.0020285558186937122,0.009540082226274534
1782829741691793700,9.858793701171875,-0.09436930552423,0.0011986078005749733,0.007130381602887064
1782829741701721600,9.8687216796875,-0.07162380523085594,-0.002214853904722258,0.015766875186096877
1782829741711650800,9.87865087890625,-0.11441840634047984,-0.0015501885840669273,0.0008782806718721986
1782829741721578800,9.888578857421875,-0.10064648609757423,-0.004234623628761619,-0.0008502966864034533
1782829741731507700,9.8985078125,-0.10258592972755431,0.001755109172174707,-0.004185605988418683
1782829741741435600,9.908435546875,-0.05634732564389705,0.0061173869017511606,-0.0016090243655256925
1782829741751364600,9.918364501953125,-0.023578443986177443,0.00415358514864929,-0.003852684239624068
1782829741761292800,9.928292724609374,-0.1147077446758747,-0.004742929343925789,-0.006121935212705284
1782829741771221800,9.9382216796875,-0.04123392766416072,0.007924144062772392,0.008494683092879131
1782829741781150000,9.94814990234375,-0.0982470237404108,-0.0018443309587426484,0.011808730411157011
