time,seconds_elapsed,z,y,x
1782829731912212700,0.079212646484375,-0.00027364399284124374,0.00020949076861143112,0.0003075939603149891
1782829731922141000,0.089140869140625,-0.0001348201185464859,-0.0025702593848109245,-0.0003680652007460594
1782829731932070000,0.09906982421875,-0.00041125621646642685,-0.000949460081756115,-0.000720401294529438
1782829731941997800,0.108997802734375,-0.0016758618876338005,0.0019452515989542007,0.0013968497514724731
1782829731951927000,0.118927001953125,0.0016658725216984749,-0.0008017988875508308,-0.0005395342595875263
1782829731961855000,0.12885498046875,-0.000696428120136261,-0.0021926788613200188,0.0006251651793718338
1782829731971784000,0.138783935546875,0.0007051937282085419,-0.001153780147433281,0.00007255887612700462
1782829731981712000,0.1487119140625,-0.001538529060781002,0.0004187384620308876,-0.0016566095873713493
1782829731991640800,0.158640869140625,0.0005605742335319519,0.0003297897055745125,0.00008909264579415321
1782829732001568800,0.16856884765625,0.003599736839532852,-0.0006533460691571236,-0.00047395238652825356
1782829732011498000,0.178498046875,0.0037286337465047836,-0.003105318173766136,-0.00018340162932872772
1782829732021426000,0.188426025390625,0.0002013901248574257,0.0009936587885022163,0.001371854916214943
1782829732031355000,0.19835498046875,-0.0004726555198431015,-0.000451904721558094,0.00025439169257879257
1782829732041282800,0.20828271484375,-0.000834926962852478,0.002255411818623543,-0.0005117612890899181
1782829732051211800,0.218211669921875,0.0002479143440723419,-0.0005014929920434952,-0.002379702404141426
1782829732061139700,0.2281396484375,0.00013114511966705322,0.0014086496084928513,-0.0006807981990277767
1782829732071069000,0.23806884765625,-0.0025250911712646484,0.000028599053621292114,-0.0014397990889847279
1782829732080996900,0.247996826171875,0.0012750644236803055,-0.0010322192683815956,0.0011271480470895767
1782829732090925800,0.25792578125,-0.001176641322672367,0.002238675020635128,0.0006725462153553963
1782829732100854000,0.26785400390625,-0.0012870477512478828,0.0009033093228936195,0.002096149604767561
1782829732110783000,0.277782958984375,0.0012621302157640457,0.002145141363143921,0.0009477944113314152
1782829732120711000,0.2877109375,-0.000864601694047451,0.0004621250554919243,-0.0002085804007947445
1782829732130640000,0.297639892578125,0.00015645381063222885,0.00001977384090423584,0.001307823695242405
1782829732140567800,0.30756787109375,0.00008952710777521133,-0.0003215065225958824,0.000428653322160244
1782829732150497000,0.3174970703125,-0.0009232731536030769,-0.0005811648443341255,0.002082742750644684
1782829732160425000,0.327425048828125,0.0010727327316999435,-0.001356394961476326,0.0022372822277247906
1782829732170354000,0.33735400390625,-0.000018098391592502594,-0.0011734357103705406,0.0009043705649673939
1782829732180281900,0.34728173828125,-0.002308468334376812,-0.00004420429468154907,-0.0030490225180983543
1782829732190210800,0.3572109375,0.00014084018766880035,0.0003616614267230034,-0.0007049082778394222
1782829732200138800,0.367138671875,0.000014664605259895325,-0.00033808592706918716,-0.000615700613707304
1782829732210068000,0.37706787109375,-0.0005643069744110107,0.00004407763481140137,-0.0005147671326994896
1782829732219996000,0.386995849609375,0.0018079793080687523,-0.0009490158408880234,-0.00025412673130631447
1782829732229924900,0.3969248046875,0.0006857234984636307,0.0012374389916658401,0.000924321822822094
1782829732239852800,0.406852783203125,0.001482727937400341,-0.0022147884592413902,0.000641736201941967
1782829732249781800,0.41678173828125,-0.0007495339959859848,0.00014929939061403275,0.0012207068502902985
1782829732259710000,0.4267099609375,-0.00037430785596370697,0.0007542092353105545,-0.0007852762937545776
1782829732269638700,0.436638671875,0.0008033420890569687,-0.0004420829936861992,0.000026455149054527283
1782829732279567000,0.446567138671875,0.0004869764670729637,0.0018540602177381516,-0.0010819216258823872
1782829732289496000,0.45649609375,-0.00034339725971221924,0.001501457765698433,-0.001889125443994999
1782829732299424000,0.466424072265625,0.00013308320194482803,0.0032214615494012833,0.0010164049454033375
1782829732309353000,0.47635302734375,-0.0010187337175011635,-0.00012666452676057816,-0.0021823174320161343
1782829732319281000,0.486281005859375,0.0003821328282356262,0.0008982429280877113,-0.0015399325639009476
1782829732329209900,0.4962099609375,0.0008513815701007843,0.0009057000279426575,0.0012904754839837551
1782829732339137800,0.5061376953125,-0.0034207431599497795,-0.0002641100436449051,-0.0003137602470815182
1782829732349070800,0.51607080078125,-0.0013618534430861473,0.0018320642411708832,0.0012407265603542328
1782829732358998800,0.525998779296875,-0.00045239925384521484,0.0009572142735123634,0.00123154791072011
1782829732368928000,0.535927978515625,-0.0012641306966543198,0.0001574670895934105,0.0018326235003769398
1782829732378856000,0.54585595703125,-0.0008370392024517059,0.0008189305663108826,-0.0005478439852595329
1782829732388785000,0.555784912109375,0.000535021536052227,0.001918284222483635,-0.0027249781414866447
1782829732398712800,0.565712890625,-0.000072539784014225,0.0006987517699599266,-0.0019422629848122597
1782829732408641800,0.575641845703125,0.00046169012784957886,0.000032961368560791016,0.0013928133994340897
1782829732418569700,0.58556982421875,0.0005664192140102386,-0.0013851886615157127,-0.0008664270862936974
1782829732428499000,0.5954990234375,0.0010385969653725624,-0.0006490908563137054,0.00043399399146437645
1782829732438427000,0.605427001953125,0.00047531072050333023,-0.0009110579267144203,0.0009592664428055286
1782829732448355800,0.61535595703125,0.0011898372322320938,-0.0010005403310060501,0.0007249084301292896
1782829732458283800,0.62528369140625,0.0027146507054567337,-0.00024624820798635483,0.0021521304734051228
1782829732468212700,0.635212646484375,-0.00004145503044128418,-0.0016894154250621796,0.000050629954785108566
1782829732478141000,0.645140869140625,-0.00024045538157224655,0.002358456142246723,0.0013309800997376442
1782829732488070000,0.65506982421875,-0.0015318216755986214,-0.0004365313798189163,0.0018452359363436699
1782829732497998000,0.664998046875,-0.0005479902029037476,0.0027116527780890465,-0.001884430181235075
1782829732507927000,0.674927001953125,0.0013668220490217209,0.0010168179869651794,-0.00326900789514184
1782829732517855000,0.68485498046875,-0.0017105480656027794,0.0015962747856974602,0.0012866132892668247
1782829732527784000,0.694783935546875,-0.000009853392839431763,0.002639700658619404,-0.0007168827578425407
1782829732537711900,0.7047119140625,0.0034637590870261192,0.0015110503882169724,0.0016748858615756035
1782829732547640800,0.714640869140625,-0.002121688798069954,0.0005869343876838684,-0.0005017155781388283
1782829732557568800,0.72456884765625,0.0009963884949684143,0.0001691589131951332,0.0007925890386104584
1782829732567498000,0.734498046875,0.00022726785391569138,0.0006173690780997276,-0.0005810689181089401
1782829732577426000,0.744426025390625,-0.0002863435074687004,0.0010069767013192177,-0.00028937216848134995
1782829732587355000,0.75435498046875,0.001504099927842617,-0.00017067324370145798,-0.001072341576218605
1782829732597282800,0.76428271484375,-0.001472271978855133,-0.00036706961691379547,-0.0024574450217187405
1782829732607211800,0.774211669921875,0.001809542067348957,-0.0016350001096725464,-0.0013759350404143333
1782829732617139700,0.7841396484375,0.002969990484416485,0.00045824144035577774,0.00046324823051691055
1782829732627069000,0.79406884765625,0.00007273722440004349,-0.00021979957818984985,-0.00031173182651400566
1782829732636996900,0.803996826171875,0.0009440109133720398,-0.001885443925857544,0.0016324976459145546
1782829732646925800,0.81392578125,0.001568787731230259,-0.003119552507996559,-0.0001339772716164589
1782829732656854000,0.82385400390625,0.0005248552188277245,0.0009794579818844795,0.0029076235368847847
1782829732666783000,0.833782958984375,-0.0011614589020609856,-0.0006991317495703697,-0.0018620975315570831
1782829732676711000,0.8437109375,0.00023483764380216599,-0.0015320274978876114,-0.0005052434280514717
1782829732686639900,0.853639892578125,-0.001401408575475216,-0.0002992497757077217,-0.0003004465252161026
1782829732696567800,0.86356787109375,-0.0007306709885597229,-0.00024190638214349747,0.0002488703466951847
1782829732706497000,0.8734970703125,-0.002315252088010311,-0.0001771915704011917,-0.0005783075466752052
1782829732716425000,0.883425048828125,-0.001906897872686386,0.0002942988649010658,-0.0007497966289520264
1782829732726354000,0.89335400390625,0.0008063307031989098,0.0018921950832009315,0.00012531829997897148
1782829732736281900,0.90328173828125,0.0009434465318918228,-0.00003054831176996231,-0.00004385923966765404
1782829732746210800,0.9132109375,-0.00017028674483299255,-0.0007021976634860039,-0.0009594541043043137
1782829732756138800,0.923138671875,0.0033270930871367455,-0.0031306156888604164,-0.0007325317710638046
1782829732766068000,0.93306787109375,-0.00017469748854637146,0.0030130306258797646,-0.0012675607576966286
1782829732775996000,0.942995849609375,0.0010933419689536095,0.0020682066679000854,0.0019722701981663704
1782829732785924900,0.9529248046875,0.0014225086197257042,0.0015089428052306175,0.0013488242402672768
1782829732795852800,0.962852783203125,0.000041515566408634186,-0.0009801657870411873,0.003908933140337467
1782829732805781800,0.97278173828125,0.0010700281709432602,0.0003871014341711998,-0.0014924895949661732
1782829732815710000,0.9827099609375,-0.002127065323293209,-0.0011076293885707855,0.00004253443330526352
1782829732825638700,0.992638671875,0.001285775564610958,-0.0009766016155481339,0.0008116555400192738
1782829732835567000,1.002567138671875,-0.0008568316698074341,-0.0014042621478438377,0.0014489931054413319
1782829732845496000,1.01249609375,-0.000640583224594593,0.0008346578106284142,-0.0005694166757166386
1782829732855424000,1.022424072265625,0.0012697866186499596,0.0020727086812257767,0.0013441955670714378
1782829732865353000,1.03235302734375,-0.0004596700891852379,-0.0009968513622879982,0.0012195594608783722
1782829732875281000,1.042281005859375,-0.0007751332595944405,-0.0019245501607656479,-0.001613694243133068
1782829732885209900,1.0522099609375,0.00019931700080633163,0.0008707037195563316,0.0003695613704621792
1782829732895137800,1.0621376953125,-0.0005883565172553062,-0.0005594231188297272,-0.0005623647011816502
1782829732905067000,1.07206689453125,0.0010713255032896996,0.0008347416296601295,-0.0006952565163373947
1782829732914995000,1.081994873046875,0.0002855239436030388,-0.0005147233605384827,-0.0005038897506892681
1782829732924924000,1.091923828125,0.001261305995285511,0.0009686574339866638,0.0020551420748233795
1782829732934851800,1.101851806640625,-0.0006680833175778389,-0.00045506469905376434,0.00022399937734007835
1782829732944780800,1.11178076171875,-0.001167958602309227,0.0019367197528481483,0.0000096149742603302
1782829732954708700,1.121708740234375,0.0004166560247540474,0.0031425608322024345,-0.0005464646965265274
1782829732964638000,1.131637939453125,0.0011570146307349205,0.0026240432634949684,-0.0009992020204663277
1782829732974566000,1.14156591796875,0.000798090361058712,0.0009226901456713676,-0.002009826246649027
1782829732984494800,1.151494873046875,0.00036692433059215546,0.00041668955236673355,0.000047732144594192505
1782829732994423000,1.161423095703125,0.0014946674928069115,0.0015885233879089355,-0.0005139149725437164
1782829733004351700,1.171351806640625,0.00048825889825820923,0.0005762558430433273,-0.0003453372046351433
1782829733014280000,1.181280029296875,0.002626434899866581,0.001634105108678341,0.002004757057875395
1782829733024209000,1.191208984375,-0.0010617775842547417,0.0010495418682694435,0.0023925132118165493
1782829733034136800,1.20113671875,-0.0005738595500588417,0.0005842661485075951,0.0007702591829001904
1782829733044066000,1.211066162109375,0.0015553375706076622,0.0013208966702222824,-0.00159409549087286
1782829733053994000,1.220993896484375,-0.001047327183187008,-0.0001228218898177147,-0.0008250083774328232
1782829733063923000,1.2309228515625,-0.0010268213227391243,0.0006835833191871643,-0.0015331432223320007
1782829733073851000,1.240850830078125,0.0006723571568727493,0.001970403827726841,0.0012530176900327206
1782829733083779800,1.25077978515625,-0.0034416941925883293,-0.002121010795235634,0.00022157561033964157
1782829733093707800,1.260707763671875,-0.0016247183084487915,-0.001121465116739273,-0.0015620975755155087
1782829733103637000,1.270636962890625,0.0009686676785349846,-0.0010271891951560974,0.0021809753961861134
1782829733113565000,1.28056494140625,0.0002129664644598961,-0.0012698294594883919,0.00042026815935969353
1782829733123494000,1.290493896484375,-0.000575861893594265,0.0021030642092227936,0.003137491177767515
1782829733133421800,1.300421875,0.0010425681248307228,-0.0022046836093068123,0.0018941108137369156
1782829733143350800,1.310350830078125,-0.0005577262490987778,-0.0012949472293257713,0.00010952679440379143
1782829733153278700,1.32027880859375,0.000024040229618549347,-0.0020879320800304413,-0.0020418260246515274
1782829733163207700,1.330207763671875,-0.0036396700888872147,-0.001678338274359703,-0.0005118399858474731
1782829733173136000,1.340135986328125,-0.0019896142184734344,-0.0004998873919248581,-0.0003190077841281891
1782829733183064800,1.35006494140625,-0.00035150349140167236,0.0004540560767054558,0.0010554492473602295
1782829733192993000,1.359992919921875,-0.0004457375034689903,-0.0028399797156453133,0.0009269509464502335
1782829733202922000,1.369921875,0.00028609856963157654,0.0020341379567980766,-0.0005534999072551727
1782829733212850000,1.379849853515625,0.00007884018123149872,0.0006992463022470474,0.00010546483099460602
1782829733222779000,1.38977880859375,-0.0013379622250795364,0.0012912675738334656,-0.0004159822128713131
1782829733232706800,1.399706787109375,0.0015038149431347847,0.0005445033311843872,-0.000711201224476099
1782829733242636000,1.409635986328125,-0.0012733293697237968,-0.0010869484394788742,0.000024630222469568253
1782829733252564000,1.41956396484375,0.0005478709936141968,0.00023388396948575974,0.002479014452546835
1782829733262493000,1.429492919921875,-0.0010423026978969574,-0.00138957891613245,0.00009947968646883965
1782829733272420900,1.4394208984375,0.0013362020254135132,-0.0003262534737586975,-0.0024377815425395966
1782829733282349800,1.449349853515625,-0.00009604636579751968,0.001002664677798748,0.001414747443050146
1782829733292277800,1.45927783203125,-0.0002508191391825676,-0.0020780591294169426,0.00010274024680256844
1782829733302207000,1.46920703125,-0.0015171514824032784,0.0005257138982415199,-0.0002112463116645813
1782829733312135000,1.479135009765625,0.0007712198421359062,0.000176246277987957,-0.0011259038001298904
1782829733322064000,1.48906396484375,0.0005096979439258575,-0.00018354598432779312,0.0025047832168638706
1782829733331991800,1.49899169921875,0.0006070910021662712,-0.000661112368106842,-0.0004102308303117752
1782829733341917700,1.508917724609375,0.0001223953440785408,-0.0021759187802672386,0.0009772754274308681
1782829733351845600,1.518845703125,0.00006192084401845932,-0.001236981712281704,0.0018020588904619217
1782829733361774600,1.528774658203125,-0.0017772587016224861,0.0005513317883014679,0.0014529190957546234
1782829733371702800,1.538702880859375,-0.0008222321048378944,-0.0021859370172023773,-0.0016230004839599133
1782829733381631700,1.5486318359375,-0.0006805518642067909,-0.0006594127044081688,-0.003517306875437498
1782829733391560000,1.558559814453125,-0.00026372261345386505,0.0009190868586301804,-0.0008561913855373859
1782829733401489000,1.568489013671875,-0.0008392315357923508,0.00308290496468544,0.0000982857309281826
1782829733411416800,1.578416748046875,-0.0011150790378451347,-0.003237311728298664,0.0006273277103900909
1782829733421345800,1.588345703125,-0.0015334617346525192,0.00007113348692655563,0.00009229825809597969
1782829733431273700,1.598273681640625,-0.0028032371774315834,0.002113726921379566,0.0020889537408947945
1782829733441203000,1.608202880859375,0.0001691170036792755,0.001722242683172226,0.0003480454906821251
1782829733451131000,1.618130859375,0.0012115398421883583,-0.0006619030609726906,0.0011258013546466827
1782829733461059800,1.628059814453125,-0.0020175427198410034,-0.0002621626481413841,0.0012088920921087265
1782829733470987800,1.63798779296875,0.0005838489159941673,0.0011852970346808434,-0.0005363649688661098
1782829733480916700,1.647916748046875,-0.00022042542695999146,0.0006992705166339874,-0.00004820758476853371
1782829733490844700,1.6578447265625,-0.00012254435569047928,0.0008437661454081535,-0.00021345866844058037
1782829733500773600,1.667773681640625,0.00045110099017620087,0.000991571694612503,-0.0006211884319782257
1782829733510701600,1.67770166015625,-0.00016837473958730698,0.000838911160826683,0.0001617036759853363
1782829733520630800,1.687630859375,-0.00046638213098049164,0.0008711349219083786,-0.0009445734322071075
1782829733530558700,1.697558837890625,-0.0011421237140893936,-0.0006389841437339783,0.0019926317036151886
1782829733540487700,1.70748779296875,-0.0026526693254709244,0.0006348052993416786,0.001241353340446949
1782829733550416000,1.717415771484375,-0.0010761283338069916,0.0009453250095248222,-0.00005259877070784569
1782829733560344600,1.727344482421875,-0.0023704245686531067,-0.0011290116235613823,0.002420945093035698
1782829733570272800,1.737272705078125,-0.0004920857027173042,-0.000749644823372364,-0.00044188741594552994
1782829733580202000,1.747201904296875,0.0014818497002124786,0.0011316118761897087,-0.0008232523687183857
1782829733590130000,1.7571298828125,-0.002661637030541897,-0.0012442832812666893,-0.0006340360268950462
1782829733600059000,1.767058837890625,-0.0007106047123670578,-0.00006769783794879913,-0.0002651885151863098
1782829733609986800,1.77698681640625,0.0005961041897535324,-0.0007082186639308929,0.0009953686967492104
1782829733619915800,1.786915771484375,0.00028265081346035004,-0.0019015809521079063,0.0005375714972615242
1782829733629843700,1.79684375,0.0005871141329407692,-0.00012837443500757217,0.00013117119669914246
1782829733639772700,1.806772705078125,0.002281683497130871,-0.0017182817682623863,-0.0001117088831961155
1782829733649700600,1.81670068359375,0.000970582477748394,0.0003610793501138687,0.00046047475188970566
1782829733659629800,1.8266298828125,0.0004592547193169594,0.0008867867290973663,0.002615770325064659
1782829733669557800,1.836557861328125,0.0013393908739089966,0.0021781492978334427,0.0003719991073012352
1782829733679486700,1.84648681640625,-0.0005964608862996101,-0.0011020656675100327,-0.0015255031175911427
1782829733689414700,1.85641455078125,-0.00037528667598962784,0.0004885513335466385,0.0022801165468990803
1782829733699343600,1.866343505859375,0.0007813246920704842,-0.0007373020052909851,0.0004957993514835835
1782829733709271600,1.876271484375,-0.0003189360722899437,0.0009075561538338661,-0.0023459848016500473
1782829733719200800,1.88620068359375,0.0001604333519935608,0.00044070370495319366,-0.0023244130425155163
1782829733729129000,1.89612890625,-0.001548207364976406,0.0016473261639475822,-0.0014720745384693146
1782829733739057700,1.9060576171875,-0.001170305535197258,-0.0017556613311171532,0.0013556703925132751
1782829733748985900,1.91598583984375,0.0007930183783173561,-0.0030298391357064247,-0.001613485161215067
1782829733758914800,1.925914794921875,-0.0004352312535047531,0.0009273523464798927,0.0008616563864052296
1782829733768842800,1.9358427734375,0.0017645135521888733,-0.001697620376944542,0.00036390405148267746
1782829733778772000,1.94577197265625,0.0007234839722514153,-0.0004704361781477928,0.0035426532849669456
1782829733788700000,1.955699951171875,-0.00008882023394107819,-0.0009850850328803062,0.0024275733157992363
1782829733798628900,1.96562890625,0.0014105401933193207,0.0000026812776923179626,-0.0014633052051067352
1782829733808556800,1.975556884765625,-0.002086264081299305,0.0014370214194059372,-0.001579503994435072
1782829733818485800,1.98548583984375,0.001366257667541504,-0.00007112603634595871,0.001417085062712431
1782829733828413700,1.99541357421875,-0.001279531978070736,-0.0004497868940234184,0.0009245737455785275
1782829733838342700,2.0053427734375,-0.00025767646729946136,-0.0009163720533251762,0.00009739585220813751
1782829733848270600,2.0152705078125,0.001896231435239315,-0.002002827823162079,-0.00035624904558062553
1782829733858199800,2.02519970703125,-0.00004840828478336334,-0.0007681865245103836,-0.0003317478112876415
1782829733868127700,2.035127685546875,0.00003509875386953354,0.0018855677917599678,0.0006926152855157852
1782829733878056700,2.045056640625,0.001246836967766285,0.00126664899289608,-0.00031619006767868996
1782829733887984600,2.054984619140625,0.0004053749144077301,0.0020504072308540344,0.0005940818227827549
1782829733897913600,2.06491357421875,0.0012008603662252426,0.0010458631440997124,0.00048356084153056145
1782829733907841800,2.074841796875,-0.0018895259127020836,0.0006843861192464828,-0.00005124742165207863
1782829733917770800,2.084770751953125,-0.0010423744097352028,0.0010614898055791855,-0.0016323658637702465
1782829733927699000,2.094698974609375,-0.00017541367560625076,0.000050982460379600525,-0.004396248608827591
1782829733937628000,2.1046279296875,0.001453908160328865,-0.00047925300896167755,0.00019903574138879776
1782829733947555800,2.114555908203125,-0.0008544716984033585,0.0006111450493335724,0.0007327282801270485
1782829733957484800,2.12448486328125,0.0004890924319624901,-0.00042695552110671997,0.0012248801067471504
1782829733967412700,2.134412841796875,-0.0015814295038580894,0.0004192544147372246,-0.00044559966772794724
1782829733977341700,2.144341796875,-0.0014575924724340439,-0.0009038038551807404,-0.0022485596127808094
1782829733987270000,2.154269775390625,0.00021298229694366455,0.0009531378746032715,0.00018409360200166702
1782829733997198800,2.16419873046875,0.000025229528546333313,-0.0022104308009147644,0.0010490878485143185
1782829734007126800,2.174126708984375,0.003524952568113804,-0.0006144559010863304,0.002257932908833027
1782829734017055700,2.1840556640625,-0.0005965558812022209,0.00045240670442581177,-0.0014790147542953491
1782829734026983700,2.193983642578125,-0.0014974409714341164,-0.00002157595008611679,0.00003988808020949364
1782829734036912600,2.20391259765625,0.0011079292744398117,-0.0007467549294233322,0.00042471522465348244
1782829734046840600,2.213840576171875,0.001019483432173729,0.0006707319989800453,-0.0024243067018687725
1782829734056769800,2.223769775390625,-0.0005134325474500656,-0.0001673651859164238,0.0011272844858467579
1782829734066697700,2.23369775390625,-0.0008575823158025742,-0.0016129696741700172,0.002503105439245701
1782829734076626700,2.243626708984375,-0.0005657002329826355,-0.0019256249070167542,0.0008117323741316795
1782829734086555000,2.253554931640625,-0.0012118136510252953,-0.001553799957036972,0.0013190144672989845
1782829734096483600,2.263483642578125,0.0004097847267985344,-0.0009884107857942581,-0.002369197551161051
1782829734106411800,2.273411865234375,-0.002066193148493767,0.0003131311386823654,0.0021544299088418484
1782829734116341000,2.283341064453125,0.0005303891375660896,-0.00008980464190244675,0.000794088002294302
1782829734126269000,2.29326904296875,0.001299351453781128,0.00021849200129508972,-0.0003453027456998825
1782829734136198000,2.303197998046875,0.00023967958986759186,-0.0008265320211648941,0.00076709920540452
1782829734146125800,2.313125732421875,-0.0004986114799976349,-0.00010629184544086456,-0.002727340906858444
1782829734156054800,2.3230546875,0.0022420482710003853,-0.0011475877836346626,-0.0036514578387141228
1782829734165982700,2.332982666015625,0.0012299418449401855,-0.001404603011906147,0.0016488609835505486
1782829734175911700,2.34291162109375,-0.00039804819971323013,-0.000567571260035038,-0.0030191270634531975
1782829734185839600,2.352839599609375,0.0010206513106822968,-0.002073458395898342,0.0006661866791546345
1782829734195768800,2.362768798828125,-0.00042810849845409393,0.0002110004425048828,0.0006238431669771671
1782829734205696800,2.37269677734375,0.0010220976546406746,0.000636707991361618,0.0029075355269014835
1782829734215625700,2.382625732421875,-0.0006887167692184448,0.001092907041311264,0.0021719704382121563
1782829734225553700,2.3925537109375,0.0016525955870747566,-0.001257915049791336,0.0016429722309112549
1782829734235482600,2.402482666015625,-0.00008325278759002686,-6.370246410369873e-7,-0.00024174712598323822
1782829734245410600,2.41241064453125,-0.0003949366509914398,-0.004089289344847202,0.0029865913093090057
1782829734255339800,2.42233984375,-0.0012716492637991905,-0.00007670465856790543,0.0010946821421384811
1782829734265268000,2.43226806640625,-0.002210523933172226,-0.0011373013257980347,0.0026522260159254074
1782829734275196700,2.44219677734375,0.0024739764630794525,-0.003264102153480053,-0.002542535774409771
1782829734285124900,2.452124755859375,-0.0012914594262838364,0.0007773786783218384,-0.0022607059217989445
1782829734295053800,2.4620537109375,0.0009618420153856277,-0.0006016064435243607,0.00013880198821425438
1782829734304981800,2.471981689453125,0.001145295798778534,0.001056973822414875,0.00219049584120512
1782829734314910700,2.48191064453125,-0.0008414220064878464,0.0005413861945271492,-0.0005293902941048145
1782829734324839000,2.4918388671875,0.0008506095036864281,-0.0005644140765070915,0.00010325107723474503
1782829734334767900,2.501767822265625,-0.0013955002650618553,-0.00018784310668706894,0.0007203053683042526
1782829734344694800,2.51169482421875,0.0004544975236058235,-0.000642191618680954,0.002066105604171753
1782829734354624000,2.5216240234375,0.0019269594922661781,0.0002230694517493248,0.0024184416979551315
1782829734364552000,2.531552001953125,0.0013433853164315224,0.000310002826154232,0.0005323439836502075
1782829734374481000,2.54148095703125,-0.0015259040519595146,-0.001081232912838459,-0.000680726021528244
1782829734384408800,2.551408935546875,-0.0005288971588015556,-0.0005019400268793106,0.00045934971421957016
1782829734394337800,2.561337890625,-0.0028857942670583725,0.0014158021658658981,0.0012785382568836212
1782829734404266000,2.571265869140625,0.0004367576912045479,-0.0007665548473596573,-0.0014223633334040642
1782829734414195000,2.58119482421875,0.0006729802116751671,-0.0004834607243537903,-0.0002606920897960663
1782829734424123000,2.591122802734375,0.0007334845140576363,-0.0015915213152766228,0.0020774295553565025
1782829734434052000,2.601052001953125,-0.000674794428050518,-0.0015063006430864334,0.0010478515177965164
1782829734443980000,2.61097998046875,0.0003666505217552185,-0.0015149051323533058,0.0001989905722439289
1782829734453909000,2.620908935546875,-0.0014829151332378387,-0.00035430025309324265,-0.002750194165855646
1782829734463837000,2.6308369140625,0.001706576906144619,0.002605617046356201,-0.0002898741513490677
1782829734473766000,2.640765869140625,0.0023409416899085045,-0.000005080364644527435,0.0007269210182130337
1782829734483693800,2.65069384765625,-0.0010182401165366173,-0.0006914455443620682,0.0023297141306102276
1782829734493623000,2.660623046875,-0.00030904076993465424,-0.00037346407771110535,-0.0004990957677364349
1782829734503551000,2.670551025390625,-0.0023273415863513947,0.0006944490596652031,0.00020075077190995216
1782829734513480000,2.68047998046875,-0.0002604629844427109,-0.0005641607567667961,0.0007339157164096832
1782829734523408000,2.690407958984375,0.0019973861053586006,-0.0006373729556798935,-0.0021767886355519295
1782829734533336800,2.7003369140625,-0.000853261910378933,0.0004755621775984764,0.0005769203417003155
1782829734543264800,2.7102646484375,-0.00043478235602378845,0.0009576175361871719,-0.0004575345665216446
1782829734553193700,2.72019384765625,-0.00045395735651254654,-0.0007097870111465454,0.00006844010204076767
1782829734563122000,2.730121826171875,-0.0007188878953456879,0.00016332697123289108,0.0019697812385857105
1782829734573051000,2.74005078125,0.0015850132331252098,0.0017644194886088371,0.00014365138486027718
1782829734582979800,2.749979736328125,-0.0030455775558948517,0.0016422504559159279,-0.0021171565167605877
1782829734592908000,2.759907958984375,0.003242945298552513,0.00017271749675273895,-0.001520608551800251
1782829734602836700,2.769836669921875,0.0002016201615333557,0.0030847759917378426,0.0011183181777596474
1782829734612765000,2.779764892578125,-0.0015526041388511658,0.002530839294195175,-0.002242324873805046
1782829734622694000,2.78969384765625,0.0018390435725450516,0.0010251794010400772,0.0005403505638241768
1782829734632622000,2.7996220703125,-0.0005274415016174316,-0.0012190667912364006,0.000189079437404871
1782829734642551000,2.809551025390625,0.00047754403203725815,-0.0005273865535855293,0.0017994260415434837
1782829734652479000,2.81947900390625,-0.000607428140938282,-0.00022751465439796448,-0.00198465958237648
1782829734662408000,2.829407958984375,-0.0001364927738904953,-0.00005357898771762848,0.0011712172999978065
1782829734672336000,2.8393359375,-0.0011205310001969337,-0.00017075799405574799,0.0009485771879553795
1782829734682265000,2.84926513671875,0.0005641216412186623,-0.0008427314460277557,0.0016507450491189957
1782829734692193000,2.859193115234375,-0.0003083301708102226,0.00019909720867872238,0.0007727015763521194
1782829734702122000,2.8691220703125,0.0009228428825736046,-0.0001854933798313141,0.0024621537886559963
1782829734712050000,2.8790498046875,0.00013827532529830933,-0.00037457793951034546,-0.00015733204782009125
1782829734721979000,2.888978759765625,0.0014996398240327835,0.0019370932132005692,0.00042110681533813477
1782829734731906800,2.89890673828125,0.0011206725612282753,0.001737622544169426,0.0005249697715044022
1782829734741835800,2.908835693359375,0.0014622136950492859,-0.0006288867443799973,-0.000016264617443084717
1782829734751763700,2.918763671875,-0.001917070709168911,0.00008910149335861206,0.00031423335894942284
1782829734761693000,2.92869287109375,0.00039607007056474686,0.00023067649453878403,-0.001548761036247015
1782829734771620900,2.938620849609375,0.001437366008758545,0.0007910057902336121,0.0003245067782700062
1782829734781549800,2.9485498046875,-0.0005936874076724052,0.0030851177871227264,0.00048082461580634117
1782829734791478000,2.95847802734375,0.0011799782514572144,0.001109052449464798,0.0012981495819985867
1782829734801407000,2.968406982421875,0.0009382134303450584,0.002213996835052967,-0.0021652071736752987
1782829734811335000,2.9783349609375,0.0036588991060853004,0.0017301002517342567,0.0004798443987965584
1782829734821264100,2.98826416015625,-0.0016456693410873413,0.0012672245502471924,-0.0003606327809393406
1782829734831192000,2.998192138671875,-0.0006475169211626053,0.0005234032869338989,0.00013364991173148155
1782829734841121000,3.00812109375,0.0033070724457502365,0.0017841914668679237,0.001359657384455204
1782829734851049000,3.018049072265625,-0.001496470533311367,-0.0016920333728194237,-0.0026476015336811543
1782829734860978000,3.02797802734375,0.000493096187710762,-0.0007870150730013847,-0.00003848876804113388
1782829734870905900,3.03790576171875,0.0006606094539165497,-0.001860002987086773,0.0029280059970915318
1782829734880834800,3.047834716796875,-0.0024579092860221863,-0.0005080103874206543,-0.0021880706772208214
1782829734890763000,3.057762939453125,0.0019389688968658447,-0.0011306582018733025,0.0017147916369140148
1782829734900692000,3.06769189453125,-0.00017304718494415283,-0.00221190694719553,-0.0005097226239740849
1782829734910620000,3.077619873046875,-0.0003184555098414421,-0.0010632853955030441,-0.0008551343344151974
1782829734920548900,3.087548828125,0.0023234207183122635,-0.001844353973865509,0.0006893468089401722
1782829734930476800,3.097476806640625,0.002488004043698311,0.0006387773901224136,-0.0011804583482444286
1782829734940405800,3.10740576171875,-0.000025807879865169525,-0.0011766618117690086,0.0024121650494635105
1782829734950334000,3.117333984375,0.0005752677097916603,-0.00026559364050626755,-0.000842750072479248
1782829734960263000,3.127262939453125,-0.0011100005358457565,-0.00014507677406072617,0.0021693939343094826
1782829734970191000,3.137191162109375,-0.00039867032319307327,0.0013082101941108704,0.0007198350504040718
1782829734980120000,3.1471201171875,0.0005793189629912376,0.0009710611775517464,0.0020083007402718067
1782829734990048000,3.157048095703125,0.0005225930362939835,-0.0027104923501610756,0.000854619313031435
1782829734999977000,3.16697705078125,-0.0005587805062532425,-0.0021567363291978836,-0.0005311081185936928
1782829735009905000,3.17690478515625,0.00020980741828680038,0.0005501005798578262,-0.002268554177135229
1782829735019834000,3.186834228515625,-0.0010418146848678589,0.001471412368118763,-0.0016047386452555656
1782829735029762000,3.196761962890625,0.0020735515281558037,-0.0003917356953024864,-0.0006643766537308693
1782829735039691000,3.20669091796875,-0.0017417678609490395,0.00041855499148368835,0.00031958939507603645
1782829735049619000,3.216618896484375,-0.0014352379366755486,-0.001058167777955532,-0.0003579184412956238
1782829735059548000,3.2265478515625,-0.002585187554359436,-0.000279843807220459,0.0008029392920434475
1782829735069475800,3.236475830078125,0.0012574875727295876,-0.0001608012244105339,-0.0005491478368639946
1782829735079404800,3.24640478515625,-0.00015668850392103195,-0.0017754221335053444,0.001242771279066801
1782829735089332700,3.256332763671875,0.0016944743692874908,-0.0003213360905647278,0.001366873737424612
1782829735099262000,3.266261962890625,-0.00019082054495811462,-0.003162231296300888,0.002918567508459091
1782829735109190000,3.27618994140625,-0.000010524876415729523,-0.001326514407992363,-0.0016037458553910255
1782829735119118800,3.286118896484375,-0.0010882429778575897,-0.001440039835870266,-0.0016643987037241459
1782829735129047000,3.296047119140625,0.0004017958417534828,-0.0002991417422890663,-0.0011884919367730618
1782829735138975700,3.305975830078125,0.002316518686711788,0.00034791044890880585,0.0006638942286372185
1782829735148904000,3.315904052734375,-0.0010217539966106415,0.001347394660115242,-0.00028925109654664993
1782829735158833200,3.325833251953125,0.00105950515717268,-0.001086103729903698,-0.000959648285061121
1782829735168761900,3.335761962890625,0.00014976970851421356,0.0015323162078857422,0.0027746357955038548
1782829735178690000,3.34568994140625,-0.000865674577653408,-0.0010657962411642075,-0.000010335352271795273
1782829735188619000,3.355618896484375,-0.0003956267610192299,-0.0002737725153565407,-0.000579718966037035
1782829735198547000,3.365546875,-0.0010912567377090454,0.0011538751423358917,0.0015372545458376408
1782829735208476000,3.375475830078125,-0.0016326773911714554,-0.0012171370908617973,-0.001689697615802288
1782829735218403800,3.38540380859375,0.0034175394102931023,0.002065110020339489,0.00028683338314294815
1782829735228333000,3.3953330078125,-0.0017505902796983719,-0.00006541889160871506,-0.0006495341658592224
1782829735238261000,3.405260986328125,-0.00020183995366096497,0.0014922302216291428,-0.00367954233661294
1782829735248190000,3.41518994140625,0.0011784769594669342,-0.0006827739998698235,-0.0021825795993208885
1782829735258118000,3.425117919921875,-0.0002638325095176697,0.000038037076592445374,-0.0033038402907550335
1782829735268046800,3.435046875,0.00034230295568704605,-0.0010469350963830948,0.000021116342395544052
1782829735277974800,3.444974853515625,0.0005766702815890312,0.0019798623397946358,-0.000030312687158584595
1782829735287904000,3.454904052734375,-0.0008079074323177338,-0.00003508571535348892,-0.00012378953397274017
1782829735297832000,3.46483203125,-0.0016654599457979202,-0.0007583107799291611,-0.0007683327421545982
1782829735307761000,3.474760986328125,-0.0005964664742350578,-0.0013878820464015007,0.0037188269197940826
1782829735317688800,3.484688720703125,-0.0009990911930799484,0.0018706219270825386,-0.0008277492597699165
1782829735327617800,3.49461767578125,0.0002475343644618988,0.0015558358281850815,0.0023808274418115616
1782829735337546000,3.5045458984375,0.0006295675411820412,0.0018109036609530449,-0.00035579921677708626
1782829735347475200,3.51447509765625,0.002258889377117157,-0.00006795581430196762,-0.003764379071071744
1782829735357403400,3.5244033203125,-0.0015235384926199913,-0.00011634547263383865,-0.001596150454133749
1782829735367332000,3.53433203125,0.000006713904440402985,-0.0020636487752199173,0.000796167179942131
1782829735377260300,3.54426025390625,0.001696295104920864,0.0006417669355869293,0.0012828242033720016
1782829735387189200,3.554189208984375,0.0003268979489803314,-0.0013055363669991493,-0.0005662082694470882
1782829735397117400,3.564117431640625,-0.0016373172402381897,-0.0005794689059257507,-0.0002133701927959919
1782829735407046400,3.57404638671875,0.0023768655955791473,0.000729474239051342,0.0006646737456321716
1782829735416974300,3.583974365234375,-0.00044934917241334915,-0.0008481564000248909,-0.0013207807205617428
1782829735426903300,3.5939033203125,0.0013400288298726082,0.0005468074232339859,0.0034292335622012615
1782829735436831200,3.603831298828125,-0.00021255388855934143,-0.0005545914173126221,0.0006159818731248379
1782829735446760200,3.61376025390625,-0.0025651901960372925,-0.0000171661376953125,-0.0006905654445290565
1782829735456688000,3.623688232421875,-0.0004585869610309601,0.0017339102923870087,-0.003042247612029314
1782829735466617300,3.633617431640625,0.0018077632412314415,0.0008832961320877075,0.00026193633675575256
1782829735476545300,3.643545166015625,0.0006444770842790604,0.004190089181065559,0.0028972476720809937
1782829735486474200,3.65347412109375,0.0003656437620520592,0.000866997055709362,0.00040666013956069946
1782829735496402200,3.663402099609375,-0.0010113734751939774,0.00145806185901165,0.0021909321658313274
1782829735506331100,3.6733310546875,0.0009798724204301834,-0.00015235133469104767,-0.0004469286650419235
1782829735516259000,3.683259033203125,-0.000949605368077755,0.0007650982588529587,0.001558257732540369
1782829735526188300,3.693188232421875,0.0002821069210767746,-0.0006679492071270943,0.0012605157680809498
1782829735536116500,3.703116455078125,0.00016286130994558334,0.00034108757972717285,0.0012998851016163826
1782829735546045200,3.713045166015625,-0.0007077259942889214,0.0001115230843424797,-0.002544654533267021
1782829735555973400,3.722973388671875,-0.00018251128494739532,0.0017987582832574844,0.001581770833581686
1782829735565902300,3.73290234375,-0.0011545652523636818,-0.004109198227524757,0.0014331662096083164
1782829735575830300,3.742830322265625,-0.0028126388788223267,-0.0010254019871354103,0.0005420427769422531
1782829735585759200,3.75275927734375,0.000995148904621601,0.00003373716026544571,-0.0025464254431426525
1782829735595687200,3.762687255859375,0.0008580824360251427,0.001845870167016983,-0.0015069530345499516
1782829735605616400,3.772616455078125,-0.00043648015707731247,0.0009830063208937645,0.0011210539378225803
1782829735615544300,3.78254443359375,-0.0009018629789352417,-0.0012229233980178833,0.0008320584893226624
1782829735625473300,3.792473388671875,-0.0004416694864630699,0.0004601944237947464,0.00017106253653764725
1782829735635402200,3.80240234375,0.00046093203127384186,-0.00203865859657526,0.0008558048866689205
1782829735645330200,3.812330078125,0.0029070451855659485,0.0006575258448719978,0.00047523947432637215
1782829735655259400,3.82225927734375,-0.00015880633145570755,0.003898387774825096,0.0026029590517282486
1782829735665187300,3.832187255859375,-0.0008427053689956665,-0.0010186061263084412,0.0017552748322486877
1782829735675116300,3.8421162109375,-0.0011280644685029984,0.000481264665722847,0.0002911332994699478
1782829735685044200,3.852044189453125,-0.0013784011825919151,0.0022637182846665382,0.0006333496421575546
1782829735694973200,3.86197314453125,0.0024574417620897293,-0.0010530203580856323,0.0001134723424911499
1782829735704901000,3.871901123046875,-0.000895744189620018,0.0018940344452857971,0.0013965833932161331
1782829735714830000,3.881830078125,0.00004197191447019577,-0.0005921237170696259,0.00040214182808995247
1782829735724758300,3.89175830078125,0.002062777988612652,-0.0006099669262766838,0.0013542217202484608
1782829735734687200,3.901687255859375,-0.00176236592233181,0.0019673453643918037,0.00163620850071311
1782829735744615400,3.911615478515625,0.0002467222511768341,-0.00025213323533535004,-0.0023137922398746014
1782829735754544400,3.92154443359375,0.001946217380464077,-0.00034372787922620773,0.00010212650522589684
1782829735764472300,3.931472412109375,-0.00015395134687423706,-0.00037834886461496353,-0.0012036217376589775
1782829735774401300,3.9414013671875,-0.00020778831094503403,-0.0021136412397027016,0.002476947847753763
1782829735784329200,3.9513291015625,-0.00043921638280153275,-0.0003532916307449341,0.0009248577989637852
1782829735794258400,3.961258544921875,0.000462852418422699,0.0008215811103582382,-0.0014949110336601734
1782829735804186400,3.971186279296875,-0.0010508885607123375,0.0004964089021086693,-0.0004714583046734333
1782829735814115300,3.981115234375,-0.0009894883260130882,-0.00038923416286706924,-0.00088473130017519
1782829735824043300,3.991043212890625,-0.0022800564765930176,-0.0012310594320297241,0.00125032477080822
1782829735833972200,4.00097216796875,0.0014985818415880203,-0.0016990527510643005,0.0010635056532919407
1782829735843900200,4.010900146484375,-0.0003754841163754463,-0.0006268639117479324,0.001763117965310812
1782829735853829000,4.0208291015625,0.0021174680441617966,-0.0031079137697815895,0.0006391461938619614
1782829735863757300,4.03075732421875,0.0004873471334576607,0.0005581937730312347,-0.0003062761388719082
1782829735873686300,4.040686279296875,0.000037929974496364594,-0.0011309226974844933,-0.0011850204318761826
1782829735883614200,4.0506142578125,0.00028001144528388977,0.0009391531348228455,0.0005617467686533928
1782829735893543200,4.060543212890625,0.0001207944005727768,-0.0008462043479084969,-0.00020958436653017998
1782829735903471000,4.07047119140625,-0.0007801530882716179,0.0005045514553785324,-0.001295621506869793
1782829735913400000,4.080400146484375,0.0019183596596121788,0.003573688678443432,-0.0017553558573126793
1782829735923328300,4.090328369140625,-0.0014007380232214928,-0.001059146597981453,0.0022087590768933296
1782829735933257200,4.10025732421875,-0.0006600385531783104,-0.0014581289142370224,-0.00032695289701223373
1782829735943185400,4.110185302734375,-0.0008935974910855293,0.0009011654183268547,0.0025292872451245785
1782829735953114400,4.1201142578125,0.00014259293675422668,-0.0024736253544688225,0.0015614391304552555
1782829735963042300,4.130042236328125,0.00190640427172184,-0.0005923677235841751,0.00002133287489414215
1782829735972971300,4.13997119140625,-0.002972022630274296,0.001206076703965664,0.00034943968057632446
1782829735982899200,4.149899169921875,0.0006962157785892487,-0.0011372379958629608,0.0007577016949653625
1782829735992828400,4.159828369140625,-0.0005215555429458618,-0.001575223170220852,-0.0026835408061742783
1782829736002756400,4.16975634765625,-0.0018065301701426506,-0.0010252799838781357,0.00019347155466675758
1782829736012685300,4.179685302734375,0.0010292623192071915,-0.001126810908317566,0.0009254994802176952
1782829736022613200,4.18961328125,-0.001764393411576748,-0.001114826649427414,-0.001134722027927637
1782829736032542200,4.199542236328125,-0.0020856009796261787,-0.000821111723780632,0.0001794649288058281
1782829736042470100,4.20947021484375,-0.00010687205940485,0.0003908928483724594,0.0013408693484961987
1782829736052399000,4.219399169921875,0.000644393265247345,-0.002849603071808815,0.001038877759128809
1782829736062327000,4.2293271484375,-0.0015897322446107864,-0.0009952438995242119,0.0024357051588594913
1782829736072256300,4.23925634765625,0.00025020260363817215,0.002678648568689823,0.0005225329659879208
1782829736082185200,4.249185302734375,-0.0015474315732717514,-0.001713702455163002,0.00184239586815238
1782829736092113200,4.259113037109375,0.002339913509786129,-0.0007693255320191383,-0.00015076389536261559
1782829736102042000,4.2690419921875,-0.0003727823495864868,0.0006717108190059662,-0.0009142919443547726
1782829736111970300,4.27897021484375,-0.00135037861764431,-0.0005481783300638199,-0.0020989980548620224
1782829736121899300,4.288899169921875,-0.0005548922345042229,0.001978362910449505,-0.0007250732742249966
1782829736131827500,4.298827392578125,-0.0011080699041485786,0.0029926886782050133,0.0010003303177654743
1782829736141756400,4.30875634765625,-0.0016135387122631073,-0.000027602538466453552,-0.0001991577446460724
1782829736151684400,4.318684326171875,0.0021631279960274696,-0.00005653593689203262,0.0006400006823241711
1782829736161613300,4.32861328125,0.0001029064878821373,0.0009613242000341415,0.0014197737909853458
1782829736171541200,4.338541259765625,-0.000833047553896904,-0.0003764815628528595,0.00018858816474676132
1782829736181470200,4.34847021484375,-0.0023204227909445763,0.0007495032623410225,0.0010064449161291122
1782829736191398100,4.358398193359375,-0.0027389032766222954,-0.00008572638034820557,-0.0005234675481915474
1782829736201327400,4.368327392578125,0.0007479730993509293,0.0005350569263100624,-0.0024332203902304173
1782829736211255300,4.37825537109375,-0.001697472296655178,-0.001675669103860855,0.0012961397878825665
1782829736221184300,4.388184326171875,-0.0002862634137272835,7.906928658485413e-7,-0.00026367325335741043
1782829736231112200,4.3981123046875,-0.0010398607701063156,-0.0008364776149392128,-0.0009542191401124001
1782829736241041200,4.408041259765625,0.001406785100698471,-0.0013952087610960007,0.0006258338689804077
1782829736250969000,4.417968994140625,0.0010942751541733742,0.0007898127660155296,-0.002680493053048849
1782829736260898300,4.427898193359375,0.00005138106644153595,0.0000028479844331741333,0.00038160989060997963
1782829736270826200,4.437826171875,0.00018611829727888107,0.0012024091556668282,0.0028790095821022987
1782829736280755200,4.447755126953125,-0.0010064449161291122,0.0003539258614182472,0.0012395679950714111
1782829736290683400,4.457683349609375,-0.00022823922336101532,-0.00043995119631290436,-0.0005584661848843098
1782829736300612000,4.467612060546875,-0.00041785649955272675,-0.000991225242614746,0.0015406375750899315
1782829736310540300,4.477540283203125,0.0010613296180963516,-0.00016401056200265884,0.00005589006468653679
1782829736320469200,4.48746923828125,0.0011849002912640572,0.00031935330480337143,0.001347256824374199
1782829736330397400,4.4973974609375,-0.0027907518669962883,-0.0005611991509795189,-0.001593572087585926
1782829736340326400,4.507326416015625,0.0011003920808434486,0.00022842828184366226,0.00003814697265625
1782829736350254300,4.51725439453125,-0.001895013265311718,-0.0015272106975317001,0.00035425322130322456
1782829736360183600,4.52718359375,0.0008104918524622917,-0.0008627520874142647,0.0014304365031421185
1782829736370111500,4.537111572265625,-0.0002370048314332962,0.0021023843437433243,0.0019890405237674713
1782829736380040400,4.54704052734375,0.0008010948076844215,0.0015431204810738564,-0.000064789317548275
1782829736389968400,4.556968505859375,0.0006434191018342972,0.00044841691851615906,-0.0004902314394712448
1782829736399897300,4.5668974609375,-0.0003387546166777611,-0.0005846237763762474,0.0005974038504064083
1782829736409825300,4.5768251953125,0.00020538829267024994,-0.00048675108700990677,0.0028715254738926888
1782829736419754200,4.586754150390625,-0.0008436311036348343,-0.00023321807384490967,-0.0006081601604819298
1782829736429682400,4.596682373046875,0.000014657154679298401,-0.001813618466258049,0.0002506813034415245
1782829736439611400,4.606611328125,-0.0009680492803454399,-0.000520387664437294,-0.000590078067034483
1782829736449539300,4.616539306640625,-0.0005465280264616013,0.0008316738530993462,0.00152225187048316
1782829736459468300,4.62646826171875,0.001340055838227272,-0.002378234639763832,-0.0009949677623808384
1782829736469397200,4.636397216796875,0.002812855876982212,-0.0005675312131643295,-0.0017792345024645329
1782829736479325200,4.6463251953125,-0.0020817676559090614,-0.0014077583327889442,0.0017675631679594517
1782829736489254400,4.65625439453125,0.0012445887550711632,0.0001776488497853279,0.0011607115156948566
1782829736499182300,4.666182373046875,0.000257088802754879,-0.0020373016595840454,0.00037055136635899544
1782829736509111300,4.676111328125,-0.0027834195643663406,-0.0004007164388895035,0.0016037076711654663
1782829736519039500,4.68603955078125,0.00010025128722190857,-0.0012585204094648361,0.00042712315917015076
1782829736528968400,4.695968505859375,0.0011698976159095764,-0.00027091987431049347,0.00024249963462352753
1782829736538896400,4.705896484375,-0.001028541475534439,-0.00070181954652071,0.001750648021697998
1782829736548825600,4.71582568359375,-0.0005799094215035439,0.001606270670890808,0.00044525181874632835
1782829736558753500,4.72575341796875,0.0002709701657295227,0.002237706445157528,0.0003104959614574909
1782829736568682500,4.7356826171875,0.00017366651445627213,0.00001281779259443283,-0.00127114774659276
1782829736578610400,4.7456103515625,-0.0006801430135965347,0.0008772797882556915,-0.00020401924848556519
1782829736588539400,4.755539306640625,-0.0019012708216905594,-0.0006362143903970718,0.0004624337889254093
1782829736598467300,4.76546728515625,0.0003570904955267906,-0.00048654433339834213,-0.00011760322377085686
1782829736608396300,4.775396240234375,-0.0003398153930902481,0.0002098986878991127,-0.0003773556090891361
1782829736618324200,4.78532421875,-0.0028778081759810448,-0.0006580250337719917,0.0006687338463962078
1782829736628253400,4.79525341796875,-0.002376795746386051,0.0014152955263853073,0.0001567099243402481
1782829736638181400,4.805181396484375,-0.00375418271869421,-0.00413393322378397,-0.001347975805401802
1782829736648110300,4.8151103515625,-0.0002518529072403908,-0.0018071383237838745,0.001128840260207653
1782829736658038300,4.825038330078125,0.0015620263293385506,-0.0006193686276674271,0.00013335095718502998
1782829736667967200,4.83496728515625,-0.0004125302657485008,-0.0020295046269893646,-0.00045025115832686424
1782829736677895400,4.8448955078125,0.00022263359278440475,-0.0018574642017483711,0.0006693420000374317
1782829736687824400,4.854824462890625,0.0011983755975961685,0.00008262600749731064,-0.002215677872300148
1782829736697752600,4.864752685546875,-0.0027010254561901093,0.000029894523322582245,-0.0013560093939304352
1782829736707681500,4.874681640625,-0.0014424445107579231,-0.0014218371361494064,-0.0002322448417544365
1782829736717609500,4.884609375,0.0014398954808712006,0.00105330441147089,0.0007669734768569469
1782829736727538400,4.894538330078125,-0.0009315460920333862,-0.001417628489434719,0.00030904170125722885
1782829736737466400,4.90446630859375,0.0008027050644159317,0.0020399531349539757,-0.0001325099729001522
1782829736747395300,4.914395263671875,-0.00029601994901895523,0.0014674961566925049,-0.0014918725937604904
1782829736757323500,4.924323486328125,-0.0011197356507182121,0.0008059665560722351,-0.001358182169497013
1782829736767252500,4.93425244140625,0.0023925239220261574,0.0018614232540130615,0.0000035124830901622772
1782829736777180400,4.944180419921875,-0.0019188681617379189,-0.0009604627266526222,0.0014594625681638718
1782829736787109400,4.954109375,0.0018233079463243484,0.001964590512216091,0.00028822198510169983
1782829736797037300,4.964037353515625,0.001368972472846508,-0.0005784621462225914,0.0019391151145100594
1782829736806966300,4.97396630859375,-0.0017737364396452904,0.0016513187438249588,-0.00005386956036090851
1782829736816894200,4.983894287109375,0.0002888822928071022,0.0007072277367115021,0.0016990234144032001
1782829736826823400,4.993823486328125,-0.0008039474487304688,0.0023738015443086624,-0.0002506161108613014
1782829736836752400,5.00375244140625,-0.000019912607967853546,-0.0009713955223560333,-0.00005034636706113815
1782829736846680300,5.013680419921875,0.0003348561003804207,-0.000035594217479228973,0.0002187071368098259
1782829736856609300,5.023609375,0.000943387858569622,-0.0007439944893121719,-0.0017088893800973892
1782829736866537200,5.033537109375,-0.0011393213644623756,-0.0010284725576639175,-0.000045194290578365326
1782829736876466200,5.043466064453125,-0.0022980626672506332,-0.0004447074607014656,-0.0021102093160152435
1782829736886394600,5.05339453125,0.0011329175904393196,0.000028658658266067505,0.0011939606629312038
1782829736896323300,5.0633232421875,0.0006325095891952515,-0.0032563507556915283,-0.0015605469234287739
1782829736906251500,5.07325146484375,-0.0006127525120973587,-0.001283048652112484,0.0031767268665134907
1782829736916180500,5.083180419921875,0.0002170884981751442,-0.0003354959189891815,0.001235548872500658
1782829736926108400,5.0931083984375,-0.0001703733578324318,0.0017741424962878227,0.0010518599301576614
1782829736936037400,5.103037353515625,0.000027766451239585876,0.0009174039587378502,-0.00009622890502214432
1782829736945965300,5.11296533203125,-0.00037669576704502106,-0.0006431136280298233,-0.00047321710735559464
1782829736955894500,5.12289453125,0.0005753850564360619,0.0009430656209588051,-0.002772057894617319
1782829736965822500,5.132822509765625,0.0009357379749417305,0.00037100818008184433,0.0020378176122903824
1782829736975751400,5.14275146484375,0.00007979851216077805,0.000046368688344955444,0.0013579120859503746
1782829736985679400,5.152679443359375,-0.0006465315818786621,0.00019931886345148087,-0.0030362317338585854
1782829736995608300,5.1626083984375,-0.0016385596245527267,0.0019402280449867249,-0.0014705597423017025
1782829737005536300,5.172536376953125,0.0003519216552376747,0.001956651918590069,0.001431738492101431
1782829737015465500,5.182465576171875,0.0007412759587168694,-0.00047880876809358597,-0.0021403590217232704
1782829737025393400,5.192393310546875,0.00034176651388406754,0.0009427210316061974,0.00013653934001922607
1782829737035322400,5.202322265625,0.0009548263624310493,0.0006335275247693062,0.0023823827505111694
1782829737045250300,5.212250244140625,-0.0008041989058256149,-0.002133455127477646,-0.0005713282153010368
1782829737055179300,5.22217919921875,0.0003076717257499695,-0.0004599243402481079,0.001809803768992424
1782829737065107500,5.232107421875,-0.00035826675593852997,0.0015691248700022697,-0.0001926780678331852
1782829737075036200,5.2420361328125,-0.0003595985472202301,0.00007961876690387726,-0.0019724685698747635
1782829737084964400,5.25196435546875,-0.00047905556857585907,-0.0009668683633208275,0.00018144212663173676
1782829737094893600,5.2618935546875,-0.0014018407091498375,0.0006115874275565147,0.0004293816164135933
1782829737104821500,5.271821533203125,-0.0010555852204561234,0.0003170706331729889,-0.0008461466059088707
1782829737114750500,5.28175048828125,0.0005156798288226128,-0.001843285746872425,-0.0010890266858041286
1782829737124678400,5.291678466796875,-0.00010528415441513062,-0.001360233873128891,0.00143897021189332
1782829737134607400,5.301607421875,0.00020284391939640045,-0.00022732466459274292,-0.0013831816613674164
1782829737144535300,5.311535400390625,0.0011536749079823494,-0.003080129623413086,-0.001799107063561678
1782829737154464500,5.321464599609375,-0.0009409012272953987,-0.0016521420329809189,0.0023964373394846916
1782829737164389400,5.331389404296875,-0.0023819617927074432,-0.0005026422441005707,-0.001546990592032671
1782829737174318300,5.341318359375,-0.0015148362144827843,0.0008555697277188301,0.00109113659709692
1782829737184246300,5.351246337890625,0.000013425946235656738,-0.0010456927120685577,0.001967492513358593
1782829737194175500,5.361175537109375,0.0009513916447758675,-0.0005074683576822281,-0.0013452130369842052
1782829737204103400,5.371103515625,-0.00010029878467321396,-0.0004402603954076767,0.0009928960353136063
1782829737214032400,5.381032470703125,0.0031945640221238136,0.0006079599261283875,0.00005067000165581703
1782829737223960300,5.390960205078125,-0.0008020522072911263,0.0027217352762818336,0.0002165595069527626
1782829737233889300,5.40088916015625,-0.0010249586775898933,0.00269989762455225,-0.0013571027666330338
1782829737243817200,5.410817138671875,0.002277955412864685,-0.002115197479724884,0.0012062541209161282
1782829737253746200,5.42074609375,0.0009469073265790939,-0.0002698935568332672,0.001150060910731554
1782829737263674600,5.430674560546875,0.00041021592915058136,-0.0010697133839130402,0.0015833699144423008
1782829737273603300,5.440603271484375,0.00018837489187717438,0.0019420552998781204,-0.002446525264531374
1782829737283531500,5.450531494140625,0.0013481024652719498,0.0007680347189307213,0.0007509919814765453
1782829737293460500,5.46046044921875,-0.0009912187233567238,-0.0011198800057172775,0.0013249036855995655
1782829737303389200,5.47038916015625,0.0006979377940297127,-0.0017967335879802704,-0.0019654487259685993
1782829737313317400,5.4803173828125,-0.002156437374651432,0.0005388585850596428,0.0008298051543533802
1782829737323246600,5.49024658203125,-0.0020750323310494423,-0.00037802569568157196,0.0012553241103887558
1782829737333174500,5.500174560546875,0.0017761653289198875,0.00015700329095125198,-0.0003108805976808071
1782829737343103500,5.510103515625,-0.0003956211730837822,-0.0008655842393636703,0.0025851232931017876
1782829737353031200,5.52003125,-0.00035460852086544037,-0.0011271070688962936,0.0009307675063610077
1782829737362960100,5.529960205078125,0.0011538546532392502,0.0006043706089258194,0.00222028698772192
1782829737372888000,5.53988818359375,-0.002842751331627369,-0.0005346629768610001,-0.002810956444591284
1782829737382817000,5.549817138671875,0.00026777759194374084,-0.0030736178159713745,-0.00177776999771595
1782829737392745000,5.559744873046875,-0.0015418408438563347,-0.0006109923124313354,0.003933645784854889
1782829737402674000,5.569673828125,0.0013958252966403961,-0.0020520146936178207,0.00023253029212355614
1782829737412601900,5.579601806640625,0.0015710610896348953,0.0013294005766510963,-0.0014889370650053024
1782829737422531000,5.589531005859375,0.0001379670575261116,0.0007516127079725266,0.0005643786862492561
1782829737432459000,5.599458984375,-0.001450343057513237,-0.002733132801949978,-0.00028783315792679787
1782829737442388000,5.609387939453125,0.0004840586334466934,0.00018067006021738052,-0.0022323918528854847
1782829737452316200,5.619316162109375,-0.001053650863468647,0.001460585743188858,-0.00013248948380351067
1782829737462244900,5.629244873046875,-0.0007910728454589844,0.0024647843092679977,-0.0007116436026990414
1782829737472173000,5.639173095703125,-0.0007199663668870926,0.0012775463983416557,0.002651129849255085
1782829737482102300,5.649102294921875,-0.0009394092485308647,-0.001378980465233326,0.0016964422538876534
1782829737492030200,5.6590302734375,0.0003732629120349884,-0.0013278480619192123,0.0030562523752450943
1782829737501959200,5.668959228515625,-0.00026399921625852585,-0.0016070902347564697,0.00011664722114801407
1782829737511887000,5.67888720703125,-0.0024539167061448097,0.0002659102901816368,0.0022301319986581802
1782829737521816000,5.688816162109375,0.000401264987885952,0.00001706555485725403,-0.0015627164393663406
1782829737531744000,5.698743896484375,-0.00022857263684272766,-0.000046051107347011566,-0.0012804213911294937
1782829737541673000,5.7086728515625,0.000456429086625576,0.001686987467110157,0.002195460256189108
1782829737551601000,5.718600830078125,-0.0007132310420274734,-0.00025339145213365555,-0.0025284551084041595
1782829737561530000,5.728530029296875,-0.0012260563671588898,-0.00012302398681640625,0.0012071505188941956
1782829737571458000,5.7384580078125,0.001678120344877243,-0.0034402571618556976,-0.0017883731052279472
1782829737581387000,5.748386962890625,0.00024849455803632736,-0.0010763099417090416,0.00035134702920913696
1782829737591315000,5.75831494140625,0.000009609386324882507,-0.0011716512963175774,0.002433139830827713
1782829737601244000,5.768243896484375,0.00048303045332431793,0.0002706460654735565,-0.0007311701774597168
1782829737611171800,5.778171875,-0.0009737182408571243,-0.0002651819959282875,0.004320046864449978
1782829737621101000,5.78810107421875,0.0014022551476955414,0.0007019788026809692,0.0011402820236980915
1782829737631030000,5.798030029296875,-0.0005754083395004272,-0.0032671960070729256,-0.0002456270158290863
1782829737640958000,5.8079580078125,-0.0018126051872968674,-0.0004261936992406845,-0.0017260531894862652
1782829737650887000,5.817886962890625,0.0009269881993532181,0.0016004722565412521,-0.00006637116894125938
1782829737660815000,5.827815185546875,-0.0017048334702849388,0.00046914443373680115,-0.0031736702658236027
1782829737670744000,5.837744140625,-0.0001865653321146965,-0.0008240863680839539,-0.0010700393468141556
1782829737680672300,5.84767236328125,-0.0006156237795948982,0.003899206407368183,0.0011533591896295547
1782829737690601200,5.857601318359375,-0.0001591583713889122,-0.0008468125015497208,-0.0008541322313249111
1782829737700529200,5.867529052734375,0.0004328666254878044,0.0011581182479858398,0.0008795051835477352
1782829737710458000,5.8774580078125,0.0001966441050171852,0.0009101778268814087,0.0008438187651336193
1782829737720386000,5.887385986328125,-0.0002413606271147728,0.0019287513568997383,-0.0006356788799166679
1782829737730315000,5.89731494140625,0.0009690457955002785,0.00006800051778554916,0.000005078036338090897
1782829737740243000,5.907242919921875,0.0004262169823050499,-0.0009051645174622536,-0.00011049164459109306
1782829737750172200,5.917172119140625,-0.0012086974456906319,-0.00032459571957588196,-0.001447930932044983
1782829737760100000,5.92710009765625,0.0010817265138030052,0.0008686669170856476,0.0007513328455388546
1782829737770029000,5.937029052734375,-0.0009603854268789291,-0.002871742472052574,0.0012378920800983906
1782829737779957000,5.94695703125,-0.0006449874490499496,-0.003082520328462124,0.0007933848537504673
1782829737789886000,5.956885986328125,0.001211501657962799,-0.0005834102630615234,-0.0006037093698978424
1782829737799814000,5.96681396484375,0.00009442213922739029,-0.001282806508243084,-0.001725470181554556
1782829737809745200,5.9767451171875,0.0008108131587505341,-0.002588820643723011,0.0001664389856159687
1782829737819673000,5.986673095703125,0.0012400457635521889,-0.0018341345712542534,0.001040925271809101
1782829737829602000,5.99660205078125,0.0013020969927310944,5.168840289115906e-7,-0.002501345705240965
1782829737839530000,6.006530029296875,-0.0006092488765716553,-0.0013000788167119026,0.0012539918534457684
1782829737849459000,6.016458984375,-0.0008880821987986565,0.0014608204364776611,-0.001843530684709549
1782829737859388200,6.02638818359375,-0.0013587120920419693,-0.0009051263332366943,-0.0006799018010497093
1782829737869316000,6.036316162109375,0.0011683618649840355,-0.0006904760375618935,-0.0004559298977255821
1782829737879245000,6.0462451171875,0.00217357836663723,0.0003132559359073639,-0.001010835636407137
1782829737889173000,6.056173095703125,-0.00095403753221035,0.002024337649345398,0.0020677787251770496
1782829737899102000,6.06610205078125,-0.0014781495556235313,0.0008898917585611343,0.000850161537528038
1782829737909030000,6.07602978515625,-0.0003260653465986252,-0.0009002843871712685,-0.00098795210942626
1782829737918959000,6.085958984375,0.001131848432123661,-0.0007027490064501762,-0.00024338439106941223
1782829737928887000,6.095886962890625,-0.0019177375361323357,0.0009670527651906013,-0.0015193047001957893
1782829737938816000,6.10581591796875,0.001034066081047058,-0.0007977746427059174,-0.002833474427461624
1782829737948744000,6.115743896484375,0.0021802904084324837,-0.00004969257861375809,-0.00015566591173410416
1782829737958673000,6.1256728515625,-0.0017569558694958687,-0.0004304517060518265,-0.0017789625562727451
1782829737968601000,6.13560107421875,0.000503801740705967,-0.001979879103600979,-0.0007443246431648731
1782829737978530000,6.145530029296875,0.0003161681815981865,-0.0003850003704428673,-0.00233083451166749
1782829737988458200,6.155458251953125,-0.0008606836199760437,-0.0017786333337426186,-0.0017084539867937565
1782829737998387200,6.16538720703125,-0.0014290977269411087,-0.00047212839126586914,-0.0013679331168532372
1782829738008315100,6.175315185546875,-0.0011390792205929756,-0.0009328555315732956,-0.0009956234134733677
1782829738018244000,6.185244140625,-0.0017717201262712479,0.0004182131960988045,0.00020730169489979744
1782829738028172000,6.195172119140625,0.003219575621187687,-0.002702479250729084,0.0032417080365121365
1782829738038101000,6.20510107421875,-0.0004991954192519188,-0.0014479300007224083,0.0022660433314740658
1782829738048029000,6.21502880859375,0.000015061348676681519,-0.0010039815679192543,0.0023707053624093533
1782829738057958100,6.224958251953125,-0.00038162339478731155,-0.001794101670384407,-0.0015040584839880466
1782829738067886000,6.234885986328125,0.00033636484295129776,-0.0008966159075498581,-0.0015956712886691093
1782829738077815000,6.24481494140625,0.00221121683716774,0.002187466248869896,-0.0011078184470534325
1782829738087743000,6.254742919921875,0.0001294231042265892,0.00034961849451065063,-0.001466546207666397
1782829738097672000,6.264671875,0.001207428053021431,-0.0009531844407320023,-0.0014625973999500275
1782829738107600000,6.274599853515625,-0.00039739254862070084,0.0009009083732962608,0.00010387366637587547
1782829738117529000,6.284529052734375,-0.0008688727393746376,-0.00043448805809020996,0.0009014066308736801
1782829738127457000,6.29445703125,0.0006086491048336029,0.0009950967505574226,0.0013139303773641586
1782829738137386000,6.304385986328125,-0.00008705165237188339,0.00018762797117233276,0.0008490392938256264
1782829738147314200,6.314314208984375,0.0001734057441353798,0.002762371674180031,0.0007371865212917328
1782829738157243100,6.3242431640625,-0.001386270858347416,0.002745985984802246,-0.0017918632365763187
1782829738167171800,6.334171875,-0.0009108968079090118,-0.001834917813539505,-0.003012123517692089
1782829738177100000,6.34410009765625,0.001331995241343975,-0.001169491559267044,-0.0009175450541079044
1782829738187029200,6.354029296875,0.0015490427613258362,0.0006585028022527695,-0.0008775978349149227
1782829738196957200,6.363957275390625,-0.000055052340030670166,0.0013449061661958694,-0.000977951567620039
1782829738206886100,6.37388623046875,-0.0004779621958732605,-0.00018747709691524506,-0.0005630310624837875
1782829738216814000,6.38381396484375,-0.0017278529703617096,-0.0009380150586366653,-0.00017797481268644333
1782829738226743000,6.393742919921875,-0.0009478125721216202,-0.001014181412756443,0.002261747606098652
1782829738236671000,6.4036708984375,0.00014575105160474777,-0.0009024254977703094,0.0010019708424806595
1782829738246600200,6.41360009765625,-0.0016207238659262657,-0.0007711313664913177,0.0034877657890319824
1782829738256528100,6.423528076171875,0.00025704503059387207,-0.0007201265543699265,-0.00020347023382782936
1782829738266457000,6.43345703125,-0.00040501728653907776,-0.002412831410765648,0.001802422571927309
1782829738276385000,6.443385009765625,-0.0036727627739310265,-0.0007013371214270592,-0.000010730233043432236
1782829738286314000,6.45331396484375,-0.0010900283232331276,-0.0006627216935157776,-0.0012347190640866756
1782829738296242000,6.463241943359375,0.0019697239622473717,-0.0018534362316131592,-0.00122420908883214
1782829738306171000,6.4731708984375,0.001253332942724228,0.00031570903956890106,-0.0018524485640227795
1782829738316099000,6.48309912109375,0.00042892713099718094,0.000019363127648830414,0.0004401709884405136
1782829738326028000,6.493028076171875,-0.0008613746613264084,-0.0006893044337630272,0.00021806266158819199
1782829738335956200,6.502956298828125,0.000045591965317726135,0.0007221316918730736,0.001092436257749796
1782829738345885000,6.512885009765625,-0.0004992904141545296,0.0005639400333166122,0.002934811171144247
1782829738355812600,6.5228125,-0.0010583382099866867,0.0005512656643986702,-0.0005221539177000523
1782829738365741800,6.532741943359375,0.00009374506771564484,0.0008466104045510292,0.00047786347568035126
1782829738375669800,6.542669677734375,-0.000674709677696228,0.0005486272275447845,0.0019885823130607605
1782829738385598700,6.5525986328125,-0.0011290451511740685,0.0005233269184827805,-0.001844771672040224
1782829738395526700,6.562526611328125,-0.0006807036697864532,-0.0002685505896806717,0.0003506382927298546
1782829738405455600,6.57245556640625,-0.00007936172187328339,0.0011035101488232613,-0.0003487076610326767
1782829738415383600,6.582383544921875,-0.0012836651876568794,-0.00194486603140831,0.0010255859233438969
1782829738425312500,6.5923125,-0.0012176185846328735,-0.0002380460500717163,-0.00036112265661358833
1782829738435240700,6.60224072265625,-0.0002735508605837822,0.0015777768567204475,-0.00014737015590071678
1782829738445169700,6.612169677734375,-0.0017809001728892326,-0.0028153741732239723,-0.002434758935123682
1782829738455098600,6.6220986328125,0.0022633979097008705,-0.00013401173055171967,-0.00025890301913022995
1782829738465026600,6.632026611328125,0.0000026402994990348816,-0.001075172796845436,0.0031528729014098644
1782829738474955500,6.64195556640625,-0.0006224093958735466,-0.001149413175880909,0.0013536987826228142
1782829738484883500,6.651883544921875,-0.00003065541386604309,-0.0007565971463918686,-0.0010351566597819328
1782829738494812700,6.661812744140625,-0.0003217523917555809,-0.0006383797153830528,-0.0007198648527264595
1782829738504740600,6.67174072265625,-0.0005779480561614037,-0.00011134054511785507,-0.0016479766927659512
1782829738514669600,6.681669677734375,0.0008017774671316147,-0.0001903790980577469,-0.0007038908079266548
1782829738524597800,6.69159765625,-0.00042673852294683456,0.00043200142681598663,0.0011155814863741398
1782829738534526500,6.7015263671875,0.000849774107336998,-0.0005671223625540733,-0.0017594718374311924
1782829738544454700,6.71145458984375,-0.000583806075155735,0.00042836740612983704,-0.0003024567849934101
1782829738554383600,6.721383544921875,0.001055235043168068,-0.0006450321525335312,0.0013951817527413368
1782829738564311800,6.731311767578125,-0.0017546657472848892,0.0015621958300471306,-0.0005377400666475296
1782829738574240800,6.74124072265625,-0.0005015572533011436,0.00004283897578716278,0.0017516645602881908
1782829738584168700,6.751168701171875,-0.0005721310153603554,0.0006377892568707466,0.002415324095636606
1782829738594097700,6.76109765625,-0.0015711579471826553,-0.0010749353095889091,-0.0001612394116818905
1782829738604025600,6.771025634765625,0.00030104443430900574,0.0011432114988565445,-0.002171659842133522
1782829738613954600,6.78095458984375,0.00006451085209846497,-0.000138123519718647,-0.0010776296257972717
1782829738623882500,6.790882568359375,0.0004141833633184433,0.0002437736839056015,-0.0012946771457791328
1782829738633811700,6.800811767578125,-0.0009927619248628616,-0.0008190693333745003,-0.002479276154190302
1782829738643739600,6.81073974609375,-0.0006995480507612228,0.00021769851446151733,-0.00008615991100668907
1782829738653668600,6.820668701171875,0.001189451664686203,0.0005684588104486465,-0.0016219676472246647
1782829738663596500,6.830596435546875,-0.0005775550380349159,0.00008802395313978195,-0.000693855807185173
1782829738673525500,6.840525390625,-0.0007581580430269241,-0.0010402360931038857,0.0006877556443214417
1782829738683453400,6.850453369140625,0.00014145765453577042,0.000833563506603241,0.0004866868257522583
1782829738693382700,6.860382568359375,0.0001168958842754364,-0.0029981108382344246,0.00039414409548044205
1782829738703310800,6.870310791015625,0.000014097429811954498,0.0008227266371250153,-0.0001856260932981968
1782829738713239600,6.880239501953125,-0.001063195988535881,0.0008935164660215378,-0.001741515938192606
1782829738723167700,6.890167724609375,0.0014164727181196213,0.0004751337692141533,0.000577297993004322
1782829738733096700,6.9000966796875,0.002322317101061344,-0.0008306847885251045,-0.0010780761949717999
1782829738743024600,6.910024658203125,-0.0009688176214694977,0.0014945212751626968,-0.0016879397444427013
1782829738752953600,6.91995361328125,0.0005725035443902016,-0.0004602978006005287,-0.0005704890936613083
1782829738762882800,6.9298828125,0.00019273627549409866,0.00006461143493652344,0.00069824093952775
1782829738772810800,6.939810791015625,-0.0015133144333958626,0.0015964554622769356,0.0011341464705765247
1782829738782739700,6.94973974609375,-0.00010929536074399948,0.00204386655241251,0.0009932653047144413
1782829738792667600,6.959667724609375,0.0003919042646884918,-0.001959468238055706,0.0010845968499779701
1782829738802596600,6.9695966796875,0.00010774563997983932,-0.00006143283098936081,-0.0016070595011115074
1782829738812524500,6.979524658203125,-0.0006429599598050117,0.0007798485457897186,-0.0021209614351391792
1782829738822453800,6.989453857421875,-0.0007319096475839615,0.0018733423203229904,-0.0031529362313449383
1782829738832381700,6.999381591796875,0.0017405888065695763,-0.001651122234761715,0.00026076845824718475
1782829738842310700,7.009310546875,-0.001094878651201725,0.0008266828954219818,-0.0009642858058214188
1782829738852238600,7.019238525390625,0.0010077962651848793,-0.0029980093240737915,0.00010992493480443954
1782829738862167600,7.02916748046875,0.003179071471095085,0.002330710180103779,-0.001328981015831232
1782829738872095500,7.039095458984375,-0.0009218305349349976,-0.0010208534076809883,-0.0007313499227166176
1782829738882024400,7.0490244140625,0.0012358622625470161,-0.0007614614441990852,0.0009586918167769909
1782829738891952600,7.05895263671875,0.00035649538040161133,-0.0020026173442602158,0.001612410880625248
1782829738901881600,7.068881591796875,-0.00008292589336633682,-0.0020076772198081017,-0.0006701848469674587
1782829738911809800,7.078809814453125,0.0006261998787522316,-0.0009150784462690353,-0.0017968537285923958
1782829738921738800,7.08873876953125,-0.00001988280564546585,0.0009256992489099503,-0.0007656780071556568
1782829738931666700,7.098666748046875,0.0003508618101477623,0.0002959109842777252,0.0008430718444287777
1782829738941595600,7.108595703125,0.0009008040651679039,-0.002300671301782131,-0.0020600399002432823
1782829738951523600,7.118523681640625,-0.0012500770390033722,-0.0018368912860751152,0.0011387364938855171
1782829738961452800,7.128452880859375,0.001343575306236744,0.0012467829510569572,-0.002442949451506138
1782829738971380700,7.138380615234375,-0.00007076282054185867,0.001553126610815525,-0.0012191147543489933
1782829738981309700,7.148309814453125,0.00034602172672748566,0.00036615505814552307,-0.0012542684562504292
1782829738991237600,7.158237548828125,0.0011352961882948875,0.0007090941071510315,0.001452441792935133
1782829739001166600,7.16816650390625,-0.0002918913960456848,0.0008656876161694527,0.0014058365486562252
1782829739011094500,7.178094482421875,0.0001789061352610588,-0.001156761310994625,-0.0008576270192861557
1782829739021023700,7.188023681640625,0.00012511014938354492,0.0029588881880044937,0.0006670327857136726
1782829739030952700,7.19795263671875,0.000773794949054718,-0.0005902154371142387,0.0013967445120215416
1782829739040880600,7.207880615234375,-0.0003332812339067459,0.0009847776964306831,0.00023054610937833786
1782829739050809600,7.2178095703125,0.0000016707926988601685,0.00027542468160390854,-0.0012793578207492828
1782829739060737500,7.227737548828125,0.0000895550474524498,-0.00021512899547815323,-0.00011129537597298622
1782829739070666500,7.23766650390625,0.0006216838955879211,-0.0010262392461299896,0.0004443875513970852
1782829739080594400,7.247594482421875,-0.0017088484019041061,0.0010153399780392647,0.0013032578863203526
1782829739090523600,7.257523681640625,0.0005422364920377731,-0.0006080744788050652,-0.00019878847524523735
1782829739100451600,7.26745166015625,0.0007156087085604668,-0.0020195497199892998,-0.001618785783648491
1782829739110380500,7.277380615234375,0.0013831602409482002,-0.001682668924331665,0.0011402075178921223
1782829739120308700,7.287308837890625,-0.0012072958052158356,0.0003083106130361557,-0.0006313272751867771
1782829739130237700,7.29723779296875,-0.000942564569413662,-0.0003210911527276039,0.000689137727022171
1782829739140165600,7.30716552734375,-0.0008871713653206825,0.00004482734948396683,-0.0005817222408950329
1782829739150094800,7.3170947265625,-0.0010372418910264969,0.0008177794516086578,-0.00013998756185173988
1782829739160022800,7.327022705078125,-0.0013983668759465218,0.00030804984271526337,-0.0004244130104780197
1782829739169951700,7.33695166015625,0.0004546111449599266,-0.0015121959149837494,0.0009547187946736813
1782829739179879700,7.346879638671875,0.0018045678734779358,-0.00006583239883184433,0.0013062558136880398
1782829739189808600,7.35680859375,-0.0006632283329963684,0.0001229792833328247,0.00005269981920719147
1782829739199736600,7.366736572265625,-0.00031355489045381546,-0.00021391082555055618,0.0013560513034462929
1782829739209665500,7.37666552734375,-0.0012432076036930084,-0.000712420791387558,0.001076243817806244
1782829739219593500,7.386593505859375,-0.00014252308756113052,0.0018540676683187485,0.001883980818092823
1782829739229522700,7.396522705078125,0.0004886360839009285,-0.0014490755274891853,-0.0004997905343770981
1782829739239450600,7.40645068359375,-0.0021843789145350456,-0.0003981916233897209,-0.001868122722953558
1782829739249379600,7.416379638671875,-0.00009705871343612671,0.0026225419715046883,-0.0012027258053421974
1782829739259307500,7.4263076171875,-0.0009932126849889755,0.001616399735212326,0.0011760098859667778
1782829739269236500,7.436236572265625,-0.0024374136701226234,0.0005917530506849289,-0.0013476107269525528
1782829739279164700,7.44616455078125,0.0011732997372746468,0.0017443690448999405,0.0008934391662478447
1782829739289093600,7.45609375,0.0022498024627566338,0.0019122185185551643,0.0018592942506074905
1782829739299021800,7.466021728515625,-0.00011721532791852951,-0.0007448168471455574,-0.00017003435641527176
1782829739308950800,7.47595068359375,0.0003517512232065201,-0.002092733047902584,0.001038113608956337
1782829739318879500,7.48587939453125,-0.0014064675197005272,-0.000811486504971981,0.00039309635758399963
1782829739328807700,7.4958076171875,0.0004335036501288414,-0.001148301176726818,0.001233973540365696
1782829739338736600,7.505736572265625,0.0021504443138837814,-0.002205309458076954,0.0023375870659947395
1782829739348664600,7.51566455078125,-0.00010603293776512146,-0.0010562436655163765,-0.0011203461326658726
1782829739358594600,7.525594482421875,0.0017773546278476715,0.0013376716524362564,-0.001243650447577238
1782829739368522800,7.535522705078125,0.0006346842274069786,-0.0014042211696505547,0.00039792759343981743
1782829739378451700,7.54545166015625,-0.00036799535155296326,-0.00006518419831991196,0.0013169837184250355
1782829739388379600,7.555379638671875,0.00194525346159935,0.0018276991322636604,0.001823278609663248
1782829739398308900,7.565308837890625,-0.0033214138820767403,-0.0010748794302344322,-0.00002016127109527588
1782829739408236800,7.57523681640625,0.0010160906240344048,0.00034829508513212204,0.0006600432097911835
1782829739418165800,7.585165771484375,-0.0006579719483852386,-0.0015625227242708206,-0.0014513111673295498
1782829739428093700,7.59509375,0.0012087561190128326,0.0003911685198545456,-0.0014510941691696644
1782829739438022700,7.605022705078125,0.0011520301923155785,0.002920372411608696,0.0006972774863243103
1782829739447950600,7.61495068359375,0.002516143023967743,0.0003772880882024765,-0.0012105940841138363
1782829739457879600,7.624879638671875,-0.0014343895018100739,-0.0008517606183886528,0.0010174070484936237
1782829739467807500,7.634807373046875,0.0005711009725928307,0.0006370926275849342,0.0000015152618288993835
1782829739477736700,7.64473681640625,-0.0027988627552986145,0.0010948898270726204,-0.0024267551489174366
1782829739487664600,7.65466455078125,0.000007789582014083862,0.001920410431921482,0.0028542689979076385
1782829739497593600,7.664593505859375,0.000042943283915519714,0.0007622018456459045,-0.0015732361935079098
1782829739507521500,7.674521484375,-0.0002231542021036148,0.0011180173605680466,0.0012105233035981655
1782829739517450500,7.684450439453125,0.001179000362753868,-0.0003949245437979698,-0.0014742091298103333
1782829739527378400,7.69437841796875,0.0013432595878839493,0.0002784784883260727,0.0007324153557419777
1782829739537307600,7.7043076171875,0.00005588773638010025,-0.0023396750912070274,0.0018554702401161194
1782829739547235800,7.71423583984375,-0.0011277105659246445,-0.0026848306879401207,0.0012476961128413677
1782829739557164500,7.72416455078125,0.00008855573832988739,-0.004288586787879467,-0.0013648644089698792
1782829739567092700,7.7340927734375,0.0001799771562218666,-0.0004903506487607956,0.003131486475467682
1782829739577021700,7.744021728515625,-0.0003606444224715233,-0.00026984047144651413,-0.00048668449744582176
1782829739586950700,7.75395068359375,-0.0013186987489461899,0.00013894308358430862,-0.0012952028773725033
1782829739596878600,7.763878662109375,-0.002169845625758171,0.0014526806771755219,0.00009576603770256042
1782829739606807800,7.773807861328125,-0.0034363670274615288,0.000529157929122448,-0.002486597280949354
1782829739616735700,7.78373583984375,-0.0017308779060840607,0.000715312547981739,-0.00016352208331227303
1782829739626664700,7.793664794921875,0.0011426322162151337,0.001455552875995636,-0.0010630269534885883
1782829739636592600,7.803592529296875,0.002729610539972782,0.00015859398990869522,0.0014041257090866566
1782829739646521600,7.813521484375,-0.00030152592808008194,0.00023869145661592484,0.0023174486123025417
1782829739656449500,7.823449462890625,0.003489217720925808,-0.0008806353434920311,0.00012912927195429802
1782829739666378800,7.833378662109375,-0.0003486713394522667,0.0028441380709409714,0.0007572732865810394
1782829739676306700,7.843306640625,0.00036851782351732254,0.0011133495718240738,0.0012598112225532532
1782829739686235600,7.853235595703125,-0.0026421919465065002,0.0019377451390028,-0.0005856174975633621
1782829739696163600,7.86316357421875,0.000007653608918190002,-0.0009975908324122429,-0.00225675106048584
1782829739706092500,7.873092529296875,0.00035815034061670303,0.000903446227312088,-0.0000357101671397686
1782829739716020500,7.8830205078125,-0.0008258912712335587,0.00008479133248329163,-0.0025044605135917664
1782829739725949400,7.892949462890625,-0.0004388708621263504,0.00013141334056854248,-0.00007579196244478226
1782829739735877600,7.902877685546875,-0.0011062594130635262,-0.001664622686803341,0.003043035976588726
1782829739745806600,7.912806640625,0.0007191943004727364,-0.0006667962297797203,0.0013611791655421257
1782829739755734800,7.92273486328125,-0.0017037494108080864,0.0015521496534347534,0.001092999242246151
1782829739765663700,7.932663818359375,0.00007271487265825272,-0.0010575037449598312,-0.0005613011308014393
1782829739775591700,7.942591796875,-0.0016740523278713226,-0.00020262878388166428,-0.0015229685232043266
1782829739785520600,7.952520751953125,0.0004107402637600899,-0.0007008453831076622,-0.0006079333834350109
1782829739795448600,7.962448486328125,-0.00023267976939678192,-0.003015930764377117,-0.00008622044697403908
1782829739805377800,7.972377685546875,-0.0031616371124982834,-0.0013228291645646095,-0.00001638149842619896
1782829739815305700,7.9823056640625,0.001029912382364273,-0.0017183087766170502,0.0005868249572813511
1782829739825234700,7.992234619140625,-0.0006968099623918533,-0.0005506426095962524,-0.00356285460293293
1782829739835162600,8.00216259765625,0.00009494833648204803,-0.00022200867533683777,-0.002530613448470831
1782829739845091600,8.012091552734375,0.0009575001895427704,-0.00015591643750667572,0.0011081951670348644
1782829739855020500,8.0220205078125,-0.0014084521681070328,0.00023476965725421906,0.0013540047220885754
1782829739864948700,8.03194873046875,0.00017201807349920273,-0.0012443093582987785,0.0021799993701279163
1782829739874877700,8.041877685546876,-0.0009465096518397331,-0.0007564183324575424,-0.0012597390450537205
1782829739884805600,8.0518056640625,-0.0012170476838946342,-0.0005233883857727051,-0.00027694692835211754
1782829739894734600,8.061734619140625,0.0006194682791829109,0.002588515169918537,0.0017007160931825638
1782829739904662500,8.07166259765625,0.0011918768286705017,0.0004789121448993683,-0.00004907464608550072
1782829739914591500,8.081591552734375,-0.0009700777009129524,0.0017044991254806519,0.0014598723500967026
1782829739924519400,8.09151953125,0.002260207198560238,0.00005568750202655792,0.001385337207466364
1782829739934448600,8.10144873046875,0.0012732399627566338,0.0010881945490837097,-0.00021788524463772774
1782829739944376800,8.111376953125,0.0004247678443789482,-0.0002294480800628662,0.0023102075792849064
1782829739954305500,8.121305419921875,-0.0023435885086655617,0.001998819410800934,-0.0025260932743549347
1782829739964233700,8.131233642578126,-0.0011630663648247719,-0.0015675853937864304,-0.0006016157567501068
1782829739974162700,8.14116259765625,0.0006436221301555634,-0.0002157650887966156,-0.0005275802686810493
1782829739984090600,8.151090576171875,-0.0006682518869638443,-0.0018938425928354263,-0.00283479830250144
1782829739994019800,8.161019775390624,0.00045613478869199753,-0.0021066293120384216,0.0024403915740549564
1782829740003947800,8.17094775390625,-0.0009768912568688393,-0.0010715527459979057,0.0004654764197766781
1782829740013876700,8.180876708984375,0.0010582972317934036,-0.0038135433569550514,0.0014180890284478664
1782829740023804700,8.1908046875,0.0002017877995967865,-0.0002646949142217636,-0.0010437075980007648
1782829740033733600,8.200733642578125,-0.0004480229690670967,0.0012280074879527092,-0.0034727766178548336
1782829740043661600,8.21066162109375,-0.00230336282402277,-0.0009218035265803337,-0.001542774960398674
1782829740053590500,8.220590576171874,0.00088523980230093,-0.0011191433295607567,-0.0010849777609109879
1782829740063518500,8.2305185546875,-0.0003825519233942032,-0.0009001856669783592,-0.0010138442739844322
1782829740073447700,8.24044775390625,-0.001617460511624813,0.0018995953723788261,0.0005835196934640408
1782829740083375600,8.250375732421874,-0.00030562933534383774,0.00021051429212093353,-0.0005655181594192982
1782829740093304600,8.2603046875,-0.002372775226831436,-0.00017138291150331497,0.0018062926828861237
1782829740103233500,8.270233642578125,-0.0004719868302345276,0.0009530484676361084,-0.0024716448970139027
1782829740113161500,8.280161376953124,-0.002633141353726387,0.0002923179417848587,-0.0006242101080715656
1782829740123090700,8.290090576171876,-0.0013678427785634995,0.0006193490698933601,0.0011016326025128365
1782829740133018600,8.3000185546875,-0.00022747647017240524,-0.0008408622816205025,0.0003117397427558899
1782829740142947600,8.309947509765625,0.0007730433717370033,0.0022755712270736694,-0.0016936860047280788
1782829740152875800,8.319875732421876,-0.0015066228806972504,0.002693953923881054,-0.0014753066934645176
1782829740162804500,8.329804443359375,-0.00022444222122430801,0.000878102146089077,-0.0016613607294857502
1782829740172732700,8.339732666015625,-0.0000052647665143013,-0.0012737326323986053,0.0002619745209813118
1782829740182661600,8.34966162109375,0.00011750217527151108,0.0010299934074282646,-0.0006040968000888824
1782829740192589600,8.359589599609375,0.0016256505623459816,-0.0018235836178064346,-0.0012794742360711098
1782829740202518800,8.369518798828125,0.003616560250520706,0.001961515285074711,0.0016051889397203922
1782829740212446700,8.37944677734375,0.0003861458972096443,-0.00033146701753139496,0.0003910544328391552
1782829740222375700,8.389375732421875,0.002457032911479473,-0.002866116352379322,0.0013340120203793049
1782829740232303600,8.3993037109375,0.000013848766684532166,-0.0028874212875962257,0.002309794072061777
1782829740242232600,8.409232666015624,-0.0005468269810080528,-0.0009451629593968391,-0.001574027817696333
1782829740252160500,8.419160400390625,0.00040392111986875534,-0.0013473005965352058,-0.001273889560252428
1782829740262089700,8.42908984375,-0.000846516340970993,0.0013664038851857185,-0.0014716582372784615
1782829740272017700,8.439017578125,-0.0005972441285848618,-0.00025972258299589157,-0.0007368922233581543
1782829740281946600,8.448946533203125,0.0011622915044426918,-0.002327793277800083,0.0009617372415959835
1782829740291874600,8.45887451171875,-0.0008348124101758003,-0.001003403216600418,0.0006818384863436222
1782829740301803500,8.468803466796874,0.0012478530406951904,0.0013057151809334755,-0.001544326078146696
1782829740311731500,8.4787314453125,-0.0014150412753224373,-0.0010240180417895317,0.0020173853263258934
1782829740321660400,8.488660400390625,-0.0005896156653761864,0.0027015535160899162,-0.000011265743523836136
1782829740331588900,8.4985888671875,0.00031346268951892853,-0.000736321322619915,-0.002525023650377989
1782829740341517600,8.508517578125,-0.0006449660286307335,0.001630578190088272,-0.0012272531166672707
1782829740351445200,8.5184453125,0.00004505924880504608,0.0015147309750318527,0.0007323008030653
1782829740361374200,8.528374267578124,-0.0009338334202766418,0.0034006452187895775,-0.000658226665109396
1782829740371303200,8.53830322265625,0.0007346374914050102,0.004069897346198559,-0.0007194792851805687
1782829740381231000,8.548231201171875,0.0017332276329398155,0.001739494502544403,-0.0013367696665227413
1782829740391160300,8.558160400390625,-0.0004857173189520836,0.0017916923388838768,0.0004930878058075905
1782829740401088300,8.568088134765626,0.001249660737812519,-0.0019688308238983154,-0.0015336386859416962
1782829740411017200,8.578017333984375,-0.0007823305204510689,0.00045917369425296783,0.0021726819686591625
1782829740420945200,8.587945068359375,-0.0009430451318621635,-0.0012536132708191872,0.002207039389759302
1782829740430874000,8.5978740234375,-0.00024077016860246658,-0.0023034317418932915,-0.000006313435733318329
1782829740440802000,8.607802001953125,-0.0024965228512883186,-0.0007315939292311668,0.0020182537846267223
1782829740450731300,8.617731201171875,-0.0010272571817040443,-0.0003134775906801224,0.001625437755137682
1782829740460659200,8.6276591796875,0.0022936128079891205,0.00026090536266565323,0.0020863027311861515
1782829740470588200,8.637588134765625,0.002301868051290512,-0.00030901096761226654,-0.0001558130607008934
1782829740480516000,8.64751611328125,0.0001708436757326126,-0.00029565952718257904,0.0015704366378486156
1782829740490445000,8.657445068359374,0.0009343717247247696,-0.0015207137912511826,-0.0010226834565401077
1782829740500373200,8.667373291015625,-0.002112310379743576,-0.0013544997200369835,-0.0008205710910260677
1782829740510302000,8.677302001953125,-0.0005634156987071037,0.0005901399999856949,0.00008783303201198578
1782829740520230400,8.68723046875,0.00006434135138988495,-0.0022681578993797302,0.0017794137820601463
1782829740530159400,8.697159423828126,0.00005608517676591873,0.0018517524003982544,0.0011977795511484146
1782829740540087300,8.70708740234375,-0.0009519858285784721,0.0017379317432641983,0.0004767407663166523
1782829740550016300,8.717016357421874,-0.00048380251973867416,-0.0005667684599757195,0.00018698908388614655
1782829740559944200,8.726944091796875,0.0009268093854188919,0.0016134604811668396,0.0005666837096214294
1782829740569873200,8.736873046875,-0.0025909598916769028,0.0008523296564817429,0.0005275355651974678
1782829740579801000,8.746801025390624,-0.0009637400507926941,0.00019722990691661835,0.00003588711842894554
1782829740589730300,8.756730224609376,-0.0021104970946907997,0.0006552943959832191,-0.0014195307157933712
1782829740599658200,8.766658203125,-0.0008433852344751358,0.0019225990399718285,-0.0015567089430987835
1782829740609587200,8.776587158203125,-0.000562155619263649,-0.0010787835344672203,-0.0007673483341932297
1782829740619516200,8.78651611328125,0.001498643308877945,0.001666184514760971,0.00034680357202887535
1782829740629444000,8.796444091796875,-0.001918724738061428,-0.00006726663559675217,-0.002941401209682226
1782829740639373000,8.806373046875,-0.0016152160242199898,-0.0008314643055200577,-0.0015206318348646164
1782829740649301200,8.81630126953125,-0.0002828361466526985,-0.0008546337485313416,-0.00017174053937196732
1782829740659230200,8.826230224609375,-0.0006216811016201973,0.00034296512603759766,0.0027127093635499477
1782829740669158100,8.836158203125,-0.00017320457845926285,-0.0009457385167479515,0.0006375745870172977
1782829740679087000,8.846087158203124,0.0014582984149456024,0.0011176066473126411,-0.0017226380296051502
1782829740689015000,8.85601513671875,4.842877388000488e-7,-0.0013471487909555435,-0.0019348920322954655
1782829740698944000,8.865944091796875,0.0003648074343800545,-0.001814453862607479,0.00024052616208791733
1782829740708872200,8.8758720703125,0.0011054323986172676,0.0011808034032583237,-0.0002790563739836216
1782829740718801200,8.88580126953125,-0.0004929313436150551,-0.002357950434088707,0.0015142783522605896
1782829740728729300,8.895729248046875,0.003151870332658291,0.00003703031688928604,0.0006788447499275208
1782829740738658300,8.905658203125,-0.0026340577751398087,-0.0017418088391423225,0.001603434793651104
1782829740748586200,8.915586181640625,-0.0004188399761915207,-0.00241638720035553,0.0006036832928657532
1782829740758515200,8.92551513671875,-0.0010681739076972008,0.001119541935622692,0.00026068883016705513
1782829740768443100,8.935443115234374,0.00046127941459417343,-0.0012972773984074593,0.0034676669165492058
1782829740778372400,8.945372314453126,-0.00010094419121742249,0.000791868194937706,0.00044738128781318665
1782829740788300300,8.95530029296875,0.0004987996071577072,0.0010475320741534233,-0.001530015841126442
1782829740798229200,8.965229248046874,0.00032769888639450073,-0.0017788046970963478,0.0033931341022253036
1782829740808157200,8.9751572265625,0.001960217021405697,-0.000018987804651260376,0.001464739441871643
1782829740818086100,8.985086181640625,-0.0015015769749879837,0.0003301985561847687,-0.00128575274720788
1782829740828014000,8.99501416015625,0.0011288272216916084,0.0024234429001808167,-0.0014463416300714016
1782829740837943000,9.004943115234376,-0.0013148151338100433,-0.0011460212990641594,-0.00024023279547691345
1782829740847871000,9.01487109375,-0.0015560975298285484,-0.0010155262425541878,0.000935819000005722
1782829740857800200,9.02480029296875,0.001438918523490429,0.00031617283821105957,0.0027688625268638134
1782829740867729200,9.034729248046874,-0.0005832202732563019,-0.001252962276339531,0.0010724286548793316
1782829740877657000,9.044656982421875,-0.0023470623418688774,-0.0000646570697426796,0.0013211886398494244
1782829740887586000,9.0545859375,0.0019906945526599884,-0.0004841051995754242,-0.0004727160558104515
1782829740897514000,9.064513916015626,-0.00035313796252012253,0.0005799727514386177,-0.0031553232111036777
1782829740907443200,9.074443115234375,0.0006996095180511475,-0.00011218339204788208,0.00014246907085180283
1782829740917371400,9.084371337890625,0.004439018666744232,-0.0010985778644680977,-0.000549892894923687
1782829740927300000,9.094300048828124,-0.000024439767003059387,-0.001872226595878601,0.0004216278903186321
1782829740937228300,9.104228271484375,0.0014771036803722382,-0.00013866275548934937,0.0008894000202417374
1782829740947157200,9.1141572265625,0.0014954796060919762,-0.0005189618095755577,0.0011051157489418983
1782829740957085200,9.124085205078124,-0.001110299490392208,-0.00046213530004024506,-0.0008872612379491329
1782829740967014100,9.13401416015625,0.0010178321972489357,0.00005291961133480072,-0.0010206857696175575
1782829740976942000,9.143942138671875,-0.0004667947068810463,0.00008106976747512817,0.0034669912420213223
1782829740986871300,9.153871337890624,-0.0013291267678141594,-0.001917365938425064,0.002179086674004793
1782829740996799200,9.16379931640625,0.000018279068171977997,0.0018675131723284721,0.0005900710821151733
1782829741006728200,9.173728271484375,0.0006553074344992638,-0.00038578733801841736,0.0011325571686029434
1782829741016656100,9.18365625,0.001288984902203083,-0.0009883660823106766,-0.0033871899358928204
1782829741026585000,9.193585205078126,0.0014588944613933563,0.0011714575812220573,0.0007827877998352051
1782829741036513000,9.203512939453125,-0.0006945077329874039,-0.000737898051738739,0.0032089976593852043
1782829741046442200,9.213442138671875,0.0004463903605937958,-0.0002502733841538429,-0.0013769660145044327
1782829741056370200,9.2233701171875,-0.00046241097152233124,0.0008463449776172638,-0.0008164918981492519
1782829741066299100,9.233299072265625,0.0012654485180974007,-0.0003661923110485077,0.001051981933414936
1782829741076227000,9.24322705078125,0.0009984085336327553,-0.00040233973413705826,-0.0009862319566309452
1782829741086156000,9.253156005859376,0.000773637555539608,0.0001665111631155014,0.0012385728769004345
1782829741096085000,9.2630849609375,-0.0005156602710485458,-0.0019704168662428856,-0.001438266597688198
1782829741106013200,9.27301318359375,0.0004918137565255165,-0.002189595252275467,0.002488564234226942
1782829741115942100,9.282942138671874,0.00026721321046352386,-0.0004822211340069771,-0.0013144914992153645
1782829741125870300,9.292870361328125,-0.0006158910691738129,-0.003105168230831623,0.00040750810876488686
1782829741135799300,9.30279931640625,0.0005907472223043442,-0.000726756639778614,-0.00008899718523025513
1782829741145727200,9.312727294921874,0.0001846151426434517,-0.00023487117141485214,0.0005794563330709934
1782829741155656200,9.32265625,0.0005692197009921074,-0.0009494107216596603,-0.0013922960497438908
1782829741165582000,9.33258203125,-0.000980740413069725,0.0026168283075094223,0.002605907618999481
1782829741175511000,9.342510986328126,-0.0015178369358181953,0.0000979909673333168,0.0007212194614112377
1782829741185439200,9.352439208984375,0.0008553061634302139,0.00023807398974895477,-0.000587190967053175
1782829741195368200,9.3623681640625,-0.0020515061914920807,0.0011181915178894997,-0.0007234895601868629
1782829741205296400,9.37229638671875,-0.0014126142486929893,0.002185853198170662,-0.0021591996774077415
1782829741215225300,9.382225341796875,0.0017332816496491432,-0.00009760726243257523,-0.00008593406528234482
1782829741225153300,9.3921533203125,-0.000651579350233078,-0.001528257504105568,0.0024824184365570545
1782829741235082200,9.402082275390624,0.00041032861918210983,-0.0005829194560647011,-0.000655823852866888
1782829741245010200,9.41201025390625,-0.0009271102026104927,0.00031216908246278763,-0.0015940554440021515
1782829741254939100,9.421939208984375,-0.0023885471746325493,-0.0007043955847620964,-0.0009751827456057072
1782829741264867000,9.4318671875,0.0011180369183421135,0.0016538342460989952,0.0017202021554112434
1782829741274796300,9.44179638671875,0.002087928354740143,0.000026188790798187256,0.0008893483318388462
1782829741284724200,9.45172412109375,0.0011446364223957062,0.0010871924459934235,0.0011447449214756489
1782829741294653200,9.461653076171874,-0.0014893179759383202,-0.0004253583028912544,0.0019489619880914688
1782829741304581000,9.4715810546875,-0.0014144834131002426,-0.0005808863788843155,-0.0006212545558810234
1782829741314510000,9.481510009765625,0.00011575780808925629,-0.00016725528985261917,0.002421710640192032
1782829741324438000,9.49143798828125,0.0018859608098864555,-0.0013068215921521187,0.0008065029978752136
1782829741334367200,9.5013671875,0.0002994462847709656,0.0024225348606705666,-0.0015216358006000519
1782829741344295200,9.511295166015625,0.0011418042704463005,-0.0018212124705314636,-0.002359466627240181
1782829741354223600,9.5212236328125,-0.000637284480035305,-0.0011635906994342804,0.00005237152799963951
1782829741364151800,9.53115185546875,-0.0007427455857396126,0.00045055150985717773,-0.000007017049938440323
1782829741374080800,9.541080810546875,-0.00011487491428852081,-0.0006714090704917908,-0.0010966998524963856
1782829741384008700,9.5510087890625,-0.0007835943251848221,-0.0014027133584022522,0.00007482478395104408
1782829741393938000,9.56093798828125,-0.00017157383263111115,0.0007206108421087265,0.0015303469263017178
1782829741403867000,9.570866943359375,0.0020875856280326843,-0.00021948479115962982,-0.0007855379953980446
1782829741413794800,9.580794921875,-0.0014838529750704765,-0.0009083719924092293,0.00003831973299384117
1782829741423723800,9.590723876953126,-0.00044415518641471863,0.0019254982471466064,0.0009059780277311802
1782829741433651700,9.600651611328125,-0.00015618372708559036,0.0020042043179273605,0.0024820612743496895
1782829741443581000,9.610580810546875,0.0002957545220851898,0.0023094024509191513,-0.0026216204278171062
1782829741453508900,9.6205087890625,-0.00023468676954507828,0.0003389259800314903,0.0002661934122443199
1782829741463437800,9.630437744140625,-0.002160418778657913,0.002294751815497875,0.00017564604058861732
1782829741473365800,9.64036572265625,-0.0010794037953019142,0.0008121803402900696,0.0003958246670663357
1782829741483294700,9.650294677734376,0.0022524772211909294,0.0009735673666000366,0.0009630783461034298
1782829741493222700,9.66022265625,-0.0005546454340219498,0.000329422764480114,0.003330622799694538
1782829741503151600,9.670151611328125,0.000611552968621254,0.0008540656417608261,0.0001425524242222309
1782829741513079600,9.68007958984375,-0.002076095901429653,0.0005643339827656746,0.0005702576600015163
1782829741523008800,9.6900087890625,0.0007005156949162483,-0.0009129215031862259,0.0020456486381590366
1782829741532936700,9.699936767578125,-0.0016324818134307861,-0.0006214892491698265,-0.0002854778431355953
1782829741542865700,9.70986572265625,-0.0004500383511185646,0.0006003696471452713,-0.003979016095399857
1782829741552793900,9.7197939453125,-0.0004305243492126465,-0.0007479200139641762,-0.0008877762593328953
1782829741562722600,9.72972265625,0.001538882963359356,-0.0012256912887096405,-0.0014483719132840633
1782829741572650800,9.739650634765624,0.000341036356985569,-0.0022615930065512657,0.0011475970968604088
1782829741582580000,9.749580078125,-0.0003505861386656761,0.0011917278170585632,-0.00027506332844495773
1782829741592508000,9.7595078125,0.0008704103529453278,0.0006726821884512901,0.00085872458294034
1782829741602436900,9.769436767578124,-0.00067901611328125,0.0020122528076171875,-0.0015178797766566277
1782829741612364800,9.77936474609375,0.0006530238315463066,0.00023976527154445648,0.0024130591191351414
1782829741622293800,9.789293701171875,0.0008927080780267715,-0.0021312469616532326,-0.0004487736150622368
1782829741632221700,9.7992216796875,0.00006693601608276367,0.000024421140551567078,0.0007273959927260876
1782829741642151000,9.80915087890625,0.000291973352432251,0.0012356266379356384,0.0010152836330235004
1782829741652079900,9.819079833984375,-0.0015028081834316254,-0.001143631525337696,-0.0010672486387193203
1782829741662007800,9.8290078125,0.0009800568222999573,0.001885714940726757,0.006041260901838541
1782829741671936800,9.838936767578126,0.0015474585816264153,0.003597884438931942,0.0015705982223153114
1782829741681864700,9.84886474609375,-0.0016051912680268288,0.002114236354827881,0.002175401896238327
1782829741691793700,9.858793701171875,0.0022136270999908447,0.0018365569412708282,0.0000739293172955513
1782829741701721600,9.8687216796875,0.0023342687636613846,0.0010397396981716156,-0.0023839022032916546
1782829741711650800,9.87865087890625,0.0009034750983119011,-0.0004090042784810066,-0.0018731369636952877
1782829741721578800,9.888578857421875,-0.00029947515577077866,-0.00022817496210336685,-0.003378355409950018
1782829741731507700,9.8985078125,-0.0001584896817803383,-0.0016233287751674652,-0.002016054932028055
1782829741741435600,9.908435546875,0.0015975981950759888,-0.0007066680118441582,0.0016188938170671463
1782829741751364600,9.918364501953125,0.0015600603073835373,0.0013182805851101875,-0.0014438512735068798
1782829741761292800,9.928292724609374,0.0006039850413799286,0.0006943019106984138,0.0012624524533748627
1782829741771221800,9.9382216796875,-0.0010311603546142578,0.0007349681109189987,-0.002949452493339777
1782829741781150000,9.94814990234375,-0.0005107782781124115,-0.0013058120384812355,0.0001102532260119915
