time,seconds_elapsed,z,y,x
1782836839412119300,0.081119384765625,0.22471184170544145,-0.3175440007902682,0.6959517817355692
1782836839422048300,0.09104833984375,0.15304185924530028,-0.23621662073396144,0.6842924697324633
1782836839431977500,0.1009775390625,0.10750351238548755,-0.17436558310724795,0.7394761584244668
1782836839441907500,0.110907470703125,0.10663140572607517,-0.12259535612054169,0.723601859074831
1782836839451836400,0.12083642578125,0.02228548156619072,-0.09259951937273145,0.7083694378253073
1782836839461765600,0.130765625,0.0003933832317590713,-0.09631612874306737,0.7474862272050231
1782836839471694600,0.140694580078125,-0.013390227448940277,-0.11905213055573403,0.7278793902635574
1782836839481623300,0.150623291015625,-0.15677169342339037,-0.20741072442308067,0.7604962962299585
1782836839491553300,0.16055322265625,-0.19005729243159292,-0.2721419936612248,0.7485435542382299
1782836839501482500,0.170482421875,-0.10653671317994594,-0.2242003119867295,0.6892827523004263
1782836839511411500,0.180411376953125,-0.02011690535545349,-0.0809040400777012,0.6448335158515721
1782836839521340400,0.19034033203125,-0.022360884889960287,-0.012570654694363474,0.6528950225584209
1782836839531270400,0.2002705078125,-0.01913081692755222,-0.039242753846943375,0.5853488054974004
1782836839541199400,0.210199462890625,-0.09824819278419017,-0.04269377108365297,0.4805965280488133
1782836839551128300,0.22012841796875,-0.18699264416396616,-0.037621509320661425,0.4593358229530975
1782836839561057300,0.230057373046875,-0.25334172386229037,-0.027727599554881452,0.4728607461649924
1782836839570986500,0.239986572265625,-0.3861521114617586,-0.009177066733315586,0.4569302961813286
1782836839580916500,0.24991650390625,-0.3648205696195364,0.014865414568036793,0.39739071383476254
1782836839590845400,0.259845458984375,-0.3352718190521002,0.04650945691429078,0.2859136947084218
1782836839600774400,0.2697744140625,-0.303650938385725,0.04405884889177978,0.2672583498055115
1782836839610703400,0.279703369140625,-0.2694698518425226,-0.0941674262765795,0.3241155612003058
1782836839620633300,0.28963330078125,-0.2079442467778921,-0.2623332779608667,0.25868989822352306
1782836839630562300,0.299562255859375,-0.06187398011088371,-0.3328917189825326,0.11586995685566216
1782836839640491500,0.309491455078125,0.07764145808517932,-0.33210845965035257,0.12244894252032971
1782836839650420500,0.31942041015625,0.18994740231633186,-0.35515630389116704,0.16909756131013853
1782836839660350200,0.32935009765625,0.2105886238068342,-0.43256088448055086,0.126803009543987
1782836839670279400,0.339279541015625,0.1714706653833389,-0.5083213511247188,0.05876704533779993
1782836839680208400,0.34920849609375,0.09658464348614215,-0.5841303330857306,0.03780813620025292
1782836839690137300,0.359137451171875,-0.013519406786561012,-0.5993915420383215,0.04638661598591134
1782836839700066600,0.369066650390625,-0.27924481140375135,-0.6311648367874324,-0.015838314720802008
1782836839709996500,0.37899658203125,-0.3360977484822273,-0.7610535647865384,-0.16685018424214795
1782836839719925800,0.38892578125,-0.3033428953498602,-0.7955562114343047,-0.2105227737626992
1782836839729854500,0.3988544921875,-0.14595511585474014,-0.727003484211862,-0.16774620150011033
1782836839739783400,0.408783447265625,0.030644144588708875,-0.6426312565669418,-0.15176705353651196
1782836839749713700,0.418713623046875,0.12331833663284777,-0.7168508504446596,-0.20805347930602727
1782836839759642600,0.428642578125,0.28777766194939614,-0.9212131470825523,-0.31231293173637237
1782836839769571600,0.438571533203125,0.3819990834355354,-1.073736681542173,-0.3881079947698861
1782836839779500500,0.44850048828125,0.38628479793071746,-1.1541709121510386,-0.41482557703200723
1782836839789430500,0.458430419921875,0.3590162672549486,-1.243186581687629,-0.4355249949831515
1782836839799359500,0.468359375,0.29829028813540936,-1.3140810497306286,-0.5107031682273373
1782836839809288400,0.478288330078125,0.2867144166320562,-1.2909940425232052,-0.6530804621279239
1782836839819217400,0.488217529296875,0.2401297755897045,-1.2344453490883112,-0.706058457469195
1782836839829146600,0.498146728515625,0.12482640310823917,-1.2915621977999805,-0.6740429514620453
1782836839839076600,0.50807666015625,0.0839034410893917,-1.3969935800865292,-0.673057885947451
1782836839849005600,0.518005615234375,0.10797522155046463,-1.447477858915925,-0.6792294141892343
1782836839858934500,0.5279345703125,0.2829711384505033,-1.4324182369500398,-0.7133019988566637
1782836839868863500,0.537863525390625,0.38346915598809717,-1.3851928137861191,-0.6947551192969084
1782836839878793500,0.54779345703125,0.4309317489087581,-1.401855925425887,-0.6708928168680518
1782836839888722700,0.55772265625,0.498984125393629,-1.469957547879964,-0.5979378726312891
1782836839898651600,0.567651611328125,0.5775888755530119,-1.5357193292096256,-0.48395080691277975
1782836839908580600,0.57758056640625,0.6596645166933536,-1.4942010316461323,-0.4895367903515696
1782836839918510300,0.58751025390625,0.6468062041640281,-1.3964612267754972,-0.5587385925998911
1782836839928439600,0.597439453125,0.5466121380090713,-1.4201675349250436,-0.5573195926474407
1782836839938368500,0.607368408203125,0.48088791221082205,-1.496698985941708,-0.43277807089518755
1782836839948297500,0.61729736328125,0.3001917378425598,-1.4959467062696814,-0.37504013114310797
1782836839958226400,0.627226318359375,0.22643384319245813,-1.442510445766896,-0.4716190755408257
1782836839968156700,0.63715673828125,0.27348843983411786,-1.343917823459208,-0.506343548245728
1782836839978085600,0.647085693359375,0.22977146318256852,-1.2237769478186964,-0.5040581407222896
1782836839988014300,0.657014404296875,0.1980278329193592,-1.2150159145403652,-0.46622952798958867
1782836839997943600,0.666943603515625,0.22417758869826793,-1.273500471408665,-0.4519084859639406
1782836840007873500,0.67687353515625,0.15362345852553844,-1.3035995493352412,-0.4380840683488175
1782836840017802500,0.686802490234375,0.1756710396826267,-1.286331895931065,-0.41714667692333457
1782836840027731700,0.696731689453125,0.14952186842560766,-1.2306953489050267,-0.41465851336941123
1782836840037660700,0.70666064453125,0.08517652976512909,-1.2349668887443839,-0.4670141024960205
1782836840047589600,0.716589599609375,0.10717208847403525,-1.233908465732634,-0.5428718920348212
1782836840057519400,0.726519287109375,0.023152327528595924,-1.2208606950458138,-0.5275934396864846
1782836840067448600,0.736448486328125,-0.09456278226971626,-1.3066016537606715,-0.5022455018097535
1782836840077377500,0.74637744140625,-0.10671616140007972,-1.387884975479543,-0.5697173749929294
1782836840087306500,0.756306396484375,-0.21606267130374907,-1.3460723711445928,-0.6320748643044382
1782836840097236700,0.76623681640625,-0.3575508708775043,-1.2757720696024597,-0.6517790241405368
1782836840107165700,0.776165771484375,-0.5138742360115051,-1.2783799140132963,-0.6628405163809656
1782836840117094400,0.786094482421875,-0.6846575036525726,-1.261972092308849,-0.6980388171426951
1782836840127023400,0.7960234375,-0.8227180668652058,-1.1935718522343783,-0.6801178143963217
1782836840136953600,0.80595361328125,-1.0573282022505999,-1.0974807644188402,-0.5953918048776686
1782836840146882600,0.815882568359375,-1.202604103669524,-1.052392353283614,-0.5543805069882423
1782836840156811500,0.8258115234375,-1.2315876215696333,-1.0292937287036328,-0.5503158878978341
1782836840166740700,0.83574072265625,-1.3932353965967892,-0.9658514032974839,-0.4659287549447268
1782836840176669700,0.845669677734375,-1.4574223298251627,-0.9665521719779818,-0.4664972755476832
1782836840186599400,0.855599365234375,-1.4871546202659607,-0.9530047812059521,-0.5140617214076221
1782836840196528400,0.8655283203125,-1.4961960048556326,-0.9451478571604937,-0.47719892149977383
1782836840206457600,0.87545751953125,-1.4283330134630203,-0.9426843165911734,-0.30266587287113067
1782836840216386600,0.885386474609375,-1.2870838833421467,-0.9286008461810648,-0.05549545805491507
1782836840226316500,0.895316650390625,-1.3479104002267122,-0.9000885990545153,0.1886738752491772
1782836840236245800,0.905245849609375,-1.48456343472898,-0.8974237637594342,0.2519798974571749
1782836840246174500,0.915174560546875,-1.4278455222070217,-0.8364180178504437,0.16692761512622237
1782836840256103400,0.925103515625,-1.3297522277235985,-0.6128105937229469,0.10220675768423824
1782836840266032400,0.935032470703125,-1.333566817575693,-0.39107992325276136,0.1650578757315874
1782836840275962600,0.944962646484375,-1.1678665522873402,-0.3325584319075569,0.349768838699162
1782836840285891600,0.9548916015625,-0.9935679700016975,-0.30683227183558043,0.5004003488671034
1782836840295820500,0.964820556640625,-0.9313993908584117,-0.19910525289252398,0.5664893893897534
1782836840305749800,0.974749755859375,-0.7708551931589841,-0.03321786753423512,0.6439943616136908
1782836840315679500,0.984679443359375,-0.5993792670786381,0.17746099183931946,0.5713197321556508
1782836840325608400,0.9946083984375,-0.42896892440319057,0.43256373402476306,0.49752928694281723
1782836840335537400,1.004537353515625,-0.2433575054645538,0.6084644908100366,0.5304286996450275
1782836840345466600,1.014466552734375,0.04770458498299122,0.6856967835724354,0.5353025527590886
1782836840355395600,1.0243955078125,0.279704245609045,0.7041618300676346,0.5096503712387755
1782836840365325600,1.03432568359375,0.5397445903271436,0.7071777438227087,0.6038739846820012
1782836840375254500,1.044254638671875,0.7836287500143051,0.7550848656404763,0.6535515137057751
1782836840385183500,1.05418359375,0.822611099359393,0.8124964595150203,0.6467415414299815
1782836840395112400,1.064112548828125,1.1321411589115857,0.9010981414232403,0.6404249056290835
1782836840405042700,1.074042724609375,1.202846680253744,0.9858533039711416,0.6033223056159913
1782836840414971600,1.0839716796875,1.0978963594824076,0.9978009313963353,0.5655829055367038
1782836840424900600,1.093900634765625,0.9621282911211252,0.9185371328063309,0.5316275905733928
1782836840434829600,1.10382958984375,0.9419353979200125,0.8119140565171837,0.4670391638720408
1782836840444759600,1.113759521484375,1.0070926374852656,0.8452634414765984,0.49958103184085334
1782836840454688500,1.1236884765625,1.012198436191678,0.9738337803535163,0.5265627083992586
1782836840464617500,1.133617431640625,1.056876366829872,1.0160369183760136,0.5281109607545659
1782836840474546400,1.14354638671875,1.0443746126532554,0.9103950351439416,0.5736811640573665
1782836840484475600,1.1534755859375,1.000145010304451,0.7380592773638666,0.607158047853969
1782836840494405600,1.163405517578125,0.9235562761425972,0.6487449902068824,0.6342009896129369
1782836840504334300,1.173334228515625,0.8323515721291304,0.5615847392786294,0.7081755226884037
1782836840514263600,1.183263671875,0.8126572760999202,0.40856867206171155,0.6800640383824705
1782836840524192500,1.193192626953125,0.676911419570446,0.2848679119825363,0.6133293203674256
1782836840534122500,1.20312255859375,0.5450812751799822,0.21897695131525396,0.5898304078908637
1782836840544051700,1.2130517578125,0.3900742533415556,0.12156842422559856,0.5447873702673242
1782836840553980700,1.222980712890625,0.2227361577183008,0.007748495234921574,0.5605788501717149
1782836840563909600,1.23290966796875,-0.009810615396499633,-0.06329641412943601,0.5983275660686195
1782836840573838600,1.242838623046875,-0.20294015488028525,-0.07024542954973877,0.4851996744627133
1782836840583768600,1.2527685546875,-0.3140338007122278,-0.027255305868014692,0.32057788859345016
1782836840593697500,1.262697509765625,-0.41054537896215915,-0.02709280878268182,0.3224372527245432
1782836840603626500,1.27262646484375,-0.28630758939683437,-0.10473521671593189,0.4183059664936736
1782836840613555500,1.282555419921875,-0.021536124503612517,-0.15953063674271106,0.5070873523503542
1782836840623485400,1.2924853515625,0.10857669457495212,-0.19648169945590196,0.5563891799295321
1782836840633414400,1.302414306640625,0.2540986797094345,-0.3006422580890357,0.5517596934979782
1782836840643343400,1.31234326171875,0.5675175633937121,-0.41140206885673103,0.46506676782052964
1782836840653272600,1.3222724609375,0.7850812869101762,-0.4251609834875911,0.5268156237144023
1782836840663201500,1.332201416015625,0.8376327274024487,-0.49406259721294044,0.6565123362727463
1782836840673131500,1.342131591796875,0.9771610250800847,-0.6859587224442512,0.7841392568197101
1782836840683060700,1.352060791015625,0.9985282227575778,-0.8183138405568897,0.795602096402645
1782836840692989700,1.36198974609375,0.9443073877483605,-0.8133730231538414,0.7831045069444924
1782836840702918700,1.371918701171875,0.7379255679816007,-0.7965249103359877,0.754664375206083
1782836840712848600,1.3818486328125,0.5121066418170929,-0.8338624881487339,0.7015820427075028
1782836840722777600,1.391777587890625,0.34784371585547924,-0.834346691469103,0.6836401433035731
1782836840732706600,1.40170654296875,0.23490707250535486,-0.7810437019571661,0.7319958856716752
1782836840742635500,1.411635498046875,0.11247019488215446,-0.8079412073634564,0.7672565110798925
1782836840752565500,1.4215654296875,0.034410803645849225,-0.8910024985402822,0.7481652224451303
1782836840762494500,1.431494384765625,-0.06394727925360202,-0.9792438957687467,0.7431688754625618
1782836840772423400,1.44142333984375,-0.10257423928976059,-1.0396607358738779,0.7045372392512858
1782836840782352400,1.451352294921875,-0.13198036651611328,-1.0747083030533044,0.651901116150245
1782836840792281600,1.461281494140625,-0.21271920609474182,-1.128415927843377,0.6005353417785838
1782836840802211600,1.471211669921875,-0.2110848828911781,-1.1694230610143392,0.6990734208874404
1782836840812140500,1.481140625,-0.2026157452315092,-1.1647787423398346,0.7244546034466475
1782836840822069800,1.49106982421875,-0.34510523080229755,-1.107670880652219,0.5953356907762587
1782836840831998500,1.50099853515625,-0.4394096543967724,-1.0337906017314642,0.46011177576165646
1782836840841928400,1.510928466796875,-0.5147779068529605,-0.9933955360442399,0.3769817667301744
1782836840851857700,1.520857666015625,-0.47960371761918064,-0.9809939543064683,0.38515955676045266
1782836840861786600,1.53078662109375,-0.3779249658644199,-0.9376253527011722,0.3789377596361562
1782836840871715600,1.540715576171875,-0.3411339890837669,-0.8508710522253066,0.38407990829758343
1782836840881644500,1.55064453125,-0.3325836028814316,-0.7935056355800479,0.3290130874508992
1782836840891574500,1.560574462890625,-0.2808551692098379,-0.77471873671934,0.31940592220462855
1782836840901503500,1.57050341796875,-0.35321430297791956,-0.7724316486954689,0.33703236245121804
1782836840911432400,1.580432373046875,-0.34256606771349907,-0.7785416560083627,0.3473384697470814
1782836840921361400,1.590361328125,-0.4333382255285978,-0.8266408663321286,0.414457072513178
1782836840931291600,1.600291748046875,-0.5439291825354099,-0.8510435592480003,0.3428822575232014
1782836840941220600,1.610220703125,-0.5653706144928932,-0.788210378716141,0.2689777574766427
1782836840951149600,1.620149658203125,-0.665926499697566,-0.7064609738554805,0.27637473586015404
1782836840961078500,1.63007861328125,-0.6739262662798166,-0.6853974352996796,0.32504882346242664
1782836840971007500,1.640007568359375,-0.6785930890470743,-0.6848135709971189,0.4374669593637809
1782836840980937500,1.6499375,-0.7277291681379079,-0.6740859138209372,0.6082047438953071
1782836840990866700,1.65986669921875,-0.9041934040248394,-0.5974010988734663,0.633731764665991
1782836841000795600,1.669795654296875,-1.2405559409230946,-0.5381126782763749,0.6126360408736392
1782836841010724600,1.679724609375,-1.6141326484501362,-0.5900073718929663,0.6204980429530144
1782836841020654300,1.689654296875,-1.9084090247690677,-0.6354456559117883,0.665696709529683
1782836841030583600,1.69958349609375,-2.0882997279733417,-0.5302824961073697,0.7457238206423819
1782836841040512500,1.709512451171875,-1.9683149196773766,-0.3639775429241359,0.8134742915712296
1782836841050441500,1.71944140625,-1.665370083734393,-0.1449205851752311,0.8660409296326339
1782836841060371700,1.729371826171875,-1.3095616726100443,0.06760580176115036,0.8454935239054262
1782836841070300700,1.73930078125,-0.9077554804205894,0.15789627700652925,0.8259680085718631
1782836841080229600,1.749229736328125,-0.5125146380960941,0.1583347414890304,1.0446106133662163
1782836841090158300,1.759158447265625,-0.2776128262877464,0.1421257668249309,1.1148790584653616
1782836841100087600,1.769087646484375,-0.09827215818166732,0.10388378751836716,0.9151333157122135
1782836841110017500,1.779017578125,0.15095277801156043,0.058480209486745295,0.8447849372446536
1782836841119946500,1.788946533203125,0.40043724192380903,0.053366848528385157,0.8115782486915588
1782836841129875700,1.798875732421875,0.6981926925301551,0.08831891944408417,0.903016323069483
1782836841139804700,1.8088046875,0.7751040827751159,0.21347809817064553,1.0226144701354205
1782836841149734400,1.818734375,0.7700532291263341,0.3967923095501959,0.978930007513985
1782836841159663400,1.828663330078125,0.7022077733904123,0.5317124558452516,0.6990422950968146
1782836841169592600,1.838592529296875,0.6191191558152437,0.5975581160660832,0.34561548187937585
1782836841179521500,1.848521484375,0.6387041462510824,0.611129764496535,0.272715628830716
1782836841189450500,1.858450439453125,0.6954980466187,0.547808727382496,0.309149645399861
1782836841199380700,1.868380615234375,0.9693494745463133,0.48509040540195997,0.1999195649500936
1782836841209309700,1.878309814453125,0.8738491191655396,0.4851903586450964,0.03420234852693975
1782836841219238400,1.88823828125,0.77015435141325,0.4122985793050378,-0.14890125230923293
1782836841229167400,1.89816748046875,0.6236924550801515,0.2653686270687729,-0.2697069485340267
1782836841239097600,1.90809765625,0.3792623519480228,0.1791875233709812,-0.271522035131976
1782836841249026600,1.918026611328125,0.04731178627312183,0.16957849496118724,-0.3488346265889704
1782836841258955500,1.92795556640625,-0.14421031801402567,0.26114231461063026,-0.3431402508722618
1782836841268884700,1.937884765625,-0.33715047240555285,0.31500476463623345,-0.5421990342745557
1782836841278814500,1.947814453125,-0.6119388889223337,0.31547873882353306,-0.6264766789712012
1782836841288743400,1.957743408203125,-0.7595043625831603,0.2595912127111107,-0.6269507262237369
1782836841298672400,1.96767236328125,-0.7126309677273035,0.2045254513103515,-0.6013120983047411
1782836841308601600,1.9776015625,-0.5027841021984816,0.23254158548302947,-0.4872580682972446
1782836841318530600,1.987530517578125,-0.2773848627507686,0.30600181236080826,-0.3248621052512899
1782836841328460500,1.99746044921875,-0.011648352217674254,0.29129575307294725,-0.24516879267022013
1782836841338389800,2.0073896484375,0.2241267352938652,0.21552447277382014,-0.21348982514105735
1782836841348318500,2.017318359375,0.43443011241853235,0.13158552197963,-0.10932473646327853
1782836841358247400,2.027247314453125,0.7143798572212458,0.08597301390506326,-0.06467588578909635
1782836841368177700,2.037177734375,0.8454711659431458,0.12578516513779758,0.1421446907211095
1782836841378106600,2.047106689453125,1.0750421381175517,0.09727196816317736,0.21444391099549828
1782836841388035600,2.05703564453125,1.1063748494923114,0.08544431385584175,0.11618534294776618
1782836841397964500,2.066964599609375,1.1555348939806223,0.06419065955542028,0.0681157971099019
1782836841407893800,2.076893798828125,0.9252186563968657,-0.008596271170675754,0.02391023322381079
1782836841417823500,2.086823486328125,0.7447644740909337,-0.14508315532580018,0.03471731231175363
1782836841427752400,2.09675244140625,0.6875561477035284,-0.2736857159718871,-0.029886677284911272
1782836841437681400,2.106681396484375,0.4774497544556856,-0.3227687497012317,-0.05064505888167768
1782836841447610600,2.116610595703125,0.34127310529351235,-0.31808519499488175,-0.06643266632854938
1782836841457540600,2.12654052734375,0.39744098271727557,-0.28848244921788574,-0.2656433888895437
1782836841467469600,2.136469482421875,0.2832131305128336,-0.28529775476716457,-0.470973872972466
1782836841477398500,2.1463984375,0.16060732606351374,-0.36230427594967185,-0.5285946160856634
1782836841487327500,2.156327392578125,0.17768939376771448,-0.5270458522737026,-0.6058967592138796
1782836841497256400,2.16625634765625,0.2787222488343716,-0.7023329341400414,-0.5881656895490363
1782836841507186700,2.176186767578125,0.24651158558130262,-0.8082131561726331,-0.5778649160154163
1782836841517115600,2.18611572265625,0.2367360414981842,-0.8391250848520546,-0.5772703841883688
1782836841527044600,2.196044677734375,0.14984510903060436,-0.874781504644826,-0.5624575765904039
1782836841536973600,2.2059736328125,0.1252870063573122,-0.974922963829711,-0.5999771964391694
1782836841546903600,2.215903564453125,0.10164835661649703,-1.0346757140029221,-0.6497105473034084
1782836841556832500,2.22583251953125,0.10411211638152598,-1.0488155177101492,-0.5837519647600129
1782836841566761500,2.235761474609375,0.17417115651369094,-1.0954637255080044,-0.5315014799756929
1782836841576690400,2.2456904296875,0.21439678391814232,-1.1484025578826664,-0.4669845476079732
1782836841586620700,2.25562060546875,0.16085224073529242,-1.175826206054911,-0.3553869708418846
1782836841596549600,2.265549560546875,0.1521177301377058,-1.1651721255715937,-0.3073857775324955
1782836841606478300,2.275478271484375,0.14934534281492232,-1.0541693728934973,-0.27292412048224357
1782836841616407600,2.285407470703125,0.028724574702978133,-0.9154537067729979,-0.20481226889509707
1782836841626336500,2.29533642578125,-0.220619019433856,-0.8513174808185547,-0.201802273424156
1782836841636266500,2.3052666015625,-0.45592648943364616,-0.8541930362548679,-0.23347941432241348
1782836841646195700,2.31519580078125,-0.7493254983961581,-0.8846214922662824,-0.30798060162048785
1782836841656124700,2.325124755859375,-1.031094859841466,-0.8963996814087033,-0.3202030639316886
1782836841666053600,2.3350537109375,-1.1919365791827439,-0.8624507231209426,-0.4990596383152529
1782836841675983600,2.344983642578125,-1.2406284216374157,-0.7703580572918057,-0.453301145898737
1782836841685912600,2.35491259765625,-1.2283745047420263,-0.7471867328017949,-0.47180352872963993
1782836841695842000,2.364842041015625,-1.19442430434525,-0.825743406035751,-0.591356484946981
1782836841705771000,2.37477099609375,-1.2283926249206065,-0.8571252903144806,-0.7056316103592515
1782836841715700000,2.384699951171875,-1.1816373034864662,-0.9035003802593797,-0.7425317466028034
1782836841725629700,2.394629638671875,-1.1393220103263855,-1.0754822100352495,-0.6351330828312785
1782836841735559000,2.404558837890625,-1.062439846175909,-1.1665339154440908,-0.6227592658832669
1782836841745488000,2.41448779296875,-0.9077320995450019,-1.055432159370929,-0.6464284568928181
1782836841755416800,2.424416748046875,-0.9455886597305536,-0.950098392239958,-0.5987870002739131
1782836841765347000,2.43434716796875,-1.2377724476844072,-1.0745420796409249,-0.49378546077199276
1782836841775276000,2.444276123046875,-1.3264976098418235,-1.2837557618327438,-0.2924624952973798
1782836841785205000,2.454205078125,-1.3446464299947023,-1.2086216103933751,-0.06490311867371201
1782836841795134000,2.464134033203125,-1.315672264444828,-0.7747865412585437,0.08306958408113568
1782836841805064000,2.47406396484375,-1.1528390790253877,-0.20528817931115625,0.12612992345485835
1782836841814993000,2.483992919921875,-0.9666390465438366,0.20281024489030242,0.16045356027390806
1782836841824921900,2.493921875,-0.8044318840682506,0.47088491604737936,0.35134343107212335
1782836841834851000,2.50385107421875,-0.5868827735990285,0.6736770407591015,0.5365592748219147
1782836841844780000,2.513780029296875,-0.33385552251338957,0.9645471888311207,0.6224292302113026
1782836841854709800,2.523709716796875,0.03404840007424354,1.283745386569202,0.5797476610220968
1782836841864638700,2.533638671875,0.43322365923821926,1.528491716043651,0.5942137010090053
1782836841874568000,2.54356787109375,0.7205775428175926,1.649191102349758,0.47032326357662674
1782836841884497000,2.553496826171875,1.0355354726374149,1.6505607832677662,0.5282526342475786
1782836841894427000,2.563427001953125,1.364298640447855,1.6620255956120789,0.6319910584785043
1782836841904356000,2.573356201171875,1.6196265696913004,1.6452596081197262,0.6919978564780205
1782836841914285000,2.58328515625,1.6827759765654802,1.5684842653445898,0.7547968424793332
1782836841924213800,2.5932138671875,1.544582726883888,1.4190307859800755,0.664825114326924
1782836841934142700,2.603142822265625,1.6161726298451422,1.270796473146975,0.5537930990217254
1782836841944073000,2.613072998046875,1.7237778490394353,1.2851017696142195,0.5331681345462799
1782836841954002000,2.623001953125,1.4977368045568464,1.3492233825214206,0.48704069921951737
1782836841963931000,2.632930908203125,1.3443302036523819,1.3196265550285577,0.4769938273817301
1782836841973860000,2.642860107421875,0.9764496619403362,1.1846192419067025,0.39152847073785957
1782836841983789800,2.652789794921875,0.6864402954161166,1.1159637849621473,0.31936127934530373
1782836841993718800,2.66271875,0.0576741903334856,1.0965969673216343,0.23546130885463207
1782836842003647700,2.672647705078125,-0.4038771532446146,0.9524763734176754,0.2360495205387473
1782836842013577000,2.682576904296875,-0.5940244620472193,0.8319980825163423,0.25029578029513355
1782836842023507000,2.6925068359375,-0.8745920464873314,0.8240501922518014,0.09769476015251129
1782836842033436000,2.702435791015625,-0.9480050732225179,0.8724633638955652,-0.08638901082742959
1782836842043365000,2.712365234375,-0.7834586541444063,0.9276621770914644,-0.23421275183195248
1782836842053293800,2.7222939453125,-0.6959218249887228,0.8480935503359883,-0.37474692035019397
1782836842063222800,2.732222900390625,-0.5109545491725206,0.5968641424525529,-0.370826166709885
1782836842073153000,2.742153076171875,-0.26883213846087456,0.2347269666980952,-0.2018278097242117
1782836842083082000,2.75208203125,0.019066519519686697,-0.10641337906122207,-0.05438614510614424
1782836842093011000,2.762010986328125,0.23732523956298826,-0.36479265869930383,0.03488850416019559
1782836842102940000,2.77193994140625,0.648514761647582,-0.5944362577185034,0.17574837923515588
1782836842112870000,2.781869873046875,0.8656903626292943,-0.7120587938625365,0.3168762941291556
1782836842122798800,2.791798828125,0.942889337643981,-0.7977396198879927,0.4052177907312289
1782836842132727800,2.801727783203125,1.051578260421753,-0.8935741025939583,0.3894322656435892
1782836842142657000,2.811656982421875,0.9891460619062185,-0.9735168233588337,0.3634241468250751
1782836842152586000,2.8215859375,0.9325082288831472,-1.1072891878582536,0.41343419573884455
1782836842162516000,2.831515869140625,0.9248772956132888,-1.2016986792623996,0.43860034730788316
1782836842172445000,2.84144482421875,0.7040823350906371,-1.2445216296836734,0.4771339299721643
1782836842182374000,2.851373779296875,0.4277881901860237,-1.3145014670997857,0.4842493880005553
1782836842192302800,2.861302734375,0.20880875465273857,-1.4010294114738702,0.35806404456403107
1782836842202232800,2.87123291015625,-0.05802665703296661,-1.4209452412992716,0.3335615080028772
1782836842212162000,2.881162109375,-0.13425298762321472,-1.3737107580460608,0.41517439046967775
1782836842222091000,2.891091064453125,-0.26686989847719667,-1.269787588365376,0.4441902397368103
1782836842232020000,2.90102001953125,-0.46546880928277967,-1.1961455751799046,0.44380379770249123
1782836842241950000,2.910949951171875,-0.5230839629054069,-1.1773860027175396,0.3678331589063629
1782836842251879000,2.92087890625,-0.5512555799007416,-1.0905668203119188,0.35591267521642145
1782836842261807900,2.930807861328125,-0.44000995837748047,-0.9879792100839316,0.3763401808910072
1782836842271736800,2.94073681640625,-0.29207331331670283,-0.8840274718958884,0.36266014018263665
1782836842281666000,2.950666015625,-0.30642157214283944,-0.8084766294144093,0.3792508076407015
1782836842291596000,2.960595947265625,-0.3391086207360029,-0.7829583034068346,0.435679053033702
1782836842301525000,2.97052490234375,-0.48257075073122974,-0.7734918252728878,0.45157132643144576
1782836842311453700,2.98045361328125,-0.7000239996105432,-0.7080716969877481,0.49014462005160747
1782836842321383000,2.9903828125,-0.7431015093147755,-0.5479504008755087,0.44818796760346735
1782836842331313000,3.00031298828125,-0.7937906630665064,-0.31681144873201844,0.4836793695602566
1782836842341241900,3.010241943359375,-0.8577987325966357,-0.14945771714821457,0.5372958820007742
1782836842351171000,3.020171142578125,-0.8776502650141715,-0.09604520284719764,0.5283577385898679
1782836842361100000,3.03010009765625,-0.9263514598190784,-0.06827091460637748,0.4644412563333288
1782836842371029000,3.040029052734375,-0.7825123132050037,-0.08264430787377058,0.42176735899392515
1782836842380959000,3.049958984375,-0.4761871871739626,-0.09062471216842531,0.3837961959853768
1782836842390888000,3.059887939453125,-0.21518238133788106,-0.09027341451272368,0.39040089148003604
1782836842400817000,3.06981689453125,-0.0844482154905796,-0.14529628661982713,0.38306868542842565
1782836842410745900,3.079745849609375,-0.09933364993333815,-0.28777970777601003,0.3342831002756953
1782836842420676000,3.089676025390625,-0.30073358963429925,-0.4592142789326608,0.2894229997373186
1782836842430605000,3.09960498046875,-0.7178764671653509,-0.6026537587046623,0.04140899197012186
1782836842440533800,3.10953369140625,-1.0390531253695487,-0.667843731495738,-0.2774362093455158
1782836842450462700,3.119462646484375,-1.4666402400255203,-0.699173081869632,-0.3411746864203363
1782836842460392000,3.129391845703125,-2.0279221239000558,-0.7753608340151608,-0.3345426279947161
1782836842470322000,3.139322021484375,-2.2296429661184547,-0.7956905784036964,-0.3398190340276807
1782836842480251000,3.1492509765625,-2.2058944262623785,-0.5792012791857123,-0.2895436487086117
1782836842490180000,3.15918017578125,-1.9597534275591373,-0.3147802351653576,-0.09956329397074877
1782836842500109000,3.169109130859375,-1.4488169985651969,-0.012282996859401464,0.21828633870258926
1782836842510038800,3.179038818359375,-0.9114987586021422,0.2873817944996059,0.44808045210838315
1782836842519968000,3.188968017578125,-0.44724107867479324,0.5671986336376518,0.5168745503386483
1782836842529897000,3.19889697265625,-0.19945114372074602,0.7663035942692309,0.5341087763972581
1782836842539826000,3.208825927734375,0.14148469244241713,0.7606595239676535,0.6234922563329338
1782836842549755000,3.2187548828125,0.6309288360744715,0.7132256456848234,0.7143694819577038
1782836842559684900,3.228684814453125,0.9957634342193603,0.8215714541133493,0.7978881615132093
1782836842569613800,3.23861376953125,1.272177990633249,0.9457509376201778,0.8322134057674556
1782836842579542800,3.248542724609375,1.5601304246276617,0.9412433240026234,0.7473557326931506
1782836842589471700,3.2584716796875,1.7149398780673741,0.9069115038771182,0.6816578834451734
1782836842599402000,3.268402099609375,1.6789765842825173,0.939357802516967,0.629212825936824
1782836842609331000,3.2783310546875,1.5947528251975773,0.9596586861371993,0.5384500935371965
1782836842619260000,3.288260009765625,1.277972940647602,0.9299905469737947,0.4429125479511916
1782836842629189000,3.298189208984375,1.0177157383084297,0.900118994192779,0.3993799879558384
1782836842639118800,3.308118896484375,0.7733738979816436,0.9102744044389576,0.37346290842164304
1782836842649047800,3.3180478515625,0.2713403218895197,0.9287608590483665,0.09172454490279779
1782836842658977000,3.32797705078125,-0.3338362332910299,0.8204348512988537,-0.34493491573669016
1782836842668906000,3.337906005859375,-0.8453653674811125,0.5182276089154183,-0.7970935040041803
1782836842678835000,3.3478349609375,-1.172605855768919,0.10078589456826448,-1.040884870841354
1782836842688765000,3.357764892578125,-1.4902432339310645,-0.2491800010729581,-1.2475047371476888
1782836842698693000,3.367693115234375,-1.6018799005985258,-0.5066357361253351,-1.5830977509781716
1782836842708622300,3.377622314453125,-1.364313253495097,-0.583323985138908,-1.72859957010746
1782836842718551000,3.387551025390625,-0.9097194739699364,-0.5027423819486051,-1.552889659719169
1782836842728481000,3.39748095703125,-0.33691374104022975,-0.4025838254984468,-1.2604327539123594
1782836842738410200,3.40741015625,0.12294658071100711,-0.38066871161460875,-1.0378582164965569
1782836842748339200,3.417339111328125,0.549527733194828,-0.3816013162896037,-0.7998973824437707
1782836842758268200,3.42726806640625,0.7270616441398858,-0.2584273565635085,-0.7050319639656693
1782836842768197000,3.437197021484375,1.0040601379215717,-0.1676744149055332,-0.6755820706628263
1782836842778127000,3.447127197265625,1.4057839125245808,-0.13691110091656444,-0.4063462102392688
1782836842788056000,3.45705615234375,1.6180273178011177,-0.09531666937693953,-0.13043383119385688
1782836842797985000,3.466985107421875,1.7647569251596926,-0.14842274807728825,-0.07566416666284204
1782836842807914000,3.4769140625,1.8874784649431704,-0.23989399407245218,-0.08934782410040497
1782836842817844200,3.48684423828125,1.8681757985800505,-0.28551293188780547,-0.025434374051168558
1782836842827773200,3.496773193359375,1.7922832299888134,-0.35681992625445125,-0.02089461172968149
1782836842837702100,3.5067021484375,1.6710948911219834,-0.43487544503323733,-0.03541190697979182
1782836842847631000,3.516631103515625,1.3866525110751389,-0.4712463697709143,-0.10104955047313123
1782836842857560000,3.52656005859375,1.2145879714518786,-0.44150574989318847,-0.1436818371605128
1782836842867490000,3.536489990234375,1.0054588988035917,-0.408619087074697,-0.15239333220869303
1782836842877419300,3.546419189453125,0.7353735454112291,-0.44640550463348627,-0.11242960714343934
1782836842887348200,3.55634814453125,0.3863251299411058,-0.5225144193891436,-0.15828498406317085
1782836842897277200,3.566277099609375,0.13495733650028705,-0.5998918927758932,-0.3093975557463243
1782836842907207200,3.576207275390625,-0.04817746319174766,-0.6599730711858719,-0.4599839115982875
1782836842917136100,3.58613623046875,-0.20288988599777222,-0.7001504755344241,-0.5912089297024533
1782836842927065000,3.596065185546875,-0.313794731259346,-0.78263097114861,-0.6736451112508773
1782836842936994000,3.605994140625,-0.38963995357751846,-0.9790821293357759,-0.7993180481858551
1782836842946923000,3.615923095703125,-0.3369534885287285,-1.197933627640456,-0.8501927145723253
1782836842956853200,3.625853271484375,-0.28316169258654117,-1.3074806285522877,-0.8460903938200325
1782836842966782200,3.6357822265625,-0.18748247350752353,-1.2819292770579456,-0.7525844271268695
1782836842976711000,3.6457109375,-0.13205109366476536,-1.2235728035487234,-0.6530230328522623
1782836842986640100,3.65564013671875,-0.20960487346649168,-1.1825851057305932,-0.6535732140809297
1782836842996570000,3.665570068359375,-0.4773305119901895,-1.1690711057715117,-0.6960217782318592
1782836843006499000,3.6754990234375,-0.6790718124747276,-1.1355883767560124,-0.5397885025341064
1782836843016428300,3.68542822265625,-0.8784165732115506,-1.0124245000325143,-0.4066796434447169
1782836843026357200,3.695357177734375,-1.0622656586527823,-0.8109837899297475,-0.3356884004963562
1782836843036286200,3.7052861328125,-1.223770225816965,-0.6381338720824569,-0.33795309402532875
1782836843046216200,3.71521630859375,-1.3595786261886358,-0.4834107817519456,-0.4069982809398323
1782836843056145200,3.725145263671875,-1.4193465739309787,-0.4118177369855344,-0.43772531803902237
1782836843066074000,3.73507421875,-1.4688742826879024,-0.48297158661708234,-0.4095020439216867
1782836843076003000,3.745003173828125,-1.510246157518029,-0.5972180704567581,-0.3912176146904006
1782836843085933300,3.754933349609375,-1.5095593442976474,-0.6567612695325166,-0.40308107096347956
1782836843095862300,3.7648623046875,-1.5896780061513185,-0.6569508738204837,-0.44569341084137554
1782836843105791000,3.774791015625,-1.937149966084957,-0.6220340934138745,-0.5651213159069418
1782836843115720000,3.784719970703125,-2.339821835193038,-0.6974988650470971,-0.5613517707729712
1782836843125649200,3.794649169921875,-2.6559891408026215,-0.8088387407250702,-0.4342401793370023
1782836843135579100,3.8045791015625,-2.811066305267811,-0.7514353301569819,-0.38468996648732573
1782836843145508000,3.814508056640625,-2.980209989008307,-0.655497825467959,-0.14293408753313122
1782836843155437300,3.824437255859375,-3.029402182200551,-0.5763137410506606,0.10622952866060659
1782836843165366300,3.8343662109375,-2.7555846565425393,-0.37880825150497255,0.056224923106934874
1782836843175296000,3.8442958984375,-2.3141081327438355,-0.014730828402936458,0.004802669307682663
1782836843185225200,3.85422509765625,-1.8127607853502035,0.27343027990609403,0.08945238045342266
1782836843195154200,3.864154296875,-1.0601228014051913,0.3592410889867693,0.16715347803765906
1782836843205083100,3.874083251953125,-0.2505290045291185,0.3659524231936782,0.18055775227826087
1782836843215012000,3.88401220703125,0.5830179148644209,0.459785502949357,0.17691329482868312
1782836843224942000,3.893942138671875,1.4543085817188024,0.6806331435073166,0.16845606680251657
1782836843234871000,3.90387109375,1.8187141407966612,0.7110625493668019,0.24277327583581207
1782836843244800000,3.913800048828125,2.134777401509881,0.6506888908162712,0.39280627212133257
1782836843254729000,3.92372900390625,2.382882978284359,0.7049215623937547,0.31857721629552543
1782836843264659200,3.9336591796875,2.543702485793829,0.9674839729353785,0.31056820696089416
1782836843274588200,3.943588134765625,2.5778315498888493,1.2143198220349847,0.3155358027730137
1782836843284517000,3.95351708984375,2.4117577751129864,1.2660353962250053,0.35989681294914333
1782836843294446300,3.9634462890625,2.229450073894858,1.1715073930077253,0.5220925041826442
1782836843304375300,3.973375244140625,2.2092028201580045,1.1318655568405984,0.5114643618581817
1782836843314305000,3.983304931640625,2.1402204693466422,1.2569151011802255,0.5164756506815552
1782836843324234200,3.993234130859375,1.984289902922511,1.386120888416469,0.5196587376970797
1782836843334163200,4.0031630859375,1.823522417861223,1.3528152695335447,0.5673402340654283
1782836843344092200,4.013092041015625,1.3537971201777457,1.169854511234164,0.5425052872121334
1782836843354022100,4.023022216796875,0.966505775552988,0.95728421209082,0.45711244781520216
1782836843363951000,4.032951171875,0.5670937850236892,0.8353229891553521,0.4034805551424622
1782836843373880000,4.042880126953125,0.08112228593826293,0.8476948333419859,0.3432638772519305
1782836843383809000,4.05280908203125,-0.43532793804109093,0.8295756776750087,0.2683899476513266
1782836843393738000,4.062738037109375,-0.9095593149721622,0.712306411948055,0.21390169387757776
1782836843403668200,4.072668212890625,-1.0931851130515335,0.5863321539789438,0.14284896653294563
1782836843413597200,4.08259716796875,-0.9984586646527052,0.6353690104790032,0.025568704487942157
1782836843423526100,4.092526123046875,-0.8573930744051933,0.7092100533679128,-0.021679916888475415
1782836843433455000,4.102455078125,-0.7239519876867533,0.6438431896399707,-0.02994936725758016
1782836843443385000,4.112385009765625,-0.4526777167707681,0.4110644344002008,0.0804328423693776
1782836843453314000,4.12231396484375,-0.16963935830295085,0.17529183110669255,0.20369510143343358
1782836843463243300,4.1322431640625,0.13520166665017605,0.0477794037848711,0.2706512071141973
1782836843473172200,4.142172119140625,0.5029810860753059,0.029717239002138376,0.36561234105173496
1782836843483101200,4.15210107421875,0.7848346186727285,0.03494154952168464,0.48043812261670826
1782836843493031000,4.162031005859375,0.8870283342123031,-0.10789631109535694,0.5881097215780988
1782836843502960000,4.171960205078125,0.9419675466239452,-0.3311471403375268,0.6240168647289276
1782836843512889000,4.18188916015625,0.9702847095698117,-0.4139439353592694,0.5451005278697237
1782836843522818000,4.191818115234375,0.9246300428539515,-0.39316885835602877,0.5056230519514531
1782836843532747000,4.2017470703125,0.8561901283562183,-0.46712454060055314,0.5459058894358575
1782836843542677200,4.21167724609375,0.7561141356229781,-0.6169694304354488,0.5960260476605966
1782836843552606200,4.221606201171875,0.6897486893117427,-0.749119892821461,0.5576826538061723
1782836843562535200,4.23153515625,0.503305495724082,-0.7751406153932213,0.4710517605142668
1782836843572464000,4.241464111328125,0.36198446941077705,-0.8181240901384502,0.461771708330512
1782836843582394000,4.25139404296875,0.3263473388403654,-0.8457024174157529,0.5007368873450905
1782836843592323000,4.261322998046875,0.16499883902072907,-0.8596787011243402,0.5557421872628853
1782836843602252300,4.271252197265625,-0.004297404932975769,-0.9023671384457498,0.5825460595689713
1782836843612181200,4.28118115234375,-0.1388286249756813,-0.9496673073463141,0.4725217234689742
1782836843622110200,4.291110107421875,-0.204615394616127,-0.9950601082555949,0.3548584169231355
1782836843632040000,4.3010400390625,-0.3478314408957958,-0.9907178412675857,0.4051418394181877
1782836843641969200,4.31096923828125,-0.4687643436968326,-0.9860931040763854,0.46149037063848225
1782836843651898000,4.320898193359375,-0.641364305371046,-0.9174871853619814,0.39397202796507624
1782836843661827000,4.3308271484375,-0.9161346017092465,-0.7912256348840891,0.4128752832144499
1782836843671757300,4.34075732421875,-1.2335071914553641,-0.6256083717040717,0.30728933142069725
1782836843681686300,4.350686279296875,-1.3445803790211677,-0.4325382342573255,0.28054708964135494
1782836843691615200,4.360615234375,-1.4239192886739969,-0.23572438023760914,0.4037856390362605
1782836843701548300,4.37054833984375,-1.3545534915030002,-0.07932385821416973,0.5053831422483548
1782836843711477200,4.380477294921875,-1.1703554464936257,0.0278643046118319,0.5505750502906739
1782836843721407500,4.390407470703125,-1.0109276856034994,0.06290200798436998,0.5172620152862742
1782836843731336400,4.40033642578125,-0.739821756991744,0.026314737082272766,0.5013858162404969
1782836843741265400,4.410265380859375,-0.5177583839684724,-0.05031199100241065,0.5064803994331508
1782836843751194400,4.4201943359375,-0.42669221164286136,-0.15978315019905567,0.5046627190193161
1782836843761124400,4.430124267578125,-0.5285831448435783,-0.2936624822042882,0.4901126540107652
1782836843771053300,4.44005322265625,-0.6366004519701004,-0.45488136429488657,0.30181210558600724
1782836843780982500,4.449982421875,-0.8774018432110547,-0.4920616326540708,0.06802369837965816
1782836843790911500,4.459911376953125,-1.5560960545450448,-0.5199642234496772,-0.14017163708247243
1782836843800840400,4.46984033203125,-2.0680033743977546,-0.5566230982832611,-0.22552343208296224
1782836843810770200,4.479770263671875,-2.5929595609158276,-0.5638939660690725,-0.24546288024596868
1782836843820699400,4.489699462890625,-2.799727165129781,-0.42066681387349963,-0.2821135717730969
1782836843830628400,4.49962841796875,-2.5992899329811334,-0.13384477214850485,-0.32683373411782085
1782836843840557300,4.509557373046875,-2.11681913549304,0.19294132343530654,-0.20658165318779645
1782836843850486300,4.519486328125,-1.3234089961767197,0.3968055343579501,0.04407928889160975
1782836843860416500,4.52941650390625,-0.648994069597125,0.49561669478714465,0.23971341334115712
1782836843870345500,4.539345458984375,-0.17923779225349426,0.5503892453949898,0.3021729017224163
1782836843880274200,4.549274169921875,0.34508594157993794,0.5615414115935564,0.32617483181767165
1782836843890203400,4.559203369140625,0.6754284875363111,0.5905952913161366,0.5469278163621202
1782836843900133400,4.56913330078125,0.7487129194557667,0.681737086161226,0.7992515588209033
1782836843910062300,4.579062255859375,0.848113204884529,0.8256777203883975,0.7028528663609176
1782836843919991600,4.588991455078125,1.035406293299794,1.0501780382350085,0.48740924027096477
1782836843929920500,4.59892041015625,1.1142600497841835,1.3734765108987688,0.4638326594483107
1782836843939849500,4.608849365234375,1.119950954902172,1.5335586440443991,0.5238127886366098
1782836843949779200,4.618779296875,1.214768004193902,1.3916840755015611,0.47682859035003927
1782836843959708400,4.62870849609375,1.2749901254445313,1.1691535964231938,0.26082725731208917
1782836843969637400,4.638637451171875,1.2871680544942616,1.0289656657930464,-0.019029110118746757
1782836843979566300,4.64856640625,1.3630010018527507,0.9182475022099912,-0.2495593557793647
1782836843989496600,4.65849658203125,1.326983347532153,0.7990844586256891,-0.4709398611050099
1782836843999425500,4.668425537109375,1.2494243070334194,0.6198028272304683,-0.7360111126624047
1782836844009354200,4.678354248046875,0.8994079233139752,0.3987014311071485,-1.023613783371076
1782836844019283200,4.688283203125,0.41007308527529235,0.0940371509604156,-1.3788715018101037
1782836844029212400,4.69821240234375,0.04235562517046928,-0.18817396290302277,-1.5854872764632104
1782836844039142400,4.708142333984375,-0.3921516441375017,-0.38163478016778823,-1.6206572279132903
1782836844049071400,4.7180712890625,-0.7095242338836193,-0.5564172004476189,-1.6033881132043897
1782836844059000600,4.72800048828125,-0.7614601728260517,-0.6677642365187406,-1.5217401959568262
1782836844068929500,4.737929443359375,-0.7229045244604348,-0.5922043339479715,-1.3986170896351338
1782836844078858500,4.7478583984375,-0.39803193434774875,-0.43814189948327836,-1.268410016401857
1782836844088788200,4.757788330078125,0.11996493455171585,-0.34151765463910994,-0.9465141040123999
1782836844098717400,4.767717529296875,0.2841536262333393,-0.37663697188049555,-0.5559881979132071
1782836844108646400,4.777646484375,0.47198915096223354,-0.5309788078084587,-0.3269721196752041
1782836844118575400,4.787575439453125,0.9077215781509875,-0.5658425428535789,-0.2473546122767031
1782836844128505300,4.79750537109375,1.0910007547497749,-0.5004903652381152,-0.15580182547792792
1782836844138434300,4.807434326171875,1.064030330237746,-0.5283046201631426,-0.0771896957296878
1782836844148363300,4.81736328125,1.2328759078145026,-0.6763178375914692,0.04356397804692387
1782836844158292200,4.827292236328125,1.349930507877469,-0.7322668115675449,0.1744133677717298
1782836844168221400,4.837221435546875,1.175062016749382,-0.7136150833938271,0.26685641794111575
1782836844178151400,4.8471513671875,1.032170964640379,-0.7142961244605481,0.21518238133788106
1782836844188080400,4.857080322265625,0.7595698290348053,-0.7063469190217554,0.08071670081205666
1782836844198009600,4.867009521484375,0.4184194733381271,-0.671811977539584,-0.015126878515817224
1782836844207938600,4.8769384765625,0.1596890421748161,-0.625197452815622,-0.08461801909953355
1782836844217868300,4.886868408203125,-0.14030220465958118,-0.6427032258246094,-0.09865870981384069
1782836844227797200,4.89679736328125,-0.409876101398468,-0.676065104939416,-0.08446885641980915
1782836844237726500,4.9067265625,-0.5390723901540041,-0.6623891924168914,-0.12652805592697114
1782836844247655400,4.916655517578125,-0.6265285552889108,-0.6130941964372992,-0.23415070118010042
1782836844257584400,4.92658447265625,-0.6470312450915575,-0.5933823647513985,-0.3487364999767393
1782836844267514400,4.936514404296875,-0.5370341623246669,-0.6374724124990403,-0.407164869678393
1782836844277443300,4.946443359375,-0.37430677536726,-0.6975489877991378,-0.4370878238530829
1782836844287372300,4.956372314453125,-0.25769290480911733,-0.8006206552170216,-0.4171071120979264
1782836844297301200,4.96630126953125,-0.18127718912661075,-0.9315076735384762,-0.4236764805508777
1782836844307230500,4.97623046875,-0.07729483660459519,-1.0564038539472966,-0.5539439422018826
1782836844317160400,4.986160400390625,-0.05477554628252983,-1.1268455367214978,-0.6691571521818638
1782836844327089400,4.99608935546875,0.05040858324468136,-1.1482828770257532,-0.6205841138012707
1782836844337018400,5.006018310546875,0.2481727967917919,-1.1651409997809679,-0.5206073436588049
1782836844346947300,5.015947265625,0.3893272343665361,-1.0994615629725157,-0.45002815211005504
1782836844356877300,5.025877197265625,0.272689982932806,-1.0660911352250724,-0.44279695874750613
1782836844366806300,5.03580615234375,0.27241467312276363,-1.0836554334882647,-0.343491731191054
1782836844376735500,5.045735595703125,0.11727087316215037,-1.0873840986225753,-0.40039289132542905
1782836844386664400,5.05566455078125,-0.14468085813522338,-0.9678685152735561,-0.4761462706416845
1782836844396593400,5.065593505859375,-0.27283435983955856,-0.8592757463466375,-0.2675640912864357
1782836844406523400,5.0755234375,-0.32886779722869397,-0.7260243369814008,-0.3762012108117342
1782836844416452400,5.085452392578125,-0.5451654463320971,-0.496444085521996,-0.4773104921154678
1782836844426381300,5.09538134765625,-0.8482038057774305,-0.3688255674771964,-0.6284218947548419
1782836844436310300,5.105310302734375,-0.9850099850147962,-0.36674912652932107,-0.7069021417517215
1782836844446239500,5.115239501953125,-1.0605167691588402,-0.43563262007609005,-0.7666547457944601
1782836844456169500,5.12516943359375,-1.2180506791263819,-0.46437589947953817,-0.7845902885228395
1782836844466098400,5.135098388671875,-1.3788947365552187,-0.5089883636660874,-0.8099397607695311
1782836844476027400,5.14502734375,-1.5065297673434017,-0.510582135663554,-0.8933805527832358
1782836844485956400,5.154956298828125,-1.736365527933836,-0.4663980529569089,-0.9919434375397861
1782836844495886300,5.16488623046875,-2.0117986720949412,-0.5112008520837873,-0.9918038829386233
1782836844505815300,5.174815185546875,-2.2849691320210694,-0.5637218243725598,-0.8875230589266866
1782836844515744500,5.18474462890625,-2.631193722242117,-0.584630903019011,-0.9416377301476895
1782836844525673500,5.194673583984375,-2.866412929436564,-0.5360613717697561,-1.034076798261702
1782836844535602400,5.2046025390625,-3.049409197440743,-0.4700596442043781,-1.1833072825253008
1782836844545532400,5.214532470703125,-2.7673195179998875,-0.37970556567087765,-1.1101465500507504
1782836844555461400,5.22446142578125,-2.2471067266166207,-0.16175525398962198,-0.8199263903200625
1782836844565390300,5.234390380859375,-1.7068512641578912,0.03477510691359639,-0.5101418445501477
1782836844575319300,5.2443193359375,-0.9703151047080755,0.21767544026263058,-0.48170850787870584
1782836844585249500,5.25424951171875,-0.006438508614897727,0.4945153824817389,-0.5195501627560705
1782836844595178200,5.26417822265625,0.79339201913774,0.8491915747057646,-0.3794114780951291
1782836844605107200,5.274107177734375,1.2737825032204388,1.09772874783054,-0.073594082390517
1782836844615036400,5.284036376953125,1.6920184366852045,1.145437862858176,0.1376013482030481
1782836844624965400,5.29396533203125,2.01866329716742,1.1634861452460288,0.07758709754943847
1782836844634895400,5.303895263671875,2.299032144165039,1.3137955107875168,-0.049618674976006145
1782836844644824300,5.31382421875,2.382757306078076,1.6008761303834615,0.06046864335760474
1782836844654752500,5.32375244140625,2.457113751143217,1.713919887369871,0.14855901474282143
1782836844664681500,5.333681396484375,2.2984359318375587,1.6576402201347051,0.04070661585442722
1782836844674610400,5.3436103515625,2.2557424530148507,1.6105778785780072,0.13689290767274795
1782836844684539400,5.353539306640625,1.94395146279335,1.529358123614639,0.1776975770741701
1782836844694469400,5.363469482421875,1.466280759063363,1.450095201807469,0.18033011753484607
1782836844704398000,5.373398193359375,1.0905512574166059,1.374887108349055,0.15943126802146435
1782836844714327300,5.383327392578125,0.6917156054705381,1.4207630166001617,0.05908749119751155
1782836844724256300,5.39325634765625,0.10007307012379169,1.479528801562637,-0.013321034670248626
1782836844734186200,5.403186279296875,-0.4323112205684185,1.393789815609157,-0.04011566422395408
1782836844744115500,5.413115478515625,-0.762858349186182,1.2326346464045346,-0.16635149573870003
1782836844754044400,5.42304443359375,-0.9826485165804624,1.1482296855337917,-0.24400785913206635
1782836844763973000,5.43297314453125,-0.9575690203815698,1.1456588121324778,-0.14270422430001198
1782836844773902000,5.442902099609375,-0.8490209673792123,1.1159940339699388,-0.1322626905888319
1782836844783832300,5.452832275390625,-0.5623410375386476,0.997773093541339,-0.16536051193997264
1782836844793761300,5.46276123046875,-0.13451660699546336,0.8815159274663775,-0.1784442307230085
1782836844803690200,5.472690185546875,0.04821837972402572,0.6797253810126334,-0.1121167783346027
1782836844813619500,5.482619384765625,0.2494055534571409,0.32393662443682547,-0.05297646097131073
1782836844823548400,5.49254833984375,0.5657710119873285,0.01511091376170516,0.008716390419006348
1782836844833478100,5.50247802734375,0.8351958556443453,-0.09734729842171072,0.11310790826380253
1782836844843407000,5.512406982421875,0.9630033203899859,-0.13569105760231615,0.28066169246435163
1782836844853336300,5.52233642578125,0.9275362856894731,-0.2869297398831695,0.3185793351873755
1782836844863265300,5.532265380859375,1.1092752471089362,-0.39747583483494814,0.3919776027448475
1782836844873195300,5.5421953125,1.0226707303673028,-0.34703634499534963,0.46745793727338314
1782836844883124200,5.552124267578125,0.822637402844429,-0.35371991441249845,0.48179362887889143
1782836844893053200,5.56205322265625,0.7092009932786226,-0.5402661299832165,0.44180955514535303
1782836844902982100,5.571982177734375,0.559565143084526,-0.7077502099484205,0.3779247466687113
1782836844912911000,5.5819111328125,0.4673328495889902,-0.8184717345323413,0.42773857889063654
1782836844922841300,5.59184130859375,0.3186258046776056,-0.9385623412903398,0.46963060513734817
1782836844932770300,5.601770263671875,0.06229366682767868,-1.0874585520982742,0.43385830387994645
1782836844942699300,5.61169921875,-0.07198094810545444,-1.2029285863835364,0.3605709493510425
1782836844952628500,5.62162841796875,-0.21557518004775045,-1.2427975823700428,0.36311968398578465
1782836844962557400,5.631557373046875,-0.4585539153277874,-1.2586806495480238,0.2700576982004568
1782836844972487200,5.641487060546875,-0.43787645348012444,-1.265857117048651,0.11012702928949147
1782836844982416100,5.651416015625,-0.4012964891016483,-1.2007063072241841,0.028382921658456323
1782836844992345300,5.661345458984375,-0.33796061974465846,-1.140474541362375,0.05274542869441211
1782836845002274300,5.6712744140625,-0.45393268526792524,-1.1942626840427517,0.19932167212218044
1782836845012204300,5.681204345703125,-0.5740870049118996,-1.358827661690861,0.335727490397729
1782836845022133200,5.69113330078125,-0.6166501353532076,-1.421774093338847,0.3704373865880072
1782836845032062200,5.701062255859375,-0.6353904916584492,-1.2644319065511227,0.36266963866334406
1782836845041991200,5.7109912109375,-0.6903256124168634,-1.0516720761850475,0.46768769090864803
1782836845051920100,5.720920166015625,-0.8135100935369729,-0.8880792315047233,0.5154515683308244
1782836845061850400,5.730850341796875,-0.9350433003187179,-0.7064841355353594,0.4698909365739673
1782836845071779300,5.740779296875,-1.1469541126400231,-0.49341122063212095,0.41481870889980343
1782836845081708300,5.750708251953125,-1.2756664172708987,-0.32755006569363176,0.46149110129084436
1782836845091637200,5.76063720703125,-1.2110118665307759,-0.218322286798805,0.5326187570352107
1782836845101566200,5.770566162109375,-1.1186217521250248,-0.13736512829437852,0.5504499991388991
1782836845111496200,5.78049609375,-0.9109189128875732,-0.12423778956532477,0.5033423936683684
1782836845121425200,5.790425048828125,-1.0096931753724814,-0.14060454860702157,0.37594255987554787
1782836845131354400,5.800354248046875,-1.3630799123078583,-0.2013756089773029,0.16353468475230037
1782836845141283300,5.810283447265625,-1.5530898584663868,-0.33142851456217465,0.01938267279677093
1782836845151213000,5.820213134765625,-1.9104601120799778,-0.3489369179196656,-0.11337952827941626
1782836845161142300,5.830142333984375,-2.2808728026181457,-0.3007527327261865,-0.2563334530241787
1782836845171071200,5.8400712890625,-2.289787345957756,-0.23602774709835647,-0.2307606751493178
1782836845181000200,5.850000244140625,-2.0968436844348908,-0.11413272126689553,-0.04856586428771261
1782836845190929200,5.85992919921875,-1.893756814560294,0.1387058023136109,0.09062043785210698
1782836845200859400,5.869859375,-1.4356938976198435,0.3560989185035229,0.09388355870074593
1782836845210788400,5.879788330078125,-0.6241676713764667,0.5428522009536624,0.2922895498832688
1782836845220717300,5.88971728515625,-0.11047229906320571,0.7359106479626149,0.5151940133731812
1782836845230646300,5.899646240234375,0.5012976630330086,0.8881021009236574,0.6669094463203102
1782836845240575200,5.9095751953125,0.9089116647183895,0.9843371272545307,0.8384907324712723
1782836845250505200,5.919505126953125,1.05928635058105,0.955181906049326,0.9483255373485385
1782836845260434200,5.92943408203125,1.1063742649704218,0.8264348223660141,0.9522380346171557
1782836845270363400,5.93936328125,1.2065437812060118,0.7341784904077648,0.8888049154307692
1782836845280292400,5.949292236328125,1.3925988522589205,0.7298691758412867,0.75165094566904
1782836845290221300,5.95922119140625,1.4962451046943663,0.7743566254086792,0.698798111077398
1782836845300154000,5.969154052734375,1.6080647267132997,0.8001658971868455,0.5284847259704023
1782836845310083000,5.9790830078125,1.6774235096216201,0.7772079962518066,0.499885896538943
1782836845320013300,5.989013427734375,1.703307892462611,0.7492570362698286,0.4405102725824341
1782836845329942300,5.9989423828125,1.5313561655640602,0.6327819896604865,0.36596184860914943
1782836845339871200,6.008871337890625,1.1978063479989767,0.513307907365635,0.23708595091439782
1782836845349800400,6.018800537109375,0.8301385722547769,0.43042328792996704,0.15665928255748002
1782836845359729400,6.0287294921875,0.48584874948859214,0.41165589748732745,0.012993538015242665
1782836845369659100,6.0386591796875,-0.0954319663196802,0.36480931757315993,-0.1495053191496059
1782836845379588400,6.04858837890625,-0.6153729550242424,0.13635865466557442,-0.4252705082766711
1782836845389517300,6.058517333984375,-0.9508622162193059,-0.13432400703281164,-0.7798282617527991
1782836845399446300,6.0684462890625,-1.264274670162797,-0.310347732610628,-1.053944697292149
1782836845409375200,6.078375244140625,-1.4430676412582397,-0.4581024452332407,-1.2698289432890713
1782836845419305200,6.08830517578125,-1.6222130790531635,-0.6471386509887874,-1.4339610824778675
1782836845429234200,6.098234130859375,-1.6020090799361466,-0.8228851670604199,-1.5034398385040462
1782836845439163100,6.1081630859375,-1.0489432357430457,-0.8033405086349695,-1.2897022491469978
1782836845449092000,6.118092041015625,-0.5353671058952808,-0.636195889757201,-1.0326168087117373
1782836845459021300,6.128021240234375,-0.21154490161836145,-0.5517807728186249,-0.8114213776294141
1782836845468951300,6.137951416015625,0.14449030399918555,-0.6111527800459414,-0.685083254783973
1782836845478880300,6.14788037109375,0.4696761978447437,-0.6231354787845165,-0.5788241164363921
1782836845488809500,6.1578095703125,0.819341868430376,-0.508784438591823,-0.4615144091011956
1782836845498738200,6.16773828125,1.0484119053453207,-0.3951343132100999,-0.264494949506782
1782836845508668200,6.177668212890625,1.2356868735820055,-0.42843664415739474,-0.07437704946175218
1782836845518597400,6.187597412109375,1.580707933232188,-0.4601903574232012,0.03129877257253975
1782836845528526300,6.1975263671875,1.722685377627611,-0.34059067598730325,0.015051877050846815
1782836845538455300,6.207455322265625,1.6069214018970728,-0.26098010978624225,-0.06557904517389833
1782836845548384300,6.21738427734375,1.6139005932599304,-0.3394373412337154,-0.11725198579858988
1782836845558314200,6.227314208984375,1.512525208365917,-0.45300577968135475,-0.08691782047450541
1782836845568243200,6.2372431640625,1.26687988422513,-0.5395645575851201,0.03976787369959056
1782836845578172200,6.247172119140625,1.0422767635911703,-0.5792147962544113,0.08802194579150527
1782836845588101000,6.25710107421875,0.7169704582363366,-0.544403668179363,-0.0915649521606043
1782836845598030300,6.2670302734375,0.42339784627258775,-0.5039540227606892,-0.20790073642972856
1782836845607960300,6.276960205078125,0.14041209477484226,-0.5646790520321577,-0.2291635969499126
1782836845617889300,6.28688916015625,0.06621054801046848,-0.7172119388420134,-0.2281935463413596
1782836845627818200,6.296818359375,0.02341828498840332,-0.8667013663027435,-0.24125154616124928
1782836845637747200,6.306747314453125,-0.17555939600169657,-0.9867636968143284,-0.3297679244061932
1782836845647676200,6.31667626953125,-0.34418227073848245,-1.0958450529757886,-0.4814917963881045
1782836845657606400,6.3266064453125,-0.3346984030783176,-1.1235013408601284,-0.7235935296379029
1782836845667535400,6.336535400390625,-0.24479309122562407,-1.0769769786376506,-0.8466923783011734
1782836845677464300,6.34646435546875,-0.17202245404720307,-1.0300224813695997,-0.856998960521072
1782836845687393300,6.356393310546875,-0.23511808490753172,-1.0634389402158557,-0.8042491479124874
1782836845697319000,6.36631884765625,-0.3892196823388338,-1.1636552912678568,-0.7971313517965376
1782836845707249200,6.376249267578125,-0.7095201422303915,-1.255202890434861,-0.8354451542302965
1782836845717178000,6.38617822265625,-1.0601993737727402,-1.1922961332101374,-0.8366185088586062
1782836845727107000,6.396107177734375,-1.19533791205883,-0.9270159881424158,-0.8117879459194839
1782836845737036000,6.4060361328125,-1.278316054996848,-0.5829547865003347,-0.8356612811990082
1782836845746966000,6.415966064453125,-1.2926070306777953,-0.38963323157578705,-0.7966434221491218
1782836845756895000,6.42589501953125,-1.4774135629743337,-0.33670199798569084,-0.8203639780197292
1782836845766824000,6.435823974609375,-1.544939285236597,-0.3781155200004577,-0.7684757506765425
1782836845776753000,6.4457529296875,-1.4257739766299724,-0.32795068238377567,-0.6154159904483706
1782836845786682000,6.45568212890625,-1.3305360715776682,-0.14176073290482163,-0.4128154062533751
1782836845796612000,6.465612060546875,-1.2787445095419883,0.11889379818886518,-0.2780374449079856
1782836845806541000,6.475541015625,-1.70196699924767,0.33707375390753147,-0.22835808925330636
1782836845816470300,6.48547021484375,-2.18349320936203,0.36307986343204973,0.029985169223323463
1782836845826399000,6.49539892578125,-2.5257056413322685,0.32992578184902666,0.38401466104164717
1782836845836328000,6.505327880859375,-2.9290695843577383,0.3725314362578094,0.6703751496694982
1782836845846258200,6.515258056640625,-2.8160663055121895,0.609405571052432,0.8362897152956574
1782836845856187100,6.525187255859375,-2.519223878097534,1.0032435608416794,1.0231970923289655
1782836845866116000,6.5351162109375,-2.1261860987752677,1.3224614861935375,1.1013800368797033
1782836845876045000,6.545045166015625,-1.4906108981996773,1.498115428610891,0.9784392283223569
1782836845885974000,6.55497412109375,-0.7109633267760277,1.5381851348012685,1.0817748804386704
1782836845895904000,6.564904052734375,-0.018462708407640457,1.492502703295648,1.35659128094092
1782836845905833000,6.5748330078125,0.47947220019400116,1.327396458377689,1.4279085044406354
1782836845915762000,6.584761962890625,0.8920803569048643,1.1942900104410945,1.4100726957596839
1782836845925691100,6.594691162109375,1.0769137772083281,1.102805320442468,1.5101187317460774
1782836845935621000,6.60462109375,1.3757266279131173,1.0755630932517348,1.3576907666154205
1782836845945550000,6.614550048828125,1.5985592317432165,1.1739597545959055,1.3543959628537297
1782836845955479000,6.62447900390625,1.8041653909623623,1.2525542756222188,1.3582618445016443
1782836845965408000,6.634407958984375,2.0159236430704595,1.29807684039101,1.3285866910755633
1782836845975337000,6.6443369140625,2.1740759771972895,1.2963241515047847,1.3492379955686629
1782836845985267200,6.65426708984375,2.120688670402765,1.240475276902318,1.32135673982203
1782836845995196200,6.664196044921875,1.9157704934477804,1.201721329485625,1.2507464955478906
1782836846005125000,6.674125,2.1091303345561028,1.1562405580319464,1.1117495282679795
1782836846015054000,6.68405419921875,2.035084855136275,1.0271412999100982,1.2725628982976078
1782836846024983000,6.693983154296875,1.7852356495648622,0.8075824570536613,1.4934721328496932
1782836846034913000,6.7039130859375,1.5672744511634111,0.6349884867288171,1.5157152365788817
1782836846044842000,6.713842041015625,1.316131114128232,0.5708199659399688,1.4210219597972928
1782836846054771000,6.72377099609375,0.8329659046351909,0.5798688031837343,1.2943985902696846
1782836846064700200,6.7337001953125,0.18412614881694317,0.574508591324836,1.0561289094634354
1782836846074629000,6.743629150390625,-0.16489128699302671,0.5127794265121222,0.8975396452240645
1782836846084558800,6.753558837890625,-0.2893804209709167,0.4326470283940434,0.8931360765028744
1782836846094488000,6.763488037109375,-0.5977601414442062,0.35480887869298455,0.7882109632380306
1782836846104417000,6.7734169921875,-0.7862076605916023,0.3011158669501543,0.6244811212398111
1782836846114346000,6.783345947265625,-0.7256886022210121,0.2433741643384099,0.5587497715810313
1782836846124275000,6.79327490234375,-0.509312627184391,0.1119661908827722,0.500902380105108
1782836846134205200,6.803205078125,-0.25986498815119263,-0.0856181360527873,0.4415526577748358
1782836846144134100,6.813134033203125,-0.1430675777196884,-0.2928178480736911,0.4881018987102434
1782836846154063000,6.82306298828125,0.03655307637155056,-0.4224744478173554,0.6270607624694705
1782836846163992000,6.832991943359375,0.30941257065236566,-0.3829515618547797,0.6229096341393887
1782836846173921000,6.842921142578125,0.4692582646936178,-0.1794143178641796,0.6364069752246141
1782836846183851000,6.85285107421875,0.5878261919289827,-0.05665200767889619,0.8214815108075737
1782836846193780000,6.862780029296875,0.6640238809466361,-0.1602472605794668,0.9044072659712284
1782836846203709200,6.872709228515625,0.7415601250916719,-0.28671456276252866,0.9468930933926254
1782836846213638100,6.88263818359375,0.6707412065029144,-0.3693807171419263,1.0302702455855905
1782836846223568000,6.89256787109375,0.563584315598011,-0.4900663671836257,0.958415408077836
1782836846233497000,6.9024970703125,0.45383214750289913,-0.5693631912603974,0.8136641881201416
1782836846243426000,6.912426025390625,0.4190460808038711,-0.5773964947860688,0.7211029549311846
1782836846253355000,6.92235498046875,0.5950011981248855,-0.5168904420275241,0.7669602315470576
1782836846263284000,6.932283935546875,0.6708142717391252,-0.46301213684566317,0.9155561442341655
1782836846273214200,6.942214111328125,0.486980968388915,-0.45846265684776005,0.9894991131275892
1782836846283143200,6.95214306640625,0.35033085649609563,-0.5092126008760184,0.8844963315166533
1782836846293072000,6.96207177734375,0.2075122851014137,-0.5852762882504612,0.7172987403426319
1782836846303001000,6.9720009765625,-0.030166005682945248,-0.6687305242676288,0.6492866958681494
1782836846312930000,6.981929931640625,-0.0837467892229557,-0.8122364203393458,0.6980850674372165
1782836846322860000,6.991860107421875,-0.07711889551579952,-0.9214286895293742,0.6861491304498165
1782836846332789000,7.0017890625,-0.09694237088263034,-0.9900745749279856,0.5316747541833668
1782836846342718200,7.01171826171875,-0.0896463686555624,-1.0745363805525003,0.3476115145348012
1782836846352647200,7.021647216796875,-0.2187941420942545,-1.1819083024475723,0.28126860884893684
1782836846362576100,7.031576171875,-0.39970366695225235,-1.3334943368613719,0.2421322014532983
1782836846372506000,7.041506103515625,-0.5441413639813661,-1.4965911416530608,0.17750643841624258
1782836846382435000,7.05143505859375,-0.6735492496609687,-1.5725043146409095,0.15270068112481386
1782836846392364000,7.061364013671875,-0.7545558002650737,-1.5530118247941136,0.271598972825706
1782836846402293000,7.07129296875,-0.9079384357720613,-1.4617887083411216,0.4456822683928534
1782836846412222200,7.08122216796875,-1.0500170024544,-1.281287179762125,0.5112154651310294
1782836846422152000,7.09115185546875,-1.0156552986472844,-1.1085274244163186,0.5825034625362604
1782836846432081000,7.101080810546875,-0.9792378313541412,-0.9608066871285438,0.7136651330806314
1782836846442010000,7.111010009765625,-0.8774521120935678,-0.870803906250745,0.8041697260007262
1782836846451939000,7.12093896484375,-0.7430185072064399,-0.8739035527665168,0.7820593087404966
1782836846461868000,7.130867919921875,-0.6764075617015362,-0.8822443878713995,0.7803872838750481
1782836846471798000,7.140798095703125,-0.5255974070310593,-0.9156839353322982,0.8908085834033787
1782836846481727200,7.150727294921875,-0.3961205477684736,-0.9488852901231497,0.9843515211060643
1782836846491656200,7.16065625,-0.22847616267502308,-0.9218907540831714,0.997536069915071
1782836846501585000,7.1705849609375,-0.32007424992024897,-0.8210776061818004,0.9269006181344389
1782836846511513900,7.180513916015625,-0.4865753101974725,-0.8176021851561963,0.7334072137743234
1782836846521444000,7.190444091796875,-0.7312474053919314,-0.8548363756597042,0.6110192167941481
1782836846531373000,7.200373046875,-1.2066934188097715,-0.9007715398173779,0.5914034658938646
1782836846541302000,7.210302001953125,-1.7593115192353725,-0.9348854063432663,0.6066072455707937
1782836846551231200,7.220231201171875,-2.173091642335057,-0.9226681681964546,0.6757687523413449
1782836846561160200,7.23016015625,-2.4934540615469216,-0.710128556452319,0.5951609187312424
1782836846571090000,7.24008984375,-2.445382396817207,-0.3072049045402557,0.5613405552592128
1782836846581019100,7.25001904296875,-2.228862629395723,0.1021470268536359,0.6564746346108615
1782836846590948000,7.259947998046875,-1.6822715341746806,0.3629674890987575,0.7440484347760676
1782836846600877000,7.269876953125,-0.7436977216422558,0.6090778734680264,0.7621282813459634
1782836846610807000,7.27980712890625,0.011506313398480414,0.8784975294932722,0.7414987502932548
1782836846620736000,7.289736083984375,0.7293857031732797,1.093220915017277,0.7858338588431477
1782836846630665000,7.2996650390625,1.2447878794044256,1.2009019759267567,0.9166161746811121
1782836846640594000,7.309593994140625,1.5171569598197936,1.2601466304473579,1.0306773650817573
1782836846650523000,7.31952294921875,1.7694594037622213,1.3599462904572486,1.0173697013497351
1782836846660453000,7.329453125,1.7626345261782406,1.5124896986611187,0.9090931587651372
1782836846670382000,7.339382080078125,1.5996692388117313,1.5554386135496199,0.6678713501550256
1782836846680311000,7.34931103515625,1.341039929935336,1.4521074184127152,0.429613688580133
1782836846690240300,7.359240234375,1.008622915792465,1.2191640471957623,0.18454214573930947
1782836846700168700,7.369168701171875,0.8702771058976649,1.0048173860296608,0.019608809702843427
1782836846710098400,7.379098388671875,0.6590729805409908,0.8919621373526752,-0.08437518678698688
1782836846720027400,7.38902734375,0.37572014929652214,0.7786034691981971,-0.20053345906473696
1782836846729956400,7.398956298828125,-0.2094090586334467,0.5629759744413196,-0.428839781598188
1782836846739885600,7.408885498046875,-0.7443237445861101,0.20927593377307055,-0.8518068717706948
1782836846749814500,7.418814453125,-0.8906956245481967,-0.051946021945029494,-1.0593520362284035
1782836846759744500,7.42874462890625,-1.1255769780904055,-0.13924129742980002,-1.002035573291406
1782836846769673500,7.438673583984375,-1.1383505349457264,-0.1549206587292254,-0.8479642979331314
1782836846779602400,7.4486025390625,-0.9754752639502287,-0.11377470160946249,-0.7433570915110409
1782836846789531400,7.458531494140625,-0.782189072600007,-0.026062223625928162,-0.5971868716008961
1782836846799460400,7.46846044921875,-0.6078858141392469,-0.016521072820574044,-0.3319741657461971
1782836846809390600,7.478390625,-0.15608721829056738,-0.06110387252122163,-0.004141355854738503
1782836846819319600,7.488319580078125,0.21962416317760944,0.005840250460803508,0.24403578831860795
1782836846829248500,7.49824853515625,0.5366904634535312,0.15325082582086325,0.4013279436858371
1782836846839177700,7.508177734375,0.9724410108208655,0.2591200150027871,0.6244806828483939
1782836846849106400,7.5181064453125,1.13586339430511,0.30352175904810424,0.788638394869864
1782836846859036400,7.528036376953125,1.1887889288067817,0.2556945705987513,0.7257583795215934
1782836846868965600,7.537965576171875,1.3415309283226728,0.20456103408038614,0.6816704506658017
1782836846878894600,7.54789453125,1.4526935477375984,0.16267448772639034,0.7708626458130776
1782836846888823600,7.557823486328125,1.4143348832488059,0.0753257284887135,0.7317692373089492
1782836846898752500,7.56775244140625,1.2562374941796064,-0.04139803218469024,0.6343100760105997
1782836846908682500,7.5776826171875,1.1016109960913658,-0.1335163439117372,0.5240169329065829
1782836846918611500,7.587611572265625,0.9389707028955221,-0.11568740336298942,0.4404790006613359
1782836846928540400,7.59754052734375,0.7059329313933849,-0.05884060376435518,0.3678735274493694
1782836846938469400,7.607469482421875,0.5255635047614574,-0.13119856848865746,0.18061269733589141
1782836846948398600,7.617398681640625,0.356671165433526,-0.3269146173343062,-0.03495265543758869
1782836846958328600,7.62732861328125,0.14814765746295452,-0.590984948220849,-0.24092538294680416
1782836846968257500,7.637257568359375,0.12143442258238792,-0.8707198812291026,-0.39512317076157777
1782836846978186500,7.6471865234375,0.11860767472386359,-1.0818147009924053,-0.5006373359607532
1782836846988115500,7.657115478515625,0.06088496907353401,-1.2717201638631521,-0.5567881891844794
1782836846998044400,7.66704443359375,-0.04252864364981651,-1.4325037232764064,-0.5974114010717719
1782836847007974700,7.676974609375,-0.044212066692113874,-1.5541881750971078,-0.7164145779192447
1782836847017903600,7.686903564453125,-0.11591244429051875,-1.6665440959498286,-0.7400408796351402
1782836847027832600,7.69683251953125,0.09671148473620414,-1.6705695520736277,-0.5692202025931328
1782836847037761500,7.706761474609375,0.21330431250631807,-1.5955631186671555,-0.46085853900834917
1782836847047690500,7.7166904296875,0.21402853512763975,-1.4863377509251237,-0.46453558355327695
1782836847057620500,7.726620361328125,0.19595278021097182,-1.4065784239031374,-0.4887324882313609
1782836847067549400,7.736549560546875,0.16587620637714862,-1.3272322077266872,-0.34856980164032425
1782836847077478400,7.746478515625,0.14658113879859447,-1.2737575149096547,-0.11676964564174414
1782836847087407600,7.75640771484375,0.16397417214810847,-1.1692185514181852,0.0028380364375188943
1782836847097336600,7.766336669921875,-0.013225976797938346,-0.9965956472598015,0.13276280386438594
1782836847107266300,7.776266357421875,-0.24299159476161003,-0.8357998128868639,0.15468458495102821
1782836847117195500,7.786195556640625,-0.4092833962023258,-0.6910225086398423,0.059877728259749706
1782836847127124500,7.79612451171875,-0.6812427267730236,-0.5260300993598997,0.07032483319519087
1782836847137053400,7.806053466796875,-0.8278624440163374,-0.4016916258990764,0.16361534877307712
1782836847146983700,7.815983642578125,-1.0071990204691885,-0.3215460760384798,0.18251266747200862
1782836847156912600,7.82591259765625,-1.0991939980775116,-0.31737317426800726,0.08067359232269226
1782836847166841600,7.835841552734375,-1.0771978548467158,-0.4235581514008343,-0.0715439083950594
1782836847176770600,7.8457705078125,-1.135550090572238,-0.483451479088515,-0.2489775373034179
1782836847186699300,7.85569921875,-1.1063269186973572,-0.4630423127882182,-0.32658900210913266
1782836847196629500,7.86562939453125,-0.9920710094422102,-0.5088179755352438,-0.26221732343100007
1782836847206558500,7.875558349609375,-1.324738198953867,-0.5796642205223441,-0.20280224424693732
1782836847216487400,7.8854873046875,-1.7850182074218988,-0.6683598643243313,-0.14630056829154492
1782836847226416600,7.895416748046875,-2.2103531592369077,-0.6802161602042615,-0.11892269548978655
1782836847236345600,7.905345703125,-2.5859581577211617,-0.456307305444777,-0.14715800710478796
1782836847246275300,7.915275390625,-2.8509856432020664,-0.09505363452658057,-0.35095001130774617
1782836847256204500,7.92520458984375,-2.9315713380455968,0.2632534615457058,-0.4646493826586753
1782836847266133500,7.935133544921875,-2.524556471297145,0.5748088894456624,-0.35160942506454884
1782836847276062500,7.9450625,-2.154935807919502,0.8488656306870281,-0.19493605918278917
1782836847285991400,7.954991455078125,-1.2987760747015475,1.1521537271097302,-0.10602211472131311
1782836847295921700,7.964921630859375,-0.3199292884916067,1.4902775745920835,0.07737199349403381
1782836847305850600,7.9748505859375,0.5152502005398273,1.8195443080104887,0.18136234665941445
1782836847315779300,7.984779296875,1.1906518000692128,2.098149360205978,0.2208764282610267
1782836847325708300,7.994708251953125,1.4934773935467003,2.114349822770059,0.23009890503864733
1782836847335637500,8.004637451171876,1.7157909419387578,1.9558157958492635,0.30138639098722486
1782836847345567500,8.0145673828125,1.8706798903554678,1.8540860445596277,0.3182244573350996
1782836847355496400,8.024496337890625,1.8306570920467375,1.8739011904895304,0.3262593682959676
1782836847365425700,8.03442578125,1.7860475504696367,1.9605558299832044,0.17688209597282112
1782836847375354600,8.044354736328126,1.8054577688604592,2.0845226936526595,0.12886011560373006
1782836847385283600,8.05428369140625,1.8689403532117603,2.198134459785372,0.1363726831909269
1782836847395213600,8.064213623046875,1.6614152086287737,2.1641019879326224,0.1335859020166099
1782836847405142500,8.074142578125,1.272663143801689,1.9401392110288143,0.00393083664290607
1782836847415071500,8.084071533203126,0.9741454766511917,1.6908431092955172,-0.05964432136267423
1782836847425000400,8.09400048828125,0.7694500025361776,1.524370982851833,-0.048292394808307285
1782836847434929700,8.1039296875,0.5292991841584443,1.487303088825941,-0.19083967498093843
1782836847444859400,8.113859375,0.1699421406418085,1.41366531342417,-0.3325433439362794
1782836847454788400,8.123788330078124,-0.22636896126270292,1.26180258096084,-0.34641346385665234
1782836847464717300,8.13371728515625,-0.48242169764935966,1.0683452708274126,-0.4833614992501214
1782836847474646500,8.143646484375,-0.507490672454238,0.8834582206405699,-0.6016171821985393
1782836847484575500,8.153575439453125,-0.6384054555654526,0.7241226680785418,-0.6850696646500378
1782836847494505500,8.16350537109375,-0.6220271522164345,0.4671738596349954,-0.7386009099598974
1782836847504434700,8.1734345703125,-0.3273883723258972,0.23188377916142344,-0.7782069441612809
1782836847514363600,8.18336376953125,0.06105389589965343,0.012696107704937457,-0.5903055511219427
1782836847524292400,8.193292236328125,0.34472295348644255,-0.17826032552346585,-0.37959399505518376
1782836847534221300,8.20322119140625,0.5052092835187911,-0.3975153631277382,-0.1839056014014408
1782836847544151600,8.213151611328126,0.8044435745060443,-0.6003235621914267,-0.31934838333111254
1782836847554080500,8.22308056640625,0.9992992071300745,-0.6688374187082052,-0.44544970174599435
1782836847564009500,8.233009521484375,1.052249291551113,-0.6838856424972415,-0.4336268697442487
1782836847573938700,8.242938720703124,0.7997247292906046,-0.9533335747689008,-0.6219803904652595
1782836847583867600,8.25286767578125,0.4898737672209739,-1.3086765603385866,-0.550257289578393
1782836847593797400,8.26279736328125,0.3443529511302709,-1.4888681461855768,-0.3149734561825171
1782836847603726600,8.2727265625,0.06216448749005794,-1.6195853608980775,-0.6217101221565157
1782836847613655600,8.282655517578124,-0.399232542309165,-1.5284271263748406,-0.6018637773707509
1782836847623584500,8.29258447265625,-0.5152005161792039,-1.3112778288781641,-0.263055637418665
1782836847633513500,8.302513427734375,-0.49265726045966146,-1.2382327586725352,-0.14528755532409995
1782836847643443700,8.312443603515625,-0.6769079124391079,-1.0967059806540609,0.0814609433081001
1782836847653372400,8.322372314453125,-0.5641647458344697,-0.8856365875929594,0.46072559681106356
1782836847663301400,8.33230126953125,-0.5600134713739157,-0.7321543641690165,0.6531112225923686
1782836847673230300,8.342230224609375,-0.6904115371346473,-0.5167628701251,0.6741646050803363
1782836847683159600,8.35215966796875,-1.0208411768525838,-0.34472909096628424,0.5539318499052897
1782836847693089500,8.362089599609375,-1.176326337596774,-0.3812842131644487,0.20284758122600613
1782836847703018200,8.372018310546874,-1.0205623599112033,-0.3930449397154152,-0.01063325689099729
1782836847712947200,8.381947265625,-0.716930710747838,-0.24917013726606962,0.06863786648893729
1782836847722876200,8.391876220703125,-0.49986733796894545,-0.06648176616728306,0.48250908367186784
1782836847732805400,8.401805419921875,-0.3048065381616354,-0.03669453066885471,1.0624125197775662
1782836847742735000,8.411735107421874,-0.22384207313358784,-0.08851809527799487,1.3120610882103443
1782836847752664000,8.4216640625,-0.38418285721540446,0.013532850790023802,1.328925129249692
1782836847762593300,8.43159326171875,-0.5126613530904054,0.2026724438548088,1.197027034189552
1782836847772522200,8.441522216796875,-0.546573559564352,0.399552421913296,1.14407373489812
1782836847782451200,8.451451171875,-0.5238549472779035,0.4726863394461572,1.1635077725559473
1782836847792381200,8.461381103515626,-0.5235784684240817,0.4701772792346775,1.1449149349626153
1782836847802310100,8.47131005859375,-0.3134107003778219,0.4906308691985905,0.9975414767425507
1782836847812239000,8.481239013671875,-0.025816578301787376,0.5409257629357278,0.9799225256826728
1782836847822168000,8.49116796875,0.22907997378706932,0.5075612534724175,0.7897205640833824
1782836847832097300,8.50109716796875,0.37227322371304034,0.3588770049147308,0.4887884196696803
1782836847842027300,8.51102734375,0.1061854155242443,0.11603446323499082,0.3648339040251449
1782836847851956200,8.520956298828125,-0.2401648469030857,-0.17190511127784847,0.36391766596306113
1782836847861885200,8.53088525390625,-0.49990474736988544,-0.4056716354459524,0.41830315348207947
1782836847871814100,8.540814208984376,-0.5955600010514259,-0.5520651427179575,0.4216343071987852
1782836847881743000,8.5507431640625,-0.9427467143028974,-0.5817803358934819,0.4161627073872834
1782836847891673000,8.560673095703125,-1.2590940526545047,-0.4300105424106121,0.4638602781075984
1782836847901602300,8.570602294921875,-1.4270792140096424,-0.22650690842866897,0.5034981322193518
1782836847911531300,8.58053125,-1.376913207349181,-0.025483693085610864,0.588009293410927
1782836847921460200,8.590460205078125,-1.2262912687271832,0.20324644435048103,0.6982132969267666
1782836847931389200,8.60038916015625,-0.9663386022925377,0.3833488175440579,0.7277061525885016
1782836847941319200,8.610319091796875,-0.6353764631330967,0.4730233163155615,0.6392137762736528
1782836847951248100,8.620248046875,-0.09029460343122482,0.5033985808350145,0.5339237752191722
1782836847961177000,8.630177001953125,0.3684977968275547,0.4860451488435268,0.5413304712790995
1782836847971106300,8.640106201171875,0.6202028593987227,0.4406844966381788,0.5119229192806407
1782836847981035300,8.65003515625,0.8003215261399745,0.3740194097932428,0.4904371732573956
1782836847990965200,8.65996533203125,0.9515408461332321,0.3287811418585479,0.5002376325860619
1782836848000894000,8.66989404296875,1.0620990699142216,0.3794761408291757,0.49500776910856364
1782836848010823200,8.6798232421875,1.0941688633918762,0.5340541236005724,0.42397732666097576
1782836848020752100,8.689752197265625,1.1821370697021483,0.676678195336461,0.2703829846320674
1782836848030681000,8.69968115234375,1.0612754785716534,0.7782958645537496,0.171025698094815
1782836848040610000,8.709610107421875,0.7495844415932893,0.795031603038311,0.003612929800152778
1782836848050540300,8.719540283203125,0.5293967993140221,0.7402975578099489,-0.3110720282971859
1782836848060469200,8.72946923828125,0.27547230712771414,0.6951319897852838,-0.652923518000543
1782836848070398200,8.739398193359374,-0.09725509009361266,0.610729805393517,-0.9673483638569712
1782836848080327200,8.7493271484375,-0.47019291519522666,0.38641719213873144,-1.2711252667099238
1782836848090256100,8.759256103515625,-0.7321522452771663,0.10760814180374145,-1.4703814723804591
1782836848100186000,8.76918603515625,-0.8935621198952197,-0.11781593982428312,-1.5316227075457571
1782836848110115300,8.779115234375,-1.3533499609321356,-0.27203078837171196,-1.6030105120636522
1782836848120044300,8.789044189453126,-1.814152531969547,-0.4989103295050561,-1.6426833278909325
1782836848129973200,8.79897314453125,-1.733081099435687,-0.480600911962986,-1.63331607234776
1782836848139902200,8.808902099609375,-1.3861661888629198,-0.19670725184008478,-1.4838377508029341
1782836848149832200,8.818832275390625,-1.1214701272934675,0.17643632496669887,-1.1136945248559116
1782836848159761200,8.82876123046875,-0.8131915291070938,0.23831629642695187,-0.7150206393428147
1782836848169690000,8.838690185546875,-0.27984686895012856,0.08592296421825885,-0.4541970718251541
1782836848179619000,8.848619140625,0.1592711090236902,0.08013459007516503,-0.2763505695332773
1782836848189548300,8.85854833984375,0.518408372309804,0.0674555796355009,-0.4142366346955299
1782836848199478300,8.868478271484374,1.1073165142565966,0.08044906285181641,-0.284424205069337
1782836848209407000,8.878406982421875,1.503705942094326,0.08064414703249931,-0.24647538175676018
1782836848219336200,8.888336181640625,1.7554782246828078,-0.02390584930963814,-0.04371529615111649
1782836848229265200,8.89826513671875,1.978931590759754,-0.2795671021606773,0.06727141870763152
1782836848239194000,8.908194091796876,1.9479080914646385,-0.5140107218727469,0.04598130485434085
1782836848249124400,8.918124267578126,1.7514987996578215,-0.6397857309427112,-0.1338830948648974
1782836848259053300,8.92805322265625,1.5100065035432577,-0.7148968668326735,-0.3549392636070028
1782836848268982300,8.937982177734375,1.391544374769926,-0.7311447487350553,-0.5017860310718417
1782836848278911200,8.9479111328125,1.1082429814517498,-0.7408695855442434,-0.6227171072419733
1782836848288840000,8.95783984375,0.6570458586275577,-0.899140285353735,-0.7877607352524996
1782836848298770200,8.967770263671875,0.42465223024785514,-1.1352953120935707,-1.090164815382287
1782836848308699100,8.97769921875,0.3184393421947956,-1.3067555291481314,-1.1793028691895306
1782836848318628000,8.987628173828124,0.009094576081633568,-1.3748349397704005,-1.3245135964177548
1782836848328557300,8.997557373046876,-0.08807225120663642,-1.2900783889830112,-1.2887597075998782
1782836848338486300,9.007486328125,0.11252455541789531,-1.2185898275043814,-1.270887658561766
1782836848348416000,9.017416015625,0.28113632423877716,-1.2754106889441608,-1.3615497801311314
1782836848358345200,9.02734521484375,0.22014555670320987,-1.2443949345640837,-1.3157282324157655
1782836848368274200,9.037274169921876,0.08040390853583812,-1.3296265555173157,-1.1952316021401435
1782836848378203100,9.047203125,-0.22634207325577735,-1.586404099047184,-1.1953938069645316
1782836848388132000,9.057132080078125,-0.2791425200730562,-1.7855349247723817,-1.2704847768492995
1782836848398062300,9.067062255859375,-0.4200964666396379,-1.7966442016772926,-1.0980076378371566
1782836848407991300,9.0769912109375,-0.40613048512935634,-1.691804793934524,-1.1450012250065802
1782836848417920000,9.086919921875,-0.25547581328153607,-1.4695187180712819,-0.9966687124960124
1782836848427849000,9.096848876953125,-0.34570845739245415,-1.3774977292388677,-0.7604476347826421
1782836848437778200,9.106778076171874,-0.5305529836118221,-1.4272035710416733,-0.8620531021054834
1782836848447708200,9.116708251953124,-0.5815379054397344,-1.1874393408287316,-0.5919543777748942
1782836848457637000,9.12663720703125,-0.7911790192633866,-0.9546954377066343,-0.4788518032733351
1782836848467566300,9.13656640625,-0.9407324518710374,-0.7573536873552947,-0.3098575379408896
1782836848477495300,9.146495361328125,-1.163700080257654,-0.7475256093673408,-0.2808598819175735
1782836848487424300,9.15642431640625,-1.538029067456722,-0.8734281903397292,-0.10893124363366513
1782836848497354200,9.166354248046876,-1.5644441961735487,-0.9064570381078868,0.09649265435375273
1782836848507283200,9.176283203125,-1.4391396541595458,-0.6359823200717568,0.20384356999341396
1782836848517212200,9.186212158203125,-1.5808184078693388,-0.2677045957356691,0.1304514399157837
1782836848527141000,9.19614111328125,-2.0191344218105076,-0.14404146425314246,-0.06753397863395512
1782836848537070300,9.2060703125,-2.4262469037145373,-0.20303148642554877,-0.11639120425079018
1782836848547000000,9.216,-2.5854250737577673,-0.0708412034858018,-0.015383556690625846
1782836848556929000,9.225928955078125,-2.7241630978405476,0.157950601009652,0.14578772339858115
1782836848566858200,9.235858154296874,-2.7853876741319894,0.3630426001615822,0.30080175949968396
1782836848576787200,9.245787109375,-2.5832155810147523,0.6213043178346007,0.26707228918150067
1782836848586716200,9.255716064453125,-2.1831571092754603,0.8896648201957345,0.244776432351768
1782836848596646100,9.265646240234375,-1.6835662501603363,1.044101348669827,0.2864529526842758
1782836848606575400,9.275575439453124,-1.134307981556654,1.0912615976430475,0.19940547794811425
1782836848616504300,9.28550439453125,-0.5355214196741581,1.0180053689047694,0.27809622589051725
1782836848626433000,9.29543310546875,0.0031838907331228255,0.9636404492497443,0.2622937862006947
1782836848636362000,9.305362060546875,0.4829050972521305,1.0261588647440076,0.22507446447275578
1782836848646291200,9.315291259765624,0.7997042710244655,1.0575385570656508,0.09826302502714097
1782836848656217000,9.325217041015625,1.0983137081116436,1.0027715594157576,0.23022198342904446
1782836848666146300,9.335146240234375,1.3047364444106817,0.9484744442999362,0.22094689968135206
1782836848676076300,9.345076171875,1.4252847318083046,1.033711179819703,0.3513085424218327
1782836848686005000,9.3550048828125,1.5858189926356077,1.096137971507758,0.45883119789920745
1782836848695934000,9.364933837890625,1.732560874953866,1.155842644755542,0.523785462238267
1782836848705864200,9.3748642578125,1.7296335893303154,1.201230915620178,0.5442186670012772
1782836848715793400,9.38479345703125,1.77658589464128,1.1654898862838745,0.5700156638197601
1782836848725723400,9.394723388671874,1.7838322125077246,1.0715157175570726,0.5984898439582437
1782836848735652000,9.404652099609375,1.649375811266899,0.9849085704669356,0.5872175585113465
1782836848745581300,9.414581298828125,1.6471943755745886,0.9553566050291061,0.6418545731060207
1782836848755510300,9.42451025390625,1.6074539013385771,0.989364234701544,0.7053541085921228
1782836848765439200,9.434439208984376,1.390925366088748,1.0064426491439342,0.768647161720693
1782836848775369500,9.444369384765626,1.0888210726231335,0.9494698850780725,0.6659501728340983
1782836848785298400,9.45429833984375,0.7160030745089053,0.8439322659380734,0.512111537187919
1782836848795227400,9.464227294921875,0.31045886483490465,0.6733209938630461,0.41680158981271087
1782836848805156400,9.47415625,0.09118307670354843,0.508147090536356,0.34636027236469086
1782836848815085300,9.484085205078125,-0.09100888918042183,0.46324616479724645,0.38595392200853673
1782836848825015300,9.494015380859375,-0.2364309210717678,0.49684024523273107,0.3602846432229504
1782836848834944300,9.5039443359375,-0.24262802214622495,0.5552348587952554,0.18771946060117334
1782836848844873200,9.513873291015624,-0.37741292468905446,0.5984178747005761,0.03875708922185003
1782836848854802400,9.523802490234376,-0.3927840968221426,0.48407574846670026,-0.029923611761815846
1782836848864731400,9.5337314453125,-0.15652853231728076,0.22018135866895316,0.1787474514532834
1782836848874661000,9.5436611328125,-0.08481763332486152,0.037661768265813585,0.3436817008052021
1782836848884590300,9.55359033203125,0.0158639240860939,-0.0482837000451982,0.4459645194003358
1782836848894519300,9.563519287109376,0.1530763460367918,-0.06439421930350363,0.43111678661946207
1782836848904448300,9.5734482421875,0.27672727562487126,-0.0013763298545032738,0.44107166932485997
1782836848914377200,9.583377197265625,0.42772739990949626,0.05610825619101524,0.5064233354836702
1782836848924306400,9.593306396484374,0.5070201323330402,0.019018150333315133,0.5677013589954003
1782836848934236400,9.603236328125,0.4631114325016737,-0.08575893276296556,0.5938240806369111
1782836848944165000,9.6131650390625,0.44307869829833507,-0.1909272801991552,0.5213683546265587
1782836848954094300,9.62309423828125,0.42301732252240176,-0.2862782902371138,0.5155026043983176
1782836848964023300,9.633023193359374,0.4325666566342115,-0.37046186344213783,0.5166352982226758
1782836848973952300,9.6429521484375,0.4971943193674087,-0.37216662153340874,0.500102863757871
1782836848983882200,9.65288232421875,0.4027168772935867,-0.331241832883656,0.5056139187969267
1782836848993811500,9.6628115234375,0.29628070187866684,-0.3895307941146195,0.353398135112226
1782836849003740400,9.672740478515625,0.14167875370979308,-0.5093767784617841,0.25347528711408374
1782836849013669400,9.68266943359375,0.024198037189245222,-0.6386272816225886,0.18935933676268904
1782836849023598000,9.69259814453125,0.21975451155900955,-0.713469172117114,0.1195447363782674
1782836849033528300,9.7025283203125,0.29581425341069695,-0.682699501452595,0.14591131324563175
1782836849043457300,9.712457275390625,0.16205635582804678,-0.7074681781366468,0.10813457683064043
1782836849053386200,9.72238623046875,0.05775777696371078,-0.8353844370190053,-0.0299861190713942
1782836849063315500,9.7323154296875,-0.13223346449434756,-0.9677819329686462,-0.1274891560440883
1782836849073244400,9.742244384765625,-0.28528058443665505,-0.9535853575728833,-0.3799785008607432
1782836849083174100,9.752174072265625,1.3603952032685278,-0.6592084434889257,-0.12763674782123416
1782836849093103400,9.762103271484374,0.5028782102227211,-0.49755584615617987,0.48229270097482946
1782836849103032300,9.7720322265625,-1.1882032378733158,-0.9739974464826285,0.16350279177669436
1782836849112961300,9.781961181640625,-1.3779215076088904,-1.293159696124494,-0.29142354417107996
1782836849122890200,9.79189013671875,-1.4361474866062403,-0.8600160433199256,-0.4520999168828129
1782836849132820500,9.801820556640624,-1.6712696631669997,-0.25333485573008657,-0.25520704281013457
1782836849142749200,9.811749267578126,-1.793654518342018,-0.18542583323866127,-0.17903277120068667
1782836849152678100,9.82167822265625,-1.1647101340830326,-0.48973209372796117,-0.49027219195403154
1782836849162607000,9.831607177734375,-0.5693997238785028,-0.22583931136541066,-0.30989728542938827
1782836849172536300,9.841536376953124,-0.7766787847459315,0.1688984768077731,0.12971132560558615
