time,seconds_elapsed,z,y,x
1782836839412119300,0.081119384765625,-0.011593618430197239,-0.08163507282733917,-0.028416138142347336
1782836839422048300,0.09104833984375,0.01121003832668066,-0.09629341214895248,0.025226570665836334
1782836839431977500,0.1009775390625,0.0468687005341053,-0.09379350394010544,0.07583169639110565
1782836839441907500,0.110907470703125,0.08548443764448166,-0.11226369440555573,0.09962090104818344
1782836839451836400,0.12083642578125,0.11781201511621475,-0.12054212391376495,0.1042068600654602
1782836839461765600,0.130765625,0.1325109452009201,-0.11129973828792572,0.08059702068567276
1782836839471694600,0.140694580078125,0.12563706934452057,-0.11240015923976898,0.034458551555871964
1782836839481623300,0.150623291015625,0.10904457420110703,-0.10338848829269409,-0.006440959870815277
1782836839491553300,0.16055322265625,0.0925620049238205,-0.07420583814382553,-0.02403539977967739
1782836839501482500,0.170482421875,0.0728096067905426,-0.04389267414808273,-0.03228427469730377
1782836839511411500,0.180411376953125,0.052374906837940216,-0.042639389634132385,-0.039769887924194336
1782836839521340400,0.19034033203125,0.04964175447821617,-0.043263789266347885,-0.04718150198459625
1782836839531270400,0.2002705078125,0.058024849742650986,-0.04667423292994499,-0.05733347684144974
1782836839541199400,0.210199462890625,0.06713426113128662,-0.05408509448170662,-0.06175815314054489
1782836839551128300,0.22012841796875,0.0756734237074852,-0.05631362646818161,-0.05295614153146744
1782836839561057300,0.230057373046875,0.0822553038597107,-0.06332815438508987,-0.01939164474606514
1782836839570986500,0.239986572265625,0.09800923615694046,-0.027405042201280594,0.04240647703409195
1782836839580916500,0.24991650390625,0.11565309017896652,0.027924412861466408,0.08977413177490234
1782836839590845400,0.259845458984375,0.11803075671195984,0.08943437784910202,0.0953337550163269
1782836839600774400,0.2697744140625,0.10783997923135757,0.14461472630500793,0.06039803475141525
1782836839610703400,0.279703369140625,0.09933996945619583,0.18407878279685974,-0.003281343262642622
1782836839620633300,0.28963330078125,0.09167902171611786,0.21582548320293427,-0.061116598546504974
1782836839630562300,0.299562255859375,0.0738036185503006,0.21320199966430664,-0.10388430207967758
1782836839640491500,0.309491455078125,0.04664158076047897,0.18498653173446655,-0.13785170018672943
1782836839650420500,0.31942041015625,0.02597971074283123,0.12738661468029022,-0.17040377855300903
1782836839660350200,0.32935009765625,0.015041988343000412,0.07299791276454926,-0.21036222577095032
1782836839670279400,0.339279541015625,-0.007030024193227291,0.06505610048770905,-0.24883532524108887
1782836839680208400,0.34920849609375,-0.05458780750632286,0.1382974535226822,-0.30424225330352783
1782836839690137300,0.359137451171875,-0.10060377418994904,0.2012535035610199,-0.35009148716926575
1782836839700066600,0.369066650390625,-0.10522668063640594,0.27349165081977844,-0.3706466853618622
1782836839709996500,0.37899658203125,-0.08471821248531342,0.3148987591266632,-0.3444254696369171
1782836839719925800,0.38892578125,-0.05861153453588486,0.3327004015445709,-0.2808679938316345
1782836839729854500,0.3988544921875,-0.028803838416934013,0.31085848808288574,-0.2010573148727417
1782836839739783400,0.408783447265625,0.013665738515555859,0.2695769667625427,-0.1421041041612625
1782836839749713700,0.418713623046875,0.0706496611237526,0.22797389328479767,-0.10944229364395142
1782836839759642600,0.428642578125,0.1262570470571518,0.17084155976772308,-0.10175912082195282
1782836839769571600,0.438571533203125,0.15912258625030518,0.09748052060604095,-0.11296650022268295
1782836839779500500,0.44850048828125,0.17146609723567963,0.03291056677699089,-0.11836905032396317
1782836839789430500,0.458430419921875,0.1822473704814911,0.0028389496728777885,-0.11354633420705795
1782836839799359500,0.468359375,0.1985088288784027,0.017848609015345573,-0.08971253037452698
1782836839809288400,0.478288330078125,0.214478999376297,0.05073465406894684,-0.07889877259731293
1782836839819217400,0.488217529296875,0.23760659992694855,0.06392492353916168,-0.0725221037864685
1782836839829146600,0.498146728515625,0.2717919945716858,0.05547923967242241,-0.0711953192949295
1782836839839076600,0.50807666015625,0.31615594029426575,0.05288127437233925,-0.06590615212917328
1782836839849005600,0.518005615234375,0.35083431005477905,0.07059688866138458,-0.050109609961509705
1782836839858934500,0.5279345703125,0.36911889910697937,0.08375068008899689,-0.02898573875427246
1782836839868863500,0.537863525390625,0.3653997778892517,0.0707336813211441,-0.00987702701240778
1782836839878793500,0.54779345703125,0.3410640358924866,0.04614784196019173,0.018266526982188225
1782836839888722700,0.55772265625,0.30837640166282654,0.029394961893558502,0.04033214598894119
1782836839898651600,0.567651611328125,0.2760867178440094,0.025684311985969543,0.047173768281936646
1782836839908580600,0.57758056640625,0.2436259686946869,0.024231024086475372,0.0317348912358284
1782836839918510300,0.58751025390625,0.20416240394115448,0.020662661641836166,-0.020104654133319855
1782836839928439600,0.597439453125,0.15267284214496613,0.026296045631170273,-0.07885638624429703
1782836839938368500,0.607368408203125,0.10079295933246613,0.025174817070364952,-0.13144217431545258
1782836839948297500,0.61729736328125,0.07451421767473221,0.03953511267900467,-0.1644294261932373
1782836839958226400,0.627226318359375,0.05702665075659752,0.0906878337264061,-0.17211905121803284
1782836839968156700,0.63715673828125,0.03868625685572624,0.12842856347560883,-0.16828569769859314
1782836839978085600,0.647085693359375,0.011527994647622108,0.16085144877433777,-0.1528068482875824
1782836839988014300,0.657014404296875,-0.01539150346070528,0.18768705427646637,-0.13484060764312744
1782836839997943600,0.666943603515625,-0.03318086266517639,0.1868714541196823,-0.12902557849884033
1782836840007873500,0.67687353515625,-0.03810424730181694,0.177891805768013,-0.12933531403541565
1782836840017802500,0.686802490234375,-0.03966827318072319,0.17899595201015472,-0.13132064044475555
1782836840027731700,0.696731689453125,-0.030000198632478714,0.1734938621520996,-0.1316724568605423
1782836840037660700,0.70666064453125,-0.0161435566842556,0.17759886384010315,-0.13207730650901794
1782836840047589600,0.716589599609375,-0.009400698356330395,0.16566763818264008,-0.15303531289100647
1782836840057519400,0.726519287109375,0.007178278174251318,0.12972614169120789,-0.18279267847537994
1782836840067448600,0.736448486328125,0.03125741705298424,0.09640616178512573,-0.20294509828090668
1782836840077377500,0.74637744140625,0.04916354641318321,0.06463076174259186,-0.20939259231090546
1782836840087306500,0.756306396484375,0.06028011441230774,0.04958683252334595,-0.18493279814720154
1782836840097236700,0.76623681640625,0.06378691643476486,0.042172275483608246,-0.14348669350147247
1782836840107165700,0.776165771484375,0.06858886033296585,0.033325254917144775,-0.07879584282636642
1782836840117094400,0.786094482421875,0.06110820919275284,0.03432389721274376,-0.00772557919844985
1782836840127023400,0.7960234375,0.04782356321811676,0.02277589589357376,0.04540315270423889
1782836840136953600,0.80595361328125,0.042020585387945175,0.03909260407090187,0.08271364122629166
1782836840146882600,0.815882568359375,0.05078531429171562,0.07813906669616699,0.09755384176969528
1782836840156811500,0.8258115234375,0.06986814737319946,0.06241278722882271,0.09110512584447861
1782836840166740700,0.83574072265625,0.10818463563919067,0.01988876610994339,0.08675165474414825
1782836840176669700,0.845669677734375,0.1570197492837906,-0.04813041538000107,0.09312603622674942
1782836840186599400,0.855599365234375,0.20321999490261078,-0.10525016486644745,0.12652447819709778
1782836840196528400,0.8655283203125,0.22592231631278992,-0.13275061547756195,0.176705002784729
1782836840206457600,0.87545751953125,0.19914397597312927,-0.08917011320590973,0.22919780015945435
1782836840216386600,0.885386474609375,0.15262970328330994,-0.049046583473682404,0.24180880188941956
1782836840226316500,0.895316650390625,0.1371050775051117,-0.018567504361271858,0.22438746690750122
1782836840236245800,0.905245849609375,0.1659506857395172,0.01908038556575775,0.18823757767677307
1782836840246174500,0.915174560546875,0.21148274838924408,0.0716615691781044,0.14261816442012787
1782836840256103400,0.925103515625,0.25485822558403015,0.0750332623720169,0.08951448649168015
1782836840266032400,0.935032470703125,0.27207261323928833,0.06693964451551437,0.047329481691122055
1782836840275962600,0.944962646484375,0.2744433283805847,0.0368284173309803,0.025173887610435486
1782836840285891600,0.9548916015625,0.26819315552711487,-0.029884301126003265,0.02989007905125618
1782836840295820500,0.964820556640625,0.27200841903686523,-0.07742206752300262,0.062334686517715454
1782836840305749800,0.974749755859375,0.29869621992111206,-0.09354165196418762,0.12563535571098328
1782836840315679500,0.984679443359375,0.3522499203681946,-0.07856527715921402,0.19278892874717712
1782836840325608400,0.9946083984375,0.40741223096847534,-0.04220913350582123,0.2640921473503113
1782836840335537400,1.004537353515625,0.4622384011745453,0.011263970285654068,0.3294256031513214
1782836840345466600,1.014466552734375,0.4941590428352356,0.0456155501306057,0.3872907757759094
1782836840355395600,1.0243955078125,0.49406442046165466,0.05494688078761101,0.4167602062225342
1782836840365325600,1.03432568359375,0.5004632472991943,0.06825842708349228,0.41359129548072815
1782836840375254500,1.044254638671875,0.5089585185050964,0.04964616894721985,0.38787731528282166
1782836840385183500,1.05418359375,0.5048996210098267,0.07487909495830536,0.34890541434288025
1782836840395112400,1.064112548828125,0.4869656264781952,0.08283594250679016,0.2929899990558624
1782836840405042700,1.074042724609375,0.45749029517173767,0.05135764554142952,0.21797193586826324
1782836840414971600,1.0839716796875,0.43105390667915344,-0.014130627736449242,0.15072935819625854
1782836840424900600,1.093900634765625,0.4178584814071655,-0.0632542297244072,0.13313598930835724
1782836840434829600,1.10382958984375,0.40234214067459106,-0.07189226895570755,0.16521760821342468
1782836840444759600,1.113759521484375,0.3766961693763733,-0.05443524941802025,0.22156131267547607
1782836840454688500,1.1236884765625,0.34202346205711365,0.002020956017076969,0.2680220901966095
1782836840464617500,1.133617431640625,0.3142978250980377,0.06191038712859154,0.27547121047973633
1782836840474546400,1.14354638671875,0.298822820186615,0.09213951230049133,0.2337411493062973
1782836840484475600,1.1534755859375,0.29451462626457214,0.062074024230241776,0.15121911466121674
1782836840494405600,1.163405517578125,0.29595258831977844,0.0017491327598690987,0.04813723638653755
1782836840504334300,1.173334228515625,0.31069451570510864,-0.07635152339935303,-0.05037442222237587
1782836840514263600,1.183263671875,0.3204464018344879,-0.16617155075073242,-0.1351783275604248
1782836840524192500,1.193192626953125,0.3018767237663269,-0.2232430875301361,-0.2148028463125229
1782836840534122500,1.20312255859375,0.2619357705116272,-0.23932746052742004,-0.2817259728908539
1782836840544051700,1.2130517578125,0.19791629910469055,-0.2214488536119461,-0.32840585708618164
1782836840553980700,1.222980712890625,0.14125493168830872,-0.188480406999588,-0.3527376055717468
1782836840563909600,1.23290966796875,0.10386227816343307,-0.12906715273857117,-0.3366371989250183
1782836840573838600,1.242838623046875,0.08641387522220612,-0.05028340965509415,-0.3023883104324341
1782836840583768600,1.2527685546875,0.06715629994869232,0.02768142893910408,-0.2421627938747406
1782836840593697500,1.262697509765625,0.03909984603524208,0.14536398649215698,-0.15937058627605438
1782836840603626500,1.27262646484375,0.012028014287352562,0.27923548221588135,-0.09120883792638779
1782836840613555500,1.282555419921875,0.005561279598623514,0.3682672381401062,-0.06524564325809479
1782836840623485400,1.2924853515625,0.03287892043590546,0.39449378848075867,-0.0725613459944725
1782836840633414400,1.302414306640625,0.08247942477464676,0.40400829911231995,-0.08394280076026917
1782836840643343400,1.31234326171875,0.11204849928617477,0.3672385513782501,-0.10071565210819244
1782836840653272600,1.3222724609375,0.10921181738376617,0.24779091775417328,-0.11785580962896347
1782836840663201500,1.332201416015625,0.09409039467573166,0.12016183882951736,-0.12048621475696564
1782836840673131500,1.342131591796875,0.06767534464597702,0.004789757542312145,-0.12485126405954361
1782836840683060700,1.352060791015625,0.031312279403209686,-0.07246508449316025,-0.14155752956867218
1782836840692989700,1.36198974609375,-0.0014213593676686287,-0.12023881077766418,-0.17368602752685547
1782836840702918700,1.371918701171875,-0.012879875488579273,-0.1388828009366989,-0.21241316199302673
1782836840712848600,1.3818486328125,-0.008200363256037235,-0.12181682884693146,-0.22609686851501465
1782836840722777600,1.391777587890625,-0.00925444159656763,-0.07063353061676025,-0.22038306295871735
1782836840732706600,1.40170654296875,-0.011945615522563457,-0.02899080142378807,-0.20086036622524261
1782836840742635500,1.411635498046875,-0.003648536279797554,-0.006667385809123516,-0.18212315440177917
1782836840752565500,1.4215654296875,-0.0012449370697140694,-0.0041985902935266495,-0.1664625108242035
1782836840762494500,1.431494384765625,0.0005047600716352463,-0.012400061823427677,-0.15786343812942505
1782836840772423400,1.44142333984375,-0.000009424053132534027,-0.03730635717511177,-0.15384306013584137
1782836840782352400,1.451352294921875,-0.004216684959828854,-0.06625758111476898,-0.14340665936470032
1782836840792281600,1.461281494140625,-0.03298339992761612,-0.07928980886936188,-0.11684896051883698
1782836840802211600,1.471211669921875,-0.0774315595626831,-0.07457388192415237,-0.0726732388138771
1782836840812140500,1.481140625,-0.11471807211637497,-0.05321124568581581,-0.030842915177345276
1782836840822069800,1.49106982421875,-0.15108805894851685,-0.012880866415798664,0.003027433529496193
1782836840831998500,1.50099853515625,-0.18157359957695007,0.03244708105921745,0.04073798656463623
1782836840841928400,1.510928466796875,-0.21926932036876678,0.0791511982679367,0.0841994509100914
1782836840851857700,1.520857666015625,-0.24584634602069855,0.09622347354888916,0.1311977356672287
1782836840861786600,1.53078662109375,-0.26094913482666016,0.06559392809867859,0.16082513332366943
1782836840871715600,1.540715576171875,-0.25614556670188904,0.017926590517163277,0.17550700902938843
1782836840881644500,1.55064453125,-0.24866019189357758,-0.011892558075487614,0.1633254438638687
1782836840891574500,1.560574462890625,-0.24685396254062653,-0.06132637709379196,0.12199363857507706
1782836840901503500,1.57050341796875,-0.26572564244270325,-0.0890221893787384,0.07221969217061996
1782836840911432400,1.580432373046875,-0.3086462914943695,-0.12363360822200775,0.007377040572464466
1782836840921361400,1.590361328125,-0.3505609929561615,-0.15637770295143127,-0.04875600337982178
1782836840931291600,1.600291748046875,-0.3736974000930786,-0.16416260600090027,-0.0793623998761177
1782836840941220600,1.610220703125,-0.3852211534976959,-0.1605156660079956,-0.08453745394945145
1782836840951149600,1.620149658203125,-0.38266560435295105,-0.15379464626312256,-0.06827326864004135
1782836840961078500,1.63007861328125,-0.38513433933258057,-0.13978375494480133,-0.0452483706176281
1782836840971007500,1.640007568359375,-0.4108498990535736,-0.09788910299539566,-0.04477526620030403
1782836840980937500,1.6499375,-0.4484494626522064,-0.0760040432214737,-0.08918560296297073
1782836840990866700,1.65986669921875,-0.4836200475692749,-0.11775439977645874,-0.18238888680934906
1782836841000795600,1.669795654296875,-0.5084255337715149,-0.2244800329208374,-0.28277328610420227
1782836841010724600,1.679724609375,-0.5175709128379822,-0.33780184388160706,-0.35566839575767517
1782836841020654300,1.689654296875,-0.5136831998825073,-0.3969125747680664,-0.3648850619792938
1782836841030583600,1.69958349609375,-0.49204006791114807,-0.33722400665283203,-0.308334082365036
1782836841040512500,1.709512451171875,-0.4540460705757141,-0.18554072082042694,-0.19400352239608765
1782836841050441500,1.71944140625,-0.3857918381690979,-0.033300817012786865,-0.056693412363529205
1782836841060371700,1.729371826171875,-0.31037190556526184,0.09375832974910736,0.07979599386453629
1782836841070300700,1.73930078125,-0.27308619022369385,0.19259148836135864,0.1778649389743805
1782836841080229600,1.749229736328125,-0.26516008377075195,0.21156251430511475,0.21035870909690857
1782836841090158300,1.759158447265625,-0.27737751603126526,0.16927768290042877,0.1989872008562088
1782836841100087600,1.769087646484375,-0.301303893327713,0.11208735406398773,0.17187196016311646
1782836841110017500,1.779017578125,-0.3260177671909332,0.05332556739449501,0.17109334468841553
1782836841119946500,1.788946533203125,-0.35858237743377686,0.02475597709417343,0.19174882769584656
1782836841129875700,1.798875732421875,-0.3910427689552307,0.010637536644935608,0.21261194348335266
1782836841139804700,1.8088046875,-0.4012322723865509,0.04327670484781265,0.2093873769044876
1782836841149734400,1.818734375,-0.3596715033054352,0.13188053667545319,0.18687021732330322
1782836841159663400,1.828663330078125,-0.2731315493583679,0.23934495449066162,0.17277942597866058
1782836841169592600,1.838592529296875,-0.17770527303218842,0.3206225037574768,0.1947917491197586
1782836841179521500,1.848521484375,-0.1108844205737114,0.36213773488998413,0.2618969976902008
1782836841189450500,1.858450439453125,-0.057500313967466354,0.3930666446685791,0.35252845287323
1782836841199380700,1.868380615234375,-0.021652303636074066,0.3040153384208679,0.41975143551826477
1782836841209309700,1.878309814453125,0.0037171589210629463,0.18002283573150635,0.4402119815349579
1782836841219238400,1.88823828125,0.024910328909754753,0.03821776434779167,0.4245435297489166
1782836841229167400,1.89816748046875,0.03554801270365715,-0.08638986945152283,0.3534502387046814
1782836841239097600,1.90809765625,0.04519691318273544,-0.1993073672056198,0.2513408958911896
1782836841249026600,1.918026611328125,0.030240599066019058,-0.24553059041500092,0.14886237680912018
1782836841258955500,1.92795556640625,0.029303167015314102,-0.23289601504802704,0.0723140612244606
1782836841268884700,1.937884765625,0.024202197790145874,-0.18395978212356567,0.016053149476647377
1782836841278814500,1.947814453125,0.03181350976228714,-0.11696264892816544,-0.010943048633635044
1782836841288743400,1.957743408203125,0.04690320044755936,-0.031426552683115005,0.012195066548883915
1782836841298672400,1.96767236328125,0.06164699047803879,0.06305041909217834,0.06201322376728058
1782836841308601600,1.9776015625,0.07415696978569031,0.1487979292869568,0.11656058579683304
1782836841318530600,1.987530517578125,0.10163972526788712,0.20124968886375427,0.16164788603782654
1782836841328460500,1.99746044921875,0.14634963870048523,0.19414910674095154,0.18317781388759613
1782836841338389800,2.0073896484375,0.1866334080696106,0.15661638975143433,0.1926935613155365
1782836841348318500,2.017318359375,0.23454488813877106,0.14342957735061646,0.17676791548728943
1782836841358247400,2.027247314453125,0.2516205310821533,0.0911186933517456,0.15601204335689545
1782836841368177700,2.037177734375,0.26668116450309753,0.041382648050785065,0.13195660710334778
1782836841378106600,2.047106689453125,0.2830106019973755,-0.003798944875597954,0.09986444562673569
1782836841388035600,2.05703564453125,0.2986947298049927,-0.02189650759100914,0.0419008769094944
1782836841397964500,2.066964599609375,0.28369659185409546,-0.05109087750315666,-0.04823460802435875
1782836841407893800,2.076893798828125,0.2523786723613739,-0.06405996531248093,-0.16034144163131714
1782836841417823500,2.086823486328125,0.22782115638256073,-0.056292321532964706,-0.25545838475227356
1782836841427752400,2.09675244140625,0.20803748071193695,-0.06212973594665527,-0.3080143928527832
1782836841437681400,2.106681396484375,0.20311862230300903,-0.04001937061548233,-0.3098312020301819
1782836841447610600,2.116610595703125,0.2329682558774948,0.026653435081243515,-0.26893413066864014
1782836841457540600,2.12654052734375,0.27647313475608826,0.04641488939523697,-0.2083810418844223
1782836841467469600,2.136469482421875,0.3066186308860779,0.009503830224275589,-0.14333738386631012
1782836841477398500,2.1463984375,0.3121529519557953,-0.010604368522763252,-0.06950390338897705
1782836841487327500,2.156327392578125,0.29842057824134827,-0.006302807480096817,0.004296833649277687
1782836841497256400,2.16625634765625,0.28198540210723877,-0.006090287119150162,0.05427611246705055
1782836841507186700,2.176186767578125,0.26696813106536865,-0.009018911980092525,0.05478863790631294
1782836841517115600,2.18611572265625,0.25723323225975037,0.002446528524160385,0.02259901538491249
1782836841527044600,2.196044677734375,0.266489714384079,0.021993830800056458,-0.016663670539855957
1782836841536973600,2.2059736328125,0.2840993106365204,0.0402548611164093,-0.05117823928594589
1782836841546903600,2.215903564453125,0.29637637734413147,0.03363221138715744,-0.05815859138965607
1782836841556832500,2.22583251953125,0.29615506529808044,0.03195175528526306,-0.028627600520849228
1782836841566761500,2.235761474609375,0.2827278971672058,0.017676357179880142,0.023502308875322342
1782836841576690400,2.2456904296875,0.2652210593223572,-0.018475254997611046,0.08465728163719177
1782836841586620700,2.25562060546875,0.24939215183258057,-0.06281917542219162,0.15001828968524933
1782836841596549600,2.265549560546875,0.23608165979385376,-0.10098147392272949,0.2132936716079712
1782836841606478300,2.275478271484375,0.22710619866847992,-0.130708247423172,0.23708030581474304
1782836841616407600,2.285407470703125,0.22661031782627106,-0.14135317504405975,0.20855490863323212
1782836841626336500,2.29533642578125,0.23013301193714142,-0.12513309717178345,0.1434904932975769
1782836841636266500,2.3052666015625,0.2345501333475113,-0.09207767248153687,0.06460952013731003
1782836841646195700,2.31519580078125,0.2257663756608963,-0.06022537499666214,0.004469278268516064
1782836841656124700,2.325124755859375,0.2495737075805664,-0.014228055253624916,-0.021383091807365417
1782836841666053600,2.3350537109375,0.24934957921504974,0.019700191915035248,-0.01346060074865818
1782836841675983600,2.344983642578125,0.25165855884552,0.029115531593561172,0.03047117218375206
1782836841685912600,2.35491259765625,0.2755357027053833,0.03424723073840141,0.08750023692846298
1782836841695842000,2.364842041015625,0.3179284334182739,0.02256207913160324,0.14432650804519653
1782836841705771000,2.37477099609375,0.3766745328903198,-0.00747591070830822,0.21380043029785156
1782836841715700000,2.384699951171875,0.44011980295181274,-0.026761192828416824,0.28657931089401245
1782836841725629700,2.394629638671875,0.4903920590877533,-0.037013839930295944,0.3622834384441376
1782836841735559000,2.404558837890625,0.49671441316604614,-0.012228865176439285,0.40705835819244385
1782836841745488000,2.41448779296875,0.4491405785083771,-0.017919516190886497,0.37161144614219666
1782836841755416800,2.424416748046875,0.3660385012626648,-0.10591408610343933,0.2709335684776306
1782836841765347000,2.43434716796875,0.2541956901550293,-0.18947112560272217,0.15269823372364044
1782836841775276000,2.444276123046875,0.1131296455860138,-0.24277456104755402,0.03264852240681648
1782836841785205000,2.454205078125,-0.029830459505319595,-0.23753991723060608,-0.06623644381761551
1782836841795134000,2.464134033203125,-0.1440073698759079,-0.16705696284770966,-0.13611406087875366
1782836841805064000,2.47406396484375,-0.20831146836280823,-0.05740078166127205,-0.1855979561805725
1782836841814993000,2.483992919921875,-0.21961179375648499,0.03986744582653046,-0.2009630650281906
1782836841824921900,2.493921875,-0.18996381759643555,0.10594885051250458,-0.18461595475673676
1782836841834851000,2.50385107421875,-0.11025301367044449,0.11876052618026733,-0.12411081045866013
1782836841844780000,2.513780029296875,-0.0017932821065187454,0.09459297358989716,-0.010771726258099079
1782836841854709800,2.523709716796875,0.11016999930143356,0.06667771935462952,0.145445317029953
1782836841864638700,2.533638671875,0.22965240478515625,0.028504706919193268,0.3281169831752777
1782836841874568000,2.54356787109375,0.3176611065864563,0.0001763971522450447,0.4928164482116699
1782836841884497000,2.553496826171875,0.35344943404197693,0.0037638749927282333,0.6183382272720337
1782836841894427000,2.563427001953125,0.33438438177108765,0.03877325728535652,0.6695206761360168
1782836841904356000,2.573356201171875,0.28098317980766296,0.07475503534078598,0.6213194727897644
1782836841914285000,2.58328515625,0.2215329110622406,0.09841908514499664,0.510169267654419
1782836841924213800,2.5932138671875,0.153071790933609,0.15100449323654175,0.3843124210834503
1782836841934142700,2.603142822265625,0.05944889038801193,0.2074698954820633,0.24083489179611206
1782836841944073000,2.613072998046875,-0.0366523414850235,0.1618151217699051,0.09237759560346603
1782836841954002000,2.623001953125,-0.1196843832731247,0.07858653366565704,-0.07575415074825287
1782836841963931000,2.632930908203125,-0.16931948065757751,-0.05547020584344864,-0.25113776326179504
1782836841973860000,2.642860107421875,-0.1899624466896057,-0.18411925435066223,-0.4273950755596161
1782836841983789800,2.652789794921875,-0.20728327333927155,-0.3640930652618408,-0.5825314521789551
1782836841993718800,2.66271875,-0.2210688591003418,-0.5125957131385803,-0.6676107048988342
1782836842003647700,2.672647705078125,-0.2095818817615509,-0.5276414752006531,-0.6789311170578003
1782836842013577000,2.682576904296875,-0.16807039082050323,-0.45015597343444824,-0.6266599297523499
1782836842023507000,2.6925068359375,-0.1080794408917427,-0.3144199848175049,-0.5049417018890381
1782836842033436000,2.702435791015625,-0.043658897280693054,-0.1312517672777176,-0.34701359272003174
1782836842043365000,2.712365234375,0.016906321048736572,0.06864946335554123,-0.19008755683898926
1782836842053293800,2.7222939453125,0.0508834645152092,0.2295571267604828,-0.055891405791044235
1782836842063222800,2.732222900390625,0.05029362067580223,0.3147977888584137,0.0300004705786705
1782836842073153000,2.742153076171875,0.018896816298365593,0.30704423785209656,0.06558350473642349
1782836842083082000,2.75208203125,-0.022313205525279045,0.23843355476856232,0.07302872091531754
1782836842093011000,2.762010986328125,-0.06037323921918869,0.1951500028371811,0.06547573208808899
1782836842102940000,2.77193994140625,-0.11117998510599136,0.1683942973613739,0.027677813544869423
1782836842112870000,2.781869873046875,-0.14953508973121643,0.13302432000637054,-0.032541051506996155
1782836842122798800,2.791798828125,-0.17020216584205627,0.12552402913570404,-0.09985427558422089
1782836842132727800,2.801727783203125,-0.18387190997600555,0.09318286180496216,-0.16484420001506805
1782836842142657000,2.811656982421875,-0.20155835151672363,0.06115439161658287,-0.21559342741966248
1782836842152586000,2.8215859375,-0.21111749112606049,0.010409188456833363,-0.246617391705513
1782836842162516000,2.831515869140625,-0.22773799300193787,-0.068894162774086,-0.27242347598075867
1782836842172445000,2.84144482421875,-0.24024634063243866,-0.14223869144916534,-0.2912008762359619
1782836842182374000,2.851373779296875,-0.24131019413471222,-0.19681771099567413,-0.2735995650291443
1782836842192302800,2.861302734375,-0.25546994805336,-0.21970146894454956,-0.2193291187286377
1782836842202232800,2.87123291015625,-0.28539034724235535,-0.18613171577453613,-0.12327072769403458
1782836842212162000,2.881162109375,-0.3159961998462677,-0.14180180430412292,-0.022223737090826035
1782836842222091000,2.891091064453125,-0.3374710977077484,-0.10726739466190338,0.05152320861816406
1782836842232020000,2.90102001953125,-0.3298768401145935,-0.06130150705575943,0.09633143246173859
1782836842241950000,2.910949951171875,-0.3115958869457245,-0.036054857075214386,0.11138833314180374
1782836842251879000,2.92087890625,-0.3025776445865631,-0.023426678031682968,0.12274005264043808
1782836842261807900,2.930807861328125,-0.3088831901550293,-0.02216247282922268,0.142690971493721
1782836842271736800,2.94073681640625,-0.33964109420776367,-0.050904903560876846,0.15158194303512573
1782836842281666000,2.950666015625,-0.39506903290748596,-0.105668805539608,0.15032269060611725
1782836842291596000,2.960595947265625,-0.45524635910987854,-0.15773040056228638,0.1386423408985138
1782836842301525000,2.97052490234375,-0.5022085309028625,-0.20099984109401703,0.12659339606761932
1782836842311453700,2.98045361328125,-0.5239335298538208,-0.1907416135072708,0.12908345460891724
1782836842321383000,2.9903828125,-0.5384230613708496,-0.1496019959449768,0.12175576388835907
1782836842331313000,3.00031298828125,-0.5314506888389587,-0.11135528981685638,0.09972236305475235
1782836842341241900,3.010241943359375,-0.5039793848991394,-0.07031497359275818,0.07173367589712143
1782836842351171000,3.020171142578125,-0.4638192057609558,-0.031901538372039795,0.0541195273399353
1782836842361100000,3.03010009765625,-0.4125683009624481,0.025501515716314316,0.07144378870725632
1782836842371029000,3.040029052734375,-0.3598038852214813,0.08541464805603027,0.13131777942180634
1782836842380959000,3.049958984375,-0.31603217124938965,0.10243597626686096,0.20645886659622192
1782836842390888000,3.059887939453125,-0.28079110383987427,0.05048356577754021,0.2542354464530945
1782836842400817000,3.06981689453125,-0.2473948746919632,-0.11023178696632385,0.26617735624313354
1782836842410745900,3.079745849609375,-0.22020213305950165,-0.3294312655925751,0.21928252279758453
1782836842420676000,3.089676025390625,-0.21339687705039978,-0.5624284744262695,0.1264631748199463
1782836842430605000,3.09960498046875,-0.2346278578042984,-0.7001434564590454,0.029098547995090485
1782836842440533800,3.10953369140625,-0.30383819341659546,-0.7876836061477661,-0.08480042219161987
1782836842450462700,3.119462646484375,-0.4019831120967865,-0.839694082736969,-0.1849299520254135
1782836842460392000,3.129391845703125,-0.5100342631340027,-0.7795498967170715,-0.24745053052902222
1782836842470322000,3.139322021484375,-0.6075208187103271,-0.6452160477638245,-0.24793043732643127
1782836842480251000,3.1492509765625,-0.6914628148078918,-0.4313362240791321,-0.18534702062606812
1782836842490180000,3.15918017578125,-0.7578588724136353,-0.1681375801563263,-0.08585744351148605
1782836842500109000,3.169109130859375,-0.8029488921165466,0.09656107425689697,0.00878467783331871
1782836842510038800,3.179038818359375,-0.8254249095916748,0.30301356315612793,0.060070235282182693
1782836842519968000,3.188968017578125,-0.8225753903388977,0.3977019190788269,0.04808177053928375
1782836842529897000,3.19889697265625,-0.790870189666748,0.42110127210617065,0.004974779672920704
1782836842539826000,3.208825927734375,-0.7368978261947632,0.421312153339386,-0.024757156148552895
1782836842549755000,3.2187548828125,-0.6903976798057556,0.40276747941970825,-0.041136130690574646
1782836842559684900,3.228684814453125,-0.6522339582443237,0.37218010425567627,-0.03373993933200836
1782836842569613800,3.23861376953125,-0.6206235885620117,0.36670413613319397,0.010850164107978344
1782836842579542800,3.248542724609375,-0.5966640710830688,0.3608958125114441,0.06630855053663254
1782836842589471700,3.2584716796875,-0.5925891399383545,0.31353387236595154,0.11673817038536072
1782836842599402000,3.268402099609375,-0.5990635752677917,0.23311308026313782,0.14362144470214844
1782836842609331000,3.2783310546875,-0.6075674891471863,0.0866074338555336,0.14896650612354279
1782836842619260000,3.288260009765625,-0.6089200377464294,-0.04942603409290314,0.14138060808181763
1782836842629189000,3.298189208984375,-0.5915112495422363,-0.12922020256519318,0.10175356268882751
1782836842639118800,3.308118896484375,-0.5287052392959595,-0.20041298866271973,-0.0015313951298594475
1782836842649047800,3.3180478515625,-0.4056600332260132,-0.26448091864585876,-0.16049014031887054
1782836842658977000,3.32797705078125,-0.2445380538702011,-0.3068784475326538,-0.32736489176750183
1782836842668906000,3.337906005859375,-0.08487994223833084,-0.3075506091117859,-0.45325782895088196
1782836842678835000,3.3478349609375,0.0469682514667511,-0.3115588426589966,-0.5207515954971313
1782836842688765000,3.357764892578125,0.1267767995595932,-0.27443039417266846,-0.48937422037124634
1782836842698693000,3.367693115234375,0.12957946956157684,-0.18170668184757233,-0.3657827377319336
1782836842708622300,3.377622314453125,0.03842078894376755,-0.043892353773117065,-0.1624802201986313
1782836842718551000,3.387551025390625,-0.12773095071315765,0.11490017175674438,0.05421679466962814
1782836842728481000,3.39748095703125,-0.2960784137248993,0.2446853220462799,0.2183964103460312
1782836842738410200,3.40741015625,-0.4026634693145752,0.33325740694999695,0.2873075008392334
1782836842748339200,3.417339111328125,-0.41855481266975403,0.35981443524360657,0.2630847096443176
1782836842758268200,3.42726806640625,-0.3668103814125061,0.3615553379058838,0.17278915643692017
1782836842768197000,3.437197021484375,-0.29933494329452515,0.3783622980117798,0.06563234329223633
1782836842778127000,3.447127197265625,-0.24732927978038788,0.38023436069488525,-0.044905371963977814
1782836842788056000,3.45705615234375,-0.19327989220619202,0.3612651824951172,-0.14260131120681763
1782836842797985000,3.466985107421875,-0.15554024279117584,0.3390970230102539,-0.2044452428817749
1782836842807914000,3.4769140625,-0.14837101101875305,0.26967349648475647,-0.2379659116268158
1782836842817844200,3.48684423828125,-0.15595754981040955,0.18057957291603088,-0.24296599626541138
1782836842827773200,3.496773193359375,-0.15785159170627594,0.07619911432266235,-0.22150863707065582
1782836842837702100,3.5067021484375,-0.15047504007816315,-0.06624341011047363,-0.1912992149591446
1782836842847631000,3.516631103515625,-0.12590685486793518,-0.1887006163597107,-0.1548892855644226
1782836842857560000,3.52656005859375,-0.10803786665201187,-0.28148770332336426,-0.12241284549236298
1782836842867490000,3.536489990234375,-0.09857405722141266,-0.3242780268192291,-0.11638185381889343
1782836842877419300,3.546419189453125,-0.08353070914745331,-0.3255896270275116,-0.1152532547712326
1782836842887348200,3.55634814453125,-0.05164467915892601,-0.26077601313591003,-0.10720624774694443
1782836842897277200,3.566277099609375,-0.00480030570179224,-0.16343256831169128,-0.0938953384757042
1782836842907207200,3.576207275390625,0.045990437269210815,-0.07096468657255173,-0.09376350790262222
1782836842917136100,3.58613623046875,0.07880909740924835,0.002543807029724121,-0.09712734818458557
1782836842927065000,3.596065185546875,0.09368126094341278,0.04999601095914841,-0.0910489484667778
1782836842936994000,3.605994140625,0.10394173860549927,0.09967638552188873,-0.04676169902086258
1782836842946923000,3.615923095703125,0.09467527270317078,0.11621488630771637,0.02321445569396019
1782836842956853200,3.625853271484375,0.0677604228258133,0.08576346933841705,0.11535267531871796
1782836842966782200,3.6357822265625,0.028101958334445953,0.035837721079587936,0.20300741493701935
1782836842976711000,3.6457109375,-0.009779206477105618,-0.01577158086001873,0.24443572759628296
1782836842986640100,3.65564013671875,-0.031225107610225677,-0.057029806077480316,0.22162973880767822
1782836842996570000,3.665570068359375,-0.05754920095205307,-0.08195571601390839,0.16566503047943115
1782836843006499000,3.6754990234375,-0.0676116868853569,-0.09910114854574203,0.10585309565067291
1782836843016428300,3.68542822265625,-0.05199795588850975,-0.10231634974479675,0.0752221867442131
1782836843026357200,3.695357177734375,-0.011633492074906826,-0.08314424753189087,0.08228275924921036
1782836843036286200,3.7052861328125,0.04891548305749893,-0.027962394058704376,0.12816321849822998
1782836843046216200,3.71521630859375,0.10476090013980865,0.04074343293905258,0.19301386177539825
1782836843056145200,3.725145263671875,0.14949530363082886,0.07713654637336731,0.2597101926803589
1782836843066074000,3.73507421875,0.17085731029510498,0.058150336146354675,0.31058269739151
1782836843076003000,3.745003173828125,0.16972392797470093,-0.005638712085783482,0.33962327241897583
1782836843085933300,3.754933349609375,0.16494382917881012,-0.1065104603767395,0.3386160433292389
1782836843095862300,3.7648623046875,0.1699519157409668,-0.25700056552886963,0.2835271656513214
1782836843105791000,3.774791015625,0.17201480269432068,-0.39920324087142944,0.1849617213010788
1782836843115720000,3.784719970703125,0.14060789346694946,-0.4842439889907837,0.06800156831741333
1782836843125649200,3.794649169921875,0.06980696320533752,-0.4838961958885193,-0.04549729824066162
1782836843135579100,3.8045791015625,-0.04238445684313774,-0.44492751359939575,-0.1403970867395401
1782836843145508000,3.814508056640625,-0.1651599109172821,-0.3474113345146179,-0.1937713623046875
1782836843155437300,3.824437255859375,-0.26357534527778625,-0.13131646811962128,-0.18693500757217407
1782836843165366300,3.8343662109375,-0.32353827357292175,0.11747630685567856,-0.13198786973953247
1782836843175296000,3.8442958984375,-0.3366449177265167,0.3128523528575897,-0.056021902710199356
1782836843185225200,3.85422509765625,-0.29530492424964905,0.46350952982902527,0.02529745176434517
1782836843195154200,3.864154296875,-0.22770865261554718,0.559574544429779,0.10530681163072586
1782836843205083100,3.874083251953125,-0.17800287902355194,0.5993925333023071,0.2018064558506012
1782836843215012000,3.88401220703125,-0.16931454837322235,0.6238631010055542,0.307894229888916
1782836843224942000,3.893942138671875,-0.18706877529621124,0.5362733006477356,0.3960041403770447
1782836843234871000,3.90387109375,-0.2051292508840561,0.4231603145599365,0.467587947845459
1782836843244800000,3.913800048828125,-0.1994870901107788,0.31087183952331543,0.5163397789001465
1782836843254729000,3.92372900390625,-0.19704030454158783,0.2361832559108734,0.5311468839645386
1782836843264659200,3.9336591796875,-0.20926819741725922,0.2040650099515915,0.5152091979980469
1782836843274588200,3.943588134765625,-0.2398577630519867,0.17950771749019623,0.4595840871334076
1782836843284517000,3.95351708984375,-0.25857657194137573,0.17078161239624023,0.3930998742580414
1782836843294446300,3.9634462890625,-0.2435370534658432,0.16712798178195953,0.34348708391189575
1782836843304375300,3.973375244140625,-0.22330714762210846,0.14087188243865967,0.30026957392692566
1782836843314305000,3.983304931640625,-0.21514444053173065,0.09548093378543854,0.2559026777744293
1782836843324234200,3.993234130859375,-0.23247656226158142,0.06007819622755051,0.1610611081123352
1782836843334163200,4.0031630859375,-0.247317835688591,-0.053474195301532745,0.027485206723213196
1782836843344092200,4.013092041015625,-0.2550883889198303,-0.20530739426612854,-0.13621105253696442
1782836843354022100,4.023022216796875,-0.26756155490875244,-0.3786092698574066,-0.30937615036964417
1782836843363951000,4.032951171875,-0.2767428159713745,-0.5504995584487915,-0.4564151167869568
1782836843373880000,4.042880126953125,-0.2787938416004181,-0.6747210621833801,-0.5661327838897705
1782836843383809000,4.05280908203125,-0.2817493975162506,-0.6820785403251648,-0.6103338003158569
1782836843393738000,4.062738037109375,-0.27888163924217224,-0.5478301644325256,-0.5609340071678162
1782836843403668200,4.072668212890625,-0.28001296520233154,-0.2958221733570099,-0.43120768666267395
1782836843413597200,4.08259716796875,-0.28682246804237366,-0.021635480225086212,-0.2715030312538147
1782836843423526100,4.092526123046875,-0.29696059226989746,0.2042599767446518,-0.12324485927820206
1782836843433455000,4.102455078125,-0.29181748628616333,0.3316040635108948,0.0027884384617209435
1782836843443385000,4.112385009765625,-0.2651486098766327,0.34973591566085815,0.0814100131392479
1782836843453314000,4.12231396484375,-0.23019106686115265,0.2876400351524353,0.11562427133321762
1782836843463243300,4.1322431640625,-0.20737150311470032,0.19367095828056335,0.128494530916214
1782836843473172200,4.142172119140625,-0.20786327123641968,0.0959637388586998,0.11856620758771896
1782836843483101200,4.15210107421875,-0.22130930423736572,0.0030604293569922447,0.06588888168334961
1782836843493031000,4.162031005859375,-0.23035399615764618,-0.04611128941178322,0.001833571121096611
1782836843502960000,4.171960205078125,-0.24760621786117554,-0.038281865417957306,-0.06425889581441879
1782836843512889000,4.18188916015625,-0.2744879424571991,-0.0019629327580332756,-0.11834979057312012
1782836843522818000,4.191818115234375,-0.2908855676651001,0.019114390015602112,-0.1551099270582199
1782836843532747000,4.2017470703125,-0.2886068820953369,0.0011321743950247765,-0.16235508024692535
1782836843542677200,4.21167724609375,-0.26455801725387573,-0.04966443032026291,-0.14173048734664917
1782836843552606200,4.221606201171875,-0.25318676233291626,-0.1195395290851593,-0.0964827761054039
1782836843562535200,4.23153515625,-0.27738744020462036,-0.14553864300251007,-0.01465529017150402
1782836843572464000,4.241464111328125,-0.319775253534317,-0.12073538452386856,0.08439666032791138
1782836843582394000,4.25139404296875,-0.3668442368507385,-0.11159302294254303,0.15913216769695282
1782836843592323000,4.261322998046875,-0.38978126645088196,-0.14661851525306702,0.19288423657417297
1782836843602252300,4.271252197265625,-0.3911842405796051,-0.20208096504211426,0.1707642823457718
1782836843612181200,4.28118115234375,-0.3904792368412018,-0.25161832571029663,0.12169508635997772
1782836843622110200,4.291110107421875,-0.42921143770217896,-0.28043025732040405,0.06149246171116829
1782836843632040000,4.3010400390625,-0.5054615139961243,-0.2778473198413849,0.012753219343721867
1782836843641969200,4.31096923828125,-0.5997366309165955,-0.2578754723072052,-0.028269581496715546
1782836843651898000,4.320898193359375,-0.6916860342025757,-0.2281000316143036,-0.0550837405025959
1782836843661827000,4.3308271484375,-0.7498534917831421,-0.2259034514427185,-0.04528410732746124
1782836843671757300,4.34075732421875,-0.7713488936424255,-0.20732152462005615,0.0015131635591387749
1782836843681686300,4.350686279296875,-0.7788102626800537,-0.18326839804649353,0.06814678758382797
1782836843691615200,4.360615234375,-0.7783583402633667,-0.11178769171237946,0.14029636979103088
1782836843701548300,4.37054833984375,-0.7658699750900269,-0.01080647949129343,0.19246502220630646
1782836843711477200,4.380477294921875,-0.7214123010635376,0.06719272583723068,0.2217954397201538
1782836843721407500,4.390407470703125,-0.6528968811035156,0.13643251359462738,0.22890129685401917
1782836843731336400,4.40033642578125,-0.5822647213935852,0.1627613753080368,0.22222711145877838
1782836843741265400,4.410265380859375,-0.5245409607887268,0.10722142457962036,0.19038636982440948
1782836843751194400,4.4201943359375,-0.49612659215927124,-0.034570954740047455,0.12894633412361145
1782836843761124400,4.430124267578125,-0.48701614141464233,-0.22386817634105682,0.059844765812158585
1782836843771053300,4.44005322265625,-0.533004641532898,-0.4031354784965515,-0.03462409973144531
1782836843780982500,4.449982421875,-0.6282800436019897,-0.5960314273834229,-0.15326179563999176
1782836843790911500,4.459911376953125,-0.7449511289596558,-0.6937563419342041,-0.26379743218421936
1782836843800840400,4.46984033203125,-0.8581040501594543,-0.674943208694458,-0.3550059199333191
1782836843810770200,4.479770263671875,-0.9374632835388184,-0.5123030543327332,-0.40977248549461365
1782836843820699400,4.489699462890625,-0.9901715517044067,-0.2179422825574875,-0.4218784272670746
1782836843830628400,4.49962841796875,-1.0267012119293213,0.11147753894329071,-0.3682559132575989
1782836843840557300,4.509557373046875,-1.0524486303329468,0.4174494445323944,-0.2636197805404663
1782836843850486300,4.519486328125,-1.0507113933563232,0.5938493013381958,-0.16847996413707733
1782836843860416500,4.52941650390625,-1.0224254131317139,0.5739765167236328,-0.09680205583572388
1782836843870345500,4.539345458984375,-0.9891490340232849,0.42862051725387573,-0.048696115612983704
1782836843880274200,4.549274169921875,-0.9731165766716003,0.2313615381717682,-0.027937572449445724
1782836843890203400,4.559203369140625,-0.9674882888793945,0.03294233977794647,-0.021661311388015747
1782836843900133400,4.56913330078125,-0.9288082718849182,-0.08201034367084503,0.0030741291120648384
1782836843910062300,4.579062255859375,-0.8669394850730896,-0.05002795159816742,0.05845053866505623
1782836843919991600,4.588991455078125,-0.8176673054695129,0.07088222354650497,0.11367784440517426
1782836843929920500,4.59892041015625,-0.7950174808502197,0.2208455353975296,0.14638519287109375
1782836843939849500,4.608849365234375,-0.7790084481239319,0.3619145154953003,0.14823395013809204
1782836843949779200,4.618779296875,-0.7474045753479004,0.4296341836452484,0.12605533003807068
1782836843959708400,4.62870849609375,-0.7078427672386169,0.3929816484451294,0.09899068623781204
1782836843969637400,4.638637451171875,-0.6666154861450195,0.28689828515052795,0.07928288727998734
1782836843979566300,4.64856640625,-0.6161187887191772,0.11544851958751678,0.08299852907657623
1782836843989496600,4.65849658203125,-0.5393534898757935,-0.06286941468715668,0.09025157988071442
1782836843999425500,4.668425537109375,-0.4322243630886078,-0.24898895621299744,0.05952003225684166
1782836844009354200,4.678354248046875,-0.30283090472221375,-0.4371931552886963,-0.010304074734449387
1782836844019283200,4.688283203125,-0.1670709103345871,-0.5854918360710144,-0.08205761760473251
1782836844029212400,4.69821240234375,-0.07860948145389557,-0.7030136585235596,-0.1538434624671936
1782836844039142400,4.708142333984375,-0.06158255785703659,-0.699466347694397,-0.19771210849285126
1782836844049071400,4.7180712890625,-0.12055862694978714,-0.5514501333236694,-0.22521308064460754
1782836844059000600,4.72800048828125,-0.24867957830429077,-0.28561607003211975,-0.20188511908054352
1782836844068929500,4.737929443359375,-0.4082242250442505,0.04966392740607262,-0.13185341656208038
1782836844078858500,4.7478583984375,-0.5405988097190857,0.34788525104522705,-0.045990172773599625
1782836844088788200,4.757788330078125,-0.6022990345954895,0.4496566951274872,-0.01918955147266388
1782836844098717400,4.767717529296875,-0.5777214765548706,0.4503384828567505,-0.047318920493125916
1782836844108646400,4.777646484375,-0.4960953891277313,0.44940516352653503,-0.0990503653883934
1782836844118575400,4.787575439453125,-0.4028027355670929,0.375920832157135,-0.16745179891586304
1782836844128505300,4.79750537109375,-0.31991514563560486,0.20443733036518097,-0.21849383413791656
1782836844138434300,4.807434326171875,-0.24786731600761414,0.026828981935977936,-0.2201756089925766
1782836844148363300,4.81736328125,-0.20345041155815125,-0.1451219916343689,-0.17156477272510529
1782836844158292200,4.827292236328125,-0.19815604388713837,-0.3031054735183716,-0.11425913870334625
1782836844168221400,4.837221435546875,-0.20488864183425903,-0.3721102774143219,-0.07123144716024399
1782836844178151400,4.8471513671875,-0.22413210570812225,-0.35457175970077515,-0.062315188348293304
1782836844188080400,4.857080322265625,-0.26664450764656067,-0.28572991490364075,-0.09554416686296463
1782836844198009600,4.867009521484375,-0.31592708826065063,-0.17905060946941376,-0.16002435982227325
1782836844207938600,4.8769384765625,-0.3594703674316406,-0.07402650266885757,-0.2304009199142456
1782836844217868300,4.886868408203125,-0.38260337710380554,0.004243534058332443,-0.2921265959739685
1782836844227797200,4.89679736328125,-0.36784878373146057,0.0725397989153862,-0.322559654712677
1782836844237726500,4.9067265625,-0.3126142919063568,0.1119985282421112,-0.31925198435783386
1782836844247655400,4.916655517578125,-0.23298493027687073,0.13151128590106964,-0.266488254070282
1782836844257584400,4.92658447265625,-0.14277221262454987,0.14827775955200195,-0.1722879707813263
1782836844267514400,4.936514404296875,-0.05759556591510773,0.1487458050251007,-0.0417366549372673
1782836844277443300,4.946443359375,0.007928852923214436,0.13187362253665924,0.0864546000957489
1782836844287372300,4.956372314453125,0.06498143821954727,0.09090136736631393,0.18653926253318787
1782836844297301200,4.96630126953125,0.1156182512640953,0.0611748993396759,0.2574895918369293
1782836844307230500,4.97623046875,0.14113391935825348,0.039886474609375,0.29006150364875793
1782836844317160400,4.986160400390625,0.12458130717277527,0.051412634551525116,0.30486494302749634
1782836844327089400,4.99608935546875,0.0846087634563446,0.10289549082517624,0.3153479993343353
1782836844337018400,5.006018310546875,0.0382431298494339,0.16578418016433716,0.3026428818702698
1782836844346947300,5.015947265625,0.013737469911575317,0.14383633434772491,0.2636348009109497
1782836844356877300,5.025877197265625,-0.0021229861304163933,0.1267114132642746,0.21029967069625854
1782836844366806300,5.03580615234375,0.02134835161268711,0.08957813680171967,0.13335971534252167
1782836844376735500,5.045735595703125,0.048624180257320404,0.03991284966468811,0.06383603066205978
1782836844386664400,5.05566455078125,0.03825419396162033,-0.009775569662451744,0.046066805720329285
1782836844396593400,5.065593505859375,0.03131719306111336,-0.017744014039635658,0.09455497562885284
1782836844406523400,5.0755234375,0.02604401484131813,-0.0015477025881409645,0.1585800051689148
1782836844416452400,5.085452392578125,0.03715498745441437,-0.013232056051492691,0.22193260490894318
1782836844426381300,5.09538134765625,0.07404278963804245,-0.00561337498947978,0.26678991317749023
1782836844436310300,5.105310302734375,0.1040789857506752,-0.004656235221773386,0.29365110397338867
1782836844446239500,5.115239501953125,0.11074444651603699,-0.04831512272357941,0.2911911606788635
1782836844456169500,5.12516943359375,0.08949960768222809,-0.11132604628801346,0.2676437497138977
1782836844466098400,5.135098388671875,0.06377378851175308,-0.16608737409114838,0.23634393513202667
1782836844476027400,5.14502734375,0.0397331640124321,-0.24298109114170074,0.18752846121788025
1782836844485956400,5.154956298828125,0.015470195561647415,-0.32984182238578796,0.12637723982334137
1782836844495886300,5.16488623046875,-0.014752420596778393,-0.40841785073280334,0.05812281370162964
1782836844505815300,5.174815185546875,-0.06826449930667877,-0.4282188415527344,-0.011480174958705902
1782836844515744500,5.18474462890625,-0.15642498433589935,-0.33276447653770447,-0.07894736528396606
1782836844525673500,5.194673583984375,-0.2789452373981476,-0.15108543634414673,-0.1131797656416893
1782836844535602400,5.2046025390625,-0.4222065210342407,0.12176713347434998,-0.08410417288541794
1782836844545532400,5.214532470703125,-0.54909348487854,0.37910380959510803,-0.00457517895847559
1782836844555461400,5.22446142578125,-0.6175004839897156,0.5581491589546204,0.09246135503053665
1782836844565390300,5.234390380859375,-0.6014122366905212,0.6699445843696594,0.2056857943534851
1782836844575319300,5.2443193359375,-0.5200920701026917,0.7511712908744812,0.3404039144515991
1782836844585249500,5.25424951171875,-0.4290064871311188,0.7570603489875793,0.4695451855659485
1782836844595178200,5.26417822265625,-0.36065033078193665,0.6559126973152161,0.5696792006492615
1782836844605107200,5.274107177734375,-0.29248419404029846,0.5001066327095032,0.653348445892334
1782836844615036400,5.284036376953125,-0.21640196442604065,0.337235689163208,0.7305766344070435
1782836844624965400,5.29396533203125,-0.13820277154445648,0.24486581981182098,0.7835096120834351
1782836844634895400,5.303895263671875,-0.12514182925224304,0.16611693799495697,0.8095713257789612
1782836844644824300,5.31382421875,-0.1606425642967224,0.12764950096607208,0.7932971119880676
1782836844654752500,5.32375244140625,-0.21127352118492126,0.108525350689888,0.7240533232688904
1782836844664681500,5.333681396484375,-0.28312253952026367,0.12498471885919571,0.5910979509353638
1782836844674610400,5.3436103515625,-0.3597068190574646,0.06782343238592148,0.3929307758808136
1782836844684539400,5.353539306640625,-0.4341680705547333,-0.07416325062513351,0.15081138908863068
1782836844694469400,5.363469482421875,-0.4963662028312683,-0.22550857067108154,-0.10494688153266907
1782836844704398000,5.373398193359375,-0.544113039970398,-0.39661693572998047,-0.3377542793750763
1782836844714327300,5.383327392578125,-0.5652809143066406,-0.5862017273902893,-0.5378972291946411
1782836844724256300,5.39325634765625,-0.564424455165863,-0.7319867610931396,-0.6938759088516235
1782836844734186200,5.403186279296875,-0.5333059430122375,-0.7513650059700012,-0.7964121699333191
1782836844744115500,5.413115478515625,-0.4885154366493225,-0.6466968059539795,-0.8160053491592407
1782836844754044400,5.42304443359375,-0.44482123851776123,-0.43683066964149475,-0.7442075610160828
1782836844763973000,5.43297314453125,-0.3949419856071472,-0.20492514967918396,-0.590420126914978
1782836844773902000,5.442902099609375,-0.34165799617767334,0.023833464831113815,-0.37198948860168457
1782836844783832300,5.452832275390625,-0.2921895384788513,0.2118086963891983,-0.14477545022964478
1782836844793761300,5.46276123046875,-0.26364338397979736,0.26415231823921204,0.015935134142637253
1782836844803690200,5.472690185546875,-0.2577320635318756,0.20834967494010925,0.09539473056793213
1782836844813619500,5.482619384765625,-0.26441818475723267,0.10010015964508057,0.11598549783229828
1782836844823548400,5.49254833984375,-0.2943113446235657,-0.018761318176984787,0.09139158576726913
1782836844833478100,5.50247802734375,-0.3428650200366974,-0.13802966475486755,0.01722627505660057
1782836844843407000,5.512406982421875,-0.37082839012145996,-0.24492742121219635,-0.07418566197156906
1782836844853336300,5.52233642578125,-0.38693225383758545,-0.26106566190719604,-0.15055446326732635
1782836844863265300,5.532265380859375,-0.39305436611175537,-0.24405677616596222,-0.2319273054599762
1782836844873195300,5.5421953125,-0.3809391260147095,-0.211069256067276,-0.314162015914917
1782836844883124200,5.552124267578125,-0.3501882553100586,-0.16573117673397064,-0.38954731822013855
1782836844893053200,5.56205322265625,-0.3169783651828766,-0.13668940961360931,-0.43491506576538086
1782836844902982100,5.571982177734375,-0.3006516098976135,-0.14065995812416077,-0.4473918378353119
1782836844912911000,5.5819111328125,-0.2980837821960449,-0.17753462493419647,-0.4399389624595642
1782836844922841300,5.59184130859375,-0.3036700189113617,-0.23425038158893585,-0.40592649579048157
1782836844932770300,5.601770263671875,-0.32460832595825195,-0.26202553510665894,-0.3474107086658478
1782836844942699300,5.61169921875,-0.33932989835739136,-0.26973628997802734,-0.2822030186653137
1782836844952628500,5.62162841796875,-0.32636669278144836,-0.29155611991882324,-0.21396774053573608
1782836844962557400,5.631557373046875,-0.2806926369667053,-0.2658044993877411,-0.13037729263305664
1782836844972487200,5.641487060546875,-0.227875754237175,-0.2246842086315155,-0.02916279062628746
1782836844982416100,5.651416015625,-0.18497906625270844,-0.17480428516864777,0.06212949752807617
1782836844992345300,5.661345458984375,-0.17926791310310364,-0.16170527040958405,0.10697446018457413
1782836845002274300,5.6712744140625,-0.19279849529266357,-0.17564642429351807,0.10743346810340881
1782836845012204300,5.681204345703125,-0.22357185184955597,-0.202341690659523,0.09273841232061386
1782836845022133200,5.69113330078125,-0.2736010253429413,-0.23142318427562714,0.07403771579265594
1782836845032062200,5.701062255859375,-0.33460870385169983,-0.26376619935035706,0.041363392025232315
1782836845041991200,5.7109912109375,-0.38957270979881287,-0.26480546593666077,0.010599344968795776
1782836845051920100,5.720920166015625,-0.4216989576816559,-0.23016496002674103,-0.026424985378980637
1782836845061850400,5.730850341796875,-0.4328375458717346,-0.22007891535758972,-0.05855941399931908
1782836845071779300,5.740779296875,-0.4287187159061432,-0.2103879302740097,-0.07356845587491989
1782836845081708300,5.750708251953125,-0.40281152725219727,-0.18682312965393066,-0.04745931923389435
1782836845091637200,5.76063720703125,-0.3576515018939972,-0.14661526679992676,0.023219382390379906
1782836845101566200,5.770566162109375,-0.2930455505847931,-0.10572516918182373,0.11004019528627396
1782836845111496200,5.78049609375,-0.22030368447303772,-0.15354035794734955,0.16301925480365753
1782836845121425200,5.790425048828125,-0.13888168334960938,-0.32771241664886475,0.16141259670257568
1782836845131354400,5.800354248046875,-0.05493590980768204,-0.4909663200378418,0.11865261197090149
1782836845141283300,5.810283447265625,-0.004048328846693039,-0.6223344206809998,0.039450909942388535
1782836845151213000,5.820213134765625,-0.006686722859740257,-0.691275954246521,-0.013805918395519257
1782836845161142300,5.830142333984375,-0.07756965607404709,-0.6370828151702881,-0.016893740743398666
1782836845171071200,5.8400712890625,-0.20194381475448608,-0.46402233839035034,0.013336333446204662
1782836845181000200,5.850000244140625,-0.3117011785507202,-0.2703637480735779,0.043964993208646774
1782836845190929200,5.85992919921875,-0.3602040112018585,-0.0875110998749733,0.09541860222816467
1782836845200859400,5.869859375,-0.3496811091899872,0.09158696234226227,0.16709983348846436
1782836845210788400,5.879788330078125,-0.3056119382381439,0.17887338995933533,0.24046939611434937
1782836845220717300,5.88971728515625,-0.23835161328315735,0.1949172019958496,0.31283968687057495
1782836845230646300,5.899646240234375,-0.18557175993919373,0.16506847739219666,0.35233330726623535
1782836845240575200,5.9095751953125,-0.15404252707958221,0.1064453050494194,0.33029448986053467
1782836845250505200,5.919505126953125,-0.14171715080738068,0.07099170982837677,0.2584053874015808
1782836845260434200,5.92943408203125,-0.14406724274158478,0.10648109763860703,0.1532483845949173
1782836845270363400,5.93936328125,-0.1508370041847229,0.19496142864227295,0.05524059385061264
1782836845280292400,5.949292236328125,-0.15563228726387024,0.26338309049606323,-0.00572529062628746
1782836845290221300,5.95922119140625,-0.15215206146240234,0.30901581048965454,-0.007650489453226328
1782836845300154000,5.969154052734375,-0.16382044553756714,0.33503931760787964,0.02765432745218277
1782836845310083000,5.9790830078125,-0.2018572986125946,0.3402255177497864,0.08888545632362366
1782836845320013300,5.989013427734375,-0.2456042468547821,0.2931811213493347,0.13594652712345123
1782836845329942300,5.9989423828125,-0.27677497267723083,0.16402633488178253,0.14848974347114563
1782836845339871200,6.008871337890625,-0.2928382456302643,0.0075442977249622345,0.127643421292305
1782836845349800400,6.018800537109375,-0.2944294810295105,-0.11999502032995224,0.06113949790596962
1782836845359729400,6.0287294921875,-0.2775842249393463,-0.2422759085893631,-0.05042808875441551
1782836845369659100,6.0386591796875,-0.2227441519498825,-0.30169397592544556,-0.19421108067035675
1782836845379588400,6.04858837890625,-0.1248394101858139,-0.3003427982330322,-0.3189343512058258
1782836845389517300,6.058517333984375,-0.014234336093068123,-0.2717926502227783,-0.4094938337802887
1782836845399446300,6.0684462890625,0.07769740372896194,-0.24299289286136627,-0.4470866918563843
1782836845409375200,6.078375244140625,0.14455951750278473,-0.2053467035293579,-0.43244436383247375
1782836845419305200,6.08830517578125,0.17848511040210724,-0.16873180866241455,-0.33176493644714355
1782836845429234200,6.098234130859375,0.13638798892498016,-0.01209852285683155,-0.1519661545753479
1782836845439163100,6.1081630859375,0.03378201276063919,0.16886213421821594,0.05479193478822708
1782836845449092000,6.118092041015625,-0.08404529094696045,0.2944037914276123,0.2086632400751114
1782836845459021300,6.128021240234375,-0.16379478573799133,0.36966773867607117,0.28165262937545776
1782836845468951300,6.137951416015625,-0.17910689115524292,0.3969030976295471,0.26998424530029297
1782836845478880300,6.14788037109375,-0.14266976714134216,0.4016895890235901,0.20597952604293823
1782836845488809500,6.1578095703125,-0.08295077085494995,0.36171579360961914,0.10393119603395462
1782836845498738200,6.16773828125,-0.006149853579699993,0.2878505289554596,0.0121971620246768
1782836845508668200,6.177668212890625,0.08406206220388412,0.24138104915618896,-0.035223618149757385
1782836845518597400,6.187597412109375,0.15772728621959686,0.19746124744415283,-0.06725393980741501
1782836845528526300,6.1975263671875,0.20318745076656342,0.11033886671066284,-0.08167282491922379
1782836845538455300,6.207455322265625,0.22434857487678528,0.03645820543169975,-0.07794678211212158
1782836845548384300,6.21738427734375,0.22095836699008942,-0.044937584549188614,-0.05734802782535553
1782836845558314200,6.227314208984375,0.19034597277641296,-0.1333722025156021,-0.03246317803859711
1782836845568243200,6.2372431640625,0.15770307183265686,-0.1862386167049408,-0.0069650099612772465
1782836845578172200,6.247172119140625,0.13554048538208008,-0.19922484457492828,-0.0001750374212861061
1782836845588101000,6.25710107421875,0.11893966794013977,-0.16157707571983337,-0.025884397327899933
1782836845598030300,6.2670302734375,0.10073591768741608,-0.09515251219272614,-0.07451777160167694
1782836845607960300,6.276960205078125,0.07370616495609283,0.004069414921104908,-0.13260957598686218
1782836845617889300,6.28688916015625,0.0521855503320694,0.09013988822698593,-0.1806524395942688
1782836845627818200,6.296818359375,0.05002439767122269,0.12914641201496124,-0.2160535752773285
1782836845637747200,6.306747314453125,0.07777610421180725,0.15190720558166504,-0.21444611251354218
1782836845647676200,6.31667626953125,0.11957255005836487,0.1962435096502304,-0.15771597623825073
1782836845657606400,6.3266064453125,0.1645125299692154,0.25751471519470215,-0.04818486049771309
1782836845667535400,6.336535400390625,0.20146895945072174,0.278670072555542,0.07667692005634308
1782836845677464300,6.34646435546875,0.2157137095928192,0.2571571171283722,0.18457341194152832
1782836845687393300,6.356393310546875,0.22898638248443604,0.21866483986377716,0.2475995272397995
1782836845697319000,6.36631884765625,0.2679498493671417,0.12999294698238373,0.26419544219970703
1782836845707249200,6.376249267578125,0.32954394817352295,0.025762153789401054,0.25891172885894775
1782836845717178000,6.38617822265625,0.3990463614463806,-0.044148556888103485,0.2509012520313263
1782836845727107000,6.396107177734375,0.46447545289993286,-0.09713640809059143,0.2635344862937927
1782836845737036000,6.4060361328125,0.5208699107170105,-0.08729247003793716,0.29698100686073303
1782836845746966000,6.415966064453125,0.5843247771263123,-0.08363541960716248,0.3434526324272156
1782836845756895000,6.42589501953125,0.6291413307189941,-0.03650601580739021,0.40595492720603943
1782836845766824000,6.435823974609375,0.6324926614761353,0.022088322788476944,0.4808771014213562
1782836845776753000,6.4457529296875,0.6045376658439636,0.025462687015533447,0.5321605801582336
1782836845786682000,6.45568212890625,0.5653740167617798,-0.06544378399848938,0.5284888744354248
1782836845796612000,6.465612060546875,0.49174952507019043,-0.25341281294822693,0.41938406229019165
1782836845806541000,6.475541015625,0.37709537148475647,-0.4276690185070038,0.23057658970355988
1782836845816470300,6.48547021484375,0.2383676916360855,-0.5364627838134766,0.013602729886770248
1782836845826399000,6.49539892578125,0.11955023556947708,-0.5949846506118774,-0.17617332935333252
1782836845836328000,6.505327880859375,0.04653754085302353,-0.4957672953605652,-0.26375138759613037
1782836845846258200,6.515258056640625,0.012889035046100616,-0.2853429317474365,-0.2624163329601288
1782836845856187100,6.525187255859375,0.041352950036525726,-0.004298754967749119,-0.1962553858757019
1782836845866116000,6.5351162109375,0.1437099426984787,0.30591291189193726,-0.07625307142734528
1782836845876045000,6.545045166015625,0.2508256435394287,0.5223132967948914,0.07694099098443985
1782836845885974000,6.55497412109375,0.32010406255722046,0.5716549754142761,0.21934740245342255
1782836845895904000,6.564904052734375,0.3878551423549652,0.426114946603775,0.3349530100822449
1782836845905833000,6.5748330078125,0.4808282256126404,0.19325003027915955,0.4175698459148407
1782836845915762000,6.584761962890625,0.579533040523529,-0.08142628520727158,0.4565938413143158
1782836845925691100,6.594691162109375,0.6829161643981934,-0.21883447468280792,0.4788573384284973
1782836845935621000,6.60462109375,0.7430639863014221,-0.16608606278896332,0.4835505485534668
1782836845945550000,6.614550048828125,0.7368585467338562,0.016295719891786575,0.4751509428024292
1782836845955479000,6.62447900390625,0.686333417892456,0.2534487843513489,0.45389699935913086
1782836845965408000,6.634407958984375,0.6109158992767334,0.49022218585014343,0.40824827551841736
1782836845975337000,6.6443369140625,0.5273739099502563,0.6680307388305664,0.3318876028060913
1782836845985267200,6.65426708984375,0.44879648089408875,0.7659432291984558,0.2579534649848938
1782836845995196200,6.664196044921875,0.38779115676879883,0.8441140055656433,0.21665765345096588
1782836846005125000,6.674125,0.33363765478134155,0.7927381992340088,0.1737717092037201
1782836846015054000,6.68405419921875,0.2914392352104187,0.6203722953796387,0.10074348002672195
1782836846024983000,6.693983154296875,0.28453418612480164,0.3693600594997406,0.0017298106104135513
1782836846034913000,6.7039130859375,0.32225751876831055,0.11338196694850922,-0.13322988152503967
1782836846044842000,6.713842041015625,0.3815927505493164,-0.13237135112285614,-0.31929031014442444
1782836846054771000,6.72377099609375,0.4601997435092926,-0.32296356558799744,-0.5201477408409119
1782836846064700200,6.7337001953125,0.5206135511398315,-0.38304367661476135,-0.6624489426612854
1782836846074629000,6.743629150390625,0.5393190383911133,-0.2846696078777313,-0.7430936098098755
1782836846084558800,6.753558837890625,0.5415273308753967,-0.14755624532699585,-0.7673800587654114
1782836846094488000,6.763488037109375,0.5457680821418762,0.00565696693956852,-0.7273872494697571
1782836846104417000,6.7734169921875,0.5337079763412476,0.15431354939937592,-0.611354649066925
1782836846114346000,6.783345947265625,0.49703681468963623,0.2808654308319092,-0.4431990683078766
1782836846124275000,6.79327490234375,0.44517865777015686,0.334231972694397,-0.2620449960231781
1782836846134205200,6.803205078125,0.39270758628845215,0.2697378993034363,-0.1192363053560257
1782836846144134100,6.813134033203125,0.3564601540565491,0.18983560800552368,-0.014831341803073883
1782836846154063000,6.82306298828125,0.3526011109352112,0.1691143810749054,0.05882440507411957
1782836846163992000,6.832991943359375,0.3476220369338989,0.1838027834892273,0.09640587121248245
1782836846173921000,6.842921142578125,0.3159061372280121,0.2416565716266632,0.09076779335737228
1782836846183851000,6.85285107421875,0.28292155265808105,0.29677388072013855,0.036984726786613464
1782836846193780000,6.862780029296875,0.24461017549037933,0.3202644884586334,-0.06535793095827103
1782836846203709200,6.872709228515625,0.19882938265800476,0.2960006892681122,-0.2178526669740677
1782836846213638100,6.88263818359375,0.17510707676410675,0.21756517887115479,-0.3846721351146698
1782836846223568000,6.89256787109375,0.18618954718112946,0.11246033757925034,-0.5145398378372192
1782836846233497000,6.9024970703125,0.2114148736000061,-0.00027037225663661957,-0.5515031218528748
1782836846243426000,6.912426025390625,0.20879781246185303,-0.03521237522363663,-0.47180482745170593
1782836846253355000,6.92235498046875,0.18009276688098907,-0.037697404623031616,-0.32548221945762634
1782836846263284000,6.932283935546875,0.14650365710258484,-0.05329820141196251,-0.18443267047405243
1782836846273214200,6.942214111328125,0.1500389724969864,-0.04393644630908966,-0.07854878157377243
1782836846283143200,6.95214306640625,0.19192543625831604,-0.03717760741710663,-0.018998369574546814
1782836846293072000,6.96207177734375,0.2647855877876282,-0.07506348192691803,-0.015873368829488754
1782836846303001000,6.9720009765625,0.34352967143058777,-0.11323457211256027,-0.030675217509269714
1782836846312930000,6.981929931640625,0.40078338980674744,-0.13068507611751556,-0.045869264751672745
1782836846322860000,6.991860107421875,0.4254908561706543,-0.12097012996673584,-0.03641397878527641
1782836846332789000,7.0017890625,0.41064777970314026,-0.08255637437105179,-0.00148681178689003
1782836846342718200,7.01171826171875,0.363524466753006,-0.07039131969213486,0.03183519467711449
1782836846352647200,7.021647216796875,0.30513229966163635,-0.0928373783826828,0.05677112936973572
1782836846362576100,7.031576171875,0.23813064396381378,-0.1507134586572647,0.0707271620631218
1782836846372506000,7.041506103515625,0.15438330173492432,-0.1966821551322937,0.08589068800210953
1782836846382435000,7.05143505859375,0.06610990315675735,-0.1918455958366394,0.09827758371829987
1782836846392364000,7.061364013671875,-0.0006556371226906776,-0.15150228142738342,0.09510628134012222
1782836846402293000,7.07129296875,-0.019269801676273346,-0.10512465238571167,0.07219484448432922
1782836846412222200,7.08122216796875,-0.011389164254069328,-0.012150931172072887,0.04579979181289673
1782836846422152000,7.09115185546875,-0.007690833881497383,0.10084380209445953,0.00021259859204292297
1782836846432081000,7.101080810546875,-0.007059977389872074,0.207968071103096,-0.04431745782494545
1782836846442010000,7.111010009765625,0.005128511693328619,0.250247061252594,-0.07416856288909912
1782836846451939000,7.12093896484375,0.009179539978504181,0.23714576661586761,-0.09025830030441284
1782836846461868000,7.130867919921875,0.016296837478876114,0.15738701820373535,-0.056468117982149124
1782836846471798000,7.140798095703125,0.03067263402044773,0.07151464372873306,0.02913622185587883
1782836846481727200,7.150727294921875,0.03594276309013367,0.00007028691470623016,0.13793914020061493
1782836846491656200,7.16065625,0.01363607682287693,-0.11573059856891632,0.221125066280365
1782836846501585000,7.1705849609375,-0.012413633055984974,-0.27299559116363525,0.25210854411125183
1782836846511513900,7.180513916015625,-0.053494974970817566,-0.4259853661060333,0.21275834739208221
1782836846521444000,7.190444091796875,-0.12020609527826309,-0.5835368633270264,0.11206021904945374
1782836846531373000,7.200373046875,-0.20197482407093048,-0.7204316854476929,-0.01244061253964901
1782836846541302000,7.210302001953125,-0.2838127017021179,-0.749109148979187,-0.1329805999994278
1782836846551231200,7.220231201171875,-0.357939749956131,-0.6202065944671631,-0.2088337391614914
1782836846561160200,7.23016015625,-0.41327571868896484,-0.334762841463089,-0.23221176862716675
1782836846571090000,7.24008984375,-0.4569595456123352,-0.037966128438711166,-0.18477830290794373
1782836846581019100,7.25001904296875,-0.4804224967956543,0.1948878914117813,-0.05210600793361664
1782836846590948000,7.259947998046875,-0.47971439361572266,0.38690292835235596,0.1362839788198471
1782836846600877000,7.269876953125,-0.467406302690506,0.42084625363349915,0.34456366300582886
1782836846610807000,7.27980712890625,-0.44942572712898254,0.34415119886398315,0.5293673276901245
1782836846620736000,7.289736083984375,-0.4326312839984894,0.2080136239528656,0.6596958041191101
1782836846630665000,7.2996650390625,-0.4037257432937622,0.08689228445291519,0.7169172167778015
1782836846640594000,7.309593994140625,-0.36829879879951477,0.04012930393218994,0.709711492061615
1782836846650523000,7.31952294921875,-0.33140701055526733,0.047206372022628784,0.6228242516517639
1782836846660453000,7.329453125,-0.29242923855781555,0.09233416616916656,0.4711034595966339
1782836846670382000,7.339382080078125,-0.25011974573135376,0.13010656833648682,0.27317947149276733
1782836846680311000,7.34931103515625,-0.1944333165884018,0.09474164247512817,0.07457131892442703
1782836846690240300,7.359240234375,-0.139143705368042,0.013242056593298912,-0.07191357761621475
1782836846700168700,7.369168701171875,-0.08740729093551636,-0.10510509461164474,-0.15815870463848114
1782836846710098400,7.379098388671875,-0.012945951893925667,-0.23338472843170166,-0.19986331462860107
1782836846720027400,7.38902734375,0.09523777663707733,-0.4037919044494629,-0.2360769808292389
1782836846729956400,7.398956298828125,0.22888584434986115,-0.5318968296051025,-0.2376093566417694
1782836846739885600,7.408885498046875,0.3343467712402344,-0.5306257009506226,-0.1966555416584015
1782836846749814500,7.418814453125,0.3700924813747406,-0.4579792022705078,-0.12468498945236206
1782836846759744500,7.42874462890625,0.33566153049468994,-0.3371545076370239,-0.027289461344480515
1782836846769673500,7.438673583984375,0.25749099254608154,-0.179850772023201,0.07484668493270874
1782836846779602400,7.4486025390625,0.15162980556488037,-0.013976315967738628,0.14798934757709503
1782836846789531400,7.458531494140625,0.04486960545182228,0.10410382598638535,0.17071954905986786
1782836846799460400,7.46846044921875,-0.026891134679317474,0.21334855258464813,0.16938957571983337
1782836846809390600,7.478390625,-0.05622829496860504,0.26317206025123596,0.13080698251724243
1782836846819319600,7.488319580078125,-0.048737362027168274,0.30411496758461,0.07574692368507385
1782836846829248500,7.49824853515625,-0.015573693439364433,0.35332241654396057,-0.0016122804954648018
1782836846839177700,7.508177734375,0.042373232543468475,0.37389934062957764,-0.09615130722522736
1782836846849106400,7.5181064453125,0.131350576877594,0.3214314579963684,-0.18828275799751282
1782836846859036400,7.528036376953125,0.21470032632350922,0.2489825338125229,-0.25685223937034607
1782836846868965600,7.537965576171875,0.2488487809896469,0.16630896925926208,-0.2915114164352417
1782836846878894600,7.54789453125,0.2519066333770752,0.06808492541313171,-0.28252220153808594
1782836846888823600,7.557823486328125,0.2575879395008087,-0.038524072617292404,-0.2555059492588043
1782836846898752500,7.56775244140625,0.2802032232284546,-0.12026527523994446,-0.2071879655122757
1782836846908682500,7.5776826171875,0.31146782636642456,-0.13796241581439972,-0.15502676367759705
1782836846918611500,7.587611572265625,0.34186381101608276,-0.10991906374692917,-0.11453259736299515
1782836846928540400,7.59754052734375,0.38643380999565125,-0.05233648419380188,-0.0835043340921402
1782836846938469400,7.607469482421875,0.4448819160461426,-0.016794472932815552,-0.0755167156457901
1782836846948398600,7.617398681640625,0.4959755837917328,-0.036134373396635056,-0.07774708420038223
1782836846958328600,7.62732861328125,0.5212564468383789,-0.057073481380939484,-0.06696021556854248
1782836846968257500,7.637257568359375,0.5103055238723755,-0.0626610592007637,-0.05116361007094383
1782836846978186500,7.6471865234375,0.48202699422836304,-0.05762209743261337,-0.03797723725438118
1782836846988115500,7.657115478515625,0.44323456287384033,-0.05992598086595535,-0.032890379428863525
1782836846998044400,7.66704443359375,0.40998658537864685,-0.040442295372486115,-0.011537154205143452
1782836847007974700,7.676974609375,0.3612889051437378,-0.04254927113652229,0.03959448263049126
1782836847017903600,7.686903564453125,0.30259737372398376,0.023791400715708733,0.1309630125761032
1782836847027832600,7.69683251953125,0.25428229570388794,0.1117745116353035,0.2242560088634491
1782836847037761500,7.706761474609375,0.24419662356376648,0.17563073337078094,0.2858724892139435
1782836847047690500,7.7166904296875,0.2687440514564514,0.16767540574073792,0.2936609983444214
1782836847057620500,7.726620361328125,0.28685006499290466,0.10281278938055038,0.25819939374923706
1782836847067549400,7.736549560546875,0.28048691153526306,0.03070652112364769,0.1968684047460556
1782836847077478400,7.746478515625,0.249953493475914,-0.0026751384139060974,0.12570421397686005
1782836847087407600,7.75640771484375,0.18943887948989868,-0.03758182004094124,0.043611351400613785
1782836847097336600,7.766336669921875,0.14219200611114502,-0.07364395260810852,-0.03271137923002243
1782836847107266300,7.776266357421875,0.12800362706184387,-0.08372817188501358,-0.08656497299671173
1782836847117195500,7.786195556640625,0.1311778575181961,-0.07953422516584396,-0.09996653348207474
1782836847127124500,7.79612451171875,0.14317762851715088,-0.015353411436080933,-0.0780709907412529
1782836847137053400,7.806053466796875,0.1785326898097992,0.09097409248352051,-0.04437827318906784
1782836847146983700,7.815983642578125,0.25087183713912964,0.23867499828338623,-0.01380334235727787
1782836847156912600,7.82591259765625,0.35475054383277893,0.39467233419418335,0.022879038006067276
1782836847166841600,7.835841552734375,0.43532899022102356,0.4123794436454773,0.08232234418392181
1782836847176770600,7.8457705078125,0.45069941878318787,0.3261641263961792,0.14860016107559204
1782836847186699300,7.85569921875,0.3991486430168152,0.17092306911945343,0.2055521011352539
1782836847196629500,7.86562939453125,0.3004755973815918,-0.07888545095920563,0.2142435908317566
1782836847206558500,7.875558349609375,0.18798157572746277,-0.3173159062862396,0.16650253534317017
1782836847216487400,7.8854873046875,0.08493109792470932,-0.4327743351459503,0.059683412313461304
1782836847226416600,7.895416748046875,-0.0012342892587184906,-0.4023076891899109,-0.058253753930330276
1782836847236345600,7.905345703125,-0.04011111706495285,-0.27151477336883545,-0.19705504179000854
1782836847246275300,7.915275390625,-0.052232299000024796,-0.10163505375385284,-0.31285732984542847
1782836847256204500,7.92520458984375,-0.06467272341251373,0.1135140061378479,-0.3841371238231659
1782836847266133500,7.935133544921875,-0.08097436279058456,0.24934911727905273,-0.3397068977355957
1782836847276062500,7.9450625,-0.08664796501398087,0.42165642976760864,-0.16805604100227356
1782836847285991400,7.954991455078125,-0.07042437791824341,0.5428140759468079,0.09262408316135406
1782836847295921700,7.964921630859375,-0.0228925459086895,0.5767989754676819,0.37242457270622253
1782836847305850600,7.9748505859375,0.027574572712183,0.5505476593971252,0.5965566635131836
1782836847315779300,7.984779296875,0.06913213431835175,0.4643872380256653,0.7290132641792297
1782836847325708300,7.994708251953125,0.09163299202919006,0.37564679980278015,0.7639457583427429
1782836847335637500,8.004637451171876,0.08992377668619156,0.3194730281829834,0.7307782173156738
1782836847345567500,8.0145673828125,0.07808922231197357,0.2510790526866913,0.6220402717590332
1782836847355496400,8.024496337890625,0.06656625866889954,0.16440249979496002,0.4699136018753052
1782836847365425700,8.03442578125,0.04754973202943802,0.08717521280050278,0.2972429692745209
1782836847375354600,8.044354736328126,0.0014964835718274117,0.08542897552251816,0.10789623111486435
1782836847385283600,8.05428369140625,-0.047953858971595764,0.09123311936855316,-0.11468897759914398
1782836847395213600,8.064213623046875,-0.06603139638900757,0.03442522883415222,-0.3278465270996094
1782836847405142500,8.074142578125,-0.050688810646533966,-0.07029561698436737,-0.48804041743278503
1782836847415071500,8.084071533203126,-0.02223905920982361,-0.19575953483581543,-0.5567672848701477
1782836847425000400,8.09400048828125,0.0024627037346363068,-0.31581127643585205,-0.5391138792037964
1782836847434929700,8.1039296875,0.018035538494586945,-0.4246123135089874,-0.4661366641521454
1782836847444859400,8.113859375,0.020514849573373795,-0.5230335593223572,-0.3770374357700348
1782836847454788400,8.123788330078124,0.03596677631139755,-0.5464496612548828,-0.28252023458480835
1782836847464717300,8.13371728515625,0.0349808894097805,-0.445085734128952,-0.2067278027534485
1782836847474646500,8.143646484375,0.0074129123240709305,-0.2768527865409851,-0.1628735363483429
1782836847484575500,8.153575439453125,-0.04837064817547798,-0.06569384038448334,-0.13329000771045685
1782836847494505500,8.16350537109375,-0.14867275953292847,0.1610061526298523,-0.1017129048705101
1782836847504434700,8.1734345703125,-0.278783917427063,0.2975232005119324,-0.06569218635559082
1782836847514363600,8.18336376953125,-0.41005033254623413,0.2931971549987793,-0.049147829413414
1782836847524292400,8.193292236328125,-0.5084096789360046,0.21007677912712097,-0.06747854501008987
1782836847534221300,8.20322119140625,-0.5338490009307861,0.149257630109787,-0.10440833866596222
1782836847544151600,8.213151611328126,-0.4996737241744995,0.14976896345615387,-0.18488259613513947
1782836847554080500,8.22308056640625,-0.4538484215736389,0.11709010601043701,-0.2869911193847656
1782836847564009500,8.233009521484375,-0.3873212933540344,-0.0026149293407797813,-0.40809324383735657
1782836847573938700,8.242938720703124,-0.3553321957588196,-0.15724340081214905,-0.48314911127090454
1782836847583867600,8.25286767578125,-0.4061645269393921,-0.27929338812828064,-0.480539470911026
1782836847593797400,8.26279736328125,-0.4206593334674835,-0.29394611716270447,-0.4345589280128479
1782836847603726600,8.2727265625,-0.4437958300113678,-0.28610748052597046,-0.39064207673072815
1782836847613655600,8.282655517578124,-0.5064946413040161,-0.24575765430927277,-0.31915006041526794
1782836847623584500,8.29258447265625,-0.5584650039672852,-0.1636996567249298,-0.229928120970726
1782836847633513500,8.302513427734375,-0.6157514452934265,-0.15401560068130493,-0.14589953422546387
1782836847643443700,8.312443603515625,-0.6795096397399902,-0.12813468277454376,-0.06886446475982666
1782836847653372400,8.322372314453125,-0.6979826092720032,-0.14961494505405426,-0.03273468837141991
1782836847663301400,8.33230126953125,-0.6463813185691833,-0.28677695989608765,-0.021877942606806755
1782836847673230300,8.342230224609375,-0.5575012564659119,-0.5640870928764343,0.02405625954270363
1782836847683159600,8.35215966796875,-0.45877084136009216,-0.7904012203216553,0.13723233342170715
1782836847693089500,8.362089599609375,-0.4506484568119049,-0.8723200559616089,0.3377697169780731
1782836847703018200,8.372018310546874,-0.5402209758758545,-0.7546859383583069,0.5566049814224243
1782836847712947200,8.381947265625,-0.7486684322357178,-0.5244295597076416,0.731911838054657
1782836847722876200,8.391876220703125,-1.0300052165985107,-0.20891498029232025,0.7945399880409241
1782836847732805400,8.401805419921875,-1.2628144025802612,0.07448210567235947,0.7050241827964783
1782836847742735000,8.411735107421874,-1.387508749961853,0.2207421213388443,0.4850798547267914
1782836847752664000,8.4216640625,-1.390785813331604,0.26044267416000366,0.18079589307308197
1782836847762593300,8.43159326171875,-1.3243212699890137,0.23602843284606934,-0.12831325829029083
1782836847772522200,8.441522216796875,-1.2100296020507812,0.1508091390132904,-0.3523399829864502
1782836847782451200,8.451451171875,-1.0603358745574951,0.0251803919672966,-0.4333658814430237
1782836847792381200,8.461381103515626,-0.8983211517333984,-0.050468560308218,-0.35858672857284546
1782836847802310100,8.47131005859375,-0.7556551098823547,-0.076683908700943,-0.1573268324136734
1782836847812239000,8.481239013671875,-0.6287496089935303,-0.04607832804322243,0.09848816692829132
1782836847822168000,8.49116796875,-0.5220823884010315,-0.003511538729071617,0.3268512189388275
1782836847832097300,8.50109716796875,-0.46955952048301697,-0.05812365189194679,0.4563237428665161
1782836847842027300,8.51102734375,-0.46922722458839417,-0.18078117072582245,0.45736345648765564
1782836847851956200,8.520956298828125,-0.512088418006897,-0.3312356472015381,0.3541734218597412
1782836847861885200,8.53088525390625,-0.5801317691802979,-0.42259475588798523,0.17255952954292297
1782836847871814100,8.540814208984376,-0.6493212580680847,-0.5017215609550476,-0.05770669877529144
1782836847881743000,8.5507431640625,-0.7218912243843079,-0.5479225516319275,-0.3009311556816101
1782836847891673000,8.560673095703125,-0.7792751789093018,-0.5240083932876587,-0.5066819190979004
1782836847901602300,8.570602294921875,-0.8271521925926208,-0.41044121980667114,-0.6150185465812683
1782836847911531300,8.58053125,-0.8612717986106873,-0.2020358294248581,-0.6006643772125244
1782836847921460200,8.590460205078125,-0.8716516494750977,0.06673741340637207,-0.48314809799194336
1782836847931389200,8.60038916015625,-0.8688228130340576,0.33434221148490906,-0.2980427145957947
1782836847941319200,8.610319091796875,-0.8597745299339294,0.5811308026313782,-0.09657399356365204
1782836847951248100,8.620248046875,-0.8681240677833557,0.7275820374488831,0.050819456577301025
1782836847961177000,8.630177001953125,-0.8660516738891602,0.7256028652191162,0.12978915870189667
1782836847971106300,8.640106201171875,-0.8379763960838318,0.5889536738395691,0.150685116648674
1782836847981035300,8.65003515625,-0.7879539132118225,0.37682124972343445,0.15061920881271362
1782836847990965200,8.65996533203125,-0.71596759557724,0.14687222242355347,0.1486191749572754
1782836848000894000,8.66989404296875,-0.6268047094345093,-0.03272624686360359,0.15815696120262146
1782836848010823200,8.6798232421875,-0.542244553565979,-0.10008718073368073,0.19072981178760529
1782836848020752100,8.689752197265625,-0.4831732511520386,-0.09365969151258469,0.22663302719593048
1782836848030681000,8.69968115234375,-0.4244699776172638,-0.08015932887792587,0.2602647542953491
1782836848040610000,8.709610107421875,-0.3551805317401886,-0.06180525943636894,0.28209078311920166
1782836848050540300,8.719540283203125,-0.2540834844112396,-0.07641296833753586,0.27557456493377686
1782836848060469200,8.72946923828125,-0.14268571138381958,-0.1572437286376953,0.2270924150943756
1782836848070398200,8.739398193359374,-0.024748943746089935,-0.3037428855895996,0.15059098601341248
1782836848080327200,8.7493271484375,0.08742611110210419,-0.4618593156337738,0.06536801159381866
1782836848090256100,8.759256103515625,0.1726403534412384,-0.6046883463859558,-0.015269573777914047
1782836848100186000,8.76918603515625,0.21750269830226898,-0.7601389288902283,-0.1009213775396347
1782836848110115300,8.779115234375,0.22185376286506653,-0.884415864944458,-0.15699955821037292
1782836848120044300,8.789044189453126,0.16243506968021393,-0.8532518148422241,-0.12827719748020172
1782836848129973200,8.79897314453125,0.03824974596500397,-0.656619668006897,-0.046108558773994446
1782836848139902200,8.808902099609375,-0.1533573865890503,-0.39883434772491455,0.027197355404496193
1782836848149832200,8.818832275390625,-0.3322320878505707,-0.08804930746555328,0.038578636944293976
1782836848159761200,8.82876123046875,-0.4472280740737915,0.23866000771522522,-0.009506170637905598
1782836848169690000,8.838690185546875,-0.5010266304016113,0.48917773365974426,-0.10813314467668533
1782836848179619000,8.848619140625,-0.4674348831176758,0.6197680830955505,-0.22168870270252228
1782836848189548300,8.85854833984375,-0.4131823182106018,0.6868594884872437,-0.2940020263195038
1782836848199478300,8.868478271484374,-0.34224647283554077,0.6665019989013672,-0.3291832208633423
1782836848209407000,8.878406982421875,-0.29600653052330017,0.563707709312439,-0.3376278281211853
1782836848219336200,8.888336181640625,-0.2752942442893982,0.3981271982192993,-0.3230956196784973
1782836848229265200,8.89826513671875,-0.26113662123680115,0.19631338119506836,-0.28692057728767395
1782836848239194000,8.908194091796876,-0.24017022550106049,-0.0006293356418609619,-0.2404436618089676
1782836848249124400,8.918124267578126,-0.19688613712787628,-0.14115449786186218,-0.1928234100341797
1782836848259053300,8.92805322265625,-0.14866095781326294,-0.16918151080608368,-0.15676996111869812
1782836848268982300,8.937982177734375,-0.1136113703250885,-0.13926568627357483,-0.15972793102264404
1782836848278911200,8.9479111328125,-0.0759558454155922,-0.12747879326343536,-0.19125130772590637
1782836848288840000,8.95783984375,-0.0329790823161602,-0.09253625571727753,-0.2349337935447693
1782836848298770200,8.967770263671875,-0.003109186887741089,-0.07039310783147812,-0.254446804523468
1782836848308699100,8.97769921875,0.03589120879769325,-0.11237091571092606,-0.2502121031284332
1782836848318628000,8.987628173828124,0.06663822382688522,-0.15503330528736115,-0.21931010484695435
1782836848328557300,8.997557373046876,0.07659046351909637,-0.16993448138237,-0.14508673548698425
1782836848338486300,9.007486328125,0.08649831265211105,-0.14126598834991455,-0.055259108543395996
1782836848348416000,9.017416015625,0.0769767090678215,-0.09629024565219879,0.005960042588412762
1782836848358345200,9.02734521484375,0.037106823176145554,-0.07317715138196945,0.022098200395703316
1782836848368274200,9.037274169921876,-0.007804191671311855,-0.0908496230840683,-0.012921836227178574
1782836848378203100,9.047203125,-0.03571125864982605,-0.042857781052589417,-0.041317954659461975
1782836848388132000,9.057132080078125,-0.0820276290178299,-0.005900561343878508,-0.033729806542396545
1782836848398062300,9.067062255859375,-0.08966067433357239,0.003122997470200062,0.04114026948809624
1782836848407991300,9.0769912109375,-0.10148803889751434,0.00042228586971759796,0.16685743629932404
1782836848417920000,9.086919921875,-0.1231352910399437,-0.04672103747725487,0.2806447446346283
1782836848427849000,9.096848876953125,-0.0848451629281044,-0.057608041912317276,0.34177708625793457
1782836848437778200,9.106778076171874,-0.06311976909637451,-0.008636411279439926,0.3476316034793854
1782836848447708200,9.116708251953124,-0.047737881541252136,0.04077747464179993,0.31138917803764343
1782836848457637000,9.12663720703125,-0.022626597434282303,0.10227403789758682,0.25862064957618713
1782836848467566300,9.13656640625,0.01632266491651535,0.13391746580600739,0.20032034814357758
1782836848477495300,9.146495361328125,0.04566473886370659,0.13083967566490173,0.13036514818668365
1782836848487424300,9.15642431640625,0.032826438546180725,0.14440982043743134,0.08032301068305969
1782836848497354200,9.166354248046876,-0.01539873331785202,0.20993106067180634,0.04482703655958176
1782836848507283200,9.176283203125,-0.049422744661569595,0.268594354391098,-0.01990002766251564
1782836848517212200,9.186212158203125,-0.035189174115657806,0.24228885769844055,-0.12315109372138977
1782836848527141000,9.19614111328125,0.015614351257681847,0.12235554307699203,-0.22542472183704376
1782836848537070300,9.2060703125,0.06668829917907715,0.005264151841402054,-0.2758413851261139
1782836848547000000,9.216,0.09505948424339294,-0.10952448099851608,-0.26123687624931335
1782836848556929000,9.225928955078125,0.11101174354553223,-0.1858835518360138,-0.18093465268611908
1782836848566858200,9.235858154296874,0.11639053374528885,-0.1844172179698944,-0.04982376471161842
1782836848576787200,9.245787109375,0.09355777502059937,-0.05516097694635391,0.07378049194812775
1782836848586716200,9.255716064453125,0.06324274837970734,0.1243339478969574,0.16908703744411469
1782836848596646100,9.265646240234375,0.04690047353506088,0.2893141210079193,0.2262464314699173
1782836848606575400,9.275575439453124,0.0452628955245018,0.3960602879524231,0.2526055872440338
1782836848616504300,9.28550439453125,0.07608315348625183,0.40856796503067017,0.25928163528442383
1782836848626433000,9.29543310546875,0.1073334813117981,0.360350102186203,0.24285869300365448
1782836848636362000,9.305362060546875,0.1580750197172165,0.25147733092308044,0.22001853585243225
1782836848646291200,9.315291259765624,0.1901935487985611,0.17014703154563904,0.20576049387454987
1782836848656217000,9.325217041015625,0.22226880490779877,0.14899010956287384,0.19174905121326447
1782836848666146300,9.335146240234375,0.2172120064496994,0.18439923226833344,0.19087685644626617
1782836848676076300,9.345076171875,0.18499183654785156,0.2603195309638977,0.2050660103559494
1782836848686005000,9.3550048828125,0.14164623618125916,0.35601091384887695,0.22964832186698914
1782836848695934000,9.364933837890625,0.10995824635028839,0.3966560959815979,0.25234660506248474
1782836848705864200,9.3748642578125,0.09512284398078918,0.39140087366104126,0.26347383856773376
1782836848715793400,9.38479345703125,0.08453556150197983,0.33500364422798157,0.259633332490921
1782836848725723400,9.394723388671874,0.094246506690979,0.20308846235275269,0.24073952436447144
1782836848735652000,9.404652099609375,0.11256665736436844,0.0780290961265564,0.2069421410560608
1782836848745581300,9.414581298828125,0.13301920890808105,-0.03376561775803566,0.1613355129957199
1782836848755510300,9.42451025390625,0.16052748262882233,-0.1316319704055786,0.09648963063955307
1782836848765439200,9.434439208984376,0.19824983179569244,-0.1954285353422165,-0.0005011009052395821
1782836848775369500,9.444369384765626,0.2354181706905365,-0.2358623743057251,-0.13263852894306183
1782836848785298400,9.45429833984375,0.255886435508728,-0.29076266288757324,-0.25716954469680786
1782836848795227400,9.464227294921875,0.25020360946655273,-0.3134021759033203,-0.33178287744522095
1782836848805156400,9.47415625,0.21033607423305511,-0.29930901527404785,-0.3420701324939728
1782836848815085300,9.484085205078125,0.1671382039785385,-0.2580598294734955,-0.29584670066833496
1782836848825015300,9.494015380859375,0.14523689448833466,-0.1535797417163849,-0.21693003177642822
1782836848834944300,9.5039443359375,0.11743480712175369,-0.0503711998462677,-0.16158771514892578
1782836848844873200,9.513873291015624,0.08187654614448547,0.06113642081618309,-0.13012725114822388
1782836848854802400,9.523802490234376,0.03721840679645538,0.15420441329479218,-0.11275007575750351
1782836848864731400,9.5337314453125,-0.008108062669634819,0.1551695317029953,-0.1142054870724678
1782836848874661000,9.5436611328125,-0.03672751411795616,0.12033974379301071,-0.13152557611465454
1782836848884590300,9.55359033203125,-0.03224781155586243,0.06674203276634216,-0.1430051475763321
1782836848894519300,9.563519287109376,-0.011768987402319908,0.02435629814863205,-0.14285743236541748
1782836848904448300,9.5734482421875,0.008634820580482483,0.010865525342524052,-0.12845025956630707
1782836848914377200,9.583377197265625,0.021152174100279808,0.011983548291027546,-0.1112133264541626
1782836848924306400,9.593306396484374,0.02314208820462227,0.016419842839241028,-0.10588700324296951
1782836848934236400,9.603236328125,0.008248587138950825,0.014428192749619484,-0.1080811470746994
1782836848944165000,9.6131650390625,-0.010303526185452938,-0.0022341404110193253,-0.11027426272630692
1782836848954094300,9.62309423828125,-0.03491515293717384,-0.012217731215059757,-0.11528085172176361
1782836848964023300,9.633023193359374,-0.0498589463531971,-0.010774032212793827,-0.10269582271575928
1782836848973952300,9.6429521484375,-0.059540364891290665,-0.014705516397953033,-0.0935249775648117
1782836848983882200,9.65288232421875,-0.047134559601545334,-0.004492026753723621,-0.0967404767870903
1782836848993811500,9.6628115234375,-0.03695482015609741,0.02573556825518608,-0.12469685077667236
1782836849003740400,9.672740478515625,-0.03827521577477455,0.056517716497182846,-0.15881727635860443
1782836849013669400,9.68266943359375,-0.05245371535420418,0.09759027510881424,-0.16742905974388123
1782836849023598000,9.69259814453125,-0.08213891088962555,0.09375612437725067,-0.1663249135017395
1782836849033528300,9.7025283203125,-0.10192614048719406,0.008992215618491173,-0.15531454980373383
1782836849043457300,9.712457275390625,-0.10314559936523438,-0.08338005840778351,-0.15034055709838867
1782836849053386200,9.72238623046875,-0.1011175885796547,-0.13815468549728394,-0.15760289132595062
1782836849063315500,9.7323154296875,-0.08788034319877625,-0.15842586755752563,-0.18418070673942566
1782836849073244400,9.742244384765625,-0.17744538187980652,-0.00469935080036521,0.064907506108284
1782836849083174100,9.752174072265625,-0.32524389028549194,-0.22684399783611298,0.24086548388004303
1782836849093103400,9.762103271484374,-0.3687449097633362,-0.5985538363456726,0.2084045261144638
1782836849103032300,9.7720322265625,-0.3003983199596405,-0.6293239593505859,0.06477866321802139
1782836849112961300,9.781961181640625,-0.24746665358543396,-0.46677836775779724,-0.08120989054441452
1782836849122890200,9.79189013671875,-0.28162914514541626,-0.20860593020915985,-0.22961267828941345
1782836849132820500,9.801820556640624,-0.3505132794380188,0.04837650805711746,-0.34083572030067444
1782836849142749200,9.811749267578126,-0.35847505927085876,0.357846736907959,-0.334367960691452
1782836849152678100,9.82167822265625,-0.4014574885368347,0.4984537661075592,-0.1982155442237854
1782836849162607000,9.831607177734375,-0.4454917907714844,0.27957624197006226,-0.002672152128070593
1782836849172536300,9.841536376953124,-0.40777918696403503,-0.10069974511861801,0.2009715586900711
