time,seconds_elapsed,z,y,x
1782835961309868300,0.078868408203125,0.0921902079194784,-0.4298379623226821,0.05326280363202095
1782835961319798500,0.088798583984375,0.2617091547131538,-0.35645343102961774,0.1649316920686513
1782835961329728300,0.098728271484375,0.33170331291556354,-0.38245764085799455,0.200545953220129
1782835961339658500,0.108658447265625,0.46597968141436574,-0.489181693303585,0.2528721335891634
1782835961349588500,0.11858837890625,0.5940916820645332,-0.472633586345613,0.4799748159538954
1782835961359518500,0.1285185546875,0.6432546491622925,-0.3115475368544459,0.6377153544094413
1782835961369448400,0.138448486328125,0.719241325777769,-0.09216434282585978,0.7234263563774526
1782835961379378400,0.14837841796875,0.7235919222027063,0.03069602090641856,0.6864998435836285
1782835961389308400,0.158308349609375,0.6357908891528844,0.04182020311951637,0.5516568541780114
1782835961399238400,0.16823828125,0.6620914515793324,0.00830927092283964,0.566731527582556
1782835961409167600,0.178167724609375,0.7263567107409238,-0.019622838228195903,0.6780575939308852
1782835961419097300,0.188097412109375,0.9214555044710636,-0.024670769267529247,0.721757034925744
1782835961429027600,0.198027587890625,1.1980272972732782,-0.04715805701613426,0.7526825537391006
1782835961438957600,0.20795751953125,1.3776508739739655,-0.09761574009954929,0.8340991464488208
1782835961448887300,0.21788720703125,1.4579916541457176,-0.14640622062310577,0.9287428119350224
1782835961458817500,0.227817626953125,1.6341127756834029,-0.16568141445741055,0.9119867613147944
1782835961468747300,0.237747314453125,2.009327898067236,-0.06692877928242087,0.66035914789401
1782835961478677500,0.247677490234375,2.276644955790043,0.23114348218813538,0.39761509717516597
1782835961488607500,0.257607421875,2.4598411302804943,0.5843816044330596,0.23357187837883828
1782835961498537500,0.267537353515625,2.340668807411194,0.7778224018231034,0.1680418599784374
1782835961508467500,0.277467529296875,2.388744563794136,0.746980542705208,0.05043751707822084
1782835961518397700,0.287397705078125,2.523574474522471,0.6277792860023677,-0.09307093627676367
1782835961528327400,0.297327392578125,2.6459090608149767,0.5840696158744394,-0.14473419575765728
1782835961538257400,0.30725732421875,2.7446868304312226,0.6032331660278141,-0.11133607628569006
1782835961548187400,0.3171875,2.753525385925174,0.688514325211197,-0.13007022204585372
1782835961558117400,0.327117431640625,2.299194641250372,0.9157043935984372,-0.30795338481999934
1782835961568047600,0.337047607421875,0.9425380399882793,1.0701032204106449,-0.6208972714036702
1782835961577977300,0.346977294921875,-0.8369049976497888,0.8640570623390376,-0.835702782253176
1782835961587907600,0.356907470703125,-2.826198407948017,0.2984182984292507,-0.5467626523956656
1782835961597837600,0.366837646484375,-5.155506447911262,-0.5056476749360561,0.19689356819242237
1782835961607767300,0.376767333984375,-7.759076250168681,-1.3836903002686798,0.9940808879598975
1782835961617697500,0.386697509765625,-10.061592729318141,-1.7570729465283452,1.029756450844556
1782835961627627300,0.396627197265625,-12.398158193063734,-1.1518918613031506,0.47791254966184493
1782835961637557500,0.4065576171875,-14.117936158812045,-0.4466071646854281,0.07927183576598763
1782835961647487500,0.416487548828125,-14.326626840043067,-0.25528730497211216,0.11523235307186841
1782835961657416400,0.42641650390625,-13.515062619876861,-0.3487479712188244,0.29059973363280295
1782835961667346400,0.436346435546875,-12.480187656974792,-0.6728793875753879,0.7168924245640635
1782835961677276400,0.4462763671875,-11.698873613643645,-1.2494795443519948,1.4804001775696873
1782835961687206400,0.456206298828125,-10.608424647557735,-1.8791778157182037,2.1899580214619636
1782835961697136400,0.466136474609375,-8.928140487807989,-2.236759812386334,2.5904423173978923
1782835961707066600,0.476066650390625,-6.882887289878726,-2.1074340520322323,2.3320501782782372
1782835961716996400,0.485996337890625,-4.3518876337915655,-1.575343337459117,1.5318148691169917
1782835961726926600,0.495926513671875,-1.4628841023623942,-1.0346205497495828,0.6037748716890812
1782835961736856600,0.505856689453125,1.323922790917754,-0.6625941404044627,-0.32385873689502476
1782835961746786300,0.515786376953125,3.803116271921992,-0.2917982957676053,-0.8961481908656657
1782835961756716500,0.525716552734375,5.702858006110787,-0.07977014067694545,-1.2195445709459483
1782835961766646300,0.535646240234375,6.785778330257535,-0.18743731919154524,-1.4060517696805297
1782835961776576500,0.545576416015625,6.951647522372007,-0.48237858915999526,-1.3894107237420976
1782835961786506500,0.555506591796875,6.547982550573349,-0.7072852227851748,-1.1456792703986167
1782835961796436500,0.5654365234375,5.771457495084404,-0.7479556713476777,-0.784622729487717
1782835961806366500,0.575366455078125,5.167227865365147,-0.5054300866626202,-0.6278446063235402
1782835961816296400,0.58529638671875,5.346477932578325,-0.09782602184936404,-0.337680779889971
1782835961826226400,0.595226318359375,6.681209702280164,0.046916941736638546,-0.23609511324614285
1782835961836156400,0.605156494140625,6.9296069554775945,0.45175914062112565,-0.7847155223377048
1782835961846086400,0.61508642578125,6.734449125036597,1.0455066854231059,-1.3244110128261148
1782835961856016400,0.625016357421875,7.487125102904439,1.5621720134578645,-1.8262445363014936
1782835961865946600,0.634946533203125,8.473397070679068,1.8667055798970162,-2.0692773398563267
1782835961875876400,0.64487646484375,8.444646777012943,1.782634965547174,-1.7756072588674723
1782835961885805300,0.654805419921875,7.6998928243160245,1.082392647010833,-1.3487570801839233
1782835961895735600,0.664735595703125,7.230406011563539,0.1547561158172786,-0.9433790208570658
1782835961905665300,0.674665283203125,6.992426692005991,-0.4162875758759677,-0.6935105260632932
1782835961915595500,0.684595458984375,7.051842173048853,-0.44903687605038284,-0.6629774406336247
1782835961925525500,0.694525390625,7.084041730386018,-0.04192059475407004,-0.8515252052851021
1782835961935455500,0.70445556640625,6.94332393066287,0.5521440531730651,-1.1572362910710274
1782835961945385500,0.714385498046875,7.2421806205093855,1.036009958281368,-1.490346694305539
1782835961955315500,0.7243154296875,7.833577072140574,1.385178931391239,-1.6897119133085012
1782835961965245400,0.734245361328125,8.18569831918478,1.6003160122826694,-1.7540797560617327
1782835961975175400,0.744175537109375,8.154344565021992,1.6816015259586274,-1.7456087187059222
1782835961985105400,0.75410546875,7.659947767418623,1.7127961440369486,-1.6403214210651813
1782835961995035400,0.764035400390625,6.891949132734537,1.577971055614203,-1.5633597619377075
1782835962004965600,0.773965576171875,5.371709988990426,1.3570992304630576,-1.2975002095468342
1782835962014895400,0.783895263671875,4.453381092107295,1.2757270614169538,-0.6008193828843533
1782835962024825600,0.79382568359375,4.321165163269638,1.3291278122149408,0.3674766370862722
1782835962034755600,0.803755615234375,3.0229250951409337,1.4067062880665062,0.7801081746727228
1782835962044685600,0.813685546875,-0.3987450510531664,1.9792925330266355,0.5468270959340036
1782835962054615600,0.823615478515625,-4.534245603892207,2.4636758861377834,-0.7392864810712635
1782835962064545300,0.833545166015625,-6.130111943289637,2.1151634772405026,-2.753088163551688
1782835962074475500,0.8434755859375,-6.438651238238811,1.144035594844818,-2.912349920225143
1782835962084405500,0.853405517578125,-9.111324971860647,-0.9064036274202167,0.10692308214902878
1782835962094335500,0.86333544921875,-14.208832819789647,-3.3548704001188274,4.545369639974832
1782835962104264400,0.873264404296875,-18.30576311121583,-4.39340417778939,6.896210297310352
1782835962114194400,0.8831943359375,-19.2672256319046,-2.825841849595308,5.510342214611172
1782835962124124400,0.89312451171875,-19.164027123236654,-0.17170564318299292,3.0147046715453265
1782835962134054400,0.903054443359375,-18.34881899361014,0.7094966152243316,1.977998986084759
1782835962143984600,0.912984619140625,-17.110425199157,-0.5021528185576201,2.788128205011785
1782835962153914400,0.922914306640625,-15.586421149921417,-2.3882696397587657,3.8470790400281545
1782835962163844600,0.9328447265625,-14.000774591243266,-3.771364458352327,3.940233416804671
1782835962173774600,0.942774658203125,-10.77343050084114,-4.05754345293343,3.174094146251678
1782835962183704600,0.95270458984375,-6.810338771018386,-3.023070641091466,2.2277973382517695
1782835962193634600,0.962634521484375,-3.5560949832528825,-1.6529374492712319,1.7234452560842035
1782835962203564300,0.972564208984375,-0.9024141193926334,-0.7052972638383508,1.5103534172847866
1782835962213494500,0.98249462890625,-0.4293383422374725,0.004022387383878231,1.690137152983248
1782835962223424500,0.992424560546875,-0.9406739996820688,0.44471492119804024,1.5559564999438822
1782835962233354500,1.0023544921875,-1.4725298825860023,0.3639509471781552,0.9380538803115487
1782835962243284500,1.012284423828125,-1.9612860439538955,-0.006222673907130956,-0.08302402790635824
1782835962253214700,1.022214599609375,-1.7327911765784023,-0.11340995995029807,-1.0335857998743652
1782835962263144400,1.03214453125,-0.6770534583896398,0.10640724158138036,-1.3126343580536544
1782835962273074400,1.042074462890625,0.8171446506470441,0.3683439214400947,-0.9302243557296693
1782835962283004400,1.05200439453125,2.909621372044086,0.5584929838083684,-0.6271672915838659
1782835962292934400,1.061934326171875,5.10271243083477,0.7985328891575336,-0.4964394093468785
1782835962302864600,1.07186474609375,6.691074678212404,1.101756980433315,-0.22824761461615561
1782835962312794400,1.08179443359375,7.4175576456815,1.2440898141376673,0.07336421915739774
1782835962322723300,1.091723388671875,7.537543038499355,1.0803237317822874,0.539659104000777
1782835962332653600,1.101653564453125,7.817781537115573,0.9382438499256968,0.3628421091534197
1782835962342583300,1.111583251953125,7.774455021086335,1.169769901690632,-0.27880656611695886
1782835962352513500,1.121513427734375,7.526060105976462,1.6335579182796178,-0.5959148058384657
1782835962362443500,1.131443603515625,7.495088629129529,2.0535753283336757,-0.5371015284724533
1782835962372373500,1.14137353515625,7.5276225329875945,2.161553910885006,-0.6670144410647452
1782835962382303500,1.151303466796875,7.44228876683414,1.7601535230174659,-0.7796697832554579
1782835962392233700,1.161233642578125,7.14797205850482,1.2275937296278774,-0.7185305471599102
1782835962402163500,1.17116357421875,7.243463061535358,0.911326763036102,-0.9553281095869839
1782835962412093400,1.181093505859375,7.836433630615472,1.0095428071163595,-1.1456431761719286
1782835962422023400,1.1910234375,8.271573352608085,1.3935098296239972,-1.005497477248311
1782835962431953400,1.200953369140625,8.214350413173436,1.6947345637761055,-0.8556357093438506
1782835962441883600,1.210883544921875,8.007928845918178,1.8740202868245541,-0.763234050630778
1782835962451813400,1.2208134765625,8.213445573288201,2.0609474645368753,-0.8246808913707733
1782835962461743600,1.23074365234375,8.765241835936903,2.360861554481834,-0.9396279977604747
1782835962471673600,1.240673583984375,9.135618870639801,2.7327126072600483,-1.1258198469355702
1782835962481603300,1.250603271484375,8.783996805289387,2.9660017231747506,-1.2136147425055503
1782835962491533600,1.260533447265625,8.048687557286023,2.791136154656112,-1.4839634230092167
1782835962501463300,1.27046337890625,7.1721052137643095,2.36612385892421,-1.5565486206181347
1782835962511393500,1.2803935546875,6.061116148474812,1.8818939428091048,-1.5558467559590934
1782835962521323500,1.290323486328125,4.879357264435291,1.333011229519546,-1.5109984371900558
1782835962531253500,1.30025341796875,3.75817355286777,0.9965385102450847,-1.4398878421783445
1782835962541182500,1.310182373046875,2.123639336901903,0.901454334449768,-1.6846607673987746
1782835962551112400,1.320112548828125,-0.8925269316285848,0.8990176088221371,-1.8498769024319945
1782835962561042400,1.33004248046875,-5.35139142358303,0.7329552322231233,-1.45186513408944
1782835962570972400,1.339972412109375,-9.412864617180825,0.20528817931115625,-0.8033189543902873
1782835962580902700,1.349902587890625,-11.593128927624225,-0.6853323341742158,0.41849765314087267
1782835962590832400,1.359832275390625,-11.175240200161934,-1.9411768835134804,3.242290607382357
1782835962600762600,1.3697626953125,-13.982664934056997,-3.0810914529055355,6.229094880089163
1782835962610692600,1.379692626953125,-19.238574706959724,-4.59044066158384,6.912975554150343
1782835962620622300,1.389622314453125,-20.638593480086325,-6.060576634770632,5.6991293409764765
1782835962630552600,1.399552490234375,-18.269140476739405,-5.326829229256511,4.940660751181841
1782835962640482300,1.409482421875,-16.002428885942695,-2.5888383893325924,4.558020739494264
1782835962650412500,1.41941259765625,-13.907541011750697,-1.3011907346278428,3.4884389126092192
1782835962660342500,1.429342529296875,-10.587463692593573,-2.1095831928901374,2.815081386128068
1782835962670272500,1.4392724609375,-8.682493994623423,-3.0712650554180145,2.4139526548087598
1782835962680202500,1.449202392578125,-7.964977008420228,-3.5243870088249443,1.4478165893509982
1782835962690132500,1.459132568359375,-5.891864912706613,-3.4033594134777783,1.0060989502727984
1782835962700062500,1.4690625,-3.653355918565392,-2.3920935819610953,0.5601341751441359
1782835962709992400,1.478992431640625,-1.8265847280412912,-0.9771971193067729,0.2071907980620861
1782835962719922400,1.48892236328125,-0.07480243526697158,0.14484204004630447,-0.20478227561563253
1782835962729852400,1.498852294921875,1.1652233443021773,0.7167458557002246,-0.0790900494582951
1782835962739781400,1.508781494140625,1.7452280488252638,0.6358557710826397,-0.19165815175697207
1782835962749711600,1.518711669921875,2.279925292634964,0.25472470265328884,-1.098962235148251
1782835962759641300,1.528641357421875,2.578410226559639,0.06359481255412101,-1.2921351753823458
1782835962769571600,1.538571533203125,2.850047485569119,-0.005238412110134959,-1.237033173624426
1782835962779501300,1.548501220703125,3.5320723026305436,-0.09983473132327199,-1.510002119629085
1782835962789431600,1.558431640625,4.639328611132503,0.037641894521564245,-1.3195697102747856
1782835962799361500,1.568361572265625,5.336966592389345,0.28352409615814683,-0.7499461145125329
1782835962809291500,1.57829150390625,5.478897859555483,0.4342234839305281,-0.1300397538423538
1782835962819221500,1.588221435546875,6.042827043068408,0.35119024980440733,-0.14192249933779238
1782835962829151500,1.5981513671875,6.78970339474678,0.36704080295227465,-0.7063702998973429
1782835962839081500,1.60808154296875,7.459097862815857,0.7190951222401112,-1.022207496769726
1782835962849011500,1.618011474609375,7.681916438120603,0.8840688268195838,-1.1768716965198516
1782835962858941400,1.62794140625,7.649258615621924,0.6934529506571591,-1.24298930554986
1782835962868871400,1.637871337890625,7.535310749402642,0.32609665201492605,-1.110892619177699
1782835962878801700,1.6478017578125,7.092396301755309,-0.023504794228076935,-0.826420574644953
1782835962888731400,1.6577314453125,6.913225729519128,-0.20211656353771684,-0.5774896529622375
1782835962898661600,1.66766162109375,6.862950417265296,-0.10826273325495421,-0.5349392358720302
1782835962908591600,1.677591552734375,6.782870333856343,0.23252046962976455,-0.44844636281132694
1782835962918521300,1.687521240234375,6.6165200802266595,0.5467543229587376,-0.3936974122747779
1782835962928451600,1.69745166015625,6.407673331651091,0.6679365974109619,-0.5811589891247451
1782835962938381300,1.70738134765625,6.0354345947295425,0.6825542477630079,-0.7139801903791725
1782835962948310500,1.717310546875,5.778494554114341,0.4788465425763279,-0.9137610044457017
1782835962958240500,1.727240478515625,5.618809603592753,0.15263744316287337,-1.1129895914569496
1782835962968170500,1.73717041015625,5.554358466470241,-0.09512706508897244,-1.0975473999142646
1782835962978100500,1.7471005859375,5.712259456184506,-0.19851028267405926,-0.8208825220011174
1782835962988033500,1.757033447265625,5.53943971427977,-0.12453048890158533,-0.43611382772177454
1782835962997963800,1.7669638671875,4.86537199370265,0.21183833160698412,-0.37068580839112397
1782835963007893500,1.7768935546875,3.7386288944423196,0.4564963982760906,-0.4662789566218853
1782835963017823700,1.78682373046875,2.5225346100807187,0.33683176184520125,-0.8941029487736523
1782835963027753500,1.79675341796875,1.2366548418313263,0.10935177060067652,-1.2507786442518234
1782835963037683500,1.806683349609375,-0.9039297846525907,0.12697495944425463,-1.2267319982320068
1782835963047613700,1.81661376953125,-3.4329449889242647,0.09698116852305828,-1.1870815403670072
1782835963057543400,1.82654345703125,-4.524153833466768,-0.11856617366969585,-0.8005275701060891
1782835963067473700,1.8364736328125,-5.895086797362565,-0.009398819725215434,-0.21100246530473232
1782835963077403600,1.846403564453125,-9.10223507195413,0.4084175731532275,0.574294071791321
1782835963087333600,1.856333740234375,-13.994969119834899,0.028248189362883567,1.71019662906304
1782835963097263600,1.866263671875,-18.628137454771995,-1.8248339388512074,2.949060817506909
1782835963107193300,1.876193359375,-21.850496742498873,-3.4181650606825946,3.5079479151993986
1782835963117123600,1.88612353515625,-23.23624149107933,-2.9754630867421623,2.6803990671768783
1782835963127053600,1.896053466796875,-22.578967668914792,-1.0751007364369929,1.7158843193106352
1782835963136983600,1.905983642578125,-19.68813750658035,0.22320706316567956,1.3082891684561968
1782835963146913500,1.91591357421875,-15.546007306468486,0.37658231908380985,1.4795974828846752
1782835963156842500,1.925842529296875,-11.851336796218156,-0.2536262398920953,1.8486276330232618
1782835963166772500,1.9357724609375,-9.148678258699178,-1.000938644900173,2.635275438597798
1782835963176702500,1.945702392578125,-7.021548157072067,-1.6850097269669173,3.286821530765295
1782835963186632700,1.9556328125,-4.292973088008165,-2.21904456134513,2.7719834181576966
1782835963196562400,1.9655625,-1.8663941758602856,-2.039480021355301,1.8037996263898908
1782835963206492700,1.97549267578125,-0.15775193663239478,-1.2306161461889744,1.2672135000936686
1782835963216422700,1.985422607421875,1.2956062124937773,-0.4231232671149075,1.1582098122783004
1782835963226352600,1.9953525390625,2.5353362239867447,0.0939636473327875,1.063459836873412
1782835963236282600,2.00528271484375,3.4755320847630498,0.2676673324652016,0.6620021658606827
1782835963246212600,2.015212646484375,4.0949294729977845,0.2858646679349243,0.04589768169149756
1782835963256142600,2.025142578125,4.498175342601537,0.3048292614500969,-0.5787696097701788
1782835963266072600,2.035072509765625,5.247406732973456,0.332515140755102,-1.0339930655010043
1782835963276002600,2.04500244140625,6.204193078544735,0.48951815871633586,-1.0291304279007016
1782835963285932500,2.0549326171875,6.935057622098922,0.6400025154985487,-0.6961284534767269
1782835963295862800,2.06486279296875,7.266787823021412,0.6699578010402619,-0.183283925839141
1782835963305792500,2.07479248046875,7.738405802583694,0.5730571504075079,0.12391447589509189
1782835963315722500,2.084722412109375,8.312657058146595,0.3853913562223315,0.11811463050991296
1782835963325652500,2.094652587890625,8.736874404108525,0.24720994310900568,0.06282412044256926
1782835963335582500,2.10458251953125,8.90294291818738,0.38197285301573575,0.008345219019055366
1782835963345512700,2.1145126953125,8.849707587084174,0.5626817407350987,-0.11450886110290884
1782835963355441700,2.124441650390625,8.769582495489717,0.4435637053363025,-0.3645600189872086
1782835963365371400,2.134371337890625,8.817496923831104,0.1309348760511726,-0.666390902338922
1782835963375301600,2.144301513671875,9.069703506183624,0.20865721735283732,-0.7890972445532679
1782835963385231600,2.154231689453125,9.301016353589295,0.3932217575870454,-0.5930683303661645
1782835963395161600,2.16416162109375,8.703563086137175,0.6384826124548911,0.03538870876729488
1782835963405091600,2.174091552734375,7.63199593065381,0.7601179644368589,0.6100722182676196
1782835963415021600,2.184021484375,7.097779748359322,0.5754255600392818,0.4839645431771874
1782835963424951600,2.19395166015625,7.334851889944076,0.6871301773764192,-0.3064090779874474
1782835963434881800,2.2038818359375,7.40731857573986,0.7398311093419789,-1.4613471020534634
1782835963444811500,2.2138115234375,7.698659483128786,0.9757964587286114,-0.9446867424547671
1782835963454741500,2.223741455078125,7.279359135302901,1.2070854868672787,0.6383965416066348
1782835963464671500,2.23367138671875,6.32309652134478,1.1153490140646696,1.5350801545232533
1782835963474601500,2.2436015625,6.068365388950705,0.5915212470546365,0.9565427460737526
1782835963484531700,2.25353173828125,6.271589036947488,0.28558921199440956,0.025714360036328432
1782835963494461400,2.26346142578125,5.838678681442141,0.4541305459275841,-1.0485144158717243
1782835963504391700,2.2733916015625,4.799264321544766,0.5965355680853128,-2.111269538541883
1782835963514321700,2.28332177734375,3.88863007081747,0.8935581743724643,-1.7232811515636741
1782835963524251400,2.29325146484375,3.9181934344321485,1.1617714502826333,-0.934013665010035
1782835963534181600,2.303181640625,2.9881138940006493,1.2915246422685682,-0.35555151375383137
1782835963544111600,2.313111572265625,0.5675561418384313,1.445875684416294,0.16888985510990023
1782835963554041600,2.32304150390625,-2.584678639304638,1.820207448094338,-0.07413388835564255
1782835963563970600,2.332970458984375,-6.296859671804309,2.286858891290426,-0.654263680563122
1782835963573900500,2.342900634765625,-9.704048288181424,2.1853245164424178,-0.6850009102627634
1782835963583830500,2.35283056640625,-13.883870213305949,0.5997950082726776,0.49276583540067076
1782835963593760500,2.362760498046875,-17.472724725866318,-1.9735449292853473,1.7170115697748958
1782835963603690800,2.372690673828125,-19.851436555945874,-3.107773123604059,2.255176781956106
1782835963613620500,2.382620361328125,-20.293814412498474,-1.9642396330624818,2.4768366887450215
1782835963623550700,2.39255078125,-19.861908850121498,-0.26075653016343714,2.468463997197151
1782835963633480400,2.40248046875,-19.91082164185047,0.4022922221407294,2.3705928210318086
1782835963643410700,2.41241064453125,-18.887019861626623,-0.5777873207345604,1.9032281149998307
1782835963653340700,2.422340576171875,-16.77895569499731,-1.7339260258272289,1.920021721151471
1782835963663270400,2.4322705078125,-14.222576098459959,-1.8703285926997661,2.2061054386645553
1782835963673200600,2.44220068359375,-11.197312915760278,-1.3294773563049733,1.626505223289132
1782835963683130600,2.452130615234375,-8.000706493449211,-0.8628450562007725,0.6005094401523471
1782835963693060600,2.462060546875,-5.316918076094985,-1.1654109758287667,0.6045515551500023
1782835963702990600,2.471990478515625,-3.7171950612694022,-1.6549194168686865,1.3024727372623979
1782835963712920600,2.481920654296875,-2.3575457079321143,-1.7816630517750978,1.6252217593498528
1782835963722850600,2.4918505859375,-1.4169535413146017,-1.478344560214132,1.4959750555813311
1782835963732780800,2.50178076171875,-0.25160803193747994,-1.0772123217634857,0.8051146056354045
1782835963742710500,2.51171044921875,1.6239140377521515,-0.6528927575360983,-0.17024682267680763
1782835963752640500,2.521640625,2.9537229640990494,-0.3216922065109014,-0.5487959117889404
1782835963762570500,2.531570556640625,4.075307073161006,-0.6709636170819402,-0.5750986661724746
1782835963772499500,2.54149951171875,5.559459004479646,-1.426420165579021,-0.6383912809096276
1782835963782429700,2.5514296875,7.039778225767612,-1.84363289347589,-0.6344121481455862
1782835963792359700,2.561359619140625,8.265409569281339,-1.6522105963014064,-0.3345281610779464
1782835963802289400,2.571289306640625,8.721711321768165,-1.1956547229230403,0.10735986613109708
1782835963812219600,2.5812197265625,8.889256338140369,-0.7987814570911228,-0.11214417779818177
1782835963822149600,2.591149658203125,9.002102380597591,-0.4515664675932377,-0.9381637704268098
1782835963832079600,2.60107958984375,8.458788115090131,0.06281454889662563,-1.3676703088380395
1782835963842009600,2.611009521484375,7.6334163188457484,0.38244025133177634,-1.1802861811384557
1782835963851939600,2.620939697265625,7.075390221896767,0.2758285732194781,-1.203198124039918
1782835963861869600,2.63086962890625,6.886657456067204,-0.006509966415911912,-1.126276504661888
1782835963871799600,2.640799560546875,6.564815611952543,-0.18647351566068826,-0.8743779653452336
1782835963881729500,2.6507294921875,6.200338741204142,-0.2809912897448987,-1.0603013728424906
1782835963891659500,2.660659423828125,6.149381291905045,-0.3851397926140576,-1.5955175259597598
1782835963901589800,2.67058984375,5.63979627752006,-0.2371978137910366,-1.734914890734106
1782835963911519500,2.68051953125,5.367371083003282,-0.1790538139887154,-1.829923224814236
1782835963921449700,2.69044970703125,6.0088072845667595,0.034401889687031506,-2.1356142907254396
1782835963931379500,2.70037939453125,6.766812933024764,0.46385443288870154,-2.1421480764083562
1782835963941309700,2.710309814453125,7.196621815383434,0.7190406886391342,-2.0691057826817034
1782835963951239700,2.72023974609375,7.501511355653404,0.7479900120086967,-2.1642639004960653
1782835963961169400,2.73016943359375,7.411894797614217,0.710681002703309,-2.3550769797310234
1782835963971098600,2.7400986328125,6.720192051625252,0.7241856503121554,-2.2600131160713732
1782835963981028600,2.750028564453125,5.438256052565574,0.7114848664321005,-1.8376403750628232
1782835963990956500,2.75995654296875,4.461982331714034,0.5336282994039356,-1.447420283509791
1782835964000886800,2.76988671875,4.348141433000564,0.41589550781846046,-1.543568581405282
1782835964010816500,2.77981640625,3.267585499897599,0.46738370299339294,-1.5957783688530325
1782835964020746500,2.78974658203125,0.9094634533822535,0.47001536667123434,-1.4731006682112813
1782835964030676500,2.799676513671875,-1.085457733669877,0.5373104950480163,-1.293700671133399
1782835964040606500,2.8096064453125,-3.0003420919328927,0.7432429636120795,-0.9206021025121212
1782835964050536700,2.81953662109375,-5.811461588692665,0.5990607026487589,-0.16847499069869518
1782835964060466400,2.829466552734375,-8.36943576094508,-0.3180934513665736,1.4938000496298074
1782835964070396700,2.839396728515625,-11.202551400935649,-1.983650874366611,3.1965766116946934
1782835964080326700,2.84932666015625,-15.238651668345927,-3.2451746383860707,4.057618563996255
1782835964090256600,2.859256591796875,-18.452147266137597,-3.41016383279562,4.031082146987319
1782835964100186600,2.8691865234375,-18.355923272657392,-2.3334940934762356,3.776056707821786
1782835964110116600,2.87911669921875,-17.09468519371152,-0.8254146124728023,3.439580189155042
1782835964120046600,2.889046630859375,-15.530777004110812,-0.2399766308546066,3.4708442192077635
1782835964129976600,2.8989765625,-13.594115698325632,-0.603133651176095,4.058681224791705
1782835964139906600,2.908906494140625,-11.427713909018038,-1.1960032440997659,4.5374110821858045
1782835964149836500,2.91883642578125,-9.557031096053123,-1.5897148310303688,4.4427159057080745
1782835964159765500,2.928765625,-7.177928805351257,-1.650870872130245,3.4901313957408067
1782835964169695500,2.938695556640625,-4.114830105254054,-1.1842715975128113,1.9182894905313848
1782835964179625500,2.94862548828125,-1.680972726535797,-0.5236585479229688,0.7171463993251324
1782835964189555700,2.9585556640625,0.19833003073632716,-0.2518517775654793,0.2916188475474715
1782835964199485400,2.9684853515625,1.3741168546289204,-0.34128538025319577,0.46830534788295625
1782835964209415700,2.978415771484375,1.8823814340651035,-0.5886028753899037,0.4316410662218928
1782835964219345700,2.988345703125,2.1815520121663807,-0.7919540952891111,0.125095283177495
1782835964229275400,2.998275390625,2.6175591646432874,-0.9102185095332562,0.041038258961588144
1782835964239205600,3.00820556640625,3.265509862667322,-0.9669073420912027,-0.16867708914205432
1782835964249135600,3.018135498046875,4.231824499562382,-0.8944425559915602,-0.5215723892986774
1782835964259065600,3.028065673828125,5.262773813453316,-0.6404895683631301,-0.6852670138530432
1782835964268995600,3.03799560546875,5.9309793639987705,-0.22540983390696345,-0.4567779916964471
1782835964278925600,3.047925537109375,6.525739154583215,0.07576236634030938,-0.34740868543908
1782835964288855600,3.05785546875,7.29172528040111,0.12774316733777522,-0.5082675020456314
1782835964298785800,3.067785888671875,7.411016261214018,0.04837546998187899,-0.4186085661694407
1782835964308715500,3.077715576171875,7.3883455797225235,0.08818243358284235,-0.510239678901434
1782835964318645500,3.0876455078125,7.474163330000638,0.3351676280252635,-0.8212193527400493
1782835964328575500,3.097575439453125,7.290973000729084,0.6903169907189906,-0.9982290936805307
1782835964338505500,3.10750537109375,6.956904712247848,0.8754577234059572,-1.2855189721129834
1782835964348434700,3.1174345703125,6.847975550973415,0.8130798854261636,-1.6348964734070002
1782835964358364700,3.12736474609375,6.8734782410204405,0.7285473526529967,-1.650007971690595
1782835964368294400,3.13729443359375,6.928103565177321,0.6446143932081758,-1.4943649900361895
1782835964378224600,3.147224609375,7.087691485065221,0.736585843810439,-1.15169268546924
1782835964388154600,3.157154541015625,7.144082649850845,0.9684504798799752,-0.6438358100511133
1782835964398084600,3.167084716796875,7.104930204635858,1.1585099642686545,-0.28419936507120724
1782835964408014600,3.1770146484375,7.222267713293433,1.3002324109897017,-0.4125223781235516
1782835964417944600,3.186944580078125,7.440415374177694,1.4905052458681165,-0.9507930965058505
1782835964427874600,3.19687451171875,7.325294372525811,1.7571071410588919,-1.330769295811653
1782835964437804500,3.206804443359375,6.8126949787557125,1.957405987650156,-1.2620059945784508
1782835964447734500,3.216734619140625,6.6773389983266584,1.8657050245523452,-1.1741739818684755
1782835964457664500,3.22666455078125,6.575211333760619,1.5972585244081914,-1.0598365318097174
1782835964467594500,3.236594482421875,5.788619057765603,1.2976140451848506,-0.5999189269132912
1782835964477524500,3.2465244140625,5.125553792718053,1.153876166988164,-0.21458631514087317
1782835964487454700,3.256454833984375,4.456806974902749,1.3045738011948764,-0.09941709043309092
1782835964497384400,3.266384521484375,2.3362077363491056,1.4834854302339255,-0.09376301019415259
1782835964507314700,3.276314697265625,-0.4357908793777227,1.36182728189826,-0.12280980258882045
1782835964517244700,3.28624462890625,-3.895182561200857,0.9463578905373811,0.1878678195632994
1782835964527174400,3.29617431640625,-7.780902297529578,0.095885555306077,0.20553250946104526
1782835964537103600,3.306103515625,-9.77391735869944,-0.7366833128355443,-0.08738456120342016
1782835964547033600,3.31603369140625,-10.343016638326644,-0.7631257679507136,0.45656624864190815
1782835964556963600,3.325963623046875,-13.252726857697963,-0.5616359580092132,2.1134479054942727
1782835964566893600,3.3358935546875,-17.551057673346996,-0.959350496970862,3.575867605215311
1782835964576823600,3.345823486328125,-20.813828466439247,-2.151950362367928,4.21338458750844
1782835964586753500,3.35575341796875,-22.304529965531824,-3.0162454712465405,3.326581878745556
1782835964596683500,3.36568359375,-22.0173660515666,-2.4566671764194963,1.9066632040150462
1782835964606613800,3.37561376953125,-19.91876412528753,-1.232634792535007,1.4566785257205366
1782835964616543500,3.38554345703125,-16.108158374392985,-0.9605208559244871,1.7245670997209845
1782835964626473700,3.3954736328125,-12.3452589620471,-1.4703285731494427,2.439592415238917
1782835964636403500,3.405403564453125,-8.910789540034532,-1.8496482082426546,2.64340321547389
1782835964646333700,3.415333740234375,-5.349473022741079,-1.6535191946819423,1.8173147953927515
1782835964656263700,3.425263671875,-2.246692300596833,-0.8683800401046872,0.8797367158994078
1782835964666193400,3.435193359375,-0.3747907594919204,-0.14810498736500738,0.6218735690899193
1782835964676123600,3.44512353515625,0.17716683119833468,-0.21951967988982796,0.8163754198402166
1782835964686053600,3.4550537109375,0.5129314022034407,-0.7627446596786379,0.8849344306729734
1782835964695983600,3.464983642578125,1.1297340977698564,-1.1118393985085189,0.7165675765238702
1782835964705913600,3.47491357421875,2.007937905013561,-0.9682737350735813,0.4105547313123941
1782835964715842600,3.484842529296875,2.9409160894960165,-0.6502480882462114,-0.028636823354288934
1782835964725772500,3.4947724609375,3.848260651028156,-0.43533940928317605,-0.4932192051913589
1782835964735702500,3.50470263671875,4.562250632148981,-0.34542014197036625,-0.791115014116466
1782835964745632800,3.5146328125,5.1056075677543875,-0.3363488006338477,-0.7276873748227953
1782835964755562500,3.5245625,5.564229872143268,-0.46348307882566003,-0.07111417520828545
1782835964765492700,3.53449267578125,6.126050685200095,-0.5912765515785664,1.0272083737969397
1782835964775422500,3.54442236328125,6.625906917253136,-0.6324350028537213,1.4835887444779277
1782835964785352400,3.5543525390625,7.0976903165102,-0.5933918632321059,1.122090670344606
1782835964795282700,3.56428271484375,7.6631228903234,-0.46721126903593535,0.5821907433252781
1782835964805212400,3.57421240234375,7.898107704240084,-0.2962373011283576,0.10857830201014876
1782835964815142700,3.584142578125,8.050138925138116,-0.2881784247700125,-0.29912367021963
1782835964825072600,3.59407275390625,8.287493975317478,-0.3615573300398886,-0.44101913542002436
1782835964835002600,3.604002685546875,8.441694356948137,-0.4092226789910346,-0.4312508247952908
1782835964844932600,3.6139326171875,8.50256471297443,-0.4288105189710855,-0.32130211121477187
1782835964854862600,3.623862548828125,8.215576155576109,-0.23678835620731115,-0.20041867357864976
1782835964864792600,3.63379248046875,8.013599292770028,-0.009830635271221399,-0.04273454148545861
1782835964874722600,3.64372265625,8.408117666038871,0.11393515286818146,-0.12348689813278614
1782835964884652500,3.653652587890625,8.912048015663027,0.416951008220762,-0.26574089444726706
1782835964894581500,3.66358154296875,8.37353910461068,0.6278312353853136,-0.2054181623663753
1782835964904511700,3.67351171875,7.7694193650066845,0.49861149268895383,-0.20721585943810641
1782835964914441500,3.68344140625,7.160228898009658,0.016175547318533063,-0.8556951844461261
1782835964924371500,3.693371337890625,7.1560180023163555,-0.3853445944711566,-1.658322211049497
1782835964934301700,3.7033017578125,7.384443896108865,-0.3651738400366157,-1.7972845454074442
1782835964944231400,3.7132314453125,6.859774709838629,-0.026251681783422826,-0.7909848118655383
1782835964954161700,3.72316162109375,5.196861371606588,0.07654343371540308,0.21777795078903436
1782835964964091600,3.733091552734375,3.69101432583034,-0.3147493285704404,-0.040280426331609484
1782835964974021600,3.743021728515625,2.1610727032393218,-0.5524178286131471,-0.35187414041534065
1782835964983950300,3.752950439453125,-0.45252223394811153,-0.4170110678449273,-0.09680427758619188
1782835964993880300,3.76288037109375,-3.0833763489723203,-0.24210092953220008,-0.3000724953770637
1782835965003810300,3.772810302734375,-5.412780835047364,-0.16496230640262363,-0.43374300693720574
1782835965013740300,3.782740234375,-8.337071952956915,-0.04287994130551815,-0.9212468301564455
1782835965023670500,3.79267041015625,-10.331541304588317,0.294530570275709,-1.1598457429170608
1782835965033600300,3.802600341796875,-11.273507682168484,0.5702403394211083,-0.5581394941955804
1782835965043530200,3.8125302734375,-12.7385498393476,0.17499679368287324,1.1048019010871648
1782835965053460500,3.82246044921875,-15.514316867697238,-1.0405722977608443,3.1715587825551625
1782835965063389200,3.83238916015625,-18.51652767611146,-2.5975235078305006,4.649185696019232
1782835965073319400,3.8423193359375,-19.94931591541767,-3.080163524405658,4.8215930577307935
1782835965083249400,3.85224951171875,-20.425504856157303,-1.8374406147070228,4.500865312337875
1782835965093179100,3.86217919921875,-20.235923364543915,-0.6479438298918306,4.245127925510705
1782835965103109400,3.872109375,-19.071118537914753,-0.5946775191284716,4.080277555049956
1782835965113039400,3.882039306640625,-17.086729850792885,-0.9712089848078787,3.8877787146851417
1782835965122969300,3.89196923828125,-14.91133928386569,-1.00187198022753,3.630021512468159
1782835965132899300,3.9018994140625,-12.29266602050066,-0.8542557262275368,3.0204452610239385
1782835965142829300,3.911829345703125,-9.005023236480355,-0.7136925325442105,1.8921859119817614
1782835965152759300,3.92175927734375,-5.03810931802094,-0.6754523068033158,0.49625762303918597
1782835965162689500,3.931689453125,-1.216351473993063,-0.6372646149672567,-0.42918622041568155
1782835965172619300,3.941619384765625,1.8591683162599801,-0.4231248745501041,-0.6712422878928482
1782835965182549200,3.95154931640625,3.825753635665774,-0.0865457722917199,-0.31704818009734154
1782835965192479500,3.9614794921875,4.534101811507344,0.07949687669351696,0.6778855252996087
1782835965202409200,3.9714091796875,5.115926717194914,-0.20380071723237633,1.407158854139596
1782835965212339500,3.98133935546875,5.839261449766159,-0.4335102210946381,1.3522929992251098
1782835965222269200,3.991269287109375,6.339499374613165,-0.4390231392972171,0.8227554032009095
1782835965232198100,4.0011982421875,7.031211472952365,-0.35717407345436514,0.07809818887673318
1782835965242128400,4.01112841796875,8.060616480010747,-0.15409356025531887,-0.7247342241056263
1782835965252058400,4.021058349609375,9.079923871424795,0.0859124428242445,-1.282841861858219
1782835965261988400,4.03098828125,9.62660030684173,0.23511370099335907,-1.6072672927252947
1782835965271918300,4.04091845703125,9.59372270411253,0.2583092831417918,-1.5865547595642506
1782835965281848300,4.050848388671875,9.454161088687181,0.19407303087897598,-1.3779945728451013
1782835965291778300,4.0607783203125,9.405815283191204,0.41023499783873557,-0.8187604152806103
1782835965301708300,4.070708251953125,8.613948866185545,0.7320431588795036,-0.02396510521620512
1782835965311638300,4.08063818359375,7.786323738056421,1.0257859397783875,0.1961059249460697
1782835965321568300,4.090568359375,7.671371078708767,1.1668287336722016,-0.3740324884705245
1782835965331498500,4.10049853515625,7.777930588242411,1.206427753610909,-1.16459834427163
1782835965341428200,4.11042822265625,7.500380890318751,1.084947592190653,-1.5959889428637921
1782835965351358500,4.1203583984375,6.619983956944942,0.9867164966717362,-1.63234635053277
1782835965361288200,4.1302880859375,5.902917637118697,0.6788204680621623,-1.3754188771381974
1782835965371218400,4.140218505859375,6.3451914487749335,0.23144721437506377,-1.2239816766105591
1782835965381148400,4.1501484375,7.744340453329682,0.03209814278930426,-1.7906037524692713
1782835965391078100,4.160078125,8.602809048011899,0.4735955632455647,-2.1453093169182536
1782835965401007400,4.17000732421875,8.81981806025505,1.240506110431999,-2.1854951968342062
1782835965410937300,4.179937255859375,8.420395548331737,1.8135028358891605,-1.9772880613364279
1782835965420867300,4.189867431640625,7.115657350355386,1.601780531877279,-1.496380129250884
1782835965430797300,4.19979736328125,6.110268594178557,0.9710865274719893,-1.1448872432380914
1782835965440727300,4.209727294921875,5.9964078217208385,0.4442421891197562,-1.4160735436096787
1782835965450657300,4.2196572265625,6.073369480848312,0.43882074859291315,-1.8291914034083485
1782835965460587300,4.229587158203125,6.333669353285432,1.1641710587702692,-2.0996904521681365
1782835965470517500,4.239517578125,6.186137197372317,1.990269707984477,-1.9360218388378618
1782835965480447200,4.249447265625,5.60068650240302,2.037621680137515,-1.8359641124136745
1782835965490377500,4.25937744140625,5.114312852257489,1.5404105557657777,-1.842628100347519
1782835965500307200,4.26930712890625,3.811934369149804,1.1282556957803667,-1.4784361840203404
1782835965510237200,4.2792373046875,1.6555477779000995,1.0605781439572572,-0.7738853546351194
1782835965520167400,4.28916748046875,-0.6220949567556381,1.4528941848762333,0.14303133736252785
1782835965530097200,4.29909716796875,-3.7515012354969977,2.0035347016185523,1.3908698365092276
1782835965540027400,4.30902734375,-6.786524180188775,2.221069345171004,2.316749587163329
1782835965549957400,4.318957275390625,-9.136669256475567,2.0814527846880257,2.5319606100738046
1782835965559886300,4.32888623046875,-12.498479684990643,1.7068835589922964,2.651900994706154
1782835965569816300,4.33881640625,-16.453575739884375,1.4178801546402275,2.9658780967950817
1782835965579746300,4.348746337890625,-19.553964013934134,1.3444472541607915,3.3615745739325877
1782835965589676300,4.35867626953125,-21.932044560372827,1.166135782971978,3.588555237352848
1782835965599606300,4.368606201171875,-22.844228378629683,0.49882937322333454,4.027665032020211
1782835965609536500,4.37853662109375,-21.81620868844986,-0.2458295946665108,4.626971818384528
1782835965619466200,4.38846630859375,-20.27491331267357,-0.42612456782273944,4.879631697462499
1782835965629396500,4.398396484375,-18.027362349420784,-0.35995829734541473,4.580872038249671
1782835965639326200,4.408326171875,-14.165086032521724,-0.3669738751959055,3.4905037361845372
1782835965649256200,4.418256103515625,-9.708869424727558,-0.45305297982394693,2.360030072093755
1782835965659186400,4.4281865234375,-6.840053525802492,-0.6367408833540976,2.035365864034742
1782835965669116200,4.4381162109375,-5.290175030598044,-1.2325476987734436,2.276873796109855
1782835965679046400,4.44804638671875,-4.450912071645259,-2.3741592813417314,1.9802476417943835
1782835965688976400,4.457976318359375,-3.616948388144374,-3.5178351029634474,1.4047072232037783
1782835965698906400,4.46790625,-2.2697037583500146,-4.141592439973354,0.7554284914463758
1782835965708836400,4.47783642578125,-0.2866805143624544,-4.0183872083261605,0.012878916925936937
1782835965718765300,4.487765380859375,1.3455892638027667,-3.4382048091486093,-0.248457020560652
1782835965728695300,4.4976953125,2.92589621501863,-3.1861741678848863,-0.3366843161985278
1782835965738625300,4.507625244140625,4.615890452399849,-3.3760587340980766,-0.5638866595454514
1782835965748555500,4.517555419921875,6.008598025730252,-3.3707851776093243,-0.5596162887498736
1782835965758485200,4.5274853515625,7.348671740981936,-2.9803941134035585,-0.6676321345716715
1782835965768415200,4.537415283203125,8.197654714438318,-2.459689154589176,-0.9140408443003892
1782835965778345500,4.547345458984375,8.67708716714382,-1.835202188130468,-1.0125685846783221
1782835965788275200,4.557275146484375,8.575248256391287,-1.1716982394047082,-0.9582546645581722
1782835965798205400,4.567205322265625,7.979225314003228,-0.8278419857501983,-1.0199940585039555
1782835965808135200,4.57713525390625,7.273129885524511,-0.8701190657917409,-1.1971984452337026
1782835965818065400,4.5870654296875,6.756569186908006,-1.1474161041285842,-1.740712617227435
1782835965827995400,4.596995361328125,6.616911709892749,-1.213612550548464,-1.9546664796836672
1782835965837925400,4.60692529296875,6.59212389011681,-1.1205617802768946,-2.035348620638996
1782835965847855400,4.61685546875,6.614848347622155,-0.983968805398792,-1.9275166069515048
1782835965857785300,4.626785400390625,6.881644011819362,-0.7101809442266821,-1.73616664436087
1782835965867715300,4.63671533203125,7.547065484604239,-0.3016873466951772,-1.9938870216988025
1782835965877644300,4.646644287109375,8.154303063967824,0.2702627923185006,-2.06911703472808
1782835965887574500,4.656574462890625,7.873772304406762,0.6506227667775005,-1.588109587790817
1782835965897504300,4.666504150390625,7.277900753188133,0.6977420261532068,-1.2101871061444283
1782835965907434200,4.676434326171875,6.856723505574465,0.5102163710910826,-1.275975337089598
1782835965917364500,4.686364501953125,6.776460466814041,0.48116059167236086,-1.5458068618513643
1782835965927294200,4.696294189453125,6.514326949208974,0.5962544861216098,-1.7621575563162564
1782835965937224400,4.706224365234375,6.1048477381736035,0.5265326420545577,-2.0722670231916007
1782835965947154200,4.716154296875,6.302309169381856,0.429494117321074,-2.5299171215474603
1782835965957084400,4.72608447265625,6.70154521882236,0.6725806968897581,-2.3506746531188485
1782835965967014400,4.736014404296875,6.566697772437334,0.9463970535039902,-1.7572767985373734
1782835965976944400,4.7459443359375,6.049916709068417,1.078791407648474,-1.5364568497039377
1782835965986875000,4.755875,5.127408480674028,1.3089507011048496,-1.3124350360892711
1782835965996804600,4.7658046875,4.165391833233833,1.6512100409567354,-1.2213975053362547
1782835966006734600,4.775734619140625,2.638103355500102,1.9729266512565313,-1.15480701809749
1782835966016664800,4.785664794921875,-0.6126514211058617,2.0265319847159087,-0.8755516852997243
1782835966026593800,4.79559375,-4.977465171965957,1.763293866869807,-0.4285479225121438
1782835966036523800,4.805523681640625,-9.039383186721802,1.2679321697570383,-0.008779372652620077
1782835966046453800,4.815453857421875,-11.2312888351202,0.5724025589562952,0.7994108410358428
1782835966056383500,4.825383544921875,-13.113245906293391,-0.4486253726400435,2.1078288965687153
1782835966066313700,4.835313720703125,-15.949168420398234,-1.0965006673403084,3.693282270762324
1782835966076243700,4.84524365234375,-17.629411663615702,-0.724772948680818,4.425779676215351
1782835966086173700,4.855173583984375,-18.779357943809032,0.3145689305022359,3.770915253280103
1782835966096103700,4.865103759765625,-19.983208832669256,0.9033937780797481,2.633828162398934
1782835966106034000,4.875033935546875,-19.456635274082423,0.3403884314134717,2.221265744525939
1782835966115963600,4.884963623046875,-17.767196332496404,-0.6051068509452044,2.8005659540414807
1782835966125893600,4.8948935546875,-15.796940215623378,-1.1609561153117567,3.645148062190413
1782835966135823600,4.90482373046875,-12.972757239151,-1.4845479448989032,3.6891415176957842
1782835966145753600,4.914753662109375,-9.153656047111749,-1.3576111255079506,2.5079624793708324
1782835966155683800,4.924683837890625,-5.379650718861818,-0.896002425719425,1.12962932222113
1782835966165612800,4.93461279296875,-2.1202537861168382,-0.6304544965609907,0.5164189520582556
1782835966175542500,4.94454248046875,-0.1257014323771,-0.6928405909124762,0.7872402185097336
1782835966185472800,4.95447265625,0.8121767991065979,-1.15554380793944,1.3712968287721274
1782835966195402500,4.964402587890625,1.5010206485331057,-1.630999904359877,1.494789060667157
1782835966205332700,4.974332763671875,1.9478034620463847,-1.680693325072527,0.996086674824357
1782835966215262700,4.9842626953125,3.1958436212450265,-1.2431278372377157,0.2062896114386618
1782835966225192700,4.994192626953125,4.271865418049693,-0.6319047684345394,-0.42299058064594863
1782835966235122700,5.004122802734375,4.861069912594557,-0.27730047240294514,-0.9512186284415424
1782835966245053000,5.014052978515625,5.770206033718585,-0.18296813788823782,-1.3365718446105719
1782835966254982700,5.023982666015625,6.485263351809978,0.0013468845643103123,-1.3467512933194636
1782835966264912600,5.03391259765625,7.0738745566368095,0.31102110182754694,-1.2450950456574559
1782835966274842600,5.043842529296875,7.908198305621743,0.5967630201656371,-1.3041449082583187
1782835966284772600,5.053772705078125,8.413717385742068,0.7035528313238173,-1.1661067030079661
1782835966294702800,5.063702880859375,8.62859698474109,0.6629961453340947,-0.8664926189228892
1782835966304632600,5.073632568359375,8.574598852571844,0.6698873661525547,-0.6996716790415346
1782835966314561500,5.0835615234375,8.367094166254997,0.6843623200982809,-0.8941156621247529
1782835966324491800,5.09349169921875,8.059936096531152,0.7067766887411475,-1.3065677514910696
1782835966334421800,5.103421875,7.77841807949841,0.7729524576991796,-1.665527758514136
1782835966344351700,5.113351806640625,7.86528972274363,0.8780348804175854,-2.1556315350987014
1782835966354281700,5.12328173828125,7.875911070001125,0.9911568172067403,-2.4826979819938537
1782835966364211700,5.133211669921875,7.642212788763642,1.1285540942050516,-2.2425340118736026
1782835966374141700,5.1431416015625,7.6743568165212865,1.1609116185829043,-1.8947621922105549
1782835966384071700,5.15307177734375,8.027590408721565,1.216298428631574,-1.7056339973226189
1782835966394001700,5.163001708984375,8.21385883026421,1.441681155335903,-1.526567177721858
1782835966403931600,5.172931640625,7.985226600244641,1.7128263930447398,-1.3610796784013508
1782835966413861600,5.182861572265625,7.808641368326544,1.8566091332964598,-1.4310855270415543
1782835966423791600,5.19279150390625,8.191931660616397,1.994547677564621,-1.7460712216511367
1782835966433721900,5.202721923828125,8.120920434325933,2.190036785786599,-1.7699021790936589
1782835966443651600,5.212651611328125,6.704698129895329,2.198661552399397,-1.161270222762227
1782835966453581800,5.222581787109375,5.636904647731781,1.7940110766947268,-0.9087737175524234
1782835966463510800,5.2325107421875,6.031469782751798,1.7357161241143941,-1.110344629906118
1782835966473440800,5.242440673828125,5.7921747044205665,2.350787173582613,-0.5670534530133009
1782835966483370800,5.252370849609375,3.7454046721875667,2.856211853417754,0.13117898700535296
1782835966493300700,5.26230078125,0.8794605293065308,3.089760789312422,0.5377580926850438
1782835966503230700,5.272230712890625,-2.6874410946428773,3.0610785924464463,1.29408090262264
1782835966513160700,5.28216064453125,-5.848114618307352,2.7378485088437796,1.8906524188041687
1782835966523090700,5.292090576171875,-8.299922664257883,2.1768128548152745,2.008062700437009
1782835966533020700,5.302020751953125,-10.851737729358673,1.054883147186041,3.141822400461137
1782835966542950700,5.31195068359375,-15.244199950122832,-0.17573811356946825,4.936668466675282
1782835966552880600,5.321880615234375,-19.975441705799103,-0.4999712367348373,5.769491163447499
1782835966562810600,5.331810546875,-21.824162862324712,-0.5645748610053211,4.711362458468973
1782835966572740900,5.341740966796875,-20.95031666576862,-0.4042760894343257,3.4786356037363406
1782835966582670600,5.351670654296875,-18.95351624084115,-0.03882956993617117,3.338858007472753
1782835966592600800,5.361600830078125,-16.644408108341693,-0.4315233215937391,3.6329604885295033
1782835966602529800,5.37152978515625,-15.872567995798587,-1.656769574780017,4.21704018740654
1782835966612459800,5.381459716796875,-15.300122328352927,-3.0241137204036113,4.107334488801658
1782835966622389800,5.3913896484375,-15.206670137673616,-3.827427998618781,3.622546062020957
1782835966632319700,5.40131982421875,-14.556388366353511,-4.100463726249337,3.4900574537217617
1782835966642249700,5.411249755859375,-11.885642385923862,-3.801776840011775,2.5849808371216056
1782835966652179700,5.4211796875,-9.053380732414126,-2.942197653739154,1.7057964944079518
1782835966662109700,5.431109619140625,-6.303464769157767,-2.480705931393802,0.8181891912639141
1782835966672039700,5.441039794921875,-3.813338975250721,-2.6555460732102394,-0.23107377795279024
1782835966681969700,5.4509697265625,-1.171296526736021,-3.2828277849540113,-1.2392587407194078
1782835966691900000,5.46089990234375,1.4880904398113488,-3.7689147271126506,-1.8669617466151713
1782835966701829600,5.47082958984375,3.972203257039189,-3.8174531325712797,-2.2752470716908575
1782835966711760000,5.480759765625,6.37865591148138,-3.488376076506078,-2.537364222683012
1782835966721689600,5.490689697265625,8.075051832598447,-2.856806896701455,-2.4628493721857665
1782835966731619600,5.50061962890625,8.544434600454569,-2.175214625838399,-2.2159961335599423
1782835966741548800,5.510548828125,8.051235488203167,-1.4187357485562562,-1.426080558361113
1782835966751478800,5.520478759765625,7.493679931375384,-0.8536381788510828,-0.5372856528677046
1782835966761408800,5.53040869140625,7.93380854769647,-0.4687616402830928,-0.12269728212505578
1782835966771338800,5.5403388671875,8.947361321106552,-0.2567598617427051,-1.0492603388682007
1782835966781268500,5.5502685546875,8.611456464847922,0.34739977148026224,-2.198875195150077
1782835966791198700,5.56019873046875,7.625025507119298,1.0532644599430263,-2.3665309784203767
1782835966801128700,5.570128662109375,7.671630606427788,1.0426393132932483,-2.263556633897126
1782835966811058700,5.58005859375,8.568408765760063,0.4710445635885,-2.31628138512969
1782835966820988700,5.58998876953125,8.97981748355329,0.2145784240953624,-2.2034397265866397
1782835966830919000,5.5999189453125,8.875735177788139,0.2685335939057171,-2.066660143095255
1782835966840848600,5.6098486328125,8.40306447430253,0.5690387816116214,-1.892363898897171
1782835966850779000,5.61977880859375,7.705837411934137,0.7534208048857748,-2.008963740929961
1782835966860708600,5.62970849609375,7.179667173451185,0.8050058845639229,-2.1007190645635125
1782835966870638600,5.639638671875,6.893665289002657,0.8276718898802995,-1.9470596579417585
1782835966880567800,5.64956787109375,6.89334204839766,1.015744145974517,-1.9236746907010673
1782835966890497800,5.659497802734375,7.032407404738664,1.3127477553002536,-2.283299152982235
1782835966900427800,5.669427734375,7.214371407085657,1.5409643902562558,-3.117420949654281
1782835966910357800,5.679357666015625,7.332291099545359,1.995256848747283,-3.7251232239201664
1782835966920287500,5.68928759765625,6.839858295491338,2.6013714154303074,-3.411966790564358
1782835966930217700,5.6992177734375,6.05962912478745,2.7570465457886457,-2.6584426714345812
1782835966940147700,5.709147705078125,5.639291250607371,2.38113189683333,-2.555840959616005
1782835966950077700,5.71907763671875,5.794412838736176,1.9347808988660573,-2.901068647754192
1782835966960007700,5.729007568359375,5.77652120821476,1.9207323536388574,-2.9385186729654666
1782835966969938000,5.73893798828125,4.453963275909423,2.138743967053294,-2.2864213766559955
1782835966979867600,5.74886767578125,2.0401906538426875,1.9431269946679472,-1.699889316190779
1782835966989797600,5.758797607421875,-1.1806646590620278,1.132008472442627,-0.9567933598339557
1782835966999727400,5.768727294921875,-4.587030853140354,-0.07675590742230415,0.268316590154171
1782835967009657600,5.77865771484375,-7.790871318358183,-1.281509736471623,1.638355235558748
1782835967019587600,5.788587646484375,-10.237783993482589,-2.0906705487579105,2.5720290010899305
1782835967029516800,5.798516845703125,-12.085879711586236,-1.519399770310521,3.1374937236070632
1782835967039446500,5.808446533203125,-13.936839586949347,-0.18070128893479703,3.147035166673362
1782835967049376500,5.81837646484375,-13.812031304019689,0.6540801406897604,2.4072873517006634
1782835967059306500,5.828306396484375,-13.965654178023337,0.829053845757991,1.8569412878602742
1782835967069236500,5.838236572265625,-15.454343752771615,-0.16751272153779864,2.1285753319993614
1782835967079166700,5.848166748046875,-14.99099208177328,-1.9859044985122978,2.855836590364575
1782835967089096400,5.858096435546875,-14.687021994435787,-3.0460204317852853,4.003412634295225
1782835967099026700,5.868026611328125,-13.891754244554042,-3.0581694270014763,4.263342212115228
1782835967108956700,5.877956787109375,-13.993952051746845,-2.135592225024104,4.073755752065778
1782835967118886400,5.887886474609375,-14.31660579676628,-1.5974804965957998,3.9335821422219275
1782835967128816600,5.897816650390625,-12.659013945817946,-1.8670618459887802,2.81729613956809
1782835967138746600,5.90774658203125,-10.500210941076277,-1.595249961064756,1.6367451700136064
1782835967148676600,5.917676513671875,-7.831826429080962,-0.9094643301650881,0.8415243280135095
1782835967158605600,5.92760546875,-4.640786408725381,-0.7014495023690164,0.5177006624318659
1782835967168535600,5.93753564453125,-1.490368906137347,-1.0163524140659719,0.43127500938847657
1782835967178465500,5.947465576171875,1.3493933322608471,-1.330858289269358,0.12301964594721794
1782835967188395500,5.9573955078125,3.3362954635083675,-1.6329183052018283,-0.20120660908594726
1782835967198325800,5.96732568359375,4.65639723483324,-1.8374315546177327,-0.035304537615180015
1782835967208258600,5.977258544921875,6.111131348487734,-1.7519480047300457,0.26996625705733895
1782835967218188500,5.9871884765625,7.19784054352343,-1.4155512733012436,0.6282686769545078
1782835967228117500,5.997117431640625,7.65551299984157,-0.9172318954266607,0.4331808430097997
1782835967238047500,6.007047607421875,7.764768324330449,-0.39074740336276587,0.14046762435436247
1782835967247977500,6.0169775390625,7.691928129047155,-0.04188764233253896,-0.15926964771896598
1782835967257907700,6.02690771484375,7.34452338913083,0.0891582928776741,-0.8230458375148475
1782835967267837400,6.03683740234375,6.877795519697666,0.010804010348021984,-1.6362388279266655
1782835967277767700,6.046767578125,6.325789413690567,-0.05933445169590413,-1.934861855147779
1782835967287697700,6.05669775390625,6.1435349039644,-0.1113808652754873,-2.3443157856114207
1782835967297627600,6.066627685546875,6.948716729617119,0.07212554420791566,-2.2434100640557704
1782835967307557600,6.0765576171875,7.257362992072105,0.4294793581433594,-1.255257981622964
1782835967317487400,6.0864873046875,7.062835860750079,0.6474754817277193,-0.47432723852097985
1782835967327417600,6.09641748046875,7.16915746987462,0.5590679341521114,-0.2577238844692707
1782835967337347600,6.10634765625,7.547954542398452,0.44005153249688445,-0.6204631177701055
1782835967347277600,6.116277587890625,7.876788437357544,0.6164585583038628,-1.1984151275470851
1782835967357207600,6.12620751953125,7.9966990113735195,1.2018325347751377,-1.487646203175187
1782835967367136500,6.136136474609375,7.745455721095204,1.682259843736887,-1.2951296810232102
1782835967377066500,6.14606640625,7.499424027985334,1.6327800657749174,-1.2357885803908109
1782835967386996500,6.15599658203125,7.776206248667836,1.4236644371300935,-1.2523708818793295
1782835967396926700,6.1659267578125,8.025511848881841,1.4187573758661747,-1.2663598058737813
1782835967406856400,6.1758564453125,7.8798302892714736,1.507850932944566,-1.5411746720060706
1782835967416786700,6.18578662109375,7.407831785959005,1.8303648311018943,-1.791428512855619
1782835967426716700,6.195716552734375,7.081215567049384,2.3591236247733236,-1.9015842933155596
1782835967436646400,6.205646484375,6.690891138339042,2.8337843330323693,-1.578196681063622
1782835967446576600,6.21557666015625,5.550042356836795,2.9761124905616043,-1.1603770733147858
1782835967456506400,6.22550634765625,4.174257861256599,2.727915728372335,-1.1654898862838745
1782835967466436600,6.2354365234375,2.475006550708413,2.480372169394791,-1.019545437953621
1782835967476366600,6.24536669921875,-0.10489829832315445,2.3611767579108474,-0.5872041145078838
1782835967486296600,6.255296630859375,-2.9662276408851147,2.2467940074056387,-0.6644773238025605
1782835967496226600,6.2652265625,-5.521286217951774,2.0251054590441284,-1.3659233190402387
1782835967506155500,6.275155517578125,-6.77097998957634,1.5878827932976185,-1.8208178350776434
1782835967516085500,6.28508544921875,-7.140283842089771,0.9429913367137313,-1.0083134114518761
1782835967526015500,6.295015380859375,-8.253897995185852,0.11200681515410542,0.645154053042829
1782835967535945700,6.30494580078125,-9.93274189299941,-0.8349484567545354,2.0299245497636496
1782835967545875500,6.31487548828125,-11.234262882494926,-1.8617976418502629,2.835657141166925
1782835967555805700,6.3248056640625,-12.404447648596763,-2.886331097349524,3.1926597305119038
1782835967565735700,6.334735595703125,-14.890047489511966,-3.543728253632784,3.471650859415531
1782835967575665400,6.34466552734375,-17.024843011200428,-4.267198595282435,3.6100106978356834
1782835967585595600,6.354595703125,-16.362769095277784,-4.467089883986115,3.4320325502544637
1782835967595525400,6.364525390625,-15.5576930680871,-3.0617794341921805,3.6328739792898297
1782835967605455600,6.37445556640625,-13.888155927801131,-1.4853601380646229,3.4853982297390695
1782835967615385600,6.384385498046875,-11.055074190080164,-0.542699933001399,2.5361551391541957
1782835967625315600,6.394315673828125,-8.35418266223371,-0.2875862310305238,1.3554570162139832
1782835967635244500,6.40424462890625,-6.128143858087062,-0.5255705920893698,0.6731760324344038
1782835967645174500,6.414174560546875,-5.411237112736702,-0.9786028944514691,0.7477347220733761
1782835967655104500,6.4241044921875,-4.590489469161629,-1.7630157805807887,0.774656339007616
1782835967665034500,6.434034423828125,-2.7691519941240545,-2.419344430849701,0.40567119705453514
1782835967674964700,6.44396484375,-0.9094102618902921,-2.310117163411528,0.3173302119091153
1782835967684894500,6.45389453125,0.2247054119646549,-1.9177879707500338,0.6904615137562156
1782835967694824700,6.46382470703125,1.5661264501720666,-1.7561945562586188,0.9896884982198476
1782835967704754700,6.473754638671875,3.230110047984123,-1.536229909080267,0.8928124705716967
1782835967714684400,6.483684326171875,4.964270759350061,-1.1139876625835894,0.21762392927110194
1782835967724614700,6.49361474609375,6.209233410799503,-0.6364122359216213,-0.18033070205673574
1782835967734544600,6.503544677734375,6.933111748728155,-0.5160471230711787,-0.4402057732105255
1782835967744474600,6.513474609375,7.784191986724734,-0.8035195184636861,-0.717275578662753
1782835967754404600,6.523404541015625,8.500311965611576,-1.0621800261959433,-0.8087582228347658
1782835967764334600,6.53333447265625,8.559307759937644,-0.9662065003454685,-0.42368806139081716
1782835967774263600,6.543263671875,8.205469772103429,-0.5905987253822386,0.09440320779383182
1782835967784193500,6.553193603515625,8.222789155694842,-0.17623510330617426,0.18839272022023795
1782835967794123800,6.563123779296875,8.489215402057766,0.1034174851808697,-0.1306403500840068
1782835967804053500,6.573053466796875,8.31697375230193,0.2787299937494099,-0.5517363491550088
1782835967813983700,6.582983642578125,7.923731974840163,0.3586260258283466,-0.9263448839478194
1782835967823913500,6.59291357421875,7.77215200484097,0.3378203344911337,-1.176527705387771
1782835967833843500,6.602843505859375,7.8306544626921415,0.3017653438348323,-1.1132907663606106
1782835967843773700,6.612773681640625,8.01779206828475,0.16930998021811247,-0.9527383853547274
1782835967853703400,6.622703369140625,8.001351805615425,-0.05098974413350224,-0.7767799070328474
1782835967863633700,6.632633544921875,7.684304210039973,-0.2214122156381607,-0.7131767650417983
1782835967873563600,6.642563720703125,7.868136344346404,-0.17048004691079258,-0.9651979078248143
1782835967883493600,6.65249365234375,8.606906546458601,0.25602438707500697,-0.9566659340620041
1782835967893423600,6.662423583984375,8.44704156319499,0.7797313772495835,-0.8222782141432166
1782835967903353600,6.672353515625,7.674952444326877,0.9788432790786027,-1.0252414576381443
1782835967913282600,6.682282470703125,6.710455085986852,0.9238215029500424,-0.9528874384365975
1782835967923212500,6.692212646484375,5.861507183843851,0.8378906476862729,-0.8259811603143811
1782835967933142800,6.702142822265625,4.58220796302855,0.7993196556210518,-0.8262168687663972
1782835967943072500,6.712072509765625,2.5412784735172984,0.7700444612979889,-0.8575526488810777
1782835967953002800,6.722002685546875,0.14769699108600615,0.6627756344512105,-0.9438852168135344
1782835967962932500,6.731932373046875,-2.4265654681444166,0.5312856818005443,-0.7241704527430236
1782835967972862500,6.741862548828125,-5.3272243660539385,0.3591989303454757,-0.10760112754106521
1782835967982792700,6.751792724609375,-8.50530495159328,0.20606734699010848,0.20682415670678017
1782835967992722400,6.761722412109375,-11.605768628966807,-0.05735131505466997,0.24277356809675693
1782835968002652400,6.77165234375,-13.925579357266425,-0.9486430788651108,1.2086352005273102
1782835968012582700,6.781582763671875,-16.69600268650055,-1.4993495004504918,2.632869254238903
1782835968022512400,6.791512451171875,-19.413744226861,-0.923746830278635,3.2178678215265273
1782835968032442600,6.801442626953125,-20.439991646671295,0.19595029599294064,2.779011417098343
1782835968042371600,6.81137158203125,-21.280606604754922,1.1376113339509815,2.224008467362821
1782835968052301300,6.82130126953125,-21.354422367072104,1.4686051103577016,1.8944250692106783
1782835968062231600,6.8312314453125,-20.131167689561842,1.2833404590301214,1.944131349404901
1782835968072161500,6.84116162109375,-18.219324014168976,0.7573216847818345,2.4272449748411775
1782835968082091500,6.851091552734375,-15.592741000592708,0.2522328127723187,2.8548756363779306
1782835968092021500,6.861021484375,-12.444877858662604,0.012464271710440516,2.8073294568270444
1782835968101951500,6.870951416015625,-8.782263113364577,-0.0522079608168453,1.9796816784746945
1782835968111881500,6.880881591796875,-4.907869073170423,-0.04561652666255831,1.054552600057423
1782835968121811500,6.8908115234375,-1.3942659086883067,-0.016970058697089552,0.432547075150907
1782835968131741400,6.900741455078125,1.157620468083024,0.0009335545230656862,0.35049043097198007
1782835968141671400,6.91067138671875,2.703516615653038,-0.0842261702377349,0.5378238513976336
1782835968151601700,6.9206015625,4.118000551983714,-0.3436246368557215,0.3201971456475556
1782835968161531400,6.930531494140625,5.1137932122975585,-0.5034937117725611,-0.03421440429091453
1782835968171461400,6.94046142578125,5.7348734390527,-0.4627748209584504,-0.1451231950752437
1782835968181390600,6.950390625,6.585268617394566,-0.27633374626263973,-0.2098432122670114
1782835968191320300,6.9603203125,7.461333659043908,0.09484437569007277,-0.3456744089923799
1782835968201250600,6.97025048828125,8.29649678146243,0.5678004719883203,-0.6768614429488777
1782835968211180500,6.9801806640625,9.032302288550138,0.9662268855463713,-0.9805608966514467
1782835968221110300,6.9901103515625,9.265407864591479,1.2125615071255713,-0.9637341188825667
1782835968231040500,7.00004052734375,9.329828022053837,1.200613660504669,-0.6925871276080608
1782835968240970500,7.009970458984375,9.510321951848267,0.963365504765883,-0.5844717669345438
1782835968250900500,7.019900390625,9.367574692124128,0.683351754816249,-0.6750624307028948
1782835968260830500,7.02983056640625,9.277146817702054,0.4821466801002621,-0.7833001025818288
1782835968270760400,7.039760498046875,9.146512020575999,0.4652450835295021,-0.8087186214767396
1782835968280690400,7.0496904296875,8.97838014422655,0.555987138467282,-0.8063269040346145
1782835968290620700,7.05962060546875,8.873028256917,0.6455509434059262,-0.7784510551154613
1782835968300550400,7.06955029296875,8.945647502925992,0.6789826728865503,-1.0313196085080505
1782835968310479400,7.079479248046875,9.18039733904302,0.7564965590693056,-1.376096630269289
1782835968320409600,7.08940966796875,9.129200235769153,0.8704993703462183,-1.4399543315432966
1782835968330339300,7.09933935546875,8.93052709068358,0.9562420095615088,-1.437176391262561
1782835968340269600,7.10926953125,8.819346935611962,1.080969628470391,-1.3588807070523499
1782835968350199600,7.119199462890625,8.809350442254543,1.2774227594189345,-1.1404286563940345
1782835968360129300,7.12912939453125,8.795697764477133,1.3725246170014143,-0.9691649117596447
1782835968370059500,7.1390595703125,8.321054884135723,1.4036096372254192,-0.8537713767766952
1782835968379989500,7.148989501953125,7.635093896669149,1.4093551951400936,-0.6572998333886265
1782835968389919500,7.15891943359375,6.924612800452112,1.4434215692624448,-0.47837052256241436
1782835968399849500,7.168849365234375,6.058656480363011,1.494133665498346,-0.3533895134143531
1782835968409779500,7.178779541015625,4.595809787401556,1.4749227690719067,-0.35215573383569715
1782835968419709400,7.18870947265625,2.1349983507841825,1.1550789669066668,-0.2717339973822236
1782835968429639400,7.198639404296875,-0.8442559449344873,0.5543121909923852,0.06679243955165147
1782835968439569400,7.2085693359375,-4.058063092893362,-0.10353051710128784,-0.002964695024490356
1782835968449498400,7.218498291015625,-6.859132320281863,-0.5462421356528997,-0.8945236584037541
1782835968459428600,7.2284287109375,-8.227381744182109,-0.428851581633836,-0.5610635649487375
1782835968469358300,7.2383583984375,-9.57369113895297,-0.43230026078298683,1.0062047487348318
1782835968479288300,7.248288330078125,-11.962051087343692,-1.4235292664431034,2.8790701664358376
1782835968489218600,7.258218505859375,-14.929100566005706,-2.8886884741306305,3.7995650091812014
1782835968499148300,7.268148193359375,-17.605698779594896,-3.4189068189606067,3.081301880785823
1782835968509078500,7.27807861328125,-18.8418959407866,-2.7783751650214192,1.9432192029960453
1782835968519008500,7.288008544921875,-18.20228870821595,-1.4386606384709477,1.3623279248967766
1782835968528938500,7.2979384765625,-17.659025880634783,-0.4098714252233505,1.5368663072876632
1782835968538868500,7.307868408203125,-17.26543689717054,-0.32553558406606314,2.0285478545829654
1782835968548798500,7.317798583984375,-15.5689205645442,-0.7884548549965024,1.983165282806754
1782835968558728400,7.327728515625,-13.654859213101863,-1.0784067922450602,1.5760928406521677
1782835968568658400,7.337658447265625,-12.110429630953073,-1.0854546649299561,1.3052782962024212
1782835968578587600,7.347587646484375,-10.000376920855045,-1.1435960343837737,1.0498746713742613
1782835968588517400,7.357517333984375,-7.354732063934207,-1.1866169185299427,0.46335926978290076
1782835968598447600,7.367447509765625,-4.258873834529519,-0.8836379611216485,-0.26740941218137737
1782835968608377300,7.37737744140625,-1.4282693005770444,-0.18306684902235865,-0.6617806320644914
1782835968618307300,7.387307373046875,0.9158955322563648,0.47503882085643706,-0.5666781168948859
1782835968628237600,7.397237548828125,2.6107518227159976,0.8463180650960653,-0.16321867760568856
1782835968638167300,7.407167236328125,3.6175551218658684,0.9157225868422537,0.43785884475819764
1782835968648097500,7.41709765625,4.343056092560291,0.8282285008497535,0.4771654576215893
1782835968658027500,7.427027587890625,5.0998248926997185,0.8218835888024419,0.0149768390532583
1782835968667957500,7.43695751953125,5.930509992921352,0.8652598622575401,-0.45293841353356834
1782835968677887500,7.446887451171875,6.8999716956704855,0.7543289327066391,-0.6837110896479338
1782835968687817200,7.456817138671875,7.590764925599098,0.51997284514755,-0.6042150897372514
1782835968697747500,7.46674755859375,7.899593558883667,0.24122107795774936,-0.3374193524748087
1782835968707677400,7.476677490234375,8.47391378802955,-0.0742922207225114,-0.16482611280232667
1782835968717606700,7.486606689453125,9.156163061496615,-0.2205629783976823,-0.054539326373860234
1782835968727536400,7.496536376953125,9.12433526008129,-0.13728497573025525,0.01902143826894462
1782835968737466400,7.50646630859375,8.732004167723655,-0.049205637195706364,-0.12764431007318197
1782835968747396400,7.516396240234375,8.571490949684382,0.004731923892721534,-0.30280615812465544
1782835968757326300,7.526326416015625,8.649235283622145,0.061732452748343346,-0.2918010722465813
1782835968767256600,7.536256591796875,8.70029034807682,0.025386370190978048,-0.32086824984215195
1782835968777186300,7.546186279296875,8.518811498898268,0.02031118581853807,-0.3674460227522999
1782835968787116500,7.556116455078125,8.29168499726653,0.028510566626116632,-0.323311916667223
1782835968797046500,7.566046630859375,8.258056868430971,-0.03876826820299029,-0.3606985212534666
1782835968806976500,7.5759765625,8.34606891388297,-0.10440496184825897,-0.4109945109691471
1782835968816906500,7.585906494140625,8.475483229303359,-0.020705007441714406,-0.4055735818989575
1782835968826836200,7.595836181640625,8.386964403373003,0.19871026222556828,-0.31468408131450415
1782835968836766500,7.605766357421875,8.078419847726822,0.3255425252635032,-0.11311755287498235
1782835968846696400,7.615696533203125,7.824522828069329,0.18862243732288478,-0.16348295456506312
1782835968856625700,7.625625732421875,7.759004353976249,-0.004179331511259079,-0.5013846837293356
1782835968866555400,7.635555419921875,7.635958989065885,0.08166041140295564,-0.6088607966512442
1782835968876485400,7.6454853515625,7.170766074115037,0.29156010309755803,-0.7277073216322809
1782835968886415400,7.655415283203125,6.3971051758855575,0.5050380916703492,-0.6497949376512319
1782835968896345300,7.665345458984375,5.290130606934428,0.5002303991276771,-0.5459997051991522
1782835968906275600,7.675275634765625,3.2083786931693554,0.2764130951091647,-0.6498519285354762
1782835968916205300,7.685205322265625,0.5682563990622759,-0.10595423711687325,-0.7892513391364365
1782835968926135600,7.695135498046875,-2.3663357481092215,-0.4381381000909954,-0.7808084318965673
1782835968936065500,7.7050654296875,-5.464267276656627,-0.4520814313780516,-0.9633648471787571
1782835968945995500,7.71499560546875,-7.865320117881893,0.02429813656285405,-0.9389650038070976
1782835968955925500,7.724925537109375,-10.054188006019592,0.5732892786629498,-0.26710750662535426
1782835968965855500,7.73485546875,-13.199509646773338,0.2710519334021956,0.8950882334839552
1782835968975785500,7.744785400390625,-16.49222900340557,-0.9285550342779606,1.4421642626777291
1782835968985715500,7.754715576171875,-18.625749098330736,-1.4697856984443962,1.0032030827008187
1782835968995644200,7.76464404296875,-19.479170931017396,-0.817536572574079,0.782433402749896
1782835969005574100,7.77457421875,-18.796566268241403,-0.08019063111133873,0.7893538496628403
1782835969015504100,7.784504150390625,-18.307058411723375,-0.1254444619413465,1.158484829827398
1782835969025434400,7.794434326171875,-18.034732001405953,-0.9529982783999293,1.3987583978019653
1782835969035364000,7.804364013671875,-16.894321611320972,-1.5911806657992302,1.4879033928066492
1782835969045294300,7.81429443359375,-15.244122793233394,-1.3707031006626784,1.5999696830630301
1782835969055224000,7.82422412109375,-12.94467213139534,-0.6016460429668427,1.5010355538412927
1782835969065154300,7.834154296875,-9.745443543887138,0.009125409611314535,0.5311955192990601
1782835969075084300,7.844084228515625,-6.047084700512886,0.3158911190167069,-0.3192890178266912
1782835969085014000,7.854013916015625,-2.660662393310666,0.6039365650568157,-0.5586811267916113
1782835969094944300,7.8639443359375,-0.00859948604106903,0.8798964365057647,-0.22121472030468284
1782835969104874200,7.873874267578125,1.5187509510129689,1.0021879873741417,0.6068477032631635
1782835969114804200,7.88380419921875,1.818323095652461,0.855345055834204,1.1188804761264473
1782835969124733200,7.893733154296875,1.653426547962427,0.31053426815867424,0.9489179502837359
1782835969134663200,7.9036630859375,1.6940940739154815,-0.404171898407489,0.7521519539937377
1782835969144593200,7.91359326171875,2.5483278075069187,-0.8634934371069073,0.6297667334925383
1782835969154523100,7.923523193359375,3.945655441853404,-0.6030802770210429,0.7760184942062943
1782835969164453400,7.933453369140625,5.1805982190698385,0.10838975716810673,0.9276413534991442
1782835969174383000,7.943383056640625,6.469196014106274,0.48254583548568186,0.7576629725001752
1782835969184313300,7.953313232421875,7.632478745734691,0.45738286225441843,0.7458883635543286
1782835969194243000,7.9632431640625,7.912271838670969,0.6105750897558405,1.7274372483298182
1782835969204173000,7.973173095703125,8.26540723119378,0.06466393962297588,1.2192111742731182
1782835969214103300,7.983103271484375,8.819292575076222,-0.7051439729727804,0.5293358263744041
1782835969224033000,7.993032958984375,9.229173937171698,-1.1051035874474793,0.0674839289471507
1782835969233963300,8.00296337890625,9.335172305691241,-1.2334833721883594,-0.21134229171834884
1782835969243893200,8.012893310546875,8.83889510116875,-1.2343871891602873,0.08202562798615544
1782835969253823200,8.0228232421875,8.17196965356171,-1.041891636731103,0.8599017692904919
1782835969263752200,8.032752197265625,7.4296911510676145,-0.9362218425787985,0.9780556358322501
1782835969273682200,8.04268212890625,6.900330592110753,-0.969867872397229,0.5357557398866861
1782835969283612200,8.052612060546876,6.8900430068522684,-1.0212566257856786,-0.14516060447618365
1782835969293542100,8.062542236328126,6.76527213332355,-0.9513352405585348,-0.5414413112424313
1782835969303472400,8.072472412109375,6.758254363515973,-0.7809279666230082,-0.4975128837972879
1782835969313402000,8.082402099609375,6.668573508068919,-0.569196017999947,-0.2704283946763724
1782835969323332400,8.092332275390625,6.616209114581346,-0.2854382226837799,-0.2213075131546706
1782835969333262000,8.102261962890625,6.700866588908434,0.034273523200163615,-0.16374072871841489
1782835969343192000,8.112192138671874,7.338391754508018,0.34313729173019525,0.05637604028172791
1782835969353122300,8.122122314453126,7.971811822876334,0.2505171496945433,-0.138610525245592
1782835969363052000,8.132052001953125,8.57589473760128,0.015963859062921255,-0.17185308882966638
1782835969372982300,8.141982177734375,8.545994689378142,-0.06592270751241594,-0.08599171860553324
1782835969382912300,8.151912353515625,7.694371430546044,0.05005980633962899,-0.4019200278274715
1782835969392842200,8.16184228515625,5.7454807577848435,0.31041882508546115,-0.40829401983879504
1782835969402771200,8.171771240234374,-0.29375848992466924,0.3061315031550825,0.1464512288086116
1782835969412701200,8.181701171875,-7.787243775510787,-0.20160328025333582,-0.09586232056096196
1782835969422631200,8.191631103515626,-5.842305055245757,-1.0770913257323205,0.11504837480708956
1782835969432561200,8.20156103515625,-3.9251568437039848,-0.9727696582533418,0.27752690156996246
1782835969442491400,8.211491455078125,-4.220243951883912,1.2182986625380814,0.12423472082540392
1782835969452421000,8.221421142578125,-8.852059118646382,2.3661896176368,0.08961626577824354
1782835969462351400,8.231351318359375,-12.96298286411166,0.5864741927981376,0.6345384048737586
1782835969472281300,8.24128125,-14.474286421728133,-2.019744078141451,1.3263503103256225
1782835969482211000,8.251211181640626,-15.92179993647933,-2.95373991523385,2.3467947429455815
1782835969492141300,8.261141357421875,-16.743865676915643,-2.134721725799888,3.2903228168845176
1782835969502071000,8.271071044921875,-16.353687963199615,-1.5699549224190412,2.900847113958001
1782835969512001300,8.281001220703125,-16.230229925835133,-1.2560552694804965,2.0807322153285144
1782835969521931300,8.29093115234375,-16.12696595071554,-0.881675867268443,1.7246553625263272
1782835969531860200,8.300860107421874,-15.527459257864951,-0.5983168985441327,1.6418540374599395
1782835969541790200,8.310790283203126,-13.577751423501967,-0.5110970263831317,1.319912970754504
1782835969551720200,8.32072021484375,-10.61240641067028,-0.3332366599626839,0.4128416732057929
1782835969561650200,8.330650146484375,-7.08553109216094,0.1684622773475945,-0.36106764682680365
1782835969571580200,8.340580078125,-3.558400922107696,0.33881519074738026,-0.4289043347343802
1782835969581510400,8.350510498046875,-0.9623416416108608,-0.2668988323107362,0.03588730593919754
1782835969591440100,8.360440185546874,-0.035731823116540905,-0.36565460929088295,1.3173475041806697
1782835969601370000,8.3703701171875,0.4504448431521654,-0.5989412409875542,1.3943169082231819
1782835969611300400,8.38030029296875,0.783175745549798,-0.7531561626002192,0.9683613402917981
1782835969621230000,8.39022998046875,1.5684341425925492,-0.7234772097818553,1.033658134458214
1782835969631160300,8.400160400390625,2.341855971369147,-0.604597220922634,1.1402093876201658
1782835969641090000,8.410090087890625,3.0719939542144536,-0.34111265403479335,1.2503794158011674
1782835969651020300,8.420020263671875,4.462392666080594,-0.4574712711902335,0.963621598418802
1782835969660950300,8.4299501953125,6.233885621497035,-1.0171303396359086,0.3615197745084762
1782835969670879200,8.439879150390626,7.518503406986594,-1.1713420463781803,0.24559640696514395
1782835969680809200,8.449809326171875,8.198523898488283,-1.0377588477753101,-0.10120335279535501
1782835969690739200,8.4597392578125,8.287230940467119,-0.8380266951560974,0.1010378600353375
1782835969700669200,8.469669189453125,7.9379329341500995,-0.7837253422565758,0.8585281428497284
1782835969710599200,8.47959912109375,7.386974875891208,-1.1835583346769214,0.9161337249264121
1782835969720529400,8.489529296875,6.698916039362549,-1.599300697760284,1.1746242098540067
1782835969730459100,8.499459228515626,6.821531780683994,-1.8004346800014375,1.1607152192279695
1782835969740389000,8.50938916015625,7.797073680129647,-1.6775956513181327,0.5963841038506478
1782835969750319400,8.5193193359375,8.793788131463527,-1.1914366668365894,0.3280168064225465
1782835969760249000,8.5292490234375,9.164960115936397,-0.6341532780136913,0.13147723929956553
1782835969770179300,8.539179443359375,9.199380271932482,-0.2768042863838375,-0.07999211286455392
1782835969780109000,8.549109130859375,9.118867057803273,-0.17258092818018048,-0.13077946629375217
1782835969790039300,8.559039306640624,8.891992485105991,0.08812215476296842,0.25574535093791784
1782835969799969300,8.56896923828125,8.49726543752253,0.2530284931946546,0.301760740724951
1782835969809898200,8.578898193359375,8.44042009922862,0.04091339047290384,-0.2719532661560923
1782835969819828200,8.588828125,8.0638553158015,0.0023655600875616073,-0.4818413404781371
1782835969829758200,8.59875830078125,7.196682605659961,0.09053177318796515,-0.31657186782248314
1782835969839688200,8.608688232421875,7.10647451146841,0.07319894559308886,-0.3476410328902304
1782835969849618200,8.6186181640625,7.195196166494489,0.024867241687700152,-0.2784514690689742
1782835969859548200,8.628548095703126,7.033685754111409,-0.043957726604864,-0.09034348407424986
1782835969869478100,8.63847802734375,6.742343093156814,-0.10963087980300187,-0.27460575342625376
1782835969879408000,8.648408203125,6.9767135745674365,0.059005365872010586,-0.5252211941298097
1782835969889338400,8.65833837890625,7.103542549669742,0.4816758477181196,-0.6114644032783806
1782835969899268000,8.66826806640625,5.969743102157116,0.918256123907864,-0.7893813221916556
1782835969909198300,8.6781982421875,3.5018379078865047,1.094110265072435,-1.1078263634748757
1782835969919128000,8.688128173828124,0.6178232707858086,1.0567191304415464,-1.9642314497560263
1782835969929058300,8.698058349609376,-2.462540452367067,1.0789565350823103,-3.0802368819028136
1782835969938988300,8.70798828125,-4.887645784831046,1.17715884289816,-2.9197391536936164
1782835969948917200,8.717917236328125,-7.757292289361358,1.4492415075875817,-0.9622995560348033
1782835969958847200,8.72784716796875,-11.401256110203265,0.6317625104196369,0.5020966313909739
1782835969968777200,8.737777099609374,-15.861612886542082,-1.2445827122211455,0.41074104766473174
1782835969978707200,8.747707275390624,-19.10092681620121,-2.280437626071274,-0.121170364818722
1782835969988637400,8.757637451171876,-19.85958712917566,-1.6079600972950459,-0.5440462330438196
1782835969998567400,8.7675673828125,-20.53496710139513,-0.5249905271790921,-0.26696977865509686
1782835970008497200,8.7774970703125,-21.05734963803291,-0.30172800749912854,0.7092972932599485
1782835970018427400,8.787427490234375,-20.88922243785858,-0.6989580508794635,1.510350786936283
1782835970028357400,8.797357421875,-20.41694979377985,-0.44461189921498295,1.822295506414771
1782835970038287400,8.807287353515624,-19.375039525413513,0.5854772176500409,1.2897192002817988
1782835970048217300,8.81721728515625,-17.022799522674084,1.2878216960974036,0.31102983312327415
1782835970058147300,8.827147216796876,-13.984660491788386,1.2328959276892244,-0.2949641759200021
1782835970068077300,8.837077392578125,-10.23737249007225,0.6393121951468288,-0.4863846829961985
1782835970078006300,8.84700634765625,-6.543078996440768,0.14761669239141045,-0.14734733739811925
1782835970087936500,8.8569365234375,-3.702997024568915,-0.17866664130203425,0.2497009379408322
1782835970097866200,8.8668662109375,-1.3579302744597195,-0.4776395779393613,0.28774096493450924
1782835970107796500,8.87679638671875,0.5679027633190155,-0.626340777631849,0.2669654495398514
1782835970117726200,8.886726318359376,1.6765987492352723,-0.6609278146274388,0.5359529429592191
1782835970127656200,8.89665625,2.527226567289233,-0.7885413642361759,0.8344828850694
1782835970137586400,8.90658642578125,3.321236426064372,-0.9114737702913582,1.2584164456538856
1782835970147516200,8.91651611328125,3.894270122531056,-1.049553330465406,1.45531074449867
1782835970157446400,8.9264462890625,4.724268994054198,-1.172560482257232,1.120499894021824
1782835970167376400,8.93637646484375,5.7290293891996145,-1.0824821519251913,0.6970139310743659
1782835970177306400,8.946306396484376,6.624263241699338,-0.8621494020868092,0.5661032396163791
1782835970187236400,8.956236328125,7.284432200783491,-0.48039421040974556,0.832749339275062
1782835970197166300,8.966166259765625,7.611313792631029,-0.20605441444329917,1.4172075160756705
1782835970207095300,8.97609521484375,7.945778971475362,-0.341318040413782,1.3840994655914605
1782835970217025300,8.986025390625,8.318854743742943,-0.44628385101519524,1.3393268424071372
1782835970226955500,8.99595556640625,8.370406651803851,-0.33422464808672664,1.4420802376560866
1782835970236885200,9.00588525390625,8.23346077183485,-0.21894589858986435,1.4974983196258544
1782835970246815500,9.0158154296875,8.261304472050071,-0.06572612549439072,1.5138295689627528
1782835970256745200,9.0257451171875,8.464979955467582,0.10164937952980399,1.4429137658707796
1782835970266675200,9.03567529296875,8.626991303110122,0.38235184239596126,1.1426685442753135
1782835970276605400,9.04560546875,8.543992117384075,0.8731450625494122,0.845534002046287
1782835970286535200,9.05553515625,8.435047758540511,1.1596854377888142,0.8044349528081715
1782835970296465400,9.06546533203125,8.27447258118093,1.100300351884216,0.6941612450569867
1782835970306395400,9.0753955078125,7.846442983454465,0.9213929606288671,0.5769018796695395
1782835970316325400,9.085325439453126,7.293330962032079,0.6079248309753835,0.44998336312025783
1782835970326255400,9.09525537109375,7.207671032664179,0.2711506445363164,0.29003915887428444
1782835970336185300,9.105185302734375,7.540525853702426,0.0681866703890264,0.06145442125825211
1782835970346114300,9.1151142578125,7.70066673129797,0.051518444182723756,0.14920128556857817
1782835970356044300,9.125044189453124,7.604012529706955,0.07600713488161563,0.17286308785611762
1782835970365974500,9.134974609375,7.284598789522051,0.19920213739573955,0.3052145527069457
1782835970375904300,9.144904296875,6.858371272781491,0.32203868186101314,0.4770709477385506
1782835970385834200,9.154834228515625,6.356348218083381,0.3411751978769898,0.3564463802343234
1782835970395764200,9.16476416015625,5.631368056392669,0.3708041740737855,-0.1756982382168062
1782835970405694200,9.174694091796875,4.631157579636573,0.6261031694836914,-0.8389294892147183
1782835970415624400,9.18462451171875,2.703545841747522,0.8774005280368029,-1.3785726649940013
1782835970425554200,9.19455419921875,0.0796206492036581,0.7037006422966718,-1.757254440575093
1782835970435484400,9.204484375,-2.577389651340246,0.2005203803874552,-1.7773761682361364
1782835970445414400,9.214414306640625,-5.0663504931211465,-0.35674233097359537,-1.562699398332834
1782835970455344400,9.224344482421875,-6.81706311083734,-0.902862447682023,-1.5335772026143968
1782835970465274400,9.2342744140625,-8.09337951644957,-1.3246676179356873,-1.0995854816131294
1782835970475203300,9.244203369140624,-9.466775071066618,-1.7057815890997647,-0.4939768186256289
1782835970485133300,9.25413330078125,-11.121174263453483,-2.085295577721298,-0.081229399574548
1782835970495063300,9.264063232421876,-11.974335399377345,-1.810846183900535,0.3206254540622234
1782835970504993500,9.27399365234375,-11.97151098960638,-1.0320303871259093,0.2513444125652313
1782835970514923300,9.28392333984375,-11.6831429605484,-0.257421102130413,0.2996219751305878
1782835970524853200,9.293853271484375,-12.646051588392258,0.2979639787904918,0.6420478306557983
1782835970534783500,9.303783447265625,-14.73041456143856,0.28502149510905145,1.2846823751583694
1782835970544713200,9.313713134765624,-15.573352409511804,-0.13768676146417855,1.4229139110237359
1782835970554643500,9.3236435546875,-15.261221227550505,0.1827702041633427,0.5386113850461319
1782835970564570400,9.3335703125,-14.527882402837276,1.1003237327598034,-0.36523411885648965
1782835970574500400,9.343500244140625,-12.358102077007294,1.5478037347570062,-1.0121694292929022
1782835970584430300,9.353430419921875,-9.038053399422765,1.2872338132068515,-1.2016792439095676
1782835970594360300,9.3633603515625,-5.708908392190933,0.7988890091188251,-0.6059849854866043
1782835970604290300,9.373290283203126,-3.1021734039008617,0.31410423559993506,-0.05645822040615603
1782835970614220300,9.38322021484375,-1.9271622405558824,-0.267023189342767,0.26999990359861403
1782835970624150300,9.393150390625,-1.4271096091479063,-0.8586084415443241,0.3971731986265629
1782835970634080500,9.40308056640625,-0.5819032316207885,-1.2802078600928186,0.4383427192850038
1782835970644010200,9.41301025390625,0.43703181934952734,-1.456101310354471,0.7165745907865464
1782835970653940500,9.4229404296875,1.1206827763080596,-1.537325156971067,1.2904926688723266
1782835970663870200,9.4328701171875,1.8196815245240925,-1.4713696066349744,2.000952722301334
1782835970673799200,9.442799072265625,3.2166251279890536,-1.2570584551736712,1.8995868358880281
1782835970683729400,9.4527294921875,4.698691485205292,-0.9247575416911393,1.2760904879018664
1782835970693659400,9.462659423828125,5.8952674146264785,-0.6344735960092395,1.0348767895329742
1782835970703589400,9.47258935546875,6.848167274153232,-0.663236749156937,1.1212057772688566
1782835970713519400,9.482519287109374,7.439044085824489,-1.0214766982771455,1.1102494989685714
1782835970723449300,9.492449462890624,7.752876811006665,-1.2696180770173668,1.1675224150247872
1782835970733379300,9.50237939453125,7.83306327739954,-1.316565121631324,1.1923483748540282
1782835970743309300,9.512309326171875,7.61148038136959,-1.2885107012748718,1.105689205315709
1782835970753239300,9.5222392578125,7.261339494487642,-1.2118669489901512,0.8909067100156098
1782835970763169300,9.532169189453125,7.199754268190264,-1.0530185954231768,0.5348582430576905
1782835970773099500,9.542099609375,7.227092356970906,-0.778203144768998,0.40446613211371
1782835970783029200,9.552029296875,7.307741764700412,-0.4876835637003183,0.24153993464857337
1782835970792959200,9.561959228515626,7.394243990111351,-0.27542452246323224,0.057763549117371436
1782835970802888400,9.571888427734375,7.495935601347685,-0.20558643160536885,-0.1796918926965445
1782835970812818200,9.581818115234375,7.7535168624758715,-0.2008389448173344,-0.48500652651078996
1782835970822748400,9.59174853515625,8.030470932593941,-0.11569544053897261,-0.6444119294386357
1782835970832678400,9.601678466796875,8.251239589631558,-0.012955489293485879,-0.597600274707377
1782835970842608000,9.611608154296874,8.131798386693001,-0.019511998264864085,-0.47589025005400176
1782835970852538400,9.621538330078126,8.09235484957695,-0.03219261613972485,-0.5901057542335242
1782835970862468400,9.63146826171875,7.809504707157611,0.11679697204008697,-0.8719250192351639
1782835970872398300,9.6413984375,7.0892907369554035,0.28315409380197526,-1.1685605259008705
1782835970882328300,9.651328369140625,6.3227931544840335,0.25132000877633687,-1.4871405917406082
1782835970892258300,9.66125830078125,5.826130750036239,0.12365794385075568,-1.6239666447222232
1782835970902188300,9.671188232421875,5.281126047223806,0.0758915456779301,-1.655394340904057
1782835970912118500,9.681118408203124,4.417738700839877,0.13212255146577953,-2.2052282174386084
1782835970922048300,9.69104833984375,3.1255273914813992,0.2891312685154378,-2.9698119291126726
1782835970931978200,9.700978271484376,3.1913416336506604,0.4417889507487416,-2.819709630450606
1782835970941907500,9.710907470703125,0.25791853025853634,0.7930179251283407,-1.330516636224836
1782835970951837200,9.720837158203125,-4.151034222057461,0.8647615573465823,-0.2182987597927451
1782835970961767400,9.730767333984375,-6.732533646804094,0.7564550580151379,-0.07611176429986953
1782835970971697400,9.740697509765624,-8.285427105915545,1.1013709037251769,-0.6465613625574856
1782835970981627100,9.750627197265626,-9.592617373219133,1.4860606875494122,-1.2649012776285409
1782835970991557600,9.7605576171875,-9.739646255785226,1.7284209986701606,-1.7974542028859257
1782835971001487600,9.770487548828125,-10.041515571451187,2.9180037082031367,-1.5397642206862567
1782835971011417600,9.78041748046875,-12.823829244965314,4.1267970219016075,-0.6477216385085135
