time,seconds_elapsed,z,y,x
1782835961309868300,0.078868408203125,0.1560099720954895,0.014743832871317863,-0.3001711666584015
1782835961319798500,0.088798583984375,0.13202285766601562,-0.08815881609916687,-0.2967909276485443
1782835961329728300,0.098728271484375,0.11791688203811646,-0.1394829899072647,-0.25451990962028503
1782835961339658500,0.108658447265625,0.09867298603057861,-0.17073532938957214,-0.16333132982254028
1782835961349588500,0.11858837890625,0.0586874894797802,-0.20490528643131256,-0.04968491196632385
1782835961359518500,0.1285185546875,0.02322504296898842,-0.20346282422542572,0.050596561282873154
1782835961369448400,0.138448486328125,0.03365025296807289,-0.17255470156669617,0.10289891809225082
1782835961379378400,0.14837841796875,0.10295005142688751,-0.14900381863117218,0.1080014705657959
1782835961389308400,0.158308349609375,0.1850699484348297,-0.12171147018671036,0.06804553419351578
1782835961399238400,0.16823828125,0.2613472640514374,-0.12173007428646088,0.0011287955567240715
1782835961409167600,0.178167724609375,0.30770063400268555,-0.12806172668933868,-0.06615223735570908
1782835961419097300,0.188097412109375,0.32068225741386414,-0.12891487777233124,-0.13069120049476624
1782835961429027600,0.198027587890625,0.29801157116889954,-0.14538972079753876,-0.18485642969608307
1782835961438957600,0.20795751953125,0.2491702437400818,-0.15073645114898682,-0.23148700594902039
1782835961448887300,0.21788720703125,0.19156846404075623,-0.09359006583690643,-0.2492486983537674
1782835961458817500,0.227817626953125,0.16316276788711548,0.007964634336531162,-0.2233632206916809
1782835961468747300,0.237747314453125,0.14885732531547546,0.10758097469806671,-0.16597557067871094
1782835961478677500,0.247677490234375,0.14072290062904358,0.18544158339500427,-0.11865762621164322
1782835961488607500,0.257607421875,0.13779927790164948,0.2221151739358902,-0.1123584508895874
1782835961498537500,0.267537353515625,0.17766565084457397,0.29756686091423035,-0.11852377653121948
1782835961508467500,0.277467529296875,0.2813981771469116,0.39756056666374207,-0.11324193328619003
1782835961518397700,0.287397705078125,0.39956143498420715,0.4943401515483856,-0.0779876559972763
1782835961528327400,0.297327392578125,0.4801092743873596,0.5686380863189697,-0.0024691964499652386
1782835961538257400,0.30725732421875,0.5110312700271606,0.6763571500778198,0.10197225213050842
1782835961548187400,0.3171875,0.4839261770248413,0.7835275530815125,0.17161737382411957
1782835961558117400,0.327117431640625,0.44846799969673157,0.8106065392494202,0.13894900679588318
1782835961568047600,0.337047607421875,0.42800745368003845,0.7532508373260498,0.035019680857658386
1782835961577977300,0.346977294921875,0.4191901385784149,0.6767861247062683,-0.1305616796016693
1782835961587907600,0.356907470703125,0.4067203998565674,0.6194312572479248,-0.34937816858291626
1782835961597837600,0.366837646484375,0.4414043724536896,0.677846372127533,-0.5979878902435303
1782835961607767300,0.376767333984375,0.5643252730369568,0.8584105372428894,-0.8379828929901123
1782835961617697500,0.386697509765625,0.7349890470504761,1.031757116317749,-1.064148187637329
1782835961627627300,0.396627197265625,0.9004867076873779,1.1571727991104126,-1.2139232158660889
1782835961637557500,0.4065576171875,1.039621353149414,1.2684324979782104,-1.1869786977767944
1782835961647487500,0.416487548828125,1.1165411472320557,1.2710932493209839,-1.010653018951416
1782835961657416400,0.42641650390625,1.115870714187622,1.0598279237747192,-0.7872313261032104
1782835961667346400,0.436346435546875,1.0474319458007812,0.6126559376716614,-0.564604640007019
1782835961677276400,0.4462763671875,0.9731318950653076,0.13592368364334106,-0.36513400077819824
1782835961687206400,0.456206298828125,0.9152792096138,-0.11424887180328369,-0.19063542783260345
1782835961697136400,0.466136474609375,0.8988982439041138,-0.12821444869041443,-0.03574370592832565
1782835961707066600,0.476066650390625,0.9105772972106934,0.02721749246120453,0.09704256802797318
1782835961716996400,0.485996337890625,0.9135996699333191,0.28025466203689575,0.2236311137676239
1782835961726926600,0.495926513671875,0.907717227935791,0.5536686182022095,0.35732951760292053
1782835961736856600,0.505856689453125,0.8666082620620728,0.7749862670898438,0.4779709279537201
1782835961746786300,0.515786376953125,0.7509890198707581,0.8615584373474121,0.5294537544250488
1782835961756716500,0.525716552734375,0.5119590163230896,0.7064375281333923,0.4843658208847046
1782835961766646300,0.535646240234375,0.19329416751861572,0.2932794690132141,0.33643442392349243
1782835961776576500,0.545576416015625,-0.10945619642734528,-0.2750422954559326,0.11567358672618866
1782835961786506500,0.555506591796875,-0.34035706520080566,-0.9455553889274597,-0.16682468354701996
1782835961796436500,0.5654365234375,-0.4893428385257721,-1.5821336507797241,-0.48252013325691223
1782835961806366500,0.575366455078125,-0.5115160346031189,-1.7917710542678833,-0.7279008626937866
1782835961816296400,0.58529638671875,-0.4255160093307495,-1.3994568586349487,-0.7915748953819275
1782835961826226400,0.595226318359375,-0.27236294746398926,-0.8122333288192749,-0.7081727385520935
1782835961836156400,0.605156494140625,-0.11228577792644501,-0.23576641082763672,-0.4955660104751587
1782835961846086400,0.61508642578125,0.0005611442029476166,0.32181456685066223,-0.18846304714679718
1782835961856016400,0.625016357421875,0.034949179738759995,0.7895404100418091,0.15279409289360046
1782835961865946600,0.634946533203125,-0.03153344243764877,0.952278196811676,0.43276768922805786
1782835961875876400,0.64487646484375,-0.1350836157798767,0.7402800917625427,0.6145630478858948
1782835961885805300,0.654805419921875,-0.2250465303659439,0.3751316964626312,0.7035994529724121
1782835961895735600,0.664735595703125,-0.2753400206565857,0.07545965164899826,0.663442850112915
1782835961905665300,0.674665283203125,-0.2932433784008026,-0.01380124967545271,0.5095998048782349
1782835961915595500,0.684595458984375,-0.2725491523742676,0.05598433315753937,0.30455002188682556
1782835961925525500,0.694525390625,-0.21724596619606018,0.1711186319589615,0.1447017639875412
1782835961935455500,0.70445556640625,-0.1502700299024582,0.32278433442115784,0.13216526806354523
1782835961945385500,0.714385498046875,-0.06170633062720299,0.4850299656391144,0.27843648195266724
1782835961955315500,0.7243154296875,0.036341048777103424,0.5487101078033447,0.531525731086731
1782835961965245400,0.734245361328125,0.10744212567806244,0.44932281970977783,0.792272686958313
1782835961975175400,0.744175537109375,0.11370352655649185,0.2027824968099594,0.9632207155227661
1782835961985105400,0.75410546875,0.025386717170476913,-0.16950026154518127,1.0516583919525146
1782835961995035400,0.764035400390625,-0.15885668992996216,-0.6025535464286804,1.0359480381011963
1782835962004965600,0.773965576171875,-0.3685515820980072,-0.6409158706665039,0.8851033449172974
1782835962014895400,0.783895263671875,-0.46577125787734985,-0.1371227502822876,0.6781479716300964
1782835962024825600,0.79382568359375,-0.3629136085510254,0.6215210556983948,0.347697913646698
1782835962034755600,0.803755615234375,-0.11765355616807938,1.240896463394165,-0.1652594655752182
1782835962044685600,0.813685546875,0.24438533186912537,1.655096411705017,-0.7496467232704163
1782835962054615600,0.823615478515625,0.6226760149002075,2.1715898513793945,-1.1719542741775513
1782835962064545300,0.833545166015625,0.7710862159729004,2.4824132919311523,-1.3110418319702148
1782835962074475500,0.8434755859375,0.5379564166069031,1.9266302585601807,-1.1174052953720093
1782835962084405500,0.853405517578125,0.09768688678741455,0.6359736323356628,-0.675864577293396
1782835962094335500,0.86333544921875,-0.161598801612854,-0.5019558072090149,-0.12332030385732651
1782835962104264400,0.873264404296875,-0.16515998542308807,-0.715192437171936,0.4140653908252716
1782835962114194400,0.8831943359375,-0.0638485997915268,-0.27076447010040283,0.801062285900116
1782835962124124400,0.89312451171875,0.05863550677895546,0.22931139171123505,0.9791739583015442
1782835962134054400,0.903054443359375,0.15503515303134918,0.492450088262558,0.8837192058563232
1782835962143984600,0.912984619140625,0.27248746156692505,0.4897765815258026,0.6147686839103699
1782835962153914400,0.922914306640625,0.4065459370613098,0.233993262052536,0.29281750321388245
1782835962163844600,0.9328447265625,0.5648874044418335,0.02469729445874691,0.06565866619348526
1782835962173774600,0.942774658203125,0.6227142810821533,-0.21696698665618896,-0.04324101656675339
1782835962183704600,0.95270458984375,0.5715339183807373,-0.6765055656433105,-0.03316308557987213
1782835962193634600,0.962634521484375,0.5023311376571655,-1.3272411823272705,0.09504464268684387
1782835962203564300,0.972564208984375,0.41826844215393066,-2.017664909362793,0.18447944521903992
1782835962213494500,0.98249462890625,0.31596946716308594,-2.3451006412506104,0.11219412088394165
1782835962223424500,0.992424560546875,0.17843902111053467,-2.1580209732055664,-0.11332555115222931
1782835962233354500,1.0023544921875,0.06622226536273956,-1.710994839668274,-0.37901923060417175
1782835962243284500,1.012284423828125,-0.005974700674414635,-1.093738317489624,-0.6431208848953247
1782835962253214700,1.022214599609375,-0.02269143797457218,-0.42685073614120483,-0.8618545532226562
1782835962263144400,1.03214453125,-0.00462774932384491,0.042611584067344666,-0.9091171026229858
1782835962273074400,1.042074462890625,0.033672139048576355,0.19838979840278625,-0.726963996887207
1782835962283004400,1.05200439453125,0.048964276909828186,0.12477683275938034,-0.38751405477523804
1782835962292934400,1.061934326171875,-0.025613702833652496,-0.04285689815878868,-0.04534389451146126
1782835962302864600,1.07186474609375,-0.1410716027021408,-0.24900953471660614,0.2222321480512619
1782835962312794400,1.08179443359375,-0.19184140861034393,-0.4782017469406128,0.43077898025512695
1782835962322723300,1.091723388671875,-0.11728914082050323,-0.5893125534057617,0.5979685187339783
1782835962332653600,1.101653564453125,0.001333051361143589,-0.6473637223243713,0.7073153257369995
1782835962342583300,1.111583251953125,0.05864933878183365,-0.597616970539093,0.755092442035675
1782835962352513500,1.121513427734375,0.001347038894891739,-0.33546239137649536,0.7107746601104736
1782835962362443500,1.131443603515625,-0.12441647797822952,0.06014563515782356,0.5327742695808411
1782835962372373500,1.14137353515625,-0.22897323966026306,0.42369988560676575,0.29012221097946167
1782835962382303500,1.151303466796875,-0.2745108902454376,0.5972514152526855,0.06445980072021484
1782835962392233700,1.161233642578125,-0.2839568853378296,0.5926644802093506,-0.09069640189409256
1782835962402163500,1.17116357421875,-0.2991108298301697,0.49937283992767334,-0.14086396992206573
1782835962412093400,1.181093505859375,-0.3567761480808258,0.32229748368263245,-0.10545708239078522
1782835962422023400,1.1910234375,-0.4013127088546753,0.04781718924641609,-0.004203164018690586
1782835962431953400,1.200953369140625,-0.3637467324733734,-0.2530219554901123,0.1857045590877533
1782835962441883600,1.210883544921875,-0.23830625414848328,-0.39469465613365173,0.4683740735054016
1782835962451813400,1.2208134765625,-0.09299633651971817,-0.279457151889801,0.7335571050643921
1782835962461743600,1.23074365234375,-0.021768763661384583,0.02925993502140045,0.8732340335845947
1782835962471673600,1.240673583984375,-0.031651828438043594,0.34261828660964966,0.8270084261894226
1782835962481603300,1.250603271484375,-0.057886358350515366,0.568077802658081,0.6227921843528748
1782835962491533600,1.260533447265625,-0.09169387817382812,0.6448640823364258,0.3275367021560669
1782835962501463300,1.27046337890625,-0.13333559036254883,0.5326507091522217,0.0018075909465551376
1782835962511393500,1.2803935546875,-0.1895265430212021,0.361673504114151,-0.2842273712158203
1782835962521323500,1.290323486328125,-0.2723367214202881,0.32785695791244507,-0.5277561545372009
1782835962531253500,1.30025341796875,-0.37491559982299805,0.4094102084636688,-0.7036434412002563
1782835962541182500,1.310182373046875,-0.46641382575035095,0.5261431932449341,-0.8336975574493408
1782835962551112400,1.320112548828125,-0.49349990487098694,0.6159722208976746,-0.8486942052841187
1782835962561042400,1.33004248046875,-0.3961360454559326,0.7421621680259705,-0.6490724682807922
1782835962570972400,1.339972412109375,-0.2844853401184082,1.1180554628372192,-0.25803786516189575
1782835962580902700,1.349902587890625,-0.2733498513698578,1.9023067951202393,0.19897231459617615
1782835962590832400,1.359832275390625,-0.4055333137512207,2.0439937114715576,0.3671121597290039
1782835962600762600,1.3697626953125,-0.3723929524421692,1.138505220413208,0.13537879288196564
1782835962610692600,1.379692626953125,0.10999856144189835,0.24728137254714966,-0.2509008049964905
1782835962620622300,1.389622314453125,0.7994605898857117,0.10517112165689468,-0.5098620653152466
1782835962630552600,1.399552490234375,1.3008629083633423,0.21480245888233185,-0.651330828666687
1782835962640482300,1.409482421875,1.5725741386413574,0.21360349655151367,-0.7000051736831665
1782835962650412500,1.41941259765625,1.644505262374878,0.258676677942276,-0.661623477935791
1782835962660342500,1.429342529296875,1.4814213514328003,0.03268429636955261,-0.6766942739486694
1782835962670272500,1.4392724609375,1.091341495513916,-0.424934059381485,-0.7715150713920593
1782835962680202500,1.449202392578125,0.613347053527832,-0.6532968878746033,-0.8423894643783569
1782835962690132500,1.459132568359375,0.21962577104568481,-0.7679110765457153,-0.8027483820915222
1782835962700062500,1.4690625,-0.019845398142933846,-0.9487016201019287,-0.6979675889015198
1782835962709992400,1.478992431640625,-0.14128822088241577,-1.0860559940338135,-0.6144188642501831
1782835962719922400,1.48892236328125,-0.2615344524383545,-1.0339053869247437,-0.6735956072807312
1782835962729852400,1.498852294921875,-0.29854151606559753,-0.8661240935325623,-0.9082194566726685
1782835962739781400,1.508781494140625,-0.20296171307563782,-0.8086312413215637,-1.2041767835617065
1782835962749711600,1.518711669921875,-0.0958438292145729,-0.9462428092956543,-1.4612756967544556
1782835962759641300,1.528641357421875,-0.03645986691117287,-1.1919537782669067,-1.5692248344421387
1782835962769571600,1.538571533203125,-0.03131911903619766,-1.356539249420166,-1.438602328300476
1782835962779501300,1.548501220703125,-0.0787351056933403,-1.3197433948516846,-1.0831947326660156
1782835962789431600,1.558431640625,-0.18742643296718597,-1.1678253412246704,-0.6093885898590088
1782835962799361500,1.568361572265625,-0.32526925206184387,-0.900219202041626,-0.16337458789348602
1782835962809291500,1.57829150390625,-0.40482619404792786,-0.5118319392204285,0.2080441564321518
1782835962819221500,1.588221435546875,-0.40996795892715454,-0.11322440207004547,0.47051677107810974
1782835962829151500,1.5981513671875,-0.4232359230518341,0.2062401920557022,0.5740750432014465
1782835962839081500,1.60808154296875,-0.46204671263694763,0.3370046019554138,0.5421991348266602
1782835962849011500,1.618011474609375,-0.493840754032135,0.29207637906074524,0.42197999358177185
1782835962858941400,1.62794140625,-0.5021921992301941,0.0987042635679245,0.264648973941803
1782835962868871400,1.637871337890625,-0.4916556477546692,-0.18247286975383759,0.0898435190320015
1782835962878801700,1.6478017578125,-0.4697684347629547,-0.3858720660209656,-0.06940818578004837
1782835962888731400,1.6577314453125,-0.4250822961330414,-0.44303345680236816,-0.17492079734802246
1782835962898661600,1.66766162109375,-0.35964468121528625,-0.34439024329185486,-0.20021496713161469
1782835962908591600,1.677591552734375,-0.27947530150413513,-0.1572307050228119,-0.15615254640579224
1782835962918521300,1.687521240234375,-0.16687443852424622,0.047129370272159576,-0.06100287288427353
1782835962928451600,1.69745166015625,-0.05346180498600006,0.16815559566020966,0.03214498981833458
1782835962938381300,1.70738134765625,0.04516676813364029,0.17956431210041046,0.11364410817623138
1782835962948310500,1.717310546875,0.0964515283703804,0.11721837520599365,0.18771620094776154
1782835962958240500,1.727240478515625,0.07624692469835281,0.04890775308012962,0.26010066270828247
1782835962968170500,1.73717041015625,-0.007586619816720486,0.041945572942495346,0.34197694063186646
1782835962978100500,1.7471005859375,-0.12994155287742615,0.1028110459446907,0.4020184576511383
1782835962988033500,1.757033447265625,-0.24979130923748016,0.2431284636259079,0.3769993185997009
1782835962997963800,1.7669638671875,-0.30976220965385437,0.530422568321228,0.22208267450332642
1782835963007893500,1.7768935546875,-0.24731305241584778,0.9298219084739685,0.038779109716415405
1782835963017823700,1.78682373046875,-0.09971427917480469,1.2968153953552246,-0.07303556799888611
1782835963027753500,1.79675341796875,0.015709541738033295,1.3503875732421875,-0.116756871342659
1782835963037683500,1.806683349609375,0.059462614357471466,1.1401174068450928,-0.06901651620864868
1782835963047613700,1.81661376953125,0.08010324835777283,1.0279921293258667,0.1449354887008667
1782835963057543400,1.82654345703125,0.06641194224357605,0.8536589741706848,0.41749805212020874
1782835963067473700,1.8364736328125,-0.026906821876764297,0.37441936135292053,0.5233432054519653
1782835963077403600,1.846403564453125,-0.1455272138118744,-0.3185729682445526,0.33553898334503174
1782835963087333600,1.856333740234375,-0.22362473607063293,-0.8122780919075012,-0.05240345001220703
1782835963097263600,1.866263671875,-0.1733514666557312,-0.823272168636322,-0.46815910935401917
1782835963107193300,1.876193359375,-0.0064687300473451614,-0.2792530655860901,-0.7465236186981201
1782835963117123600,1.88612353515625,0.17132577300071716,0.576411783695221,-0.812640368938446
1782835963127053600,1.896053466796875,0.3859708607196808,1.421764612197876,-0.5784542560577393
1782835963136983600,1.905983642578125,0.6202499866485596,1.9238330125808716,-0.11925441771745682
1782835963146913500,1.91591357421875,0.8368914127349854,1.7909855842590332,0.36263394355773926
1782835963156842500,1.925842529296875,0.906791090965271,1.0162841081619263,0.6590275168418884
1782835963166772500,1.9357724609375,0.8218966722488403,-0.029721049591898918,0.6690223813056946
1782835963176702500,1.945702392578125,0.7202984094619751,-0.9573796987533569,0.49409523606300354
1782835963186632700,1.9556328125,0.6281036138534546,-1.590510368347168,0.18811875581741333
1782835963196562400,1.9655625,0.5126662254333496,-1.8970545530319214,-0.15752148628234863
1782835963206492700,1.97549267578125,0.3468219041824341,-1.9173332452774048,-0.4442749619483948
1782835963216422700,1.985422607421875,0.11063200235366821,-1.6607898473739624,-0.6794371604919434
1782835963226352600,1.9953525390625,-0.15722781419754028,-1.2883963584899902,-0.8744229674339294
1782835963236282600,2.00528271484375,-0.37919801473617554,-0.9378013014793396,-0.9671270847320557
1782835963246212600,2.015212646484375,-0.49129927158355713,-0.7446632385253906,-0.920023500919342
1782835963256142600,2.025142578125,-0.4812775254249573,-0.6919041872024536,-0.7325153946876526
1782835963266072600,2.035072509765625,-0.3911847174167633,-0.660058319568634,-0.43929827213287354
1782835963276002600,2.04500244140625,-0.3324795961380005,-0.6115312576293945,-0.11869574338197708
1782835963285932500,2.0549326171875,-0.388016015291214,-0.519359827041626,0.15664629638195038
1782835963295862800,2.06486279296875,-0.5053029656410217,-0.29302650690078735,0.3633510172367096
1782835963305792500,2.07479248046875,-0.6114862561225891,0.03284337371587753,0.5153430104255676
1782835963315722500,2.084722412109375,-0.6745752096176147,0.32225972414016724,0.6212015151977539
1782835963325652500,2.094652587890625,-0.722659170627594,0.50640869140625,0.6374400854110718
1782835963335582500,2.10458251953125,-0.75538170337677,0.5749717354774475,0.5669776201248169
1782835963345512700,2.1145126953125,-0.7486041784286499,0.5026061534881592,0.47939711809158325
1782835963355441700,2.124441650390625,-0.6932000517845154,0.3501324951648712,0.44570547342300415
1782835963365371400,2.134371337890625,-0.6127344369888306,0.1788196861743927,0.49690648913383484
1782835963375301600,2.144301513671875,-0.5098389387130737,-0.07599635422229767,0.6549568772315979
1782835963385231600,2.154231689453125,-0.41604119539260864,-0.5070990920066833,0.8428105115890503
1782835963395161600,2.16416162109375,-0.26491081714630127,-1.1234209537506104,1.0243102312088013
1782835963405091600,2.174091552734375,-0.09006480872631073,-1.451482892036438,1.1582484245300293
1782835963415021600,2.184021484375,0.04533642530441284,-1.2915560007095337,1.2434536218643188
1782835963424951600,2.19395166015625,0.21000315248966217,-1.0161597728729248,1.413111925125122
1782835963434881800,2.2038818359375,0.2715538740158081,-0.495540052652359,1.5715311765670776
1782835963444811500,2.2138115234375,0.14340941607952118,0.11923675239086151,1.5332846641540527
1782835963454741500,2.223741455078125,-0.061452653259038925,0.4560379385948181,1.3396763801574707
1782835963464671500,2.23367138671875,-0.18952713906764984,0.6062569618225098,1.0328776836395264
1782835963474601500,2.2436015625,-0.2250201553106308,0.7445732951164246,0.6443661451339722
1782835963484531700,2.25353173828125,-0.14075899124145508,0.7599606513977051,0.21861034631729126
1782835963494461400,2.26346142578125,-0.03782355412840843,0.5968625545501709,-0.22194573283195496
1782835963504391700,2.2733916015625,-0.02288675494492054,0.37909653782844543,-0.5629350543022156
1782835963514321700,2.28332177734375,-0.042419977486133575,0.2975686490535736,-0.6823242902755737
1782835963524251400,2.29325146484375,-0.08574054390192032,0.1549946516752243,-0.600991427898407
1782835963534181600,2.303181640625,-0.13640691339969635,-0.07259216159582138,-0.404252827167511
1782835963544111600,2.313111572265625,-0.13711017370224,-0.23208463191986084,-0.20903538167476654
1782835963554041600,2.32304150390625,-0.09693212807178497,-0.07049280405044556,-0.11740134656429291
1782835963563970600,2.332970458984375,-0.08665680885314941,0.43574678897857666,-0.2018537074327469
1782835963573900500,2.342900634765625,-0.1284087747335434,0.8561928272247314,-0.4642152786254883
1782835963583830500,2.35283056640625,-0.0753961056470871,0.903287947177887,-0.7343236207962036
1782835963593760500,2.362760498046875,0.05137329921126366,0.6462337970733643,-0.9305682182312012
1782835963603690800,2.372690673828125,0.14827048778533936,0.4524916708469391,-1.006771206855774
1782835963613620500,2.382620361328125,0.16396503150463104,0.3061096966266632,-0.9504003524780273
1782835963623550700,2.39255078125,0.1285906583070755,0.023395158350467682,-0.8850592970848083
1782835963633480400,2.40248046875,0.2089480757713318,-0.20157404243946075,-0.804982602596283
1782835963643410700,2.41241064453125,0.37380850315093994,-0.2583516836166382,-0.7291561961174011
1782835963653340700,2.422340576171875,0.48551586270332336,-0.20051448047161102,-0.7421412467956543
1782835963663270400,2.4322705078125,0.48419710993766785,-0.13137006759643555,-0.8442437052726746
1782835963673200600,2.44220068359375,0.41022834181785583,-0.11184670031070709,-0.963385820388794
1782835963683130600,2.452130615234375,0.29618924856185913,-0.21892401576042175,-0.9963072538375854
1782835963693060600,2.462060546875,0.1520184725522995,-0.4161633253097534,-0.9429734945297241
1782835963702990600,2.471990478515625,0.045656967908144,-0.49722403287887573,-0.8450421690940857
1782835963712920600,2.481920654296875,-0.00025566015392541885,-0.3848184049129486,-0.7717767357826233
1782835963722850600,2.4918505859375,0.0606987327337265,-0.07430160790681839,-0.6894503831863403
1782835963732780800,2.50178076171875,0.2472718060016632,0.34684616327285767,-0.5252143144607544
1782835963742710500,2.51171044921875,0.45256102085113525,0.6343994140625,-0.3264841139316559
1782835963752640500,2.521640625,0.5820849537849426,0.6964859962463379,-0.11496041715145111
1782835963762570500,2.531570556640625,0.6058959364891052,0.6361391544342041,0.11210376769304276
1782835963772499500,2.54149951171875,0.5338659286499023,0.5456417202949524,0.34721750020980835
1782835963782429700,2.5514296875,0.3601561188697815,0.45709529519081116,0.5592852830886841
1782835963792359700,2.561359619140625,0.10876677185297012,0.36609241366386414,0.6998615860939026
1782835963802289400,2.571289306640625,-0.08267137408256531,0.36127325892448425,0.740455150604248
1782835963812219600,2.5812197265625,-0.150520458817482,0.5001174211502075,0.6941078901290894
1782835963822149600,2.591149658203125,-0.16369017958641052,0.540283739566803,0.5616942644119263
1782835963832079600,2.60107958984375,-0.18726316094398499,0.4152815639972687,0.36542168259620667
1782835963842009600,2.611009521484375,-0.1906946301460266,0.18560674786567688,0.1539919078350067
1782835963851939600,2.620939697265625,-0.1755678653717041,-0.03395995497703552,-0.04809834435582161
1782835963861869600,2.63086962890625,-0.16727599501609802,-0.22832350432872772,-0.22163312137126923
1782835963871799600,2.640799560546875,-0.13843050599098206,-0.14901962876319885,-0.3236391246318817
1782835963881729500,2.6507294921875,-0.11663493514060974,0.08955041319131851,-0.3163718581199646
1782835963891659500,2.660659423828125,-0.18058888614177704,0.3395317494869232,-0.22565314173698425
1782835963901589800,2.67058984375,-0.3321192264556885,0.45891645550727844,-0.0137105667963624
1782835963911519500,2.68051953125,-0.5319575071334839,0.5507142543792725,0.2889091968536377
1782835963921449700,2.69044970703125,-0.7440328598022461,0.6643542051315308,0.6057606935501099
1782835963931379500,2.70037939453125,-0.9102298617362976,0.7589238882064819,0.8578613996505737
1782835963941309700,2.710309814453125,-0.9915127754211426,0.8471434116363525,1.013846755027771
1782835963951239700,2.72023974609375,-0.9703608751296997,0.9043172597885132,1.063463807106018
1782835963961169400,2.73016943359375,-0.8798059225082397,0.8544253706932068,0.9980675578117371
1782835963971098600,2.7400986328125,-0.785274088382721,0.6382975578308105,0.8410509824752808
1782835963981028600,2.750028564453125,-0.6953532099723816,0.4826536178588867,0.6392552852630615
1782835963990956500,2.75995654296875,-0.5918737053871155,0.5908045768737793,0.44779688119888306
1782835964000886800,2.76988671875,-0.480694979429245,0.7340276837348938,0.291048139333725
1782835964010816500,2.77981640625,-0.3576601445674896,0.6571536660194397,0.20640383660793304
1782835964020746500,2.78974658203125,-0.13008013367652893,0.40734678506851196,0.2727263271808624
1782835964030676500,2.799676513671875,0.17555087804794312,0.13749055564403534,0.4432554543018341
1782835964040606500,2.8096064453125,0.470047265291214,-0.12603424489498138,0.6391008496284485
1782835964050536700,2.81953662109375,0.696857213973999,-0.06226538494229317,0.7965719699859619
1782835964060466400,2.829466552734375,0.8210976719856262,0.18114890158176422,0.8415534496307373
1782835964070396700,2.839396728515625,0.8393843173980713,0.16124364733695984,0.6855372190475464
1782835964080326700,2.84932666015625,0.8459235429763794,-0.12134935706853867,0.3706608712673187
1782835964090256600,2.859256591796875,0.8741951584815979,-0.10347288846969604,0.10412291437387466
1782835964100186600,2.8691865234375,0.8879609107971191,0.05198073759675026,-0.013029994443058968
1782835964110116600,2.87911669921875,0.8479557037353516,0.14372876286506653,-0.045317623764276505
1782835964120046600,2.889046630859375,0.7496352195739746,0.24137912690639496,-0.10064616799354553
1782835964129976600,2.8989765625,0.6622744798660278,0.34693804383277893,-0.2285735160112381
1782835964139906600,2.908906494140625,0.612711489200592,0.24761703610420227,-0.45126739144325256
1782835964149836500,2.91883642578125,0.6488173007965088,-0.03856731578707695,-0.6606238484382629
1782835964159765500,2.928765625,0.7263254523277283,-0.40356042981147766,-0.7461994290351868
1782835964169695500,2.938695556640625,0.7252655029296875,-0.8629908561706543,-0.7353257536888123
1782835964179625500,2.94862548828125,0.6238393187522888,-1.2707659006118774,-0.6770634651184082
1782835964189555700,2.9585556640625,0.3405900299549103,-1.4437837600708008,-0.6649246215820312
1782835964199485400,2.9684853515625,-0.06302860379219055,-1.3297277688980103,-0.7558358907699585
1782835964209415700,2.978415771484375,-0.471964955329895,-0.9513272643089294,-0.9474461078643799
1782835964219345700,2.988345703125,-0.7461724877357483,-0.4976266026496887,-1.1257356405258179
1782835964229275400,2.998275390625,-0.7926782369613647,-0.22745691239833832,-1.1917937994003296
1782835964239205600,3.00820556640625,-0.6454551815986633,-0.25101447105407715,-1.0874429941177368
1782835964249135600,3.018135498046875,-0.3951662480831146,-0.46585991978645325,-0.8512704372406006
1782835964259065600,3.028065673828125,-0.15320028364658356,-0.7065277695655823,-0.5661178231239319
1782835964268995600,3.03799560546875,0.04371996968984604,-0.7976217269897461,-0.27570590376853943
1782835964278925600,3.047925537109375,0.17229518294334412,-0.6621814370155334,0.001688096672296524
1782835964288855600,3.05785546875,0.22132477164268494,-0.4550341069698334,0.23208776116371155
1782835964298785800,3.067785888671875,0.2100992500782013,-0.25265130400657654,0.42917463183403015
1782835964308715500,3.077715576171875,0.14937013387680054,-0.06355886906385422,0.5835061073303223
1782835964318645500,3.0876455078125,0.020772704854607582,0.11530279368162155,0.6325269341468811
1782835964328575500,3.097575439453125,-0.13444244861602783,0.2295454740524292,0.576803982257843
1782835964338505500,3.10750537109375,-0.2561231851577759,0.2673228681087494,0.4654264450073242
1782835964348434700,3.1174345703125,-0.32912230491638184,0.275007426738739,0.3434712290763855
1782835964358364700,3.12736474609375,-0.3502058982849121,0.22590912878513336,0.263701468706131
1782835964368294400,3.13729443359375,-0.35752370953559875,0.14843590557575226,0.24466678500175476
1782835964378224600,3.147224609375,-0.3630983531475067,0.08826582133769989,0.27602726221084595
1782835964388154600,3.157154541015625,-0.34678542613983154,0.08437414467334747,0.34806737303733826
1782835964398084600,3.167084716796875,-0.26535412669181824,0.19474002718925476,0.4391936659812927
1782835964408014600,3.1770146484375,-0.11788342893123627,0.3840484321117401,0.5391801595687866
1782835964417944600,3.186944580078125,0.027176015079021454,0.5183713436126709,0.601078450679779
1782835964427874600,3.19687451171875,0.09249936789274216,0.5590961575508118,0.5751656293869019
1782835964437804500,3.206804443359375,0.10002288967370987,0.5232803225517273,0.51408451795578
1782835964447734500,3.216734619140625,0.08736914396286011,0.440448522567749,0.43675193190574646
1782835964457664500,3.22666455078125,0.03554147109389305,0.2651727497577667,0.37127766013145447
1782835964467594500,3.236594482421875,-0.04197622090578079,0.21766060590744019,0.31524714827537537
1782835964477524500,3.2465244140625,-0.12972377240657806,0.39401668310165405,0.22651995718479156
1782835964487454700,3.256454833984375,-0.20324619114398956,0.5535250902175903,0.05078674852848053
1782835964497384400,3.266384521484375,-0.21468421816825867,0.6255612969398499,-0.23006294667720795
1782835964507314700,3.276314697265625,-0.14588092267513275,0.5262075662612915,-0.573258101940155
1782835964517244700,3.28624462890625,0.056787073612213135,0.09402304142713547,-0.8171481490135193
1782835964527174400,3.29617431640625,0.3727929890155792,-0.19254161417484283,-0.797366201877594
1782835964537103600,3.306103515625,0.5958947539329529,-0.13987037539482117,-0.6041460633277893
1782835964547033600,3.31603369140625,0.5366050601005554,-0.2532408833503723,-0.5320740342140198
1782835964556963600,3.325963623046875,0.25754889845848083,-0.6788857579231262,-0.742367148399353
1782835964566893600,3.3358935546875,-0.01536758616566658,-0.8621416091918945,-1.143251657485962
1782835964576823600,3.345823486328125,-0.04705033078789711,-0.40554365515708923,-1.5110009908676147
1782835964586753500,3.35575341796875,0.11330153048038483,0.3283470869064331,-1.7011131048202515
1782835964596683500,3.36568359375,0.3127259314060211,0.8678925633430481,-1.6533457040786743
1782835964606613800,3.37561376953125,0.5050373077392578,1.053560495376587,-1.3702828884124756
1782835964616543500,3.38554345703125,0.6747081279754639,0.7891399264335632,-0.9858474731445312
1782835964626473700,3.3954736328125,0.8593115210533142,0.09715881943702698,-0.5409120321273804
1782835964636403500,3.405403564453125,1.1234079599380493,-0.843245267868042,-0.0456208661198616
1782835964646333700,3.415333740234375,1.347581148147583,-1.618072271347046,0.3652665317058563
1782835964656263700,3.425263671875,1.3256471157073975,-1.9863518476486206,0.5045602917671204
1782835964666193400,3.435193359375,1.0443106889724731,-2.0009162425994873,0.36298078298568726
1782835964676123600,3.44512353515625,0.6150324940681458,-1.7201944589614868,0.05638653039932251
1782835964686053600,3.4550537109375,0.19882513582706451,-1.30280339717865,-0.2634788155555725
1782835964695983600,3.464983642578125,-0.10920553654432297,-0.9187469482421875,-0.5287025570869446
1782835964705913600,3.47491357421875,-0.2722514569759369,-0.7281437516212463,-0.6929860711097717
1782835964715842600,3.484842529296875,-0.3087674081325531,-0.7388139367103577,-0.7712446451187134
1782835964725772500,3.4947724609375,-0.23067790269851685,-0.8779857158660889,-0.7748249769210815
1782835964735702500,3.50470263671875,-0.05016150325536728,-1.021698236465454,-0.7073706388473511
1782835964745632800,3.5146328125,0.1663431078195572,-1.1014529466629028,-0.5682138204574585
1782835964755562500,3.5245625,0.34490513801574707,-1.028090238571167,-0.37013503909111023
1782835964765492700,3.53449267578125,0.44686320424079895,-0.8033410906791687,-0.16567084193229675
1782835964775422500,3.54442236328125,0.4791233539581299,-0.47490599751472473,0.03152405470609665
1782835964785352400,3.5543525390625,0.41468366980552673,-0.12681804597377777,0.1915251761674881
1782835964795282700,3.56428271484375,0.27082231640815735,0.13322237133979797,0.2870352268218994
1782835964805212400,3.57421240234375,0.10993543267250061,0.24032670259475708,0.3344826400279999
1782835964815142700,3.584142578125,-0.0562158040702343,0.2815028131008148,0.33845818042755127
1782835964825072600,3.59407275390625,-0.18582704663276672,0.3178600072860718,0.2870993912220001
1782835964835002600,3.604002685546875,-0.23618321120738983,0.2924720346927643,0.21711978316307068
1782835964844932600,3.6139326171875,-0.22138188779354095,0.1800709366798401,0.14089396595954895
1782835964854862600,3.623862548828125,-0.14753687381744385,0.10062266886234283,0.1043507307767868
1782835964864792600,3.63379248046875,-0.03258977457880974,0.29179367423057556,0.16027577221393585
1782835964874722600,3.64372265625,0.038439713418483734,0.6924803256988525,0.2268752157688141
1782835964884652500,3.653652587890625,0.01584598794579506,0.9871578216552734,0.22267727553844452
1782835964894581500,3.66358154296875,-0.04821266233921051,1.1379121541976929,0.15525376796722412
1782835964904511700,3.67351171875,-0.03778505697846413,1.0714430809020996,0.11669865250587463
1782835964914441500,3.68344140625,0.02021808549761772,0.9307414889335632,0.1255153864622116
1782835964924371500,3.693371337890625,0.01028422825038433,0.7767913341522217,0.14069540798664093
1782835964934301700,3.7033017578125,-0.14446231722831726,0.5876731872558594,0.12215925753116608
1782835964944231400,3.7132314453125,-0.34120628237724304,0.41478264331817627,0.06666164100170135
1782835964954161700,3.72316162109375,-0.3842683732509613,0.5131626129150391,0.03539211302995682
1782835964964091600,3.733091552734375,-0.3797700107097626,0.9744042754173279,0.036766573786735535
1782835964974021600,3.743021728515625,-0.41394975781440735,1.487610936164856,0.07035122811794281
1782835964983950300,3.752950439453125,-0.43610137701034546,1.7820473909378052,0.14251436293125153
1782835964993880300,3.76288037109375,-0.3618338108062744,1.8485291004180908,0.2756430506706238
1782835965003810300,3.772810302734375,-0.17673054337501526,1.701088547706604,0.4586767554283142
1782835965013740300,3.782740234375,0.08265138417482376,1.6594270467758179,0.7059837579727173
1782835965023670500,3.79267041015625,0.3108406066894531,1.813279151916504,0.9402822852134705
1782835965033600300,3.802600341796875,0.3733690083026886,1.799700379371643,0.9995251893997192
1782835965043530200,3.8125302734375,0.23435969650745392,1.2415220737457275,0.8037852644920349
1782835965053460500,3.82246044921875,0.05421992391347885,0.41630762815475464,0.40217116475105286
1782835965063389200,3.83238916015625,0.009819701313972473,-0.167873814702034,0.009108851663768291
1782835965073319400,3.8423193359375,0.007563257589936256,-0.3685084283351898,-0.2913706600666046
1782835965083249400,3.85224951171875,0.00417172210291028,-0.3303391933441162,-0.46253204345703125
1782835965093179100,3.86217919921875,0.05116105452179909,-0.18086199462413788,-0.4705600440502167
1782835965103109400,3.872109375,0.17703935503959656,-0.04280426353216171,-0.37453019618988037
1782835965113039400,3.882039306640625,0.3617886006832123,-0.029020298272371292,-0.32039570808410645
1782835965122969300,3.89196923828125,0.5971845984458923,-0.1682218611240387,-0.35438111424446106
1782835965132899300,3.9018994140625,0.8696779608726501,-0.5245829224586487,-0.39783576130867004
1782835965142829300,3.911829345703125,1.1314911842346191,-1.1042484045028687,-0.35814347863197327
1782835965152759300,3.92175927734375,1.3252731561660767,-1.8578377962112427,-0.18911755084991455
1782835965162689500,3.931689453125,1.4097118377685547,-2.6383821964263916,0.05609140917658806
1782835965172619300,3.941619384765625,1.3717588186264038,-3.2868776321411133,0.27798205614089966
1782835965182549200,3.95154931640625,1.1287223100662231,-3.4801206588745117,0.31927409768104553
1782835965192479500,3.9614794921875,0.7326076626777649,-2.9860053062438965,0.16748017072677612
1782835965202409200,3.9714091796875,0.22518518567085266,-1.871989130973816,-0.13240747153759003
1782835965212339500,3.98133935546875,-0.3300834000110626,-0.5752687454223633,-0.47133907675743103
1782835965222269200,3.991269287109375,-0.8369495272636414,0.5282647609710693,-0.7035792469978333
1782835965232198100,4.0011982421875,-1.2190446853637695,1.2746328115463257,-0.7527516484260559
1782835965242128400,4.01112841796875,-1.453453540802002,1.6538567543029785,-0.6265228986740112
1782835965252058400,4.021058349609375,-1.5566602945327759,1.6298213005065918,-0.34424594044685364
1782835965261988400,4.03098828125,-1.56526517868042,1.3234126567840576,0.04161200672388077
1782835965271918300,4.04091845703125,-1.491166353225708,0.8829099535942078,0.48628246784210205
1782835965281848300,4.050848388671875,-1.3473211526870728,0.37920132279396057,0.9172866344451904
1782835965291778300,4.0607783203125,-1.2022594213485718,-0.20922884345054626,1.224148154258728
1782835965301708300,4.070708251953125,-1.0526448488235474,-0.6018757224082947,1.265377163887024
1782835965311638300,4.08063818359375,-0.8754470944404602,-0.5254074335098267,1.038902759552002
1782835965321568300,4.090568359375,-0.6771821975708008,0.09746043384075165,0.6365604400634766
1782835965331498500,4.10049853515625,-0.5060244202613831,0.8276175260543823,0.1567433923482895
1782835965341428200,4.11042822265625,-0.3604973554611206,1.216952919960022,-0.297225683927536
1782835965351358500,4.1203583984375,-0.22980116307735443,1.1281509399414062,-0.5797739028930664
1782835965361288200,4.1302880859375,-0.11110462248325348,0.8523359298706055,-0.611783504486084
1782835965371218400,4.140218505859375,0.02999405562877655,0.5714752674102783,-0.3164340555667877
1782835965381148400,4.1501484375,0.11324793100357056,0.32993319630622864,0.16259030997753143
1782835965391078100,4.160078125,0.0989966168999672,0.08543280512094498,0.6796085834503174
1782835965401007400,4.17000732421875,0.00005512405186891556,-0.19926896691322327,1.0866165161132812
1782835965410937300,4.179937255859375,-0.13301068544387817,-0.519112765789032,1.2742881774902344
1782835965420867300,4.189867431640625,-0.20902661979198456,-0.5616493225097656,1.2310805320739746
1782835965430797300,4.19979736328125,-0.16259540617465973,-0.19024266302585602,1.0063114166259766
1782835965440727300,4.209727294921875,-0.03623746708035469,0.3902955651283264,0.708152174949646
1782835965450657300,4.2196572265625,0.05124454200267792,0.9145227670669556,0.4168354868888855
1782835965460587300,4.229587158203125,0.029867080971598625,1.1104962825775146,0.18850752711296082
1782835965470517500,4.239517578125,-0.014497453346848488,0.9388174414634705,0.08960171043872833
1782835965480447200,4.249447265625,-0.05638498067855835,0.7093017101287842,0.07591547071933746
1782835965490377500,4.25937744140625,-0.11795592308044434,0.5446701049804688,0.019363142549991608
1782835965500307200,4.26930712890625,-0.153526172041893,0.31474289298057556,-0.06499487906694412
1782835965510237200,4.2792373046875,-0.13998034596443176,-0.054365746676921844,-0.1519298106431961
1782835965520167400,4.28916748046875,-0.0744527205824852,-0.6363961100578308,-0.2148115634918213
1782835965530097200,4.29909716796875,0.09294123947620392,-1.112549066543579,-0.22032256424427032
1782835965540027400,4.30902734375,0.33522018790245056,-1.049106240272522,-0.21882560849189758
1782835965549957400,4.318957275390625,0.5130528807640076,-0.6208574771881104,-0.37831029295921326
1782835965559886300,4.32888623046875,0.45279619097709656,-0.23921556770801544,-0.7806561589241028
1782835965569816300,4.33881640625,0.20067326724529266,-0.19586144387722015,-1.2947181463241577
1782835965579746300,4.348746337890625,-0.02973783388733864,-0.6428927183151245,-1.7328566312789917
1782835965589676300,4.35867626953125,-0.15725919604301453,-1.0276896953582764,-1.9531694650650024
1782835965599606300,4.368606201171875,-0.21157117187976837,-0.8875333070755005,-1.8853517770767212
1782835965609536500,4.37853662109375,-0.22825926542282104,-0.4368267357349396,-1.5986264944076538
1782835965619466200,4.38846630859375,-0.15224918723106384,-0.02431480400264263,-1.1392391920089722
1782835965629396500,4.398396484375,0.09648868441581726,0.17806735634803772,-0.5789926648139954
1782835965639326200,4.408326171875,0.4460786283016205,0.09987214207649231,-0.04575084149837494
1782835965649256200,4.418256103515625,0.6641620993614197,-0.2153642177581787,0.2474118173122406
1782835965659186400,4.4281865234375,0.5946850180625916,-0.468152791261673,0.1653001755475998
1782835965669116200,4.4381162109375,0.3208477795124054,-0.491291344165802,-0.2125076949596405
1782835965679046400,4.44804638671875,-0.0015459870919585228,-0.27142584323883057,-0.7088887095451355
1782835965688976400,4.457976318359375,-0.2564700245857239,0.0790383592247963,-1.1075729131698608
1782835965698906400,4.46790625,-0.40218648314476013,0.3979519009590149,-1.2753582000732422
1782835965708836400,4.47783642578125,-0.4787394106388092,0.4956152141094208,-1.2417075634002686
1782835965718765300,4.487765380859375,-0.44062235951423645,0.423729807138443,-1.0259454250335693
1782835965728695300,4.4976953125,-0.2594277560710907,0.16931913793087006,-0.6568853855133057
1782835965738625300,4.507625244140625,-0.02448900416493416,-0.20424193143844604,-0.18937522172927856
1782835965748555500,4.517555419921875,0.17799824476242065,-0.5560480952262878,0.3152885437011719
1782835965758485200,4.5274853515625,0.288998007774353,-0.8111616373062134,0.7917264699935913
1782835965768415200,4.537415283203125,0.26146307587623596,-0.7685867547988892,1.1280702352523804
1782835965778345500,4.547345458984375,0.06749626249074936,-0.4206746220588684,1.234779953956604
1782835965788275200,4.557275146484375,-0.23328781127929688,0.09948068857192993,1.1061073541641235
1782835965798205400,4.567205322265625,-0.5433399677276611,0.6260427236557007,0.7949254512786865
1782835965808135200,4.57713525390625,-0.7536245584487915,0.9838641285896301,0.38857170939445496
1782835965818065400,4.5870654296875,-0.8809587955474854,1.1027129888534546,-0.010418310761451721
1782835965827995400,4.596995361328125,-0.9084944128990173,0.9781022071838379,-0.2912830412387848
1782835965837925400,4.60692529296875,-0.855850338935852,0.7040826082229614,-0.4185190498828888
1782835965847855400,4.61685546875,-0.7280957698822021,0.38179802894592285,-0.3411370515823364
1782835965857785300,4.626785400390625,-0.5201377868652344,0.09453322738409042,-0.02492581494152546
1782835965867715300,4.63671533203125,-0.2934442460536957,-0.0689660906791687,0.419464647769928
1782835965877644300,4.646644287109375,-0.0980723649263382,-0.17707231640815735,0.8699077367782593
1782835965887574500,4.656574462890625,0.0823136642575264,-0.20640099048614502,1.2281363010406494
1782835965897504300,4.666504150390625,0.26439929008483887,-0.12624169886112213,1.4655438661575317
1782835965907434200,4.676434326171875,0.35830774903297424,0.14645084738731384,1.526133418083191
1782835965917364500,4.686364501953125,0.28867247700691223,0.46363040804862976,1.3936163187026978
1782835965927294200,4.696294189453125,0.12623417377471924,0.6441459655761719,1.1583846807479858
1782835965937224400,4.706224365234375,-0.011073881760239601,0.6814858913421631,0.9334192276000977
1782835965947154200,4.716154296875,-0.11820012331008911,0.6141362190246582,0.8010393977165222
1782835965957084400,4.72608447265625,-0.15813688933849335,0.3820904493331909,0.7671517729759216
1782835965967014400,4.736014404296875,-0.08634710311889648,0.06114775314927101,0.8283223509788513
1782835965976944400,4.7459443359375,0.058610886335372925,-0.14886993169784546,0.9242597818374634
1782835965986875000,4.755875,0.23182684183120728,-0.09007929265499115,1.0033844709396362
1782835965996804600,4.7658046875,0.367164671421051,0.07523669302463531,0.980446457862854
1782835966006734600,4.775734619140625,0.42217355966567993,0.044665880501270294,0.8168087005615234
1782835966016664800,4.785664794921875,0.41388076543807983,-0.08936648815870285,0.46443650126457214
1782835966026593800,4.79559375,0.438841849565506,-0.2475980520248413,0.03005528822541237
1782835966036523800,4.805523681640625,0.5483704209327698,-0.21980637311935425,-0.32631081342697144
1782835966046453800,4.815453857421875,0.668877124786377,-0.2933328449726105,-0.5606729388237
1782835966056383500,4.825383544921875,0.5848671197891235,-0.5902737379074097,-0.7557223439216614
1782835966066313700,4.835313720703125,0.27380111813545227,-0.6242456436157227,-0.9283772110939026
1782835966076243700,4.84524365234375,-0.07316908985376358,-0.3239971697330475,-1.0986624956130981
1782835966086173700,4.855173583984375,-0.30557161569595337,-0.04815836623311043,-1.2525216341018677
1782835966096103700,4.865103759765625,-0.37443244457244873,0.19901546835899353,-1.2786704301834106
1782835966106034000,4.875033935546875,-0.3343370258808136,0.39617782831192017,-1.1929851770401
1782835966115963600,4.884963623046875,-0.260900616645813,0.46301573514938354,-1.0915839672088623
1782835966125893600,4.8948935546875,-0.12836532294750214,0.40427935123443604,-0.960862398147583
1782835966135823600,4.90482373046875,0.09524380415678024,0.22169119119644165,-0.7701671123504639
1782835966145753600,4.914753662109375,0.30147433280944824,-0.10819404572248459,-0.526388943195343
1782835966155683800,4.924683837890625,0.3094789981842041,-0.4036765396595001,-0.30097392201423645
1782835966165612800,4.93461279296875,0.041658204048871994,-0.5642680525779724,-0.18392397463321686
1782835966175542500,4.94454248046875,-0.3837255835533142,-0.5669187307357788,-0.20198127627372742
1782835966185472800,4.95447265625,-0.755034327507019,-0.38953855633735657,-0.3185238540172577
1782835966195402500,4.964402587890625,-0.941154956817627,-0.18897801637649536,-0.4283504784107208
1782835966205332700,4.974332763671875,-0.9577125310897827,0.02388978749513626,-0.4091643989086151
1782835966215262700,4.9842626953125,-0.868837296962738,0.09865190833806992,-0.27175089716911316
1782835966225192700,4.994192626953125,-0.6614158153533936,-0.009670237079262733,-0.07725004851818085
1782835966235122700,5.004122802734375,-0.3586794435977936,-0.11586511135101318,0.1526755541563034
1782835966245053000,5.014052978515625,-0.042900972068309784,-0.150020569562912,0.3893771469593048
1782835966254982700,5.023982666015625,0.23433835804462433,-0.08820407092571259,0.6378612518310547
1782835966264912600,5.03391259765625,0.43553122878074646,0.05087942257523537,0.9026991724967957
1782835966274842600,5.043842529296875,0.5320982336997986,0.16516605019569397,1.143061637878418
1782835966284772600,5.053772705078125,0.5079437494277954,0.2746320366859436,1.3153454065322876
1782835966294702800,5.063702880859375,0.3817264139652252,0.4263480603694916,1.3619866371154785
1782835966304632600,5.073632568359375,0.21585574746131897,0.5945473313331604,1.283002257347107
1782835966314561500,5.0835615234375,0.03366276994347572,0.7418910264968872,1.091126561164856
1782835966324491800,5.09349169921875,-0.11071272939443588,0.8755209445953369,0.8337926268577576
1782835966334421800,5.103421875,-0.1840822845697403,0.9772859215736389,0.6072993278503418
1782835966344351700,5.113351806640625,-0.210288867354393,0.9663116931915283,0.4604407250881195
1782835966354281700,5.12328173828125,-0.21660003066062927,0.7556071281433105,0.41200023889541626
1782835966364211700,5.133211669921875,-0.1926797777414322,0.4468330442905426,0.4493454694747925
1782835966374141700,5.1431416015625,-0.128623828291893,0.15328317880630493,0.5678353905677795
1782835966384071700,5.15307177734375,-0.06633365154266357,-0.0713169202208519,0.7051320672035217
1782835966394001700,5.163001708984375,-0.037262581288814545,-0.23614181578159332,0.7846998572349548
1782835966403931600,5.172931640625,-0.017238609492778778,-0.2278943955898285,0.7657657861709595
1782835966413861600,5.182861572265625,0.036150842905044556,0.06606640666723251,0.690790593624115
1782835966423791600,5.19279150390625,0.09241407364606857,0.35848334431648254,0.5324862599372864
1782835966433721900,5.202721923828125,0.09774971753358841,0.3925350606441498,0.2833816111087799
1782835966443651600,5.212651611328125,0.07852119207382202,0.2507265508174896,0.057154905050992966
1782835966453581800,5.222581787109375,0.0313909687101841,0.30891236662864685,-0.03740356117486954
1782835966463510800,5.2325107421875,-0.12276473641395569,0.5761539340019226,-0.07974331825971603
1782835966473440800,5.242440673828125,-0.3167925179004669,0.7809872627258301,-0.15519653260707855
1782835966483370800,5.252370849609375,-0.3737410604953766,0.7406796216964722,-0.2629644572734833
1782835966493300700,5.26230078125,-0.2718210816383362,0.29040035605430603,-0.4081208407878876
1782835966503230700,5.272230712890625,0.004171131644397974,-0.41874539852142334,-0.5730565190315247
1782835966513160700,5.28216064453125,0.3932453989982605,-1.025184988975525,-0.8105617761611938
1782835966523090700,5.292090576171875,0.7285638451576233,-1.2698564529418945,-1.1930330991744995
1782835966533020700,5.302020751953125,0.7278146743774414,-1.4082411527633667,-1.7557915449142456
1782835966542950700,5.31195068359375,0.4031866788864136,-1.1235904693603516,-2.4265646934509277
1782835966552880600,5.321880615234375,0.15549539029598236,-0.2183344066143036,-2.837453603744507
1782835966562810600,5.331810546875,0.16810375452041626,0.7240732312202454,-2.7825767993927
1782835966572740900,5.341740966796875,0.309611052274704,1.197826623916626,-2.392544984817505
1782835966582670600,5.351670654296875,0.4480924606323242,1.2613517045974731,-1.910685658454895
1782835966592600800,5.361600830078125,0.5130626559257507,0.9439595937728882,-1.5578328371047974
1782835966602529800,5.37152978515625,0.5896836519241333,0.32679665088653564,-1.3412282466888428
1782835966612459800,5.381459716796875,0.734122633934021,-0.6904951930046082,-1.1823691129684448
1782835966622389800,5.3913896484375,0.9710990786552429,-1.5669453144073486,-0.9492837190628052
1782835966632319700,5.40131982421875,1.3255263566970825,-1.8599936962127686,-0.4942203760147095
1782835966642249700,5.411249755859375,1.5380321741104126,-1.558426856994629,0.03511805832386017
1782835966652179700,5.4211796875,1.4810757637023926,-0.8004520535469055,0.4541637897491455
1782835966662109700,5.431109619140625,1.2079755067825317,0.042398564517498016,0.6457671523094177
1782835966672039700,5.441039794921875,0.8683503270149231,0.7064071893692017,0.6807594895362854
1782835966681969700,5.4509697265625,0.5377999544143677,1.0243293046951294,0.6693744659423828
1782835966691900000,5.46089990234375,0.22012798488140106,0.987311601638794,0.6969949007034302
1782835966701829600,5.47082958984375,-0.06916108727455139,0.7207801938056946,0.8097162246704102
1782835966711760000,5.480759765625,-0.3039133846759796,0.30730125308036804,0.9490722417831421
1782835966721689600,5.490689697265625,-0.4163549244403839,-0.23691880702972412,1.0933418273925781
1782835966731619600,5.50061962890625,-0.49475282430648804,-0.7664803862571716,1.1462055444717407
1782835966741548800,5.510548828125,-0.5662664175033569,-1.1673423051834106,1.0861108303070068
1782835966751478800,5.520478759765625,-0.6094682216644287,-0.7582336664199829,0.9282389283180237
1782835966761408800,5.53040869140625,-0.5881046056747437,0.23177342116832733,0.8082281351089478
1782835966771338800,5.5403388671875,-0.5622205138206482,1.029258370399475,0.7216559648513794
1782835966781268500,5.5502685546875,-0.5819010734558105,1.393066167831421,0.6404829621315002
1782835966791198700,5.56019873046875,-0.6082362532615662,1.438042163848877,0.6498234868049622
1782835966801128700,5.570128662109375,-0.54845130443573,1.3135066032409668,0.8324742913246155
1782835966811058700,5.58005859375,-0.44412413239479065,1.1195847988128662,1.0969973802566528
1782835966820988700,5.58998876953125,-0.3618481159210205,0.862327516078949,1.3474905490875244
1782835966830919000,5.5999189453125,-0.3590337038040161,0.57375568151474,1.4641761779785156
1782835966840848600,5.6098486328125,-0.39466574788093567,0.2354692667722702,1.4300191402435303
1782835966850779000,5.61977880859375,-0.4233437478542328,-0.11309857666492462,1.2798516750335693
1782835966860708600,5.62970849609375,-0.4391247630119324,-0.41298189759254456,1.0687226057052612
1782835966870638600,5.639638671875,-0.4421735405921936,-0.4640219211578369,0.7932220697402954
1782835966880567800,5.64956787109375,-0.40976405143737793,-0.1902436763048172,0.4835876226425171
1782835966890497800,5.659497802734375,-0.2674170136451721,0.21225635707378387,0.3052256107330322
1782835966900427800,5.669427734375,-0.10005474835634232,0.6348925828933716,0.24592290818691254
1782835966910357800,5.679357666015625,-0.03702624887228012,0.8524680137634277,0.26372218132019043
1782835966920287500,5.68928759765625,-0.0437772199511528,0.8179376721382141,0.34158456325531006
1782835966930217700,5.6992177734375,-0.014587375335395336,0.6524752378463745,0.49428969621658325
1782835966940147700,5.709147705078125,0.06806127727031708,0.4976964294910431,0.7363254427909851
1782835966950077700,5.71907763671875,0.08177629113197327,0.41436368227005005,0.9491211175918579
1782835966960007700,5.729007568359375,-0.07780170440673828,0.21972419321537018,0.9715297818183899
1782835966969938000,5.73893798828125,-0.29598650336265564,-0.18071429431438446,0.7305853366851807
1782835966979867600,5.74886767578125,-0.42923691868782043,-0.7477278113365173,0.2095312923192978
1782835966989797600,5.758797607421875,-0.40047505497932434,-1.2548054456710815,-0.5248609185218811
1782835966999727400,5.768727294921875,-0.15143829584121704,-1.5165166854858398,-1.2781184911727905
1782835967009657600,5.77865771484375,0.2681030333042145,-1.3987958431243896,-1.819139838218689
1782835967019587600,5.788587646484375,0.5967298746109009,-1.1176997423171997,-2.0392496585845947
1782835967029516800,5.798516845703125,0.7276726961135864,-0.8739874362945557,-1.9570709466934204
1782835967039446500,5.808446533203125,0.7838519811630249,-0.47544804215431213,-1.6208887100219727
1782835967049376500,5.81837646484375,0.7731106877326965,-0.36145010590553284,-1.2361046075820923
1782835967059306500,5.828306396484375,0.6932514309883118,-0.8412027955055237,-0.967803418636322
1782835967069236500,5.838236572265625,0.6306964159011841,-1.4309673309326172,-0.7834953665733337
1782835967079166700,5.848166748046875,0.5134403109550476,-1.9953786134719849,-0.7371045351028442
1782835967089096400,5.858096435546875,0.41139036417007446,-2.2055177688598633,-0.7807705402374268
1782835967099026700,5.868026611328125,0.2795066833496094,-2.2521116733551025,-0.9283678531646729
1782835967108956700,5.877956787109375,0.13370314240455627,-2.019911289215088,-1.1427485942840576
1782835967118886400,5.887886474609375,0.10242374241352081,-1.40213942527771,-1.2291971445083618
1782835967128816600,5.897816650390625,0.11622557044029236,-0.6537274718284607,-1.1707005500793457
1782835967138746600,5.90774658203125,0.11852368712425232,0.0465729683637619,-0.9651575088500977
1782835967148676600,5.917676513671875,0.09277278184890747,0.6518809795379639,-0.6647742390632629
1782835967158605600,5.92760546875,0.041441626846790314,1.0109171867370605,-0.3262564241886139
1782835967168535600,5.93753564453125,-0.05756031721830368,1.0439236164093018,-0.020178521052002907
1782835967178465500,5.947465576171875,-0.2070751041173935,0.7111217379570007,0.2281709462404251
1782835967188395500,5.9573955078125,-0.3550347685813904,0.184789776802063,0.43295231461524963
1782835967198325800,5.96732568359375,-0.4274469017982483,-0.23141588270664215,0.6052032709121704
1782835967208258600,5.977258544921875,-0.3961166739463806,-0.4841626286506653,0.7175271511077881
1782835967218188500,5.9871884765625,-0.30744609236717224,-0.6333304047584534,0.741442859172821
1782835967228117500,5.997117431640625,-0.2874217629432678,-0.5949447154998779,0.6398739218711853
1782835967238047500,6.007047607421875,-0.3760634958744049,-0.33981573581695557,0.42158257961273193
1782835967247977500,6.0169775390625,-0.5091954469680786,0.05561789125204086,0.1526467353105545
1782835967257907700,6.02690771484375,-0.6017262935638428,0.3892013132572174,-0.0770900696516037
1782835967267837400,6.03683740234375,-0.6844289302825928,0.5048664212226868,-0.23905286192893982
1782835967277767700,6.046767578125,-0.6932858228683472,0.3828462064266205,-0.2648487389087677
1782835967287697700,6.05669775390625,-0.6231421828269958,0.25156328082084656,-0.11981566995382309
1782835967297627600,6.066627685546875,-0.5855877995491028,0.1593618094921112,0.08477402478456497
1782835967307557600,6.0765576171875,-0.572414755821228,0.14369149506092072,0.3068494200706482
1782835967317487400,6.0864873046875,-0.5133742690086365,0.3018700182437897,0.5229544639587402
1782835967327417600,6.09641748046875,-0.35360586643218994,0.5483876466751099,0.7354198694229126
1782835967337347600,6.10634765625,-0.1327054649591446,0.648473858833313,0.9380817413330078
1782835967347277600,6.116277587890625,0.07429459691047668,0.5542120337486267,1.0887565612792969
1782835967357207600,6.12620751953125,0.1930602341890335,0.3287346661090851,1.1587003469467163
1782835967367136500,6.136136474609375,0.25616195797920227,0.06597868353128433,1.1715785264968872
1782835967377066500,6.14606640625,0.2503884434700012,0.03913485258817673,1.1184546947479248
1782835967386996500,6.15599658203125,0.19425220787525177,0.21918638050556183,0.9953503608703613
1782835967396926700,6.1659267578125,0.15841539204120636,0.3955959379673004,0.8612440824508667
1782835967406856400,6.1758564453125,0.14878779649734497,0.43055474758148193,0.7399933338165283
1782835967416786700,6.18578662109375,0.14641548693180084,0.3932361900806427,0.6257535219192505
1782835967426716700,6.195716552734375,0.11553720384836197,0.35715728998184204,0.49164018034935
1782835967436646400,6.205646484375,0.08173353224992752,0.27779316902160645,0.30310580134391785
1782835967446576600,6.21557666015625,0.12773431837558746,0.1493513137102127,0.09575953334569931
1782835967456506400,6.22550634765625,0.2341814637184143,0.00010920129716396332,-0.1349540650844574
1782835967466436600,6.2354365234375,0.3785887062549591,-0.177534282207489,-0.40630513429641724
1782835967476366600,6.24536669921875,0.6159083843231201,-0.40367692708969116,-0.6524685621261597
1782835967486296600,6.255296630859375,0.936976432800293,-0.6094335913658142,-0.81622314453125
1782835967496226600,6.2652265625,1.2331877946853638,-0.47911813855171204,-0.8081727027893066
1782835967506155500,6.275155517578125,1.3540161848068237,0.0010439390316605568,-0.6327939629554749
1782835967516085500,6.28508544921875,1.2217220067977905,0.3724324107170105,-0.40877094864845276
1782835967526015500,6.295015380859375,0.8860354423522949,0.3284095525741577,-0.265926718711853
1782835967535945700,6.30494580078125,0.47740641236305237,0.0500575453042984,-0.31507885456085205
1782835967545875500,6.31487548828125,0.07602863013744354,-0.39929524064064026,-0.596251904964447
1782835967555805700,6.3248056640625,-0.30800342559814453,-0.979132354259491,-1.1386737823486328
1782835967565735700,6.334735595703125,-0.5377135872840881,-1.242068886756897,-1.7301874160766602
1782835967575665400,6.34466552734375,-0.5640863180160522,-0.9211607575416565,-2.0335569381713867
1782835967585595600,6.354595703125,-0.5204184651374817,-0.6191260814666748,-2.029754161834717
1782835967595525400,6.364525390625,-0.36034029722213745,-0.3907378911972046,-1.7834607362747192
1782835967605455600,6.37445556640625,-0.08114276081323624,-0.11747705936431885,-1.3892569541931152
1782835967615385600,6.384385498046875,0.18487930297851562,0.09264547377824783,-0.9617370963096619
1782835967625315600,6.394315673828125,0.29970869421958923,0.12265238165855408,-0.6014130115509033
1782835967635244500,6.40424462890625,0.19819456338882446,-0.1277371495962143,-0.3964366018772125
1782835967645174500,6.414174560546875,0.012226558290421963,-0.41062211990356445,-0.27254554629325867
1782835967655104500,6.4241044921875,-0.17146554589271545,-0.4751979410648346,-0.1541358083486557
1782835967665034500,6.434034423828125,-0.36639508605003357,-0.37118658423423767,-0.045889221131801605
1782835967674964700,6.44396484375,-0.5375306606292725,-0.3226991891860962,0.04839179292321205
1782835967684894500,6.45389453125,-0.6366778016090393,-0.21020090579986572,0.1273217648267746
1782835967694824700,6.46382470703125,-0.6387234926223755,0.022580290213227272,0.1955639272928238
1782835967704754700,6.473754638671875,-0.5456175208091736,0.24593134224414825,0.28757932782173157
1782835967714684400,6.483684326171875,-0.45795896649360657,0.33485108613967896,0.38556766510009766
1782835967724614700,6.49361474609375,-0.40811339020729065,0.273873507976532,0.45768898725509644
1782835967734544600,6.503544677734375,-0.35979604721069336,0.11295824497938156,0.5351365804672241
1782835967744474600,6.513474609375,-0.30064111948013306,-0.13305604457855225,0.652002215385437
1782835967754404600,6.523404541015625,-0.28880152106285095,-0.4318234324455261,0.7617036700248718
1782835967764334600,6.53333447265625,-0.3565347492694855,-0.6506830453872681,0.8084877133369446
1782835967774263600,6.543263671875,-0.4677872955799103,-0.5361011028289795,0.7557365894317627
1782835967784193500,6.553193603515625,-0.5442109704017639,-0.15084128081798553,0.6335915327072144
1782835967794123800,6.563123779296875,-0.5651064515113831,0.26092344522476196,0.4541989862918854
1782835967804053500,6.573053466796875,-0.517585813999176,0.5271689891815186,0.22953125834465027
1782835967813983700,6.582983642578125,-0.42235201597213745,0.6204110980033875,-0.0029402123764157295
1782835967823913500,6.59291357421875,-0.317706823348999,0.6290445327758789,-0.22864310443401337
1782835967833843500,6.602843505859375,-0.21211355924606323,0.5717951655387878,-0.3947816491127014
1782835967843773700,6.612773681640625,-0.13338279724121094,0.41023609042167664,-0.48138365149497986
1782835967853703400,6.622703369140625,-0.07524590939283371,0.13540798425674438,-0.44545429944992065
1782835967863633700,6.632633544921875,0.0064047458581626415,-0.04815838113427162,-0.23661348223686218
1782835967873563600,6.642563720703125,0.053353000432252884,-0.04872729629278183,0.08887705951929092
1782835967883493600,6.65249365234375,0.035967886447906494,-0.021855466067790985,0.40282994508743286
1782835967893423600,6.662423583984375,-0.0012026261538267136,-0.05180926248431206,0.6505471467971802
1782835967903353600,6.672353515625,-0.020699361339211464,-0.10702937096357346,0.8296896815299988
1782835967913282600,6.682282470703125,-0.02406899258494377,-0.030464952811598778,0.9202454686164856
1782835967923212500,6.692212646484375,-0.03867962583899498,0.13640978932380676,0.8929936289787292
1782835967933142800,6.702142822265625,-0.10376928746700287,0.2907556891441345,0.7584157586097717
1782835967943072500,6.712072509765625,-0.19663584232330322,0.44391196966171265,0.5190500617027283
1782835967953002800,6.722002685546875,-0.291747510433197,0.656867504119873,0.15853707492351532
1782835967962932500,6.731932373046875,-0.31502968072891235,0.8973698616027832,-0.25023016333580017
1782835967972862500,6.741862548828125,-0.20112359523773193,1.1385515928268433,-0.638742208480835
1782835967982792700,6.751792724609375,-0.011358729563653469,1.1766095161437988,-0.9056066870689392
1782835967992722400,6.761722412109375,0.12511643767356873,1.0131109952926636,-0.9920318722724915
1782835968002652400,6.77165234375,0.09752102941274643,0.5080699324607849,-0.955007791519165
1782835968012582700,6.781582763671875,-0.047169722616672516,-0.10105615109205246,-0.8838547468185425
1782835968022512400,6.791512451171875,-0.16734033823013306,-0.44609636068344116,-0.8001012802124023
1782835968032442600,6.801442626953125,-0.18960756063461304,-0.5994669795036316,-0.7464308738708496
1782835968042371600,6.81137158203125,-0.1031794622540474,-0.6381075978279114,-0.6405984163284302
1782835968052301300,6.82130126953125,0.0708421990275383,-0.5588566064834595,-0.4412509500980377
1782835968062231600,6.8312314453125,0.27340540289878845,-0.48382124304771423,-0.17123998701572418
1782835968072161500,6.84116162109375,0.45939135551452637,-0.40972834825515747,0.11841601878404617
1782835968082091500,6.851091552734375,0.6306105256080627,-0.32830217480659485,0.36434510350227356
1782835968092021500,6.861021484375,0.801983654499054,-0.309783935546875,0.5667527914047241
1782835968101951500,6.870951416015625,0.9219217300415039,-0.4241190254688263,0.7179271578788757
1782835968111881500,6.880881591796875,0.9478715062141418,-0.6765085458755493,0.8249373435974121
1782835968121811500,6.8908115234375,0.8336001038551331,-0.9752984642982483,0.8292940258979797
1782835968131741400,6.900741455078125,0.6029491424560547,-1.1591335535049438,0.6910826563835144
1782835968141671400,6.91067138671875,0.3702858090400696,-1.1129189729690552,0.46101510524749756
1782835968151601700,6.9206015625,0.1525162309408188,-0.8945966958999634,0.17261019349098206
1782835968161531400,6.930531494140625,-0.04066520929336548,-0.5893433094024658,-0.10738390684127808
1782835968171461400,6.94046142578125,-0.1635274887084961,-0.28208136558532715,-0.29661479592323303
1782835968181390600,6.950390625,-0.19832754135131836,-0.05522851645946503,-0.35639238357543945
1782835968191320300,6.9603203125,-0.15556976199150085,0.06083456426858902,-0.28985974192619324
1782835968201250600,6.97025048828125,-0.045379336923360825,0.0828181654214859,-0.13837169110774994
1782835968211180500,6.9801806640625,0.07912081480026245,0.018516438081860542,0.05439986288547516
1782835968221110300,6.9901103515625,0.1765456348657608,-0.054035529494285583,0.24640659987926483
1782835968231040500,7.00004052734375,0.2283989042043686,-0.011524844914674759,0.4003717005252838
1782835968240970500,7.009970458984375,0.24294216930866241,0.07482868432998657,0.4926856458187103
1782835968250900500,7.019900390625,0.22748161852359772,0.14300726354122162,0.5488644242286682
1782835968260830500,7.02983056640625,0.18948335945606232,0.15456245839595795,0.5666458010673523
1782835968270760400,7.039760498046875,0.12823042273521423,0.14202430844306946,0.5431398749351501
1782835968280690400,7.0496904296875,0.03635430335998535,0.1606115698814392,0.4641542434692383
1782835968290620700,7.05962060546875,-0.03844282031059265,0.23801812529563904,0.35306593775749207
1782835968300550400,7.06955029296875,-0.0836545079946518,0.3454737365245819,0.25393933057785034
1782835968310479400,7.079479248046875,-0.11534596234560013,0.4280749559402466,0.1669587790966034
1782835968320409600,7.08940966796875,-0.12863300740718842,0.4089294970035553,0.12445100396871567
1782835968330339300,7.09933935546875,-0.11758594959974289,0.28009963035583496,0.14420552551746368
1782835968340269600,7.10926953125,-0.10319335758686066,0.10233666002750397,0.20524628460407257
1782835968350199600,7.119199462890625,-0.08741445094347,-0.11908676475286484,0.3007920980453491
1782835968360129300,7.12912939453125,-0.06325504928827286,-0.36146771907806396,0.4049994945526123
1782835968370059500,7.1390595703125,-0.020636219531297684,-0.5079436302185059,0.48678433895111084
1782835968379989500,7.148989501953125,0.014834688976407051,-0.4662497639656067,0.5486490726470947
1782835968389919500,7.15891943359375,-0.003394896164536476,-0.2727842628955841,0.5409532189369202
1782835968399849500,7.168849365234375,-0.08813322335481644,-0.04215051606297493,0.4353383779525757
1782835968409779500,7.178779541015625,-0.2346736490726471,0.15880142152309418,0.18898709118366241
1782835968419709400,7.18870947265625,-0.3900086283683777,0.37887123227119446,-0.18076299130916595
1782835968429639400,7.198639404296875,-0.3519671559333801,0.610588550567627,-0.5478010773658752
1782835968439569400,7.2085693359375,-0.09695855528116226,0.6931739449501038,-0.6938831806182861
1782835968449498400,7.218498291015625,0.12596572935581207,0.6643639206886292,-0.5560044646263123
1782835968459428600,7.2284287109375,0.05949029326438904,0.5876915454864502,-0.29626452922821045
1782835968469358300,7.2383583984375,-0.2785485088825226,0.42617347836494446,-0.15654894709587097
1782835968479288300,7.248288330078125,-0.6484788656234741,0.16354665160179138,-0.26732102036476135
1782835968489218600,7.258218505859375,-0.751918375492096,-0.20023693144321442,-0.5718332529067993
1782835968499148300,7.268148193359375,-0.5569267868995667,-0.48368221521377563,-0.814245879650116
1782835968509078500,7.27807861328125,-0.24173752963542938,-0.4197642207145691,-0.8486775755882263
1782835968519008500,7.288008544921875,0.027181539684534073,-0.23815633356571198,-0.6989690065383911
1782835968528938500,7.2979384765625,0.22498229146003723,-0.0565444715321064,-0.4282350540161133
1782835968538868500,7.307868408203125,0.40087422728538513,0.14858390390872955,-0.0994691476225853
1782835968548798500,7.317798583984375,0.505325198173523,0.1148848831653595,0.15260183811187744
1782835968558728400,7.327728515625,0.48072025179862976,-0.23810991644859314,0.2315525859594345
1782835968568658400,7.337658447265625,0.3506772518157959,-0.6386721134185791,0.1338033378124237
1782835968578587600,7.347587646484375,0.20050343871116638,-0.8991686701774597,-0.07002782076597214
1782835968588517400,7.357517333984375,0.09239941090345383,-0.9818463921546936,-0.25029078125953674
1782835968598447600,7.367447509765625,0.024687204509973526,-1.0433646440505981,-0.3495928645133972
1782835968608377300,7.37737744140625,-0.026324432343244553,-1.17300546169281,-0.3605623245239258
1782835968618307300,7.387307373046875,-0.06515678763389587,-1.3008811473846436,-0.3559949994087219
1782835968628237600,7.397237548828125,-0.1040177121758461,-1.2415403127670288,-0.41494452953338623
1782835968638167300,7.407167236328125,-0.0859881117939949,-0.9374278783798218,-0.5325329899787903
1782835968648097500,7.41709765625,-0.008594452403485775,-0.4525495171546936,-0.666779100894928
1782835968658027500,7.427027587890625,0.08482737094163895,0.002624678425490856,-0.752091109752655
1782835968667957500,7.43695751953125,0.13366590440273285,0.25627201795578003,-0.7521116137504578
1782835968677887500,7.446887451171875,0.11791890114545822,0.2566584348678589,-0.6649130582809448
1782835968687817200,7.456817138671875,0.04036945849657059,0.10397765040397644,-0.5283215641975403
1782835968697747500,7.46674755859375,-0.048770271241664886,0.010387244634330273,-0.3687742352485657
1782835968707677400,7.476677490234375,-0.12781721353530884,0.01569177955389023,-0.17244240641593933
1782835968717606700,7.486606689453125,-0.21347112953662872,0.024817634373903275,-0.007197258528321981
1782835968727536400,7.496536376953125,-0.27802667021751404,-0.014612330123782158,0.10884146392345428
1782835968737466400,7.50646630859375,-0.30367717146873474,-0.05848311260342598,0.17327824234962463
1782835968747396400,7.516396240234375,-0.278377503156662,-0.016427379101514816,0.1901485174894333
1782835968757326300,7.526326416015625,-0.21466802060604095,0.06752584874629974,0.17032155394554138
1782835968767256600,7.536256591796875,-0.1272761970758438,0.1137867122888565,0.12700706720352173
1782835968777186300,7.546186279296875,-0.042325086891651154,0.11084498465061188,0.0703618973493576
1782835968787116500,7.556116455078125,0.05195890739560127,0.07410524785518646,0.04267844557762146
1782835968797046500,7.566046630859375,0.13461224734783173,0.007254317402839661,0.07329654693603516
1782835968806976500,7.5759765625,0.1741952896118164,-0.044006120413541794,0.13956092298030853
1782835968816906500,7.585906494140625,0.16107122600078583,-0.060733165591955185,0.1939607709646225
1782835968826836200,7.595836181640625,0.10293727368116379,-0.07218832522630692,0.2213665246963501
1782835968836766500,7.605766357421875,0.05199632793664932,-0.058711666613817215,0.2345438450574875
1782835968846696400,7.615696533203125,0.03385825455188751,-0.03473551943898201,0.27534887194633484
1782835968856625700,7.625625732421875,0.003700350411236286,-0.012640603817999363,0.3137623071670532
1782835968866555400,7.635555419921875,-0.03427430987358093,-0.03360271453857422,0.3335074782371521
1782835968876485400,7.6454853515625,-0.06971805542707443,-0.008682185783982277,0.28123095631599426
1782835968886415400,7.655415283203125,-0.06269625574350357,0.057623203843832016,0.14170485734939575
1782835968896345300,7.665345458984375,0.0009817872196435928,0.0790315568447113,-0.059491366147994995
1782835968906275600,7.675275634765625,0.05701765418052673,0.12416905164718628,-0.28368204832077026
1782835968916205300,7.685205322265625,0.07712186127901077,0.27369943261146545,-0.4735414385795593
1782835968926135600,7.695135498046875,0.09568214416503906,0.4095357656478882,-0.525016188621521
1782835968936065500,7.7050654296875,0.10640216618776321,0.5206335783004761,-0.3709680140018463
1782835968945995500,7.71499560546875,0.022021710872650146,0.5429738163948059,-0.12380032241344452
1782835968955925500,7.724925537109375,-0.1310112476348877,0.46853476762771606,0.05003166198730469
1782835968965855500,7.73485546875,-0.1849244236946106,0.3282834589481354,0.1884388029575348
1782835968975785500,7.744785400390625,-0.12576204538345337,0.26051080226898193,0.30346205830574036
1782835968985715500,7.754715576171875,-0.0756199061870575,0.3683570921421051,0.4021351933479309
1782835968995644200,7.76464404296875,-0.0680493414402008,0.687666118144989,0.45848584175109863
1782835969005574100,7.77457421875,-0.10579104721546173,0.7567938566207886,0.35806408524513245
1782835969015504100,7.784504150390625,-0.0801679715514183,0.3740253746509552,0.1559530645608902
1782835969025434400,7.794434326171875,0.06506000459194183,-0.18962590396404266,-0.03141003102064133
1782835969035364000,7.804364013671875,0.26887890696525574,-0.6544591188430786,-0.1757080852985382
1782835969045294300,7.81429443359375,0.4068628251552582,-0.8275762796401978,-0.3013530671596527
1782835969055224000,7.82422412109375,0.4772573709487915,-0.7726552486419678,-0.3466723561286926
1782835969065154300,7.834154296875,0.4751456677913666,-0.635413646697998,-0.28317731618881226
1782835969075084300,7.844084228515625,0.39268675446510315,-0.597022294998169,-0.12704549729824066
1782835969085014000,7.854013916015625,0.2477979212999344,-0.7627885937690735,0.07125523686408997
1782835969094944300,7.8639443359375,0.011027186177670956,-0.9561255574226379,0.15726999938488007
1782835969104874200,7.873874267578125,-0.2813839018344879,-1.0344488620758057,0.005807780660688877
1782835969114804200,7.88380419921875,-0.5168105363845825,-0.9069955348968506,-0.38611897826194763
1782835969124733200,7.893733154296875,-0.648004949092865,-0.5985439419746399,-0.9065771102905273
1782835969134663200,7.9036630859375,-0.6251789927482605,-0.24026407301425934,-1.292636752128601
1782835969144593200,7.91359326171875,-0.5206992030143738,0.042419787496328354,-1.4390530586242676
1782835969154523100,7.923523193359375,-0.4040665924549103,0.18986809253692627,-1.3553768396377563
1782835969164453400,7.933453369140625,-0.2693932354450226,0.2156490981578827,-1.0813318490982056
1782835969174383000,7.943383056640625,-0.14554773271083832,0.19086866080760956,-0.7039278745651245
1782835969184313300,7.953313232421875,-0.23059487342834473,0.0976160317659378,-0.4518210291862488
1782835969194243000,7.9632431640625,-0.24313783645629883,-0.13025414943695068,-0.26085588335990906
1782835969204173000,7.973173095703125,-0.17520326375961304,-0.2689186930656433,-0.13428930938243866
1782835969214103300,7.983103271484375,-0.04206226021051407,-0.31816375255584717,-0.021879153326153755
1782835969224033000,7.993032958984375,0.09749314934015274,-0.29764434695243835,0.07663904875516891
1782835969233963300,8.00296337890625,0.12223950773477554,-0.13022926449775696,0.09082464128732681
1782835969243893200,8.012893310546875,-0.014535925351083279,0.15587951242923737,-0.008820721879601479
1782835969253823200,8.0228232421875,-0.2035473883152008,0.4289264976978302,-0.19239374995231628
1782835969263752200,8.032752197265625,-0.32841944694519043,0.5955773591995239,-0.4067222476005554
1782835969273682200,8.04268212890625,-0.31902197003364563,0.6348260045051575,-0.5589711666107178
1782835969283612200,8.052612060546876,-0.22778521478176117,0.5397205948829651,-0.6058438420295715
1782835969293542100,8.062542236328126,-0.11300190538167953,0.4303741753101349,-0.5348857641220093
1782835969303472400,8.072472412109375,-0.025812167674303055,0.26945599913597107,-0.32779574394226074
1782835969313402000,8.082402099609375,0.05809604749083519,0.022521324455738068,0.0005086120218038559
1782835969323332400,8.092332275390625,0.131515771150589,-0.305137038230896,0.3518052101135254
1782835969333262000,8.102261962890625,0.17020457983016968,-0.4742373824119568,0.6540799140930176
1782835969343192000,8.112192138671874,0.19995734095573425,-0.4720967710018158,0.908676028251648
1782835969353122300,8.122122314453126,0.23099353909492493,-0.17296414077281952,1.1635825634002686
1782835969363052000,8.132052001953125,0.23447787761688232,0.4074556529521942,1.4362242221832275
1782835969372982300,8.141982177734375,0.1884896159172058,1.10117769241333,1.7400062084197998
1782835969382912300,8.151912353515625,0.07527684420347214,2.0195484161376953,1.9932677745819092
1782835969392842200,8.16184228515625,-0.1302342414855957,2.2072510719299316,1.9396578073501587
1782835969402771200,8.171771240234374,-0.23623278737068176,0.8847714066505432,1.6360359191894531
1782835969412701200,8.181701171875,-0.12972791492938995,0.3298785984516144,1.632684350013733
1782835969422631200,8.191631103515626,0.09190152585506439,0.9374618530273438,1.7804940938949585
1782835969432561200,8.20156103515625,0.24445831775665283,1.691644310951233,2.0689613819122314
1782835969442491400,8.211491455078125,0.28480419516563416,1.8457680940628052,1.943880558013916
1782835969452421000,8.221421142578125,0.255936861038208,1.528731107711792,1.3235515356063843
1782835969462351400,8.231351318359375,0.2130923569202423,0.9955599904060364,0.5515800714492798
1782835969472281300,8.24128125,0.09407409280538559,0.17921538650989532,-0.18097034096717834
1782835969482211000,8.251211181640626,-0.11227689683437347,-0.6408081650733948,-0.7182387113571167
1782835969492141300,8.261141357421875,-0.26007404923439026,-1.0504409074783325,-0.9816362857818604
1782835969502071000,8.271071044921875,-0.319162517786026,-1.2088068723678589,-1.0364048480987549
1782835969512001300,8.281001220703125,-0.35872402787208557,-1.170988917350769,-0.9527150988578796
1782835969521931300,8.29093115234375,-0.4050476551055908,-1.036987543106079,-0.7793757319450378
1782835969531860200,8.300860107421874,-0.41714373230934143,-0.8818391561508179,-0.5281293988227844
1782835969541790200,8.310790283203126,-0.3676498830318451,-0.8180537819862366,-0.29099518060684204
1782835969551720200,8.32072021484375,-0.2642707824707031,-0.8321459293365479,-0.16503430902957916
1782835969561650200,8.330650146484375,-0.16622348129749298,-0.9890382885932922,-0.10781528800725937
1782835969571580200,8.340580078125,-0.15280620753765106,-1.2442420721054077,-0.14478608965873718
1782835969581510400,8.350510498046875,-0.3845422863960266,-1.374401569366455,-0.4931447505950928
1782835969591440100,8.360440185546874,-0.6652439832687378,-1.3070989847183228,-1.078696846961975
1782835969601370000,8.3703701171875,-0.838076114654541,-1.0841503143310547,-1.7161091566085815
1782835969611300400,8.38030029296875,-0.8461140990257263,-0.7447003722190857,-2.121352195739746
1782835969621230000,8.39022998046875,-0.7008484601974487,-0.4888554811477661,-2.189826250076294
1782835969631160300,8.400160400390625,-0.5023577213287354,-0.4230831265449524,-1.9657223224639893
1782835969641090000,8.410090087890625,-0.2900432348251343,-0.3551347553730011,-1.5281245708465576
1782835969651020300,8.420020263671875,-0.06189633905887604,-0.2702225148677826,-0.9003857374191284
1782835969660950300,8.4299501953125,0.10284555703401566,-0.17096678912639618,-0.19036123156547546
1782835969670879200,8.439879150390626,0.24376779794692993,-0.14074523746967316,0.5050585865974426
1782835969680809200,8.449809326171875,0.27395492792129517,-0.12080057710409164,1.0215377807617188
1782835969690739200,8.4597392578125,0.16110293567180634,-0.10624214261770248,1.2559478282928467
1782835969700669200,8.469669189453125,0.007331277243793011,-0.10859201103448868,1.196184754371643
1782835969710599200,8.47959912109375,-0.14887723326683044,-0.055573802441358566,0.8256753087043762
1782835969720529400,8.489529296875,-0.23061251640319824,0.1734459400177002,0.2967747747898102
1782835969730459100,8.499459228515626,-0.18531401455402374,0.5207615494728088,-0.15239985287189484
1782835969740389000,8.50938916015625,-0.08202756196260452,0.8910067081451416,-0.3734169006347656
1782835969750319400,8.5193193359375,0.030704578384757042,1.054318904876709,-0.33819422125816345
1782835969760249000,8.5292490234375,0.11984190344810486,0.9122611880302429,-0.06023627519607544
1782835969770179300,8.539179443359375,0.18004931509494781,0.518342912197113,0.36598747968673706
1782835969780109000,8.549109130859375,0.20786301791667938,0.02605520933866501,0.8102142214775085
1782835969790039300,8.559039306640624,0.27003076672554016,-0.3703016936779022,1.1167851686477661
1782835969799969300,8.56896923828125,0.43655669689178467,-0.505780816078186,1.2785519361495972
1782835969809898200,8.578898193359375,0.6064908504486084,-0.41332677006721497,1.2225092649459839
1782835969819828200,8.588828125,0.6736536622047424,-0.23526543378829956,0.9160239100456238
1782835969829758200,8.59875830078125,0.6849241852760315,0.0605611689388752,0.5361127853393555
1782835969839688200,8.608688232421875,0.6282438039779663,0.41726574301719666,0.22165052592754364
1782835969849618200,8.6186181640625,0.491325318813324,0.7023342251777649,0.0711960420012474
1782835969859548200,8.628548095703126,0.3480730354785919,0.8547574877738953,0.11825724691152573
1782835969869478100,8.63847802734375,0.23284363746643066,0.9226345419883728,0.364366352558136
1782835969879408000,8.648408203125,0.1535564512014389,0.8288153409957886,0.7622557282447815
1782835969889338400,8.65833837890625,0.10639746487140656,0.4445672333240509,1.1629562377929688
1782835969899268000,8.66826806640625,0.11822723597288132,-0.25402817130088806,1.4994580745697021
1782835969909198300,8.6781982421875,0.18124641478061676,-0.796897828578949,1.5565149784088135
1782835969919128000,8.688128173828124,0.2765081524848938,-0.8363558650016785,1.2350695133209229
1782835969929058300,8.698058349609376,0.2676672637462616,-0.4253148138523102,0.7362431287765503
1782835969938988300,8.70798828125,0.04540962725877762,0.42980149388313293,0.02554813027381897
1782835969948917200,8.717917236328125,-0.12097454816102982,1.084573745727539,-0.6759026646614075
1782835969958847200,8.72784716796875,-0.043867070227861404,1.114314079284668,-1.2302476167678833
1782835969968777200,8.737777099609374,0.18196845054626465,0.7615178823471069,-1.5472519397735596
1782835969978707200,8.747707275390624,0.2932940125465393,0.38323429226875305,-1.5526480674743652
1782835969988637400,8.757637451171876,0.14779245853424072,-0.2032957673072815,-1.296088695526123
1782835969998567400,8.7675673828125,-0.12412803620100021,-0.9037967324256897,-0.8517073392868042
1782835970008497200,8.7774970703125,-0.28307321667671204,-1.3889861106872559,-0.31027841567993164
1782835970018427400,8.787427490234375,-0.3024846315383911,-1.620940089225769,0.16089500486850739
1782835970028357400,8.797357421875,-0.16096214950084686,-1.5477311611175537,0.4028210937976837
1782835970038287400,8.807287353515624,0.09328917413949966,-1.1965906620025635,0.4234575629234314
1782835970048217300,8.81721728515625,0.30492207407951355,-0.8342428207397461,0.25968220829963684
1782835970058147300,8.827147216796876,0.3946152329444885,-0.5540913343429565,0.02224912866950035
1782835970068077300,8.837077392578125,0.31488683819770813,-0.40436702966690063,-0.20093362033367157
1782835970078006300,8.84700634765625,0.13759969174861908,-0.47963353991508484,-0.3668171167373657
1782835970087936500,8.8569365234375,0.015477770939469337,-0.7107887864112854,-0.43214845657348633
1782835970097866200,8.8668662109375,-0.012825824320316315,-0.9600751996040344,-0.4126761257648468
1782835970107796500,8.87679638671875,-0.03686484694480896,-1.1997618675231934,-0.38612279295921326
1782835970117726200,8.886726318359376,-0.12232887744903564,-1.2438489198684692,-0.4084531366825104
1782835970127656200,8.89665625,-0.27090585231781006,-1.0627681016921997,-0.4555407464504242
1782835970137586400,8.90658642578125,-0.4170326590538025,-0.7917852997779846,-0.45511680841445923
1782835970147516200,8.91651611328125,-0.459064245223999,-0.5067759156227112,-0.3424701392650604
1782835970157446400,8.9264462890625,-0.4108612537384033,-0.24334125220775604,-0.17149806022644043
1782835970167376400,8.93637646484375,-0.335531622171402,-0.03742457181215286,-0.010184007696807384
1782835970177306400,8.946306396484376,-0.3339332342147827,0.1316029131412506,0.1070052906870842
1782835970187236400,8.956236328125,-0.4402777850627899,0.36889776587486267,0.10856138169765472
1782835970197166300,8.966166259765625,-0.5228419303894043,0.6249486804008484,0.04928956180810928
1782835970207095300,8.97609521484375,-0.543770968914032,0.7757682800292969,0.00598230492323637
1782835970217025300,8.986025390625,-0.52068692445755,0.7259356379508972,0.01575600728392601
1782835970226955500,8.99595556640625,-0.44401875138282776,0.4702061414718628,0.12593577802181244
1782835970236885200,9.00588525390625,-0.3367167115211487,0.1605825126171112,0.3263428509235382
1782835970246815500,9.0158154296875,-0.2151239514350891,-0.11867789924144745,0.593956708908081
1782835970256745200,9.0257451171875,-0.07714812457561493,-0.2753501832485199,0.8736507296562195
1782835970266675200,9.03567529296875,0.0329781100153923,-0.2681892216205597,1.0428684949874878
1782835970276605400,9.04560546875,0.09397381544113159,-0.1614006757736206,1.0865789651870728
1782835970286535200,9.05553515625,0.12265633046627045,0.03010910004377365,0.9803433418273926
1782835970296465400,9.06546533203125,0.1308417171239853,0.23516885936260223,0.7387421131134033
1782835970306395400,9.0753955078125,0.12382028251886368,0.3684267997741699,0.4511721432209015
1782835970316325400,9.085325439453126,0.11432841420173645,0.4425106942653656,0.20591406524181366
1782835970326255400,9.09525537109375,0.10603293031454086,0.4593037962913513,0.07937982678413391
1782835970336185300,9.105185302734375,0.05644907429814339,0.40769076347351074,0.06316529214382172
1782835970346114300,9.1151142578125,-0.005012686364352703,0.26425474882125854,0.13413001596927643
1782835970356044300,9.125044189453124,-0.08953818678855896,0.09888477623462677,0.24856983125209808
1782835970365974500,9.134974609375,-0.20756149291992188,0.02486594021320343,0.38942816853523254
1782835970375904300,9.144904296875,-0.3254181444644928,0.12704280018806458,0.5176928639411926
1782835970385834200,9.154834228515625,-0.3843453824520111,0.35564056038856506,0.6350085735321045
1782835970395764200,9.16476416015625,-0.3654641807079315,0.5888530611991882,0.678594172000885
1782835970405694200,9.174694091796875,-0.23967133462429047,0.6704139113426208,0.5837855935096741
1782835970415624400,9.18462451171875,-0.0056714508682489395,0.5320461988449097,0.37018686532974243
1782835970425554200,9.19455419921875,0.270476758480072,0.3468456566333771,0.10377967357635498
1782835970435484400,9.204484375,0.5090537667274475,0.43750154972076416,-0.1809069812297821
1782835970445414400,9.214414306640625,0.7071008086204529,0.9090643525123596,-0.4456219971179962
1782835970455344400,9.224344482421875,0.7897314429283142,1.4549391269683838,-0.6002737879753113
1782835970465274400,9.2342744140625,0.6440833806991577,1.7938001155853271,-0.694523274898529
1782835970475203300,9.244203369140624,0.2591364085674286,1.8644102811813354,-0.7648804187774658
1782835970485133300,9.25413330078125,-0.2136702835559845,1.6968748569488525,-0.77787184715271
1782835970495063300,9.264063232421876,-0.53486567735672,1.2475900650024414,-0.6378770470619202
1782835970504993500,9.27399365234375,-0.5905646085739136,0.4632018208503723,-0.3979605436325073
1782835970514923300,9.28392333984375,-0.3980792164802551,-0.8024910688400269,-0.19351333379745483
1782835970524853200,9.293853271484375,-0.09655690938234329,-2.145129919052124,-0.19851714372634888
1782835970534783500,9.303783447265625,0.2978323698043823,-2.7011878490448,-0.35619741678237915
1782835970544713200,9.313713134765624,0.7322296500205994,-2.4704434871673584,-0.5704010725021362
1782835970554643500,9.3236435546875,1.072343111038208,-1.9636776447296143,-0.7584049105644226
1782835970564570400,9.3335703125,1.2761801481246948,-1.3994345664978027,-0.819348931312561
1782835970574500400,9.343500244140625,1.284596562385559,-0.8672583699226379,-0.6946694254875183
1782835970584430300,9.353430419921875,1.0068317651748657,-0.32756632566452026,-0.5391373634338379
1782835970594360300,9.3633603515625,0.545444905757904,0.09664604812860489,-0.4974338412284851
1782835970604290300,9.373290283203126,0.057830192148685455,0.21670134365558624,-0.6133662462234497
1782835970614220300,9.38322021484375,-0.3164174556732178,0.14870604872703552,-0.8668696284294128
1782835970624150300,9.393150390625,-0.4624502956867218,0.0453418493270874,-1.1193392276763916
1782835970634080500,9.40308056640625,-0.4361564517021179,-0.05400093272328377,-1.2732839584350586
1782835970644010200,9.41301025390625,-0.3572770953178406,-0.1992071270942688,-1.2811501026153564
1782835970653940500,9.4229404296875,-0.26574957370758057,-0.2432369887828827,-1.1237138509750366
1782835970663870200,9.4328701171875,-0.11027075350284576,-0.0021005291491746902,-0.8190799951553345
1782835970673799200,9.442799072265625,0.08431033790111542,0.38123583793640137,-0.4239116609096527
1782835970683729400,9.4527294921875,0.22622404992580414,0.6829698085784912,-0.008446009829640388
1782835970693659400,9.462659423828125,0.27693265676498413,0.8179380893707275,0.37027648091316223
1782835970703589400,9.47258935546875,0.26096487045288086,0.7937488555908203,0.6622904539108276
1782835970713519400,9.482519287109374,0.185673788189888,0.6900675296783447,0.8293525576591492
1782835970723449300,9.492449462890624,0.0801907628774643,0.5732809901237488,0.8524802327156067
1782835970733379300,9.50237939453125,-0.020817145705223083,0.4271273910999298,0.7608698606491089
1782835970743309300,9.512309326171875,-0.0503835566341877,0.2917171120643616,0.5965688228607178
1782835970753239300,9.5222392578125,-0.006187953054904938,0.2688085734844208,0.41806674003601074
1782835970763169300,9.532169189453125,0.0378924235701561,0.3471182882785797,0.23246227204799652
1782835970773099500,9.542099609375,0.07344774156808853,0.5397517085075378,0.040845803916454315
1782835970783029200,9.552029296875,0.1085604578256607,0.7568813562393188,-0.10118590295314789
1782835970792959200,9.561959228515626,0.16538196802139282,0.8925179839134216,-0.1340118795633316
1782835970802888400,9.571888427734375,0.2654867470264435,0.8937627077102661,-0.0172186940908432
1782835970812818200,9.581818115234375,0.3586430549621582,0.7317245602607727,0.25381335616111755
1782835970822748400,9.59174853515625,0.4136575758457184,0.47948378324508667,0.6054635047912598
1782835970832678400,9.601678466796875,0.39075469970703125,0.22157834470272064,0.9459398984909058
1782835970842608000,9.611608154296874,0.3400188088417053,0.12052468955516815,1.2194510698318481
1782835970852538400,9.621538330078126,0.2902997136116028,0.21904896199703217,1.3398516178131104
1782835970862468400,9.63146826171875,0.2431391030550003,0.35967159271240234,1.2830021381378174
1782835970872398300,9.6413984375,0.20870889723300934,0.4539076089859009,1.0742331743240356
1782835970882328300,9.651328369140625,0.14957794547080994,0.49063071608543396,0.7771766781806946
1782835970892258300,9.66125830078125,0.07705431431531906,0.5606096386909485,0.4348883628845215
1782835970902188300,9.671188232421875,0.05483130365610123,0.6727372407913208,0.06141490489244461
1782835970912118500,9.681118408203124,0.09153569489717484,0.7801892161369324,-0.3257558345794678
1782835970922048300,9.69104833984375,0.06964824348688126,0.9993106126785278,-0.4394150376319885
1782835970931978200,9.700978271484376,-0.11486425995826721,0.6453003287315369,-0.5229598879814148
1782835970941907500,9.710907470703125,-0.3032946288585663,-0.2889336347579956,-0.6894055604934692
1782835970951837200,9.720837158203125,-0.29703816771507263,-1.086449146270752,-0.8336581587791443
1782835970961767400,9.730767333984375,-0.14636503159999847,-1.4837576150894165,-0.8283438086509705
1782835970971697400,9.740697509765624,-0.0281805619597435,-1.5151652097702026,-0.6638704538345337
1782835970981627100,9.750627197265626,-0.014614417217671871,-1.2916826009750366,-0.2582065165042877
1782835970991557600,9.7605576171875,-0.224966898560524,-0.9312755465507507,0.25560691952705383
1782835971001487600,9.770487548828125,-0.598617672920227,-0.9916685819625854,0.7335127592086792
1782835971011417600,9.78041748046875,-0.9119383692741394,-1.4976407289505005,0.9894610643386841
