time,seconds_elapsed,z,y,x
1782835394002692000,0.081692138671875,0.09215455208420753,-0.08729322965815663,0.19306241079801692
1782835394012621800,0.091621826171875,0.00003565583527088165,-0.0831675280302763,0.04086014418201521
1782835394022551800,0.1015517578125,-0.06000292554199695,-0.13592179761826992,-0.0921526706543751
1782835394032481800,0.111481689453125,-0.044161797809600827,-0.13789061347320675,-0.08720381607534364
1782835394042411800,0.121411865234375,0.007291910573840141,-0.11158186774030328,0.0014258315520361065
1782835394052341000,0.131341064453125,0.005512625941634178,-0.12590031595006584,0.021974223659932613
1782835394062271000,0.14127099609375,0.05643851105868816,-0.1728685494825244,-0.04592522728554904
1782835394072200700,0.15120068359375,0.07637304558455944,-0.18428923042416573,-0.03015378552218899
1782835394082131000,0.161130859375,0.08306056052446364,-0.1630050348550081,0.0994759992797859
1782835394092061000,0.17106103515625,0.16878186469078063,-0.14446794603690505,0.1765718427135609
1782835394101991000,0.180990966796875,0.20113047510981558,-0.11980272972732782,0.13899928710116072
1782835394111921000,0.1909208984375,0.14528700733482836,-0.08435030807405709,0.10628005327144636
1782835394121851000,0.200850830078125,0.02648527134358883,-0.11421207011342048,0.04989603061266243
1782835394131780900,0.21078076171875,0.13151041091680526,-0.1775556843854487,0.026812183476705102
1782835394141710800,0.2207109375,0.33367782785892486,-0.13535305781960486,0.03602253142511472
1782835394151640800,0.230640869140625,0.4137228399544954,-0.0778876879312098,0.038580746274255215
1782835394161570800,0.24057080078125,0.48687224731743334,-0.009351035060733556,0.12684293056242169
1782835394171500800,0.250500732421875,0.5268260720431804,0.03582271627038717,0.19781000718390568
1782835394181430800,0.2604306640625,0.4839776949197054,0.060839230235666036,0.22860362497959286
1782835394191361000,0.270361083984375,0.19579086764752865,0.047441111741214986,0.24842315482366828
1782835394201290800,0.280290771484375,0.10069733950197696,-0.12738617059364915,0.15518055177442727
1782835394211221000,0.290220947265625,0.2653957342714071,-0.24448987049534915,0.09272053367020562
1782835394221150000,0.30014990234375,0.42345571393966674,-0.1709277906782925,0.07577612087102606
1782835394231080000,0.310079833984375,0.4290425741612911,-0.052988662865757936,0.08023244269276038
1782835394241010000,0.320010009765625,0.6093348439037799,0.0031999650850892064,0.07769654927328229
1782835394250940000,0.32993994140625,0.8874000901341438,0.016634031675755976,0.13911409085355697
1782835394260870000,0.339869873046875,0.9927005395174026,-0.009238368466496467,0.1934542413935065
1782835394270800000,0.3497998046875,0.8350941488355398,-0.05258841150179505,0.15764321556091307
1782835394280729900,0.359729736328125,0.9070406101495027,-0.018197043208777904,0.09446874731071293
1782835394290659800,0.369659912109375,1.0504401963025332,0.0986797160692513,0.07048862718846649
1782835394300589800,0.37958984375,0.9973872360289097,0.22507760627791285,0.03937872825153172
1782835394310519800,0.389519775390625,1.1217033515274524,0.26051380744874475,-0.06102885278994217
1782835394320449800,0.39944970703125,1.2177999192357063,0.23338249328657984,-0.07793227599160746
1782835394330380000,0.409380126953125,1.4189011682510375,0.1634627154946327,-0.11953708279477432
1782835394340309800,0.419309814453125,1.6582266417205334,0.11596110573783516,-0.06680056805917993
1782835394350239700,0.42923974609375,1.6735323474019765,0.2475295304521918,0.08169137279679999
1782835394360170000,0.439169921875,1.6709943533569573,0.40202071172297,0.06757721498748287
1782835394370099700,0.449099609375,1.8023855218082665,0.44094212466105814,-0.046226018596719945
1782835394380030000,0.459030029296875,2.0247686283051967,0.3863585938192904,-0.17250388088859617
1782835394389959000,0.468958984375,2.196988066229224,0.3353638812497258,-0.4026120652122423
1782835394399888600,0.478888671875,2.3649206206142903,0.31137451837509866,-0.6225178583428264
1782835394409819000,0.48881884765625,2.698524214193225,0.1480057647742331,-0.6478201304469258
1782835394419748900,0.498748779296875,2.8254052117437123,-0.04039440810009837,-0.34196912473365665
1782835394429678800,0.508678955078125,2.94411693136394,-0.0016408990748226643,0.04054656645450741
1782835394439608800,0.51860888671875,2.8906220725417135,0.27670769414156676,0.27212467720024286
1782835394449539000,0.5285390625,2.466106620416045,0.5102472776859999,0.12912789969444274
1782835394459468800,0.53846875,1.955274236318469,0.5495991909958422,-0.17683526115640996
1782835394469399000,0.54839892578125,1.0352625009149312,0.369265566329658,-0.22662037874050436
1782835394479328800,0.558328857421875,0.17215046434104442,0.11908069906309246,-0.0706149204492569
1782835394489258800,0.5682587890625,-0.7778191869527101,-0.1515519129484892,0.055332814839109776
1782835394499189000,0.57818896484375,-2.2180413756519557,-0.4411507989756763,0.13059504963755608
1782835394509118700,0.58811865234375,-3.4520097548782824,-0.6122931091874837,-0.0038854631312191484
1782835394519049000,0.598049072265625,-4.724440258967876,-0.719505383541435,-0.023536212279647587
1782835394528979000,0.60797900390625,-5.7226469946861265,-0.9075646340236068,0.055338148601353165
1782835394538909000,0.617908935546875,-6.088751174375415,-0.9310511619426309,0.16161504180133343
1782835394548838000,0.627837890625,-6.142652275910973,-0.7033845620848238,0.5989291852235794
1782835394558767900,0.637767822265625,-6.6533870448529715,-0.7138323063410819,1.1637621857084333
1782835394568697900,0.64769775390625,-8.237737718501686,-1.3826716247454285,1.6598885835833848
1782835394578627800,0.6576279296875,-9.502191836884617,-2.2397408740237355,1.8523143587119877
1782835394588558000,0.66755810546875,-10.134555089676379,-2.4039849491544065,2.0147019923210143
1782835394598487800,0.67748779296875,-10.263935502827167,-1.7925258065730332,2.033684048427641
1782835394608417800,0.687417724609375,-10.077567712563276,-0.8727582551889121,1.941210785783082
1782835394618347800,0.69734765625,-9.508019520124792,-0.2816185547977686,1.7028477276049554
1782835394628277800,0.70727783203125,-8.308076744619012,0.12046776950731873,1.1439353493407367
1782835394638208000,0.7172080078125,-6.919714507016539,0.3691607177156955,0.7126138704620302
1782835394648137700,0.7271376953125,-5.160760130655765,0.07645531704053282,0.421294590383023
1782835394658068000,0.73706787109375,-2.7638205699682232,-0.4006457701079547,0.25471403512880203
1782835394667998000,0.746998046875,-0.28627836330235,-0.6180228850111364,0.1689984300509095
1782835394677928000,0.756927978515625,1.814402707338333,-0.47289048371613024,0.052542526533454655
1782835394687858000,0.76685791015625,3.3957594598680734,0.011010346575081348,-0.08613134627193211
1782835394697787600,0.77678759765625,4.2153988499403,0.6650524933420121,-0.32399259240776296
1782835394707716400,0.78671630859375,4.149400483375787,1.0039378267161547,-0.46563057571575045
1782835394717646600,0.796646484375,3.6828672597318888,0.9696642395839095,-0.5086152925699949
1782835394727576600,0.80657666015625,3.392251744008064,0.8635667946040629,-0.4867294778458774
1782835394737506600,0.816506591796875,3.5083868911385534,0.8157235318027436,-0.5508340665530413
1782835394747436500,0.8264365234375,3.927475057518482,0.970951941306889,-0.8078402312070131
1782835394757366500,0.836366455078125,4.001359793418645,1.096883894504234,-1.0043200309667735
1782835394767296500,0.846296630859375,4.345715082636476,1.014712099513039,-0.9399797338075935
1782835394777226500,0.8562265625,5.0465626735895865,1.0027049239203334,-0.5582903739083558
1782835394787156500,0.866156494140625,5.664596956777572,1.100259435351938,-0.07720882055526598
1782835394797086500,0.87608642578125,6.204075005123019,1.114820679341629,0.13163173574153333
1782835394807016700,0.8860166015625,6.409588225361705,1.0062512912902981,0.14995925519587472
1782835394816946400,0.895946533203125,6.4493333757728335,0.773097126866877,0.2658710601655766
1782835394826876700,0.905876708984375,6.25778555252254,0.5482434655379503,0.30297811715807765
1782835394836806700,0.915806640625,6.133491064333915,0.4672567886780947,0.25846366998590525
1782835394846736400,0.925736328125,5.676651551708579,0.4361034524582326,0.3370232658293098
1782835394856666600,0.93566650390625,5.12904572648704,0.28455219709686935,0.3356270987631753
1782835394866595600,0.945595703125,4.145971677970886,0.00447597637027502,0.2752433572100475
1782835394876525600,0.955525634765625,3.1831974901616573,-0.3278914264772087,0.08287433550367132
1782835394886455600,0.96545556640625,3.443846906688809,-0.4444395017901435,-0.16550317181367427
1782835394896385500,0.975385498046875,4.343115129271149,-0.11942542084753513,-0.18077956006908788
1782835394906315500,0.9853154296875,4.546234732371569,0.3780388380350545,-0.025977166557824238
1782835394916245500,0.99524560546875,4.036259257364273,0.5699952786188572,0.10301683195810764
1782835394926175500,1.005175537109375,4.04273634442389,0.1941677964903414,-0.10491409868048504
1782835394936105500,1.01510546875,4.441966548645496,-0.30502522241361435,-0.6630892304450273
1782835394946035700,1.02503564453125,4.279419778952002,-0.5160099328659474,-0.9637500471040606
1782835394955965400,1.03496533203125,3.824204068136215,-0.5901935786474496,-0.9141815679453312
1782835394965895400,1.0448955078125,3.8963621263742443,-0.4584364994931966,-0.6127765087902546
1782835394975825700,1.05482568359375,3.4924487327724694,-0.21459844397008418,-0.44792102376297116
1782835394985755400,1.06475537109375,1.823703619647026,-0.39192543416619297,-0.621245500319451
1782835394995685600,1.074685546875,0.4822632922172546,-0.7044320253111421,-0.9440733597967773
1782835395005615400,1.084615478515625,-0.4147837471842766,-0.5663574335731566,-1.3880033411622046
1782835395015545600,1.094545654296875,-1.7111954308420418,-0.1309530692949891,-1.4537982941091059
1782835395025474600,1.104474609375,-3.3477316342800854,0.19034758061505852,-0.6769589119739831
1782835395035404500,1.114404541015625,-4.484110576891899,0.17858225095421074,0.22111776273623107
1782835395045334500,1.12433447265625,-5.158734177786111,0.3677162910610437,0.7138717615686356
1782835395055264500,1.134264404296875,-6.6547513189435,0.3658645257145166,0.858118027678877
1782835395065194500,1.144194580078125,-9.014946080079675,-0.17383578707948327,1.1997215339705347
1782835395075124500,1.15412451171875,-11.200472841095923,-0.7723534688927233,1.2673932405747472
1782835395085054700,1.1640546875,-13.306734342217444,-0.8581077985458075,1.6569386477366088
1782835395094984400,1.173984375,-13.890220459115504,-0.5402804507695138,2.0592371534876523
1782835395104914400,1.18391455078125,-14.102953693735598,-0.3114193804301321,2.2762625323437153
1782835395114844700,1.1938447265625,-13.742497749066352,-0.4677880460105836,2.51617267383337
1782835395124774400,1.2037744140625,-12.989330772811174,-0.7449797242768108,2.6998560473188755
1782835395134704600,1.21370458984375,-12.08999123855829,-0.9607511575490236,2.7462153551727533
1782835395144634400,1.22363427734375,-10.475731164336205,-0.9879315715499222,2.504216570840776
1782835395154564600,1.233564697265625,-9.048833736634254,-0.8314194058455526,2.214364732965827
1782835395164494600,1.24349462890625,-7.626610145962238,-0.771718093598634,1.8696058313831685
1782835395174424600,1.253424560546875,-5.656580239060521,-0.7465989960417151,1.480554637479037
1782835395184353500,1.263353515625,-2.7135820825934407,-0.38150720826536416,0.8389733283564448
1782835395194283500,1.273283447265625,0.042479543811082834,0.2251942183949053,0.10728870059102773
1782835395204213500,1.283213623046875,1.7368115181356667,0.5435078883834182,-0.39917438238114117
1782835395214143500,1.2931435546875,2.2263328186571596,0.3415305871859193,-0.7198965748161077
1782835395224073700,1.30307373046875,2.146982218566537,-0.13335194713026285,-0.7548422159910202
1782835395234003500,1.31300341796875,2.05443428325057,-0.5665551481023431,-0.6795641260363161
1782835395243933400,1.322933349609375,2.315709138199687,-0.7987360835794359,-0.7152464109227061
1782835395253863700,1.33286376953125,2.6393267598152157,-0.8109826939512044,-0.7469757934648543
1782835395263793400,1.34279345703125,2.8898201085090633,-0.7077085627637804,-0.4855339844509959
1782835395273723600,1.3527236328125,3.131706956899166,-0.5856063604550436,0.12501089282967148
1782835395283653400,1.3626533203125,3.8674025738716122,-0.5224124203193933,0.46831893801689145
1782835395293583600,1.37258349609375,4.807095161300897,-0.4288125647976994,0.3136111913859844
1782835395303513600,1.382513671875,5.596569714733958,-0.27372895232541483,-0.10979476512782275
1782835395313443300,1.392443359375,6.522809530872106,-0.06516881127203815,-0.5693142375521362
1782835395323373600,1.40237353515625,7.393023508405685,-0.030466650863643734,-1.1077115779887885
1782835395333303600,1.412303466796875,7.77582572491765,-0.3606109160352498,-1.5309452466756104
1782835395343232500,1.422232421875,7.507709041249751,-0.752744366928935,-1.221941695215553
1782835395353162500,1.43216259765625,6.537739388978481,-0.8615684603936969,-0.09242445506677031
1782835395363092500,1.442092529296875,5.771962521997094,-0.9164837074078619,0.8582259450327604
1782835395373022500,1.4520224609375,6.378205829626322,-0.8082596256628632,0.8943339810505508
1782835395382952400,1.461952392578125,7.373900290262699,-0.3531701350426301,0.2942383093308657
1782835395392882700,1.471882568359375,7.345390235093236,0.5234855294436216,-0.3559335718739778
1782835395402812400,1.4818125,6.8299512339830395,1.0898596218906342,-0.8045851749338209
1782835395412742700,1.49174267578125,6.385331735983491,0.6641676733314991,-0.8166369933858514
1782835395422672400,1.50167236328125,6.7980328316748135,-0.2603695766724646,-0.7430534323893487
1782835395432602600,1.5116025390625,7.188853519469499,-0.7531370925735682,-0.2615658007197082
1782835395442532600,1.52153271484375,6.688522655642032,-0.7849547379210591,0.26353943888023496
1782835395452462300,1.53146240234375,6.184248607146739,-0.7908493489176035,0.43414932271577417
1782835395462392600,1.541392578125,6.0919403258055445,-0.7365702078498899,0.4912758160386234
1782835395472322600,1.551322509765625,6.237454127633571,-0.43057139116376636,0.44237763735689223
1782835395482252500,1.56125244140625,5.720134719604253,0.09337130746282636,0.2256606668628752
1782835395492182500,1.5711826171875,4.817288638535142,0.4809574703156948,-0.2579709180328995
1782835395502111500,1.581111572265625,4.321626935562491,0.6526411939278245,-0.7394804692734033
1782835395512041500,1.59104150390625,3.600559563401341,0.7817682168394327,-0.8103620047695934
1782835395521971500,1.600971435546875,2.7568174132078886,0.9319418271720409,-0.5977719780124724
1782835395531901700,1.610901611328125,1.2301625572025776,0.9380082145389169,-0.045429918049275875
1782835395541831400,1.62083154296875,-0.6913830125153064,0.9301182650066911,0.2572325938209891
1782835395551761700,1.63076171875,-2.3471990859627723,1.3741077945396303,0.35067864702045914
1782835395561691600,1.640691650390625,-5.602484491735696,1.9445012056306004,0.7592178007267415
1782835395571621400,1.650621337890625,-8.752160236045718,1.6539508640974758,0.6025931145586073
1782835395581551600,1.660551513671875,-11.859135487270354,1.1375332272134722,0.5196389370180666
1782835395591481300,1.6704814453125,-14.875425089919567,1.1531495332140476,0.4916597738549113
1782835395601411600,1.68041162109375,-16.472936273914573,1.414919551268965,0.7604853364445269
1782835395611341600,1.690341552734375,-16.072611260193586,1.5795859434649346,1.2833536107726395
1782835395621271600,1.700271484375,-14.792762004280089,1.487268455903977,1.9480793563783168
1782835395631201500,1.710201416015625,-12.629958531725405,1.2629431292980908,2.4620401016294955
1782835395641131500,1.720131591796875,-10.57393084180355,1.0040548041593282,2.78433231986016
1782835395651060500,1.730060546875,-10.057973369777201,0.10314962802492081,3.3683225868880746
1782835395660990500,1.739990478515625,-9.46423415441215,-1.3747772182337938,4.135673571318388
1782835395670920700,1.749920654296875,-8.346002862909435,-2.1064207833364605,4.335786101557314
1782835395680850400,1.759850341796875,-8.428639060541986,-1.4763723833583295,4.097382419107854
1782835395690780700,1.76978076171875,-8.225667341479658,-0.7052985790126025,3.3558792849004266
1782835395700710700,1.779710693359375,-7.491632351195812,-0.41573870982155203,2.3325784399360416
1782835395710645200,1.789645263671875,-6.132151340162753,-0.21998890483677386,1.4048860869020223
1782835395720575000,1.799574951171875,-3.9185628522664304,0.028150720337778327,0.5795230584859847
1782835395730505200,1.809505126953125,-1.567048825713992,0.3588083966579288,0.001475771640986204
1782835395740435200,1.819435302734375,0.585643587192893,0.484415282619372,-0.7491650471374393
1782835395750365200,1.829365234375,2.009717774167657,0.13114903025850652,-1.1313216592222453
1782835395760295200,1.839295166015625,2.582956053295731,-0.37899990161955355,-0.7029027699172496
1782835395770225200,1.84922509765625,3.1161575055897233,-0.8755559230834246,-0.08517331489473581
1782835395780155100,1.859155029296875,3.6721792769789694,-1.343172411919385,0.20272899634763597
1782835395790085000,1.869085205078125,3.8534412685364483,-1.4914716066822409,0.225321644166857
1782835395800015000,1.87901513671875,3.706082131102681,-1.2753273945748804,0.1478444367326796
1782835395809945000,1.888945068359375,4.294970983827114,-0.8559038587607443,-0.14100743031948804
1782835395819874000,1.8988740234375,5.381328881207108,-0.23942674188688395,-0.4817533699337393
1782835395829804300,1.90880419921875,6.099248602992295,0.17501973616704344,-0.6048134209565817
1782835395839734000,1.918734130859375,6.813470054781437,0.11782412313073873,-0.9002962504558265
1782835395849664300,1.928664306640625,7.402446585789322,0.07542407429665327,-1.1089876623392105
1782835395859594000,1.938593994140625,7.553519775310158,0.11898498360365628,-1.2126355222098528
1782835395869524200,1.948524169921875,7.498836583486199,0.30917423185184595,-0.9920375455640256
1782835395879454200,1.9584541015625,7.236720601537823,0.4645956797100603,-0.8505296183764934
1782835395889384200,1.96838427734375,6.892480463132262,0.5374864361368119,-0.6065794077157974
1782835395899314200,1.978314208984375,6.880404825413227,0.4299506289169192,-0.299117094348371
1782835395909244200,1.988244140625,6.987676867130398,0.7245289107918739,0.07183131050169468
1782835395919174100,1.998174072265625,6.857130332809686,0.5051702666826546,-0.2182137118577957
1782835395929104100,2.008104248046875,6.216104465612768,-0.1662009082868695,-1.1804537927903234
1782835395939034000,2.0180341796875,5.989053367304802,0.10464110869169235,-1.1767423710517584
1782835395948964000,2.027964111328125,6.604964082467555,0.5105176190599798,-1.1749676164641976
1782835395958894300,2.037894287109375,7.127249588471651,0.7122726558089256,-1.0905497961118817
1782835395968824000,2.047823974609375,7.526270533856749,0.8330256719984114,-0.734570850726217
1782835395978753000,2.0577529296875,6.998539621928334,0.6100789402693509,-0.3694593353360891
1782835395988683300,2.067683349609375,6.523036325365305,0.33454408929944035,-0.22047975709363818
1782835395998613000,2.077613037109375,6.439688180071115,0.57675300925076,-0.4814563597485423
1782835396008543200,2.087543212890625,6.760166919139027,1.2332254519045351,-0.9930439461275935
1782835396018473200,2.09747314453125,6.478205249992013,1.7494396751709282,-0.9677189507350324
1782835396028403000,2.10740283203125,6.109830202761292,1.8401004815660416,-0.7609332263424992
1782835396038333200,2.117333251953125,4.903966220512986,1.6749112345397472,-0.5401590163469314
1782835396048263200,2.12726318359375,3.024419133090973,1.2725985541328788,-0.5073366509363055
1782835396058193200,2.137193115234375,1.2904407925546169,0.7679924972042441,-0.42807007586732504
1782835396068123100,2.147123046875,-0.47406128106117246,0.5155320862211287,-0.057283145189285276
1782835396078053000,2.15705322265625,-2.7819652984678744,0.33711934661492704,0.48673050075918434
1782835396087983000,2.166983154296875,-6.257632407787442,0.09368921430557965,0.7232396016336977
1782835396097913300,2.176913330078125,-9.664996965253353,-0.10258797555416822,1.2366573260493576
1782835396107843000,2.186843017578125,-13.249322602212429,-0.3523112166583538,1.602306893838942
1782835396117773000,2.19677294921875,-15.645315237438679,0.07537950450256467,1.2941431542038917
1782835396127703300,2.206703369140625,-16.232157679027317,1.1138523457661271,0.6929960006698965
1782835396137632300,2.21663232421875,-16.24605293338895,1.252699237050861,0.48279754522442814
1782835396147562200,2.226562255859375,-15.228811826854944,0.24889658102169632,0.6244982185050845
1782835396157492200,2.2364921875,-13.929079474341869,-1.2382539475910366,1.404947315569967
1782835396167422000,2.246421875,-12.460709049522876,-2.2048782349571585,2.133908509720862
1782835396177352200,2.256352294921875,-10.996618493980169,-2.125628026501089,1.9800033116444944
1782835396187282200,2.2662822265625,-9.73954688706398,-1.6000152757704258,1.0558085914678872
1782835396197212200,2.276212158203125,-9.06255071181953,-1.1983555063143372,0.5510581576324999
1782835396207142100,2.28614208984375,-8.532593356013297,-0.9848021874830126,0.907378609932214
1782835396217072000,2.296072021484375,-7.258038699376582,-0.5912526592463254,1.234000381799787
1782835396227002000,2.306002197265625,-5.783410383206606,0.2582609139554202,0.8345765547022223
1782835396236932000,2.31593212890625,-3.7494086471319195,1.083472551202029,0.1054805551905185
1782835396246862000,2.325862060546875,-1.6026672515839337,1.262470104958862,-0.5800290352467448
1782835396256792000,2.3357919921875,0.01319791974723339,0.596737666528672,-0.7667755956951529
1782835396266722300,2.345722412109375,1.4098282194793224,-0.22515249814502894,-0.3979707787450403
1782835396276652000,2.355652099609375,1.0197212329119443,-0.9273593947526066,0.18984145772382616
1782835396286582300,2.365582275390625,0.3026940760523081,-1.712293455211818,0.27497904371805487
1782835396296511200,2.37551123046875,0.5213607923746109,-2.066811680395156,0.6263184927348047
1782835396306441000,2.38544091796875,1.188292085200548,-1.8616949121281503,1.1891259787414221
1782835396316371200,2.39537109375,2.5189988371700047,-1.4868082910463214,1.279970544205606
1782835396326301200,2.40530126953125,3.870580619385838,-1.2104831664815545,0.8836744206745177
1782835396336231200,2.415231201171875,5.288091210061311,-0.9550618598662316,0.2762315279971808
1782835396346161200,2.4251611328125,6.4791849086791276,-0.7737902236975729,0.15150047502219677
1782835396356091100,2.435091064453125,7.360724582347274,-0.7612788249097764,0.15396701126620171
1782835396366021000,2.445021240234375,7.789097878944873,-0.7987335262961686,0.1322154904462397
1782835396375951000,2.454951171875,7.481088745349645,-0.8186234910279512,0.338620691088587
1782835396385881000,2.464881103515625,6.874622150358557,-0.7998089735079557,0.510513527406752
1782835396395811000,2.47481103515625,6.410963020846247,-0.77376983849667,0.5581044228821993
1782835396405741300,2.4847412109375,6.128415660765767,-0.745758161303401,0.04960355047211051
1782835396415671000,2.494671142578125,6.174833713069558,-0.5138933791033923,-0.4541289384923875
1782835396425601300,2.504601318359375,6.349407605165243,-0.23257110383845864,-0.5248099829804151
1782835396435531300,2.51453125,6.569884585779905,-0.11990019875243306,-0.6087043639805167
1782835396445461200,2.524461181640625,7.150849659767746,-0.08671027867104858,-0.6463731465090066
1782835396455391200,2.53439111328125,7.286528296279907,-0.15732841399069875,-0.5265712935645133
1782835396465320200,2.5443203125,7.547183558025956,-0.22203754446227103,-0.5326578469365835
1782835396475250200,2.554250244140625,8.30074800916612,0.010562785470671951,-0.291021173915267
1782835396485180200,2.56418017578125,8.303414013504982,0.15971154626756906,-0.23184417780339717
1782835396495110400,2.5741103515625,8.231939261355995,0.045456513795256615,-0.35680312125012276
1782835396505040100,2.5840400390625,7.928855309203267,-0.15547383563257752,-0.6771141025356948
1782835396514970000,2.59397021484375,7.2469088180750605,-0.2764334072448313,-0.947210415713489
1782835396524900000,2.603900146484375,6.606437662151455,-0.20477584587484596,-1.3143736029364168
1782835396534830000,2.613830078125,6.132191672173142,0.09342026117108762,-1.2699411714918911
1782835396544760300,2.62376025390625,6.116719377753138,0.3525531356554478,-1.2323958692125976
1782835396554690000,2.63368994140625,5.445495940691233,0.40776130120158194,-1.245214288122952
1782835396564620300,2.643620361328125,3.811650291511416,0.331973800420016,-1.33325102962479
1782835396574550300,2.65355029296875,1.5021090282917022,0.33044206080809235,-1.623178855345398
1782835396584480000,2.66347998046875,-1.7221598924487829,0.49150085696615275,-1.7331532878890632
1782835396594410200,2.67341015625,-5.172141356369853,0.6096750356435775,-0.9386582759454846
1782835396604340000,2.683340087890625,-7.350909875297546,0.5695768340110778,0.4140875816136598
1782835396614270200,2.693270263671875,-9.731067228010296,0.3901393544670194,1.2761995012342928
1782835396624199200,2.70319921875,-13.545848218762874,-0.3969755571626127,2.1739478207729754
1782835396634129200,2.713129150390625,-17.758565282273292,-1.7391539896085857,3.1599136452078818
1782835396644059100,2.72305908203125,-19.392588041585682,-2.0727070220440624,2.800505748286843
1782835396653989000,2.732989013671875,-18.931053064620492,-0.2790980233442038,2.1906524334669113
1782835396663919000,2.742919189453125,-16.964143920087814,1.3112006719887255,2.1386124496281145
1782835396673849000,2.75284912109375,-14.926054037916659,1.2038431439451873,2.939140896517038
1782835396683779300,2.762779296875,-13.838486764746904,0.0404108477782458,3.4657878126010297
1782835396693709000,2.772708984375,-12.296832492530346,-0.7089684996969997,3.148741678330302
1782835396703639300,2.782639404296875,-11.041457168138027,-0.7679919857475906,2.8786189155369994
1782835396713564700,2.792564697265625,-9.774802909362316,-0.7789454145036637,2.224005252492428
1782835396723494700,2.80249462890625,-7.9087015789687625,-0.8756383406698703,1.0803060499951243
1782835396733424600,2.812424560546875,-5.408372370955347,-0.9287149740800261,0.037836686441302295
1782835396743355000,2.82235498046875,-2.6963614832013842,-0.7751429534807801,-0.4622676751539111
1782835396753284600,2.83228466796875,-0.5284317536741495,-0.4419477215070277,-0.6872191708341241
1782835396763214800,2.84221484375,1.4848521885424852,-0.24462153405100107,-0.891019741936028
1782835396773143800,2.852143798828125,3.1213661801487205,-0.052102600746229286,-0.792295456072688
1782835396783073500,2.862073486328125,3.9859722546726464,0.10790113340094686,-0.4754670562058687
1782835396793003800,2.872003662109375,4.610903896158933,0.07497391937635839,-0.177892661254853
1782835396802933800,2.881933837890625,5.062984231558442,0.08596979903466999,0.12078998719900846
1782835396812863700,2.89186376953125,4.958414434537291,-0.0076825173266232005,0.5386559183076024
1782835396822793700,2.901793701171875,5.141406026366353,-0.27379195282533764,1.0253395842503756
1782835396832724000,2.911723876953125,6.1549517855137585,-0.3416231608401984,1.0182675269722938
1782835396842653700,2.92165380859375,6.7605445202797645,-0.4258522171547636,0.4638541406277567
1782835396852583700,2.931583740234375,6.828543120750784,-0.9368591906342655,-0.08498115332350134
1782835396862513700,2.941513671875,6.860654999804496,-1.4757073435783385,-0.06138955759480595
1782835396872443600,2.951443603515625,7.096902965524793,-1.9544746103733777,-0.09593180560059845
1782835396882374000,2.961373779296875,7.229480128890276,-2.0866592672899364,-0.011653759045153856
1782835396892303600,2.9713037109375,7.169839022397994,-1.857917147155106,0.18832440422438085
1782835396902233900,2.98123388671875,6.776691937482356,-1.6144532587066291,0.29366803516224027
1782835396912163800,2.991163818359375,6.037234337627887,-1.519321444377303,0.5620312409371138
1782835396922093600,3.001093505859375,5.332698998072743,-1.6723102582611142,0.7852896689638496
1782835396932022800,3.011022705078125,5.6813487696141,-1.6558673652432858,0.3377225732050836
1782835396941952800,3.020952880859375,6.194824361696839,-1.1924188828069715,-0.05462013652510941
1782835396951882800,3.0308828125,6.464064496436714,-0.7463098769020289,-0.03484619938842952
1782835396961812700,3.040812744140625,6.688371264472603,-0.8046868086773902,0.026036066271364688
1782835396971742700,3.05074267578125,6.6846478600353,-1.2298187122009694,0.16570201885402203
1782835396981672700,3.060672607421875,6.837507348451018,-1.5312927449390292,-0.1097377011783421
1782835396991602700,3.070602783203125,6.963527929779887,-1.469737475388497,-0.22953604699149727
1782835397001532700,3.08053271484375,6.940137701842189,-1.5355036406323312,-0.1897431119158864
1782835397011462700,3.090462646484375,7.180826280358433,-1.6100509320944547,-0.1749343959711492
1782835397021393000,3.100392822265625,7.556452906152606,-1.4604828864395618,-0.23558131850510836
1782835397031322600,3.110322509765625,7.521106867483258,-1.0362145409427583,-0.3557157644048333
1782835397041252900,3.1202529296875,6.333443727836013,-0.5154238766063004,-0.2751649947442114
1782835397051182800,3.130182861328125,5.339413985541462,-0.2566674342188984,-0.34077085485979913
1782835397061112600,3.140112548828125,4.4873523352921,-0.07446348563618957,-0.3763520174592733
1782835397071042800,3.150042724609375,3.029346068099141,0.03484554180130362,-0.23481530256867408
1782835397080972500,3.15997265625,1.4776082087635993,0.050277796471863985,-0.20632614405676722
1782835397090902800,3.16990283203125,-0.3014420301645994,0.38935653352625665,-0.20276056052967906
1782835397100831700,3.179831787109375,-3.388064813712239,0.7096212645173072,0.22353154587969182
1782835397110761700,3.18976171875,-7.568844770213961,0.3241020441316068,0.6013312779292463
1782835397120691700,3.199691650390625,-11.551669959032536,-0.7320914550006389,1.1379090747885405
1782835397130621700,3.20962158203125,-14.900442626798153,-1.5606642392434178,2.9903420914441345
1782835397140551700,3.2195517578125,-18.23098990204334,-1.1953644347395747,4.110085541075468
1782835397150481700,3.229481689453125,-21.1768118837595,0.9588533611036837,3.319270678949356
1782835397160412000,3.239411865234375,-21.55105786885023,3.1896921128779647,2.464471128168702
1782835397170341600,3.249341552734375,-19.2194421364665,3.7312650876760483,1.9688392358124256
1782835397180271600,3.259271728515625,-15.113388627386092,2.543920804719627,2.127548327039182
1782835397190201900,3.269201904296875,-11.521851159352064,0.713541214440018,2.913536791922152
1782835397200131600,3.279131591796875,-9.156033882158994,-0.7420864870533347,3.3369735089004036
1782835397210061800,3.289061767578125,-8.117434930297732,-1.2699337188377975,2.888411410754919
1782835397219991800,3.29899169921875,-7.7131211392015215,-0.9101502666026353,2.18713492686525
1782835397229921800,3.308921875,-7.387425542268157,-0.36553134823739525,1.4843065373584627
1782835397239851800,3.318851806640625,-7.876769732657074,-0.3984199107520282,0.9582831600002943
1782835397249780700,3.32878076171875,-7.782215133693814,-0.887469502108544,0.254672095683217
1782835397259710700,3.338710693359375,-6.148893216127157,-1.0515148397967218,-0.9764202897153794
1782835397269640700,3.348640625,-3.9305350296109913,-0.3652771542806178,-2.037700006070733
1782835397279571000,3.358571044921875,-1.862197308692336,0.6187528067208826,-2.388736672748625
1782835397289500700,3.368500732421875,-0.03583060731589794,0.701897465332225,-2.370511134097725
1782835397299431000,3.378430908203125,2.103314341753721,-0.2570545703729614,-2.2075357637286186
1782835397309360600,3.388360595703125,3.9896033046513795,-1.256391954088956,-1.123327883989364
1782835397319290600,3.39829052734375,4.654117599463462,-1.7189431223593652,0.21580168228000401
1782835397329220900,3.408220947265625,4.3633536151796575,-2.0366507892787453,1.0343522542022168
1782835397339150600,3.418150634765625,3.68290116200149,-2.5407132408499717,1.5361198728345333
1782835397349080800,3.428080810546875,3.561428745496273,-2.9012364055365323,1.5986309818051754
1782835397359010800,3.4380107421875,4.447725842824578,-2.7743057236254214,0.5921072302490472
1782835397368940800,3.44794091796875,5.2599938273459665,-2.076410260476172,-0.5704555165417492
1782835397378870800,3.457870849609375,6.033402796640992,-1.377885705643147,-1.5295255891360342
1782835397388800800,3.46780078125,6.554034690219163,-1.1722379723045975,-1.8692973499558865
1782835397398729700,3.477729736328125,7.976536513310671,-1.4670242709070442,-1.820932109107077
1782835397408659700,3.48765966796875,9.046872665694355,-1.751729393543303,-1.493094677839428
1782835397418590000,3.49758984375,8.336638822236656,-1.9027413543961942,-0.8787268082045018
1782835397428519700,3.507519775390625,7.275356329402327,-1.8221072903662918,-0.15446809265613556
1782835397438450000,3.517449951171875,7.016952061453461,-1.6600465506240725,0.2230539914958179
1782835397448379600,3.527379638671875,7.4185676995068786,-1.0410783475868404,0.04250453212186694
1782835397458309600,3.5373095703125,7.462993701210618,-0.47653000926226374,-1.0673621050089597
1782835397468240000,3.547239990234375,6.651172875934839,-0.37299708100818096,-1.7662440949775278
1782835397478169600,3.557169677734375,6.177054896250366,-0.6281054492168128,-2.0567595113277433
1782835397488099800,3.567099853515625,6.801762665852904,-0.9562805880062282,-2.2733098200179636
1782835397498029800,3.57702978515625,7.529561392095685,-0.9388664388034492,-2.2984619430616497
1782835397507959800,3.586959716796875,7.530683674123883,-0.8009349087979644,-2.3934490882232784
1782835397517889800,3.596889892578125,8.462813132822513,-0.5265075076133012,-2.5157041795387864
1782835397527819500,3.606819580078125,9.294486075037717,0.06426409011781216,-2.2585094335101545
1782835397537749800,3.616749755859375,8.9743872751981,0.6214528594598173,-1.8810569074630736
1782835397547679700,3.6266796875,8.305534658920765,0.8651540637955069,-1.688250024062395
1782835397557609000,3.63660888671875,7.54385529038608,0.8602731598861515,-1.6081091503769158
1782835397567538700,3.64653857421875,6.410922688835859,1.169527325106412,-1.8940625195086
1782835397577468700,3.65646875,4.750714517909288,1.5560055997826159,-2.257438735538721
1782835397587398700,3.666398681640625,3.896181509110331,1.454955793581158,-2.54535960535109
1782835397597328600,3.67632861328125,4.16138785828948,1.2554580342397093,-2.2515014544442296
1782835397607259000,3.6862587890625,1.6867238374084232,0.8333828148730099,-1.2338999901652334
1782835397617188600,3.696188720703125,-2.9174446130156517,-0.2785160587377846,-0.2550195939466357
1782835397627118800,3.706118896484375,-5.270552046239375,-1.157579259289801,0.8605781341820955
1782835397637048800,3.716048828125,-6.72918492089808,-1.5322133669152855,1.2322250426903367
1782835397646978800,3.725978759765625,-8.399192016783356,-0.8290291497081518,0.31785160543471574
1782835397656908800,3.73590869140625,-10.720712471610307,0.5202521004803479,0.7923392952144146
1782835397666838500,3.745838623046875,-13.710098869764805,0.5989328384853899,2.0692755862906576
1782835397676768800,3.755768798828125,-15.953773283845186,-0.9794175718352198,2.4126877494394776
1782835397686698800,3.76569873046875,-17.245490672206877,-1.8766880447290837,2.798452615149319
1782835397696628700,3.775628662109375,-16.232833386331794,-0.9925317588217556,3.84976404132843
1782835397706559500,3.7855595703125,-15.017410133099554,0.2859216588191688,4.644961648583412
1782835397716488400,3.795488525390625,-13.349890762376784,0.6450805494152009,4.725900394648313
1782835397726418200,3.805418212890625,-12.348069343292712,0.5251505400463938,4.558677449837327
1782835397736348400,3.815348388671875,-11.90045417060852,0.257924667738378,4.820388065855205
1782835397746278400,3.8252783203125,-11.257468401515483,0.13671470156162976,4.5969408372581
1782835397756208400,3.83520849609375,-10.58605382579565,0.5078136207982897,3.511858658902347
1782835397766138400,3.845138427734375,-8.895777264341712,1.1259873124569655,2.306629759687185
1782835397776068400,3.855068359375,-6.760775406426191,1.4888244531743227,1.2464429531350731
1782835397785998300,3.864998291015625,-4.295871732059121,1.5447189204841851,0.32592925955876706
1782835397795928600,3.874928466796875,-1.8587644116342066,1.2603630496770142,-0.11913476733788847
1782835397805858300,3.8848583984375,-0.21385551664829253,0.626601401329413,-0.05839212934449315
1782835397815788300,3.894788330078125,1.0987433317005633,-0.13749452682770788,-0.016885960610210894
1782835397825718500,3.904718505859375,1.6435878755152225,-0.8092913067981601,0.1560547773256898
1782835397835648300,3.914648193359375,2.3791467143654823,-1.2154608818288892,0.5981622925043105
1782835397845578500,3.92457861328125,3.652953767505288,-1.1724725847780704,0.6594497048988938
1782835397855508200,3.93450830078125,4.434439660272002,-0.8830230440936983,0.4612558677628636
1782835397865437200,3.944437255859375,5.496008568832278,-0.6535419421598315,0.28054230386838314
1782835397875367400,3.954367431640625,6.604947131332755,-0.44450566236153244,0.2667282980494201
1782835397885297400,3.96429736328125,7.242599722704291,-0.3347359951423481,0.1825325960151851
1782835397895227400,3.974227294921875,7.400648011934757,-0.46624596766773607,-0.24242753113806245
1782835397905157400,3.984157470703125,7.258068509992957,-0.8869768962860107,-0.6252737329222261
1782835397915087400,3.99408740234375,7.169749006026983,-1.2399047835379837,-0.6283079860515892
1782835397925017300,4.004017333984375,7.256063015389442,-1.2875354265019296,-0.3495382448136806
1782835397934947300,4.013947265625,7.356288061204552,-1.0976021257761865,-0.04819821371883154
1782835397944877300,4.023877197265625,7.257121000009775,-0.8503254741065204,0.004617722928524017
1782835397954807300,4.033807373046875,6.966141327148676,-0.4970437319155782,-0.010720423717796803
1782835397964737500,4.043737548828125,6.693576431900262,-0.2656565771646798,-0.11642068607360125
1782835397974667300,4.053667236328125,6.9521911277294155,-0.24839323460943996,-0.3659172788150608
1782835397984597500,4.063597412109375,7.683107693731785,-0.12601941228508948,-0.6837544173330068
1782835397994527200,4.07352734375,7.953685799077153,0.08279051141142844,-0.35406887398064135
1782835398004457500,4.08345751953125,8.1689324778229,0.09266907747760414,0.004907061263918876
1782835398014386400,4.093386474609375,8.415425358703732,-0.11452383947633206,-0.03626841421127319
1782835398024316400,4.10331640625,8.019102566361427,-0.2281896008186042,-0.25417919759973884
1782835398034246400,4.113246337890625,7.708466006872057,-0.11333543340936303,-0.5116191505610943
1782835398044176400,4.12317626953125,7.655258148297667,0.10391023713387548,-0.6634079410053789
1782835398054106400,4.1331064453125,7.5303808917850255,0.28328583042286337,-0.8040820477172732
1782835398064036400,4.143036376953125,7.562614935913682,0.4843618719317019,-1.0664439672507344
1782835398073966300,4.15296630859375,7.054884024962782,0.6695793231166899,-1.1797998589262366
1782835398083896300,4.162896240234375,5.870156354245543,0.730062287260592,-1.256274465189129
1782835398093826300,4.172826416015625,5.2613347205609085,0.9178945971190929,-0.967508084463328
1782835398103756500,4.182756591796875,4.840725043702125,1.2547229979634285,-0.5050647604815661
1782835398113686300,4.192686279296875,3.0616409025043247,1.221898002204299,-0.4723758121922612
1782835398123616500,4.202616455078125,-0.924766820976138,0.3764079854302108,-0.20778964073807
1782835398133546200,4.212546142578125,-4.632095737269521,-0.8439854574300348,-0.3274525236032903
1782835398143476200,4.222476318359375,-6.655850804618001,-1.1788332058511675,0.2383203880801797
1782835398153405400,4.232405517578125,-8.376808335539698,-0.3449184760585427,1.1444630264766513
1782835398163335400,4.24233544921875,-10.51728833260536,0.6327348625831306,1.5785734054215252
1782835398173265400,4.252265380859375,-13.184962065982818,0.5632176742427051,1.6621496603831647
1782835398183195400,4.2621953125,-16.20278545407057,-0.1934891665764153,1.0105249500215052
1782835398193125000,4.272125,-17.924525075280666,-0.04180369037613273,0.08241291027069092
1782835398203055400,4.282055419921875,-17.494480630600453,0.9091068950295448,-0.03768514914140105
1782835398212985300,4.2919853515625,-15.911518196439742,1.2469338053919374,0.8212161378696561
1782835398222915300,4.301915283203125,-14.010169027054308,0.39845644337013364,1.5874851722821592
1782835398232845300,4.31184521484375,-12.742572518992423,-0.8717882411129773,1.975599962119013
1782835398242775600,4.321775634765625,-11.82667581769228,-1.3566472489118575,1.999562290856242
1782835398252705300,4.331705322265625,-11.43149927277565,-0.9536020164467394,2.126834041289985
1782835398262635500,4.341635498046875,-10.915205116140841,-0.652016193897277,2.014209094237536
1782835398272565200,4.351565185546875,-9.41581645272374,-0.44971346013769503,1.3000278283283113
1782835398282495200,4.3614951171875,-7.556212083134055,-0.12827420547455548,0.5026216051131487
1782835398292425500,4.371425537109375,-4.9998190425932405,-0.01980447840541601,-0.3142268390662968
1782835398302354400,4.3813544921875,-2.649300456818938,0.033639965403825044,-0.8693982772365212
1782835398312284400,4.391284423828125,-0.910611454373598,-0.2046146639637649,-1.1110907720983028
1782835398322214400,4.40121435546875,0.8914169245600699,-0.7361448220446706,-0.7041933942496776
1782835398332144400,4.411144287109375,2.1852228096336126,-1.3843144235163927,-0.16228621906116603
1782835398342074400,4.421074462890625,2.8166403060078617,-1.7834467203214763,0.819860339346528
1782835398352004400,4.43100439453125,3.6737399504244324,-1.81674868594259,1.4146718601182102
1782835398361934300,4.440934326171875,4.564245020836592,-1.519313114940375,1.271406129477918
1782835398371864300,4.4508642578125,5.319701569333672,-1.0716060261890292,0.7715079579792916
1782835398381794600,4.460794677734375,6.225711667391657,-0.7400323310025035,0.3976800521701574
1782835398391724300,4.470724365234375,6.89535455726385,-0.8653430104963481,0.11793445163741707
1782835398401654500,4.480654541015625,7.10835842551887,-1.2611394408769905,-0.037677988748252386
1782835398411584300,4.490584228515625,7.288187753924727,-1.484178088673204,-0.08015037216618656
1782835398421514200,4.50051416015625,7.421924024197459,-1.443224000863731,-0.23184520071670411
1782835398431444500,4.510444580078125,7.418074363031983,-1.16575935087502,-0.3379495138287544
1782835398441373400,4.52037353515625,7.278416301494836,-0.8601817552756518,-0.1398081375323236
1782835398451303400,4.530303466796875,7.2086997911900275,-0.7038364705707878,0.11529109752178192
1782835398461233400,4.5402333984375,7.727785624369979,-0.5343202271908521,-0.01822524638995528
1782835398471163400,4.550163330078125,8.25925396926105,-0.14404657881967722,-0.3253833161137998
1782835398481093400,4.56009326171875,8.163255016708373,0.16688750231154262,-0.607588146366924
1782835398491023400,4.5700234375,8.319034776484965,0.2934578264776617,-1.1277718577861786
1782835398500953300,4.579953369140625,8.456971421056986,0.4475420343827456,-1.2255663154534995
1782835398510883300,4.58988330078125,7.764258621242642,0.32622999607101083,-0.9192734842568635
1782835398520813600,4.5998134765625,7.346554018175602,0.0068736120965331785,-0.9763672443538903
1782835398530743300,4.609743408203125,7.501658070647716,-0.07416581786386668,-1.1791785121574998
1782835398540673300,4.61967333984375,7.068259639364481,0.07219378713853657,-1.1518507986404
1782835398550603300,4.629603271484375,7.1609092814892525,0.3177393041666597,-1.0743738834671674
1782835398560533200,4.639533203125,7.831087008890509,0.6668861385099589,-1.099989093977958
1782835398570463500,4.64946337890625,7.796728227692842,0.9002185090444982,-1.2447323498249052
1782835398580392400,4.659392333984375,7.127803715223074,0.9211343096926807,-1.331331021347642
1782835398590322200,4.669322265625,6.606211452180147,0.6458576712675392,-1.628191276679933
1782835398600252400,4.67925244140625,5.862846323493122,0.5883448089756071,-1.471888662073016
1782835398610182400,4.689182373046875,4.576398984488844,0.803519153137505,-0.8467246731355785
1782835398620112400,4.6991123046875,3.151121851465106,0.9981205187395215,-0.5900806928575039
1782835398630042400,4.70904248046875,-0.02418985388278961,1.0129799419581889,-0.20827406325414777
1782835398639972400,4.718972412109375,-4.761508299124241,0.536909074640274,0.10313070412874221
1782835398649902300,4.72890234375,-11.009515384954213,-0.0257175018414855,0.8966089402452111
1782835398659832600,4.73883251953125,-16.848645901817083,-0.9857448751606046,1.9906471629947422
1782835398669762300,4.74876220703125,-20.106547627568244,-2.1655580319598315,2.131660730794072
1782835398679692300,4.7586923828125,-20.62418618454933,-1.5074574035823345,1.4521720080815255
1782835398689622500,4.76862255859375,-20.565409001410007,0.8734793360050768,0.7243442018747329
1782835398699552300,4.77855224609375,-20.00876880586147,2.025558317378163,1.0088101089276373
1782835398709482500,4.788482421875,-18.039979838931558,0.6862582168474793,1.6231537209041416
1782835398719411500,4.798411376953125,-15.89397318739891,-1.7331377980589866,2.65007962449789
1782835398729341400,4.808341552734375,-13.741560175955295,-3.6968104448884724,3.5603026640757918
1782835398739271400,4.818271484375,-11.342895106649397,-4.398210116766393,3.7026790446609255
1782835398749201700,4.82820166015625,-9.37325799845755,-3.9290269631356,3.238898334595561
1782835398759131400,4.83813134765625,-7.8070298414766786,-2.938902703846991,2.476002283747494
1782835398769061600,4.8480615234375,-6.407455889508128,-2.1553683541178703,1.667155944237858
1782835398778991400,4.857991455078125,-4.435383078601956,-1.479349207212031,0.9912884807623922
1782835398788921600,4.867921630859375,-2.0037205795794724,-0.6668529668927192,0.22626024019122123
1782835398798851600,4.8778515625,-0.21002923635840415,-0.023240590333938597,-0.5212630310885608
1782835398808781300,4.88778125,0.9242664702385663,0.11281024049147963,-0.8792812272168695
1782835398818711600,4.897711669921875,1.8244751885414123,0.13590543100535868,-1.0455914410971106
1782835398828641500,4.9076416015625,2.5178952598422764,0.2338900044173002,-1.04817049780488
1782835398838571500,4.917571533203125,2.565710903984308,0.3543035595193505,-0.5810014604754745
1782835398848501500,4.92750146484375,2.624008779174089,0.32150757065899666,-0.24948753265216944
1782835398858430500,4.937430419921875,2.7313801896125076,0.06001395839266479,0.22618132973611355
1782835398868360400,4.9473603515625,3.3990602549791333,-0.3543391057567671,0.528990264339745
1782835398878290400,4.95729052734375,4.694386481487751,-0.4606073041936382,0.39225568903386593
1782835398888220700,4.967220703125,5.6422875098139045,-0.472569142807275,0.016429741275310515
1782835398898150400,4.977150390625,6.605700580048561,-0.42042876733392476,-0.2892753531612456
1782835398908080600,4.98708056640625,7.564379607498645,-0.37366880625728516,-0.3922374227248132
1782835398918010400,4.99701025390625,7.901855074074864,-0.3752020071739331,-0.3608613105997443
1782835398927940600,5.006940673828125,8.255213169437646,-0.33438955632485445,-0.35215967935845255
1782835398937870600,5.01687060546875,8.713451442945003,-0.09260072494912892,-0.5368066371791065
1782835398947800300,5.02680029296875,8.610924549928306,0.3820461374476552,-0.679432024089247
1782835398957730600,5.03673046875,8.015725198882818,0.7334359284121543,-0.7545350497379899
1782835398967660500,5.04666064453125,7.589637967395782,0.9739277422472834,-0.669244245943427
1782835398977590500,5.056590576171875,7.3060454821765415,0.9656032006900757,-0.46120296853184695
1782835398987519500,5.06651953125,6.906869053968787,0.45889111139290034,-0.49794922938793895
1782835398997449500,5.076449462890625,6.730044168075919,0.23319712678231297,-0.5005909760683774
1782835399007379500,5.08637939453125,7.001928679844736,0.28150738604087383,-0.6943421545818448
1782835399017309400,5.096309326171875,6.910615254759788,0.2738164662120864,-0.7857828593082725
1782835399027239700,5.10623974609375,6.880217193886637,0.08183116485998033,-0.7356627376161515
1782835399037169400,5.11616943359375,6.769077955347299,-0.26203287024218586,-0.5831006247118115
1782835399047099600,5.126099609375,7.451403216660022,-0.34009321132656184,-0.7052665764391421
1782835399057029400,5.136029296875,7.663795675018429,0.09229359522871673,-0.7705556256905197
1782835399066959400,5.14595947265625,7.18135468814671,0.5051824685771018,-0.7321959382884204
1782835399076889600,5.1558896484375,7.09448129133582,0.7374024939555675,-0.6817030377611517
1782835399086819300,5.1658193359375,7.783318126499652,0.758004260218516,-1.071793803846091
1782835399096749600,5.17574951171875,7.688570050790905,0.7822625031623989,-1.3706848343536258
1782835399106679600,5.185679443359375,6.540620497372746,0.5936019988514483,-1.0939515673793851
1782835399116609500,5.195609619140625,5.701385010948777,0.12023695642612874,-0.7970407509036361
1782835399126538500,5.20553857421875,4.3741497344821685,-0.3020606735195964,-0.5875269167214632
1782835399136468500,5.215468505859375,1.9107289921492336,-0.636716406499967,-0.3616425241053104
1782835399146398500,5.2253984375,-0.7503548414438963,-0.8132205360058694,0.2010267224743962
1782835399156328400,5.235328369140625,-3.1635324202269315,-0.6887623086228967,0.5561136874563992
1782835399166258700,5.2452587890625,-5.262843956080078,0.11722170025818049,0.1691118272975087
1782835399176188400,5.2551884765625,-7.727046788701415,1.13141489046365,0.09792831318005919
1782835399186118700,5.26511865234375,-9.640379241347313,1.2669646398991345,0.7833439417235553
1782835399196048400,5.27504833984375,-12.365982601124047,0.04724083992876112,2.0220896183542907
1782835399205978400,5.284978271484375,-15.248768573212622,-1.7617618349969386,3.0439813271731135
1782835399215908600,5.29490869140625,-16.92865876520872,-2.6390754154026506,3.788052558302879
1782835399225838300,5.30483837890625,-18.142215055525302,-2.2864513334028422,4.371781836307049
1782835399235768600,5.3147685546875,-18.73232380543351,-1.8328855817511676,4.26617363614887
1782835399245698600,5.324698486328125,-18.961368707907198,-1.6815419047258793,3.944806131547689
1782835399255624400,5.33462451171875,-18.33176147582531,-1.6817285133391617,3.4825060154289007
1782835399265554400,5.344554443359375,-17.43510138991475,-1.6014049765631555,2.778702789540589
1782835399275484700,5.354484619140625,-16.85686194149852,-1.47506115462929,2.379871375378221
1782835399285414400,5.364414306640625,-15.795469558548927,-1.535365255074948,2.492894089576602
1782835399295343400,5.37434326171875,-13.59552205799222,-1.5541425823897121,2.1109464440673587
1782835399305273600,5.384273681640625,-10.295904174017906,-0.8730013432297855,0.6143832133345306
1782835399315203300,5.394203369140625,-6.815096779200434,0.06492474598363042,-0.46708019000217316
1782835399325133600,5.404133544921875,-3.813733527526259,0.24902313001081347,-0.6310954248130322
1782835399335063600,5.4140634765625,-1.047245784175396,-0.3818145206488669,-0.6254550808385014
1782835399344993500,5.42399365234375,1.1444406685143709,-1.0102020747426896,-0.6318402518309653
1782835399354923500,5.433923583984375,2.322478486204147,-1.3827074267111719,-0.27204627820178867
1782835399364853500,5.443853515625,3.3812568872630595,-1.6402847423166036,0.2567700908757746
1782835399374783500,5.453783447265625,4.720521624219417,-1.4967834493547678,0.3551433713443577
1782835399384713500,5.46371337890625,5.80110035367608,-0.9756202253788709,0.1975641609303653
1782835399394643500,5.4736435546875,7.090680145487189,-0.42097427238747476,-0.3337085152581334
1782835399404573400,5.483573486328125,8.050878345328568,-0.062202554478123784,-0.5189592111255973
1782835399414503700,5.493503662109375,8.592835351008176,0.05215798419527709,-0.34646139465160664
1782835399424432600,5.5034326171875,8.74184284017086,0.022257570645958184,-0.3065088851001114
1782835399434362400,5.5133623046875,8.46556155474782,-0.04878237028233707,-0.28436748817972834
1782835399444292600,5.523292724609375,7.792707886135577,-0.09718801620677113,-0.16946473238840698
1782835399454222300,5.533222412109375,7.325982939311862,-0.12301153570599853,-0.24814357069730758
1782835399464152600,5.543152587890625,7.157120410600304,-0.10834931555986403,-0.13238733988180756
1782835399474082600,5.55308251953125,6.87167089933753,-0.16684527060501275,-0.026509090610593557
1782835399484012500,5.563012451171875,6.7763540838301175,-0.1003337668865919,0.036333296141028405
1782835399493942500,5.572942626953125,6.99677553486526,0.1322498311072588,-0.1956219408214092
1782835399503872500,5.58287255859375,6.9733069809943435,0.4711702357947826,-0.39704723415933546
1782835399513802500,5.592802490234375,7.262131521648168,0.868947318598628,-0.4913385790765285
1782835399523732500,5.602732421875,8.121850993174315,1.1398573593121022,-0.5402952830124647
1782835399533662500,5.612662353515625,8.827934146693348,1.1463798929486424,-0.6094933224011212
1782835399543592400,5.622592529296875,8.856210977628827,0.9890693434081971,-0.5119899566348641
1782835399553521400,5.632521484375,8.457665248540044,0.7666938356958329,-0.2649193489313125
1782835399563451600,5.64245166015625,7.92439248457551,0.49586950050443407,-0.4317037561945617
1782835399573381400,5.65238134765625,7.7329522133529185,0.47612829659357664,-0.5037882377397269
1782835399583311600,5.6623115234375,7.38266285791099,0.520173482286185,-0.31670952272750436
1782835399593241300,5.672241455078125,7.300978261914849,0.40657369885221123,-0.5703614085175097
1782835399603171600,5.682171630859375,7.441212077513336,0.3473905652604997,-0.793323337815702
1782835399613101600,5.6921015625,6.887639452841878,0.5087171455092728,-0.858237562405318
1782835399623031300,5.70203125,6.814713917362689,0.7295745037436485,-1.1426616761431097
1782835399632961500,5.71196142578125,7.810504239588975,1.1053317701801657,-1.3172729776397347
1782835399642891500,5.7218916015625,7.582136213463545,1.3131971065029502,-0.9506512038171291
1782835399652821500,5.731821533203125,6.765093854147195,1.1853057628661394,-0.5497622726030648
1782835399662751500,5.74175146484375,6.521743947467208,1.05543464358896,-0.5346830691538751
1782835399672681500,5.751681396484375,5.962881399694084,1.2264182561077177,-0.8365151215493678
1782835399682610400,5.7616103515625,4.120993304058909,1.727835746128112,-1.0331228585377334
1782835399692540400,5.77154052734375,1.4302595976114272,1.966283852241188,-0.734553168939054
1782835399702470700,5.781470703125,-0.2550304076015949,1.3119377540916204,-0.6806846544988453
1782835399712400000,5.79139990234375,-2.221317036321759,0.4790113046839833,-0.48709670372307295
1782835399722329900,5.801329833984375,-5.700294293102622,0.1501249488852918,0.035033903980255125
1782835399732259800,5.811259765625,-10.127316370594501,-0.16680062774568796,0.8643655437663197
1782835399742189800,5.82118994140625,-14.267882390129566,-0.9481728310048579,1.230863837339729
1782835399752119800,5.831119873046875,-17.615193753170967,-1.1134295903094111,0.8233931896477937
1782835399762049800,5.8410498046875,-18.803073165917397,0.434842054220289,1.110939380928874
1782835399771979800,5.850979736328125,-20.464553256475924,2.083786780593544,2.1282541372209787
1782835399781910000,5.860909912109375,-22.291864545226098,1.8092574534043668,1.8255821268700063
1782835399791839700,5.87083984375,-22.509234207475185,0.31551030300557614,1.2536546380795537
1782835399801770000,5.88077001953125,-20.224244617187974,-0.8048552240468562,1.0620907404772937
1782835399811699000,5.890698974609375,-17.163716059839725,-0.7355636611558497,1.3467273279219865
1782835399821629000,5.90062890625,-14.371324059903621,-0.5286459809467197,1.1455563746713102
1782835399831559000,5.910558837890625,-10.83180436387658,-0.3984536668911576,0.22913426125757394
1782835399841489000,5.920489013671875,-7.921990684130788,-0.04478869753628969,-0.2813634840581566
1782835399851419000,5.9304189453125,-6.345742652916908,-0.3344964507654309,-0.35718773665353654
1782835399861348900,5.940348876953125,-5.6336307406276465,-1.4168144251048564,-0.06970233564898372
1782835399871278800,5.95027880859375,-4.130417550486326,-2.274786760702729,-0.005409750089049339
1782835399881208800,5.960208740234375,-2.208547571119666,-2.102966258968413,0.2297719015739858
1782835399891138800,5.970138916015625,-0.9406447735875845,-1.6730787584155797,0.5782542075939476
1782835399901068800,5.98006884765625,0.8085083397269248,-1.5275041663110256,0.4219528350960463
1782835399910998800,5.989998779296875,2.5675492253273724,-1.8601636109076438,0.23767142265215516
1782835399920929000,5.999928955078125,4.498369988390803,-2.2981306652806697,0.11265081214606762
1782835399930858800,6.009858642578125,6.009564824935794,-2.407184329717606,0.1410193399529904
1782835399940787700,6.01978759765625,6.986316100171208,-2.2597332762166857,0.09250563054420054
1782835399950718000,6.029718017578125,7.522937005519866,-1.935440970209986,0.2746019540339708
1782835399960648000,6.03964794921875,7.1828861354976885,-1.7850490409515798,0.6310331732317805
1782835399970578000,6.049577880859375,6.317621304804086,-2.0784553564377126,0.7630199694886803
1782835399980508000,6.0595078125,6.011462767511606,-2.5278052439600227,0.618007468246296
1782835399990438000,6.06943798828125,5.916387359544634,-2.5835885059803725,0.769511158138886
1782835400000367900,6.079367919921875,5.778876831430196,-2.2738573708981273,0.889488586845994
1782835400010297900,6.0892978515625,5.539005999037623,-1.808431962365657,0.7202879852864891
1782835400020227800,6.099227783203125,6.3501616384029385,-1.2571461334571241,-0.058600657528638835
1782835400030157800,6.10915771484375,7.39538146970868,-0.4649432510387152,-0.24670323569588362
1782835400040088000,6.119088134765625,7.866623017174005,-0.04172935106486547,0.01705247628353536
1782835400050017800,6.129017822265625,8.668812675273418,-0.28009262387212364,0.011414324266090988
1782835400059946800,6.13894677734375,9.384348132270574,-0.7542095441106706,-0.02941781766414642
1782835400069877000,6.148876953125,9.252508635529875,-0.7903384767860173,0.4459163328770548
1782835400079806700,6.158806640625,8.349211303561926,-0.6605908377580344,0.5357558860171586
1782835400089737000,6.168737060546875,7.058309907758235,-0.5805041784778237,0.37981852452605963
1782835400099667000,6.1786669921875,6.8895461632460355,-0.5987246025621891,0.05122106867134571
1782835400109597000,6.188596923828125,7.592907782846689,-0.5765217577781528,0.11558759625032543
1782835400119527000,6.19852685546875,8.070397284790873,-0.5323542608801275,0.18435360089726746
1782835400129456600,6.20845654296875,7.6629621468037366,-0.4079376076165587,0.10755758066028356
1782835400139387000,6.218386962890625,6.882258344325423,-0.11170052568390965,0.1819740853495896
1782835400149316900,6.22831689453125,6.298242066073417,0.10181048837564885,-0.14899565259441733
1782835400159246800,6.238246826171875,6.215559106689692,0.33075689891092475,-0.45025808840841053
1782835400169176800,6.2481767578125,6.025906887927651,0.7835941901575774,-0.30289047540724273
1782835400179107000,6.258107177734375,5.044830735230446,1.3946068310804665,-0.13427359201982617
1782835400189035800,6.268035888671875,2.1531758125096556,1.7829310258843003,-0.18237630947493016
1782835400198965800,6.2779658203125,-1.76086400937438,1.488884512798488,-0.7406376764845103
1782835400208896000,6.28789599609375,-5.394847118949889,0.8345040739879012,-0.825236698622629
1782835400218825700,6.29782568359375,-7.760804096874594,-0.04798047931492328,-0.9015306876216084
1782835400228756000,6.307755859375,-8.270714689952134,-0.647190819567442,-0.7088775334779173
1782835400238686000,6.31768603515625,-9.17144655534625,-0.7053631686814129,-0.16090506690107284
1782835400248616000,6.327615966796875,-10.032387677621841,-0.461278517986089,0.9112696260213852
1782835400258546000,6.3375458984375,-11.641964562463759,-0.21271949835568665,1.2002339404720812
1782835400268475600,6.3474755859375,-14.217447503399848,-0.10945859197601675,0.4342082863613963
1782835400278406000,6.357406005859375,-16.119121666955948,-0.48137905672863124,0.32439109020605683
1782835400288336000,6.3673359375,-16.7430859247148,-1.1855566688872874,1.3421407307840882
1782835400298265900,6.377265869140625,-16.319800891166924,-1.7274720273822546,2.228400564841926
1782835400308194800,6.38719482421875,-15.4944711804986,-1.6695044070601461,2.3486963387832045
1782835400318124800,6.397124755859375,-15.230239229309557,-1.5702448452763258,2.022084503787756
1782835400328054800,6.4070546875,-14.59354057766199,-1.8047304774992168,1.143425280926749
1782835400337984800,6.41698486328125,-13.709093492114544,-2.198927509859204,0.6985434787292033
1782835400347915000,6.4269150390625,-11.966875731021165,-2.3223725416116414,0.5788634985987097
1782835400357844700,6.4368447265625,-9.197273655042052,-1.5383216206625103,0.3498493931220844
1782835400367775000,6.44677490234375,-5.862634142047167,-0.2863083200491965,-0.2517365536879748
1782835400377705000,6.456705078125,-3.1561148374468084,0.5790662546291947,-0.5197128790371119
1782835400387634700,6.466634765625,-1.2359428941696882,0.6468823381401598,-0.5849188531149179
1782835400397565000,6.47656494140625,0.45724224820733067,0.27607641050070525,-0.7774699351236224
1782835400407494700,6.48649462890625,1.9471306773513555,0.05395999211594462,-0.704355014552176
1782835400417425000,6.4964248046875,3.133126176047325,-0.12411796257793903,-0.2490388390365988
1782835400427353900,6.506353759765625,3.926417072898149,-0.47232203617841,0.21895218220017848
1782835400437283800,6.516283935546875,4.462344735285639,-0.7698831332564353,0.6710951345071197
1782835400447213800,6.5262138671875,5.051077520665526,-0.7879559655636549,0.9704257985409349
1782835400457143800,6.536143798828125,5.666494899353385,-0.705533045355603,1.0484026260603219
1782835400467073800,6.54607373046875,6.231644564571976,-0.7258090867955237,0.742000635400787
1782835400477003800,6.556003662109375,6.506673804107308,-0.808652570503205,0.44176695811264216
1782835400486934000,6.56593408203125,6.9037564749062055,-0.8101778803743421,0.16656228894516825
1782835400496863700,6.57586376953125,7.528232773840427,-0.6775850810483097,0.09749510939456522
1782835400506794000,6.5857939453125,7.599459688708186,-0.5049893571577966,0.4217136195126921
1782835400516724000,6.595723876953125,7.415624047270417,-0.4840501025687903,0.784094175568968
1782835400526653700,6.60565380859375,7.336465170359611,-0.6116309920169413,0.8274815549399703
1782835400536584000,6.615583984375,7.672192916485667,-0.5428231940548867,0.5476040351232514
1782835400546513000,6.625512939453125,7.9833011851400135,-0.16571327090039847,0.17829079372696577
1782835400556443000,6.63544287109375,8.104410029029845,0.15669183312021195,-0.18086057114973664
1782835400566372900,6.645372802734375,8.115950829219818,0.24545097061246632,-0.1879286463724449
1782835400576302800,6.655302734375,8.09602740060985,0.16857092535384,0.06031966334097087
1782835400586232800,6.66523291015625,8.150425345751643,0.058669192720204585,0.27225213950481264
1782835400596162800,6.675162841796875,8.0517551281631,-0.05565627463981509,0.18468571892846375
1782835400606093000,6.685093017578125,8.134069838756322,-0.04887333650141954,0.04204761866722256
1782835400616022800,6.695022705078125,8.321572186008096,-0.08089541837982833,-0.221789743713662
1782835400625953000,6.704953125,8.421427229467033,-0.21173852449432015,-0.503561625909619
1782835400635882800,6.7148828125,8.205251745438575,-0.22136172755993902,-0.6258529941149056
1782835400645812700,6.724812744140625,7.777816606473922,-0.01068659451343119,-0.4535950142787769
1782835400655743000,6.734742919921875,7.485329451659322,0.26953940994739534,-0.4402268890637904
1782835400665672000,6.744671875,7.20610334495604,0.6174818369369953,-0.5872495610848069
1782835400675602000,6.754601806640625,6.739294226980209,0.9294154504995793,-0.464990670377016
1782835400685532000,6.764531982421875,6.058101769089698,0.861626328060776,-0.34453488356843587
1782835400695461600,6.774461669921875,4.873871526500582,0.37834910956062373,-0.22586137706674633
1782835400705391900,6.784391845703125,3.2117402785569427,-0.13518763812482357,-0.43631146918572483
1782835400715326000,6.794325927734375,1.5200895061403512,-0.20975794513635337,-0.7655326098967343
1782835400725256000,6.804255859375,-0.3850982184946537,-0.14927373888343573,-0.9695894938472658
1782835400735186200,6.814186279296875,-2.725304669091105,-0.02967705312222242,-0.6998276002556085
1782835400745116000,6.824115966796875,-4.593745840609073,0.1967095168624073,-0.3324876682262867
1782835400755046000,6.8340458984375,-7.096171728640794,0.21911131828464567,-0.050823886047303674
1782835400764976000,6.84397607421875,-9.357031086277962,0.08730404331311584,-0.5784533103626222
1782835400774905900,6.85390576171875,-10.158651420056819,0.21168723269850015,-0.6781880153775215
1782835400784835000,6.8638349609375,-10.733753154969214,0.4537623702023178,0.5846233042344451
1782835400794765000,6.87376513671875,-10.952814423567055,0.4536825829643756,1.3578395274363457
1782835400804694800,6.88369482421875,-12.967135307615994,0.07524433381557465,1.736370788630843
1782835400814625000,6.893625,-15.547682546204328,-0.7166271977566182,1.3907771897897123
1782835400824555000,6.903554931640625,-16.077496694147587,-1.1172039212163538,1.6012461327396332
1782835400834485000,6.913485107421875,-16.18040294187069,-0.912234087139368,2.5241654261529445
1782835400844415000,6.9234150390625,-16.323194625258445,-0.6301565365277231,3.1793691640451547
1782835400854345000,6.933344970703125,-16.76484066040516,-0.6388771647304297,3.1193709146782753
1782835400864275000,6.94327490234375,-17.072578575843572,-0.9759168702378869,2.5632410067394376
1782835400874205000,6.953204833984375,-16.24101318565607,-1.2076880558703094,2.1084996354371306
1782835400884135000,6.963135009765625,-13.959577488458155,-1.127575166170299,1.7773798214979468
1782835400894065000,6.97306494140625,-10.294697720837592,-0.8093223595235496,1.3687924447357653
1782835400903994000,6.982994140625,-5.810417632597685,-0.52746568512097,0.8731226315218955
1782835400913924000,6.992924072265625,-1.5287462753266094,-0.5378166910044848,0.318099150454998
1782835400923853800,7.002853759765625,1.8828291778326034,-0.8311269987702369,0.16911752638593316
1782835400933784000,7.0127841796875,3.605060966473818,-1.022608040394634,0.5936334899682552
1782835400943713800,7.0227138671875,3.935785205224156,-0.9631343994237482,1.0894728145301342
1782835400953644000,7.03264404296875,4.111056431934237,-0.7812170126974582,1.0926670074615628
1782835400963574000,7.042573974609375,4.179578179496526,-0.5660338276419788,0.9078870709110051
1782835400973504000,7.05250390625,4.271490154996514,-0.45850985699035224,0.3708295277107507
1782835400983434000,7.06243408203125,4.517402021118999,-0.36849874667562543,-0.060511678781732914
1782835400993364000,7.072364013671875,4.556483739185333,-0.5104498145207762,-0.3112488461688161
1782835401003294000,7.0822939453125,5.16597406591177,-0.7186822305902838,-0.436486898817867
1782835401013224000,7.092223876953125,6.2159858076691625,-0.6688017628729342,-0.41166313094571233
1782835401023153200,7.102153076171875,6.792953336453437,-0.6233795897386968,-0.6621512189425528
1782835401033083000,7.112082763671875,7.758885111510753,-0.63996276801005,-0.854250976987183
1782835401043013000,7.12201318359375,8.991565204492211,-0.6315405382320285,-0.8057584564968943
1782835401052943000,7.131943115234375,9.25220293058157,-0.45480625323206186,-0.25342282627448437
1782835401062872800,7.141872802734375,8.730940337884425,-0.2035048030257225,0.24739552880898116
1782835401072803000,7.151802978515625,8.000641026997565,-0.041137189291417596,0.1898471568122506
1782835401082732800,7.16173291015625,7.629797543826699,0.098762791242823,-0.12290719854868948
1782835401092663000,7.1716630859375,7.733484128272533,0.14499065473675726,-0.2812564434871077
1782835401102593000,7.181593017578125,7.901535340601205,0.06729571289867162,-0.25865378573052583
1782835401112523000,7.19152294921875,7.969203686204552,-0.09871193783842026,-0.2930270338449627
1782835401122453000,7.201452880859375,8.008527980855106,-0.28789420100115237,-0.6570321223631501
1782835401132383200,7.21138330078125,7.736424273377657,-0.29284166734069583,-0.8278312451604753
1782835401142312000,7.22131201171875,7.637453027015924,-0.10373407684937119,-1.0672648551795632
1782835401152242000,7.231241943359375,8.535083419263362,0.19644991607815027,-1.5098345079772173
1782835401162172200,7.241172119140625,9.16562647089064,0.5631679168168455,-1.5865734642647207
1782835401172102000,7.251101806640625,8.997595132306218,0.8432798664439469,-1.3168119359992443
1782835401182032100,7.2610322265625,8.039419378203153,0.9161000418525188,-0.9595338907137513
1782835401191962000,7.270962158203125,7.342012867614627,0.8154083283737301,-0.9447634609527885
1782835401201891800,7.280891845703125,7.169360883492231,0.8121668622344732,-0.9259566152825951
1782835401211822000,7.290822021484375,6.567161882817745,0.8503731126405298,-0.9230284528762102
1782835401221751800,7.300751708984375,5.526919839924574,0.8148550784051418,-1.0899394091285766
1782835401231682000,7.31068212890625,5.112962022170424,0.8028614198811351,-1.2507086477555334
1782835401241612000,7.320612060546875,5.152834598353505,0.8580554838366806,-1.2584985709793866
1782835401251542000,7.3305419921875,4.450037042376398,0.9321177682608366,-1.0093956537306308
1782835401261471000,7.340470947265625,1.9975509510338305,0.7277848438479005,-0.7816330461524427
1782835401271401000,7.35040087890625,-1.5619021104753017,0.4349574972935021,-0.5052165900424123
1782835401281331000,7.3603310546875,-5.179458985906839,0.17985417058616876,-0.6138749715514481
1782835401291261000,7.370260986328125,-8.172661727479099,0.04442644009515643,-0.7348762634135783
1782835401301191200,7.380191162109375,-11.739862626636027,0.36453020837083455,-0.5666930952683091
1782835401311121000,7.390120849609375,-15.402763203138113,0.7304368196614086,0.4176099105209112
1782835401321051000,7.40005078125,-17.823440197765827,0.3974954893834889,0.5391233896888792
1782835401330981000,7.409981201171875,-19.193985039126872,-0.19069003737717866,0.43390988793671126
1782835401340910800,7.419910888671875,-19.36071873911619,-0.6229727625034749,0.5703251681603491
1782835401350841000,7.429841064453125,-17.665390154969693,-1.0866462128020822,1.2791593739531935
1782835401360770800,7.439770751953125,-16.34745228368044,-1.4224763963893055,2.240495637913793
1782835401370701000,7.449701171875,-16.038201625591515,-1.3460280936114488,2.751944838735461
1782835401380630000,7.459630126953125,-15.980487103247642,-1.0335127346381545,2.669291105446219
1782835401390560000,7.46956005859375,-15.131964733040332,-0.5170752240099012,2.3799634375758467
1782835401400490000,7.479489990234375,-13.537646207606791,0.04447261732444167,1.860439505239576
1782835401410420000,7.489419921875,-10.813548576217888,0.7123778697490691,0.840799813131243
1782835401420350000,7.499349853515625,-7.375162857544422,1.3892121324300766,0.08729023398347198
1782835401430280000,7.509280029296875,-3.8101416405141353,1.474473710130155,-0.28547442650832233
1782835401440210200,7.519210205078125,-1.2301549584180116,0.8802440808996558,0.03499715216644108
1782835401450140000,7.529139892578125,-0.29207565140426156,-0.022783201955258844,0.5064525615781545
1782835401460070000,7.53906982421875,0.562595889082551,-0.9189842920519411,0.5692130421999841
1782835401470000000,7.549000244140625,1.93744281155169,-1.4775962260648607,0.47544177563413975
1782835401479929900,7.558929931640625,3.1344659002184865,-1.3766256225794553,0.7751946106027812
1782835401489859000,7.568859130859375,4.0509301722735165,-0.9127532887078821,1.084360513017699
1782835401499789000,7.5787890625,5.114711496186256,-0.5418499651085585,0.9164462980069219
1782835401509718800,7.58871875,5.9999354113250964,-0.464034465630725,0.7506675606548786
1782835401519649000,7.59864892578125,6.90046503214538,-0.8352486087448895,0.5800574210910127
1782835401529579000,7.6085791015625,7.554293682292103,-1.3598394690819084,0.4767957109937444
1782835401539509000,7.618509033203125,7.7627797808617345,-1.5231158682242034,0.48366029953360556
1782835401549439000,7.62843896484375,8.14158854382336,-1.2973305520683527,0.523348787854053
1782835401559369000,7.638368896484375,8.532640702286361,-0.9155562172994017,0.6387028310768306
1782835401569299000,7.648298828125,8.327984391137957,-0.6182398156974465,0.6282044526118785
1782835401579229000,7.65822900390625,7.669881132411956,-0.6484395775195211,0.4394152438873425
1782835401589159000,7.668158935546875,6.779907976919413,-0.9018285015244036,0.3252255682688206
1782835401599089000,7.6780888671875,6.474454373025893,-1.1169407402355223,0.4261055343287065
1782835401609019100,7.68801904296875,6.843846488344669,-1.0393854260638355,0.6222207750923932
1782835401618948000,7.697947998046875,7.214585342097282,-0.7945205847762524,0.5468051398305223
1782835401628877800,7.7078779296875,6.954877005812525,-0.6068327248897403,0.2743435222934931
1782835401638808000,7.71780810546875,6.83506112434268,-0.4802560075154528,0.1355706460930407
1782835401648737800,7.72773779296875,7.276625910946726,-0.41778007945604617,0.09532430469412356
1782835401658668000,7.73766796875,7.69081929102242,-0.45412904809024185,0.028660131164640185
1782835401668598000,7.747597900390625,7.685621137857437,-0.47980727736726403,0.1454134467260912
1782835401678528000,7.757528076171875,7.16579939161837,-0.5551062639795243,0.22749767303168772
1782835401688458000,7.7674580078125,7.45864368930757,-0.4139447390768677,0.040275202167220414
1782835401698388200,7.77738818359375,7.9298022346645585,-0.023123320629820227,-0.19585841645840554
1782835401708318000,7.78731787109375,8.222125138828158,0.41825040038153527,-0.3525231789086014
1782835401718243800,7.797243896484375,8.10867411621511,0.7239291913330554,-0.19904197839796542
1782835401728174000,7.807174072265625,7.5246554998755455,0.62649289945364,-0.27176936095654963
1782835401738103000,7.81710302734375,6.731634652137756,0.2685619432173669,-0.41845213349871335
1782835401748032800,7.82703271484375,5.300003181651235,0.07138532029986382,-0.18224691094160078
1782835401757963000,7.836962890625,3.2030548677980897,0.0023791502214968205,-0.022544497828558087
1782835401767892700,7.846892822265625,0.7632353658050298,0.15063143710270524,-0.19347733000814912
1782835401777823000,7.856822998046875,-1.9610902291208505,0.4207496698513627,-0.3540386980380863
1782835401787753000,7.8667529296875,-4.6770682669401165,0.5022784907639026,-0.7712060524232686
1782835401797683000,7.876682861328125,-7.267101126754284,0.7352263920255004,-0.6234101310074329
1782835401807613000,7.886613037109375,-9.998926137524842,0.9013280777215957,-0.4016466177135706
1782835401817543000,7.89654296875,-12.66450728253722,0.49711672408655283,0.12447634756155311
1782835401827473000,7.906472900390625,-14.278286879765986,-0.4961274207882583,1.308424777534604
1782835401837403000,7.91640283203125,-15.575013620722293,-1.4396923196062446,2.1040980394773183
1782835401847332900,7.926332763671875,-15.907379781460762,-1.778041792538017,2.470775196748972
1782835401857261800,7.93626171875,-15.620788698947429,-1.4916699057333171,2.070556712142378
1782835401867191800,7.94619189453125,-15.48764396482706,-1.2238881531082093,1.6013758965991436
1782835401877122000,7.9561220703125,-14.501992759299277,-1.5472588142253458,1.7281912815675138
1782835401887051800,7.9660517578125,-13.80426885332465,-1.776302693785727,1.790815787784755
1782835401896982000,7.97598193359375,-14.089220936459302,-1.4227714338131248,0.8013705968014896
1782835401906911700,7.985911865234375,-14.235476496565342,-0.7801797786042094,-0.15279248759411274
1782835401916842000,7.995842041015625,-14.061574220120907,-0.6530155801981687,-0.48303508030734954
1782835401926772000,8.00577197265625,-12.207463771772384,-1.0908563778430223,-0.6964846465032547
1782835401936702000,8.015701904296876,-9.033739043354988,-0.7421360252834857,-0.6079060532096773
1782835401946632000,8.0256318359375,-5.6039294298470015,0.1864170362330973,-0.8408205636583268
1782835401956562000,8.03556201171875,-1.9049024779528378,0.6565050297491252,-0.9862129310637712
1782835401966492000,8.045491943359375,1.199170622089505,0.44822979745119806,-0.608186331455782
1782835401976420900,8.0554208984375,2.654972072714567,-0.2341729130119085,0.12234021231569349
1782835401986351000,8.06535107421875,3.0379017149984833,-0.7094446658413857,0.972683441274613
1782835401996280800,8.07528076171875,3.4385511383682488,-0.8336482608761638,1.3543994699850677
1782835402006210800,8.0852109375,3.694531978562474,-0.5195351843826472,1.442807821278274
1782835402016141000,8.09514111328125,4.072168190613389,-0.14722966583520172,1.1921167580552399
1782835402026070800,8.10507080078125,4.519020562231541,-0.1928357441689819,0.3719727794617414
1782835402036001000,8.1150009765625,4.824037528273463,-0.3978516824100166,-0.040931401053629815
1782835402045930800,8.1249306640625,5.297976059737802,-0.7151223461516201,0.02082147342823446
1782835402055861000,8.134861083984376,5.800269748070836,-1.1215952149778603,0.2508352939993143
1782835402065791000,8.144791015625,6.49971273292303,-1.360747669968009,0.257638032816723
1782835402075721000,8.154720947265625,7.567921810150146,-1.1967922025203703,-0.04117584080137312
1782835402085651000,8.16465087890625,8.28846019000113,-0.736914710438624,-0.002603570094518363
1782835402095580000,8.174579833984374,8.478425712496042,-0.3314710385296494,0.24347579808197914
1782835402105510000,8.184510009765624,8.427371232563257,-0.1699886101320386,0.5089550459183753
1782835402115439900,8.19443994140625,7.914727999651432,-0.15313289852961898,0.7077444377947598
1782835402125370000,8.2043701171875,7.6714330380290745,-0.12884265301227568,0.6979099300660192
1782835402135299800,8.2142998046875,7.8425559128880495,-0.03572429739721119,0.4740171861911192
1782835402145229800,8.224229736328125,7.425599497839808,0.07923683751784265,0.2642722101341933
1782835402155160000,8.23416015625,6.882144362556934,0.025578531762212513,0.16914105339199303
1782835402165089800,8.24408984375,6.857883197003603,-0.20749160763956606,0.12350501831136643
1782835402175020000,8.25402001953125,7.194115385520457,-0.41881519465744493,-0.07168514349665492
1782835402184949800,8.26394970703125,7.217111061182618,-0.347731341522187,-0.09423607106599956
1782835402194880000,8.2738798828125,7.215500703376531,-0.1382486331306398,-0.17169369701687245
1782835402204810000,8.28381005859375,7.157979073256254,0.09655768241398036,-0.17687983095049858
1782835402214739000,8.293739013671875,7.2990581075072285,0.3438760543335229,-0.06003660861589014
1782835402224669000,8.3036689453125,7.5360922551691525,0.6803610485676675,0.1265198360878974
1782835402234599000,8.313598876953124,7.307902508220076,0.9213810509953647,0.14121128232851624
1782835402244529000,8.32352880859375,7.189979893150925,1.066195983839035,-0.024447847231850027
1782835402254459000,8.333458984375,6.99503950485289,1.0713701716065407,-0.17749167923852802
1782835402264388900,8.343388916015625,6.608365415343642,0.7156780803382397,-0.7156762537073343
1782835402274318800,8.35331884765625,6.139629713219404,0.3268498815350234,-0.8760689141068607
1782835402284248800,8.363248779296875,4.877034958967566,0.16317527685537933,-0.24132512285411356
1782835402294179000,8.373178955078124,3.5075603771865365,-0.03018105712160468,-0.19992299901619554
1782835402304108800,8.38310888671875,2.155745955258608,0.05160729150995612,-0.6357583020575344
1782835402314039000,8.3930390625,0.0932061069637537,0.4198047902166843,-1.0238779872652142
1782835402323968800,8.40296875,-1.7183172455459832,0.8907349336452781,-1.1761570454444736
1782835402333897700,8.412897705078125,-3.951701151758432,1.163191984605044,-0.6265719560392201
1782835402343828000,8.422827880859375,-6.910515301516652,0.8071548792913555,-0.19379530991613864
1782835402353758000,8.432758056640624,-10.576762265837193,-0.23614275178015232,-0.1656006773713976
1782835402363688000,8.44268798828125,-13.3156576533854,-1.6428025703564286,0.23597645530253647
1782835402373618000,8.452617919921876,-14.959205781412123,-2.882219570377469,0.7697377334363759
1782835402383548000,8.4625478515625,-16.176283231592176,-3.144332921977341,1.406092101690918
1782835402393478000,8.472477783203125,-17.280688242316245,-2.376311344809085,1.8403996106430887
1782835402403408000,8.482407958984375,-17.680611104977128,-1.5035130498707294,1.1512933108881116
1782835402413337900,8.492337890625,-17.1539124587059,-0.7376616563484072,0.5225261828921735
1782835402423267800,8.502267822265624,-16.053816543352603,-0.17004940040856598,0.6304270240321755
1782835402433198000,8.512197998046876,-14.911834958428143,0.030760756705701348,0.8338857959590852
1782835402443127800,8.5221279296875,-14.32546481052637,-0.06011968378946185,1.0890366150699555
1782835402453056800,8.532056884765625,-13.45786364583969,-0.3532987663909793,1.3363231305465102
1782835402462987000,8.541987060546875,-11.92169569607973,-0.1124454988323152,0.8574025728859007
1782835402472916700,8.551916748046875,-10.122467176997661,0.7379135852828621,0.045867871075123544
1782835402482847000,8.561846923828124,-8.242495142161845,1.3233129884563386,0.11754099534042178
1782835402492777000,8.57177685546875,-6.177297472834587,1.2839981922864914,0.3974566917430609
1782835402502707000,8.58170703125,-4.13656321363449,1.0168610942404717,0.44900596945546567
1782835402512637000,8.591636962890625,-2.350669976943731,0.6060546531893313,0.4606432157572359
1782835402522567000,8.60156689453125,-0.5022025029182434,-0.1772653962019831,0.30784400616139174
1782835402532497000,8.611496826171875,1.1933955458194017,-1.0175024608839303,0.19746018909923732
1782835402542427000,8.621427001953125,2.7708009303748606,-1.491838394168019,0.003490837790444493
1782835402552356900,8.63135693359375,3.969335592648387,-1.5724942316383121,0.03364244962185621
1782835402562286800,8.641286865234376,4.820511692234874,-1.5610615679979323,0.308368468426913
1782835402572215800,8.6512158203125,5.407421353840828,-1.4960753010854124,0.6156501645304262
1782835402582146000,8.66114599609375,5.844307627239823,-1.3077242280498147,0.772871501417458
1782835402592075800,8.67107568359375,6.18866934619844,-1.1452792382303625,0.5518086106736213
1782835402602006000,8.681006103515625,6.4633244917243715,-1.0839689564168453,0.1991810215424746
1782835402611935700,8.690935791015624,6.829718594270944,-1.201239975709468,0.03084872725009918
1782835402621866000,8.700865966796876,7.14336427244842,-1.4583435363233088,-0.20540172268822787
1782835402631796000,8.7107958984375,7.144201307794451,-1.6199362201623617,-0.014689692674949765
1782835402641726000,8.720725830078125,7.008046285942196,-1.787258533694595,0.06234422797113657
1782835402651656000,8.730656005859375,7.1253399554580445,-1.7399132835432887,-0.04765197801291942
1782835402661586000,8.7405859375,7.6091779496461145,-1.370296127296984,-0.04511727190352976
1782835402671516000,8.750515869140624,7.816489159217476,-1.0432805338062345,0.04768061958551407
1782835402681446000,8.76044580078125,7.793305852028727,-0.8332960133723915,0.09702318103387951
1782835402691375000,8.770375,8.038092513513565,-0.6034845104403793,0.10238390434943138
1782835402701304800,8.780304931640625,8.190501920074224,-0.3456515395734459,-0.051173649333044885
1782835402711234800,8.79023486328125,8.341344223448633,-0.11697616453189402,-0.1728505754344165
1782835402721164800,8.800164794921875,8.49383137142062,-0.17817798100225626,-0.12884491803459822
1782835402731094500,8.810094482421874,8.461901278674603,-0.48043673437722023,-0.22075375172942877
1782835402741024800,8.820024658203126,8.583748373711108,-0.6110425976697356,-0.3583691284578293
1782835402750954800,8.829954833984376,8.767977398380637,-0.43226095168590545,-0.397157270405069
1782835402760884700,8.839884765625,8.975361673188209,-0.13478534093424677,-0.41379524760358033
1782835402770814700,8.849814697265625,8.861542401784657,0.03364478770941496,-0.5237573321223259
1782835402780744400,8.859744384765625,8.62962398970127,0.1455890590213239,-0.5557517222762107
1782835402790674700,8.8696748046875,8.37906166742444,0.2914437101762742,-0.5036169728260487
1782835402800604700,8.879604736328124,8.0857322165668,0.48009362002797423,-0.5911669537242502
1782835402810534000,8.889533935546876,7.838297086399793,0.6751451405502855,-0.5318450692489743
1782835402820463600,8.899463623046875,7.155261630991101,0.7378273683041334,-0.2995050707526505
1782835402830393600,8.9093935546875,5.68494883993268,0.5171572032049297,-0.20597718448862432
1782835402840323600,8.919323486328125,4.080441513440013,0.19165815175697207,-0.14340353167578576
1782835402850253600,8.929253662109375,1.998070590993762,-0.09607406361550092,-0.27451551785953343
1782835402860183800,8.939183837890624,-1.1520973207473755,-0.4848829731963575,-1.1787528340913354
1782835402870113500,8.949113525390626,-4.035905621621012,-0.5340308888554572,-2.176404712405801
1782835402880043800,8.959043701171876,-5.732959714385867,0.09924714069366454,-1.4751957407943903
1782835402889973800,8.968973876953125,-6.984848950228095,1.0256116061247884,0.4641413600713014
1782835402899903700,8.97890380859375,-9.203554927268623,1.504381795529276,1.66385105747357
1782835402909833700,8.988833740234375,-12.476582325959205,1.1873713170938194,1.042094392761588
1782835402919763500,8.998763427734374,-15.333865608000755,0.27098303288444875,0.07709083846509455
1782835402929692700,9.008692626953126,-16.834311086994408,-0.10890110422372817,-0.30144904442727566
1782835402939622700,9.01862255859375,-17.35664101666212,0.3669013214163482,0.09524375027120113
1782835402949553000,9.028552978515625,-17.230176198697087,0.7190617314271629,0.8015501911520957
1782835402959482600,9.038482666015625,-16.961721661376952,0.16451953107118605,1.301660397966206
1782835402969412600,9.04841259765625,-16.77692038977742,-0.7248645724870264,1.9688360209420321
1782835402979342600,9.058342529296874,-17.62417668557167,-0.9765684660144149,2.3231315432853994
1782835402989272600,9.0682724609375,-19.355364518606663,-1.0719058859184383,2.5528096290960907
1782835402999202800,9.078202880859376,-18.906096318018434,-1.5858865049138664,2.3391740388087925
1782835403009132500,9.088132568359375,-16.507785468977687,-1.4127058207422494,1.9407436066627501
1782835403019062800,9.098062744140625,-13.483980083870886,-0.366757090640068,1.8767802530571818
1782835403028992800,9.10799267578125,-9.667356680122017,0.22733663725107908,1.5835829041466116
1782835403038922500,9.117922607421875,-5.53483426631093,0.3052616615179926,0.842201350492239
1782835403048851700,9.127851806640624,-2.277128939914703,0.1771627395451069,0.19197525488212702
1782835403058781700,9.13778173828125,-0.05301964252591133,-0.30343868387453254,-0.04330620389357209
1782835403068711700,9.147711669921875,1.3653122014045715,-0.9361273692283779,0.08952814910337328
1782835403078641700,9.1576416015625,2.4407149895280598,-1.3438435891792178,0.8290726965889335
1782835403088571600,9.167571533203125,3.057017334356904,-1.4733704250633717,1.6607728190720081
1782835403098501600,9.177501708984375,3.1902205206662413,-1.3134092879489063,2.1517367196172477
1782835403108431600,9.187431640625,3.7657244066387414,-0.988674937263131,2.2296979111760855
1782835403118361600,9.197361572265624,4.65279716451466,-0.9986918158214538,1.5276789383560418
1782835403128291600,9.20729150390625,5.776803532287478,-0.9552294715180992,0.7270955464094877
1782835403138221800,9.217221923828125,6.751263481715321,-0.8199011097483336,0.3024244653306901
1782835403148151600,9.227151611328125,7.505824542677402,-0.758390702252835,0.10250329294539988
1782835403158081800,9.237081787109375,7.9830504252493375,-0.8382887801583856,0.3334660848043859
1782835403168010800,9.2470107421875,8.242682189166546,-1.1307627101652324,0.43245146928932515
1782835403177940500,9.2569404296875,8.359364448785781,-1.2578466829419135,0.3942652387579903
1782835403187870700,9.26687060546875,8.560440563359856,-1.081699842441082,0.23995591686014084
1782835403197800700,9.27680078125,8.361675063815712,-0.5517339380022138,0.46291967278923835
1782835403207730700,9.286730712890625,8.251120347166061,-0.02373078500367701,0.547811832655035
1782835403217660700,9.29666064453125,8.59989520639181,0.3378220149915665,0.47688729826733467
1782835403227590700,9.306590576171875,8.961144347265362,0.4397299723923206,0.22787001347541808
1782835403237520600,9.316520751953124,8.947371842500567,0.47954482703879475,-0.24565562633909283
1782835403247450600,9.32645068359375,8.832357808354496,0.6125436498824507,-0.381243077436462
1782835403257380600,9.336380615234376,8.697004166013002,0.5484121731683611,-0.3486097317919135
1782835403267310600,9.346310546875,8.356023321664333,0.29896292669996616,-0.26755159713104365
1782835403277240800,9.35624072265625,8.228688735127449,0.03691504155173898,-0.15033574209176004
1782835403287170600,9.366170654296875,8.312738891211152,-0.018831687850505114,0.06654701342321932
1782835403297099500,9.376099609375,7.934026574361324,0.07384966458678245,0.1480808758370578
1782835403307029800,9.38602978515625,7.58235014847517,0.2848559292837977,0.05624174637757241
1782835403316959700,9.395959716796876,8.055716433009504,0.6294441504746675,-0.14336210368685423
1782835403326889700,9.4058896484375,8.778376042798161,1.1209519486382602,-0.5348186782322824
1782835403336819700,9.41581982421875,8.874600036278366,1.6448489814922214,-0.7309987643931061
1782835403346749400,9.42574951171875,7.9295041285008185,1.8324506974652408,-0.4522225934144109
1782835403356679700,9.4356796875,6.691372199854254,1.5240291836768387,-0.39015506349280477
1782835403366609700,9.445609619140624,5.982281096690893,1.1705218891017137,-0.2707136413585394
1782835403376539600,9.45553955078125,5.212825248935818,0.9206319131284951,0.09612447862848639
1782835403386469600,9.4654697265625,3.089398678001761,0.7959516404926776,0.3919148397069424
1782835403396399600,9.475399658203125,0.3298977247983217,0.8766932565502822,0.4385944655563682
1782835403406329600,9.48532958984375,-1.1364531768918036,0.872640035636723,-0.15041501787304878
1782835403416258600,9.495258544921874,-2.3743980585336684,1.06012996179834,-0.8157952087994664
1782835403426188800,9.505188720703124,-3.7248113814920183,1.6408682412929831,-0.4471067847706377
1782835403436118500,9.515118408203126,-5.108225641298294,1.8384386858336625,0.18776815858110785
1782835403446048800,9.525048828125,-7.254041738694906,1.3600474127441644,0.14389569910690186
1782835403455978800,9.534978759765625,-9.533362051174045,0.7887852559946477,0.05504968704879284
1782835403465908700,9.54490869140625,-11.323405977803468,0.9190886292092502,-0.10263619861006736
1782835403475838700,9.554838623046875,-12.725280023407935,1.5999990552879868,0.19593202968388795
1782835403485768400,9.5647685546875,-15.167562116122244,1.636711706135422,1.6425610166855156
1782835403495698700,9.57469873046875,-18.046602471941707,0.7889781482182443,2.6113956735774875
1782835403505628700,9.584628662109376,-20.49898627195358,-0.21505524782687424,2.7068177030250427
1782835403515558700,9.59455859375,-20.483620360517502,-0.38024829424545165,2.2948902220547196
1782835403525488600,9.604488525390625,-19.15564040316343,0.7649955073453486,1.7641946151018142
1782835403535417600,9.61441748046875,-17.085053442013262,1.5202674930557607,0.8504244044363498
1782835403545347600,9.62434765625,-14.322448677575588,1.4379299861088395,-0.11306848956886678
1782835403555277600,9.634277587890624,-10.733832649946212,0.5332618041791022,-0.9049095894701779
1782835403565207800,9.644207763671876,-6.973689842832088,-0.32175840361490843,-0.9469538106039166
1782835403575137500,9.654137451171875,-4.383238465344905,-0.6510647383913397,-0.17515001148320733
1782835403585067800,9.66406787109375,-2.3351976825237273,-0.9845261470206081,0.3737857837004587
1782835403594997800,9.673997802734375,-0.992692356210947,-1.5712328334003687,0.5546485833398997
1782835403604927500,9.683927490234375,-0.22033786440491676,-2.0681232013851405,1.0502087986994535
1782835403614857700,9.693857666015624,0.8495745096087455,-2.3249796553701163,1.174936271477863
1782835403624787500,9.703787353515626,1.8428993185043334,-2.289068968555331,1.4507929748132824
1782835403634717700,9.7137177734375,3.0909844858884807,-2.043241419715434,1.5060275169096886
1782835403644646700,9.723646728515625,4.324617934072017,-1.771254178224504,1.2695268916025757
1782835403654576600,9.73357666015625,5.260283750203252,-1.6408128578439354,0.9318540758233517
1782835403664506600,9.743506591796875,6.048966276475787,-1.697142355570197,0.6011378742489963
1782835403674436600,9.7534365234375,6.328230377101898,-1.7363890549398957,0.4704255549073219
1782835403684366600,9.76336669921875,6.240128899800777,-1.6747006605289876,0.42467765695005655
1782835403694296600,9.773296630859376,6.39851796529293,-1.605151908006519,0.3833563797960058
1782835403704226800,9.783226806640625,6.439869966378808,-1.5086758394613862,0.40950441854186354
1782835403714156500,9.793156494140625,6.382773868194222,-1.3893569477282464,0.36348501016683876
1782835403724087000,9.803087158203125,6.3373097556144,-1.1593188694987446,0.36874662048947066
1782835403734016800,9.813016845703125,6.52645811650753,-0.8020791834622621,0.1425004818888381
1782835403743947000,9.822947021484374,6.79317136311829,-0.5353141335990279,-0.1298067853366956
1782835403753877000,9.832876953125,7.327351305055618,-0.48055553845129906,-0.5582782450791448
1782835403763807000,9.842806884765626,7.303704472008347,-0.5881392034009099,-0.5515911685306578
1782835403773736000,9.85273583984375,6.882366480875015,-0.9275567439556122,-0.5427022710889577
1782835403783666000,9.862666015625,6.63337827604711,-1.161050515596941,-0.9146882022932171
1782835403793596000,9.872595947265625,6.737650551426411,-1.1321565756764262,-0.955862216463685
1782835403803526000,9.88252587890625,6.9276686808913945,-0.967469579083845,-0.8684543474499136
1782835403813456100,9.8924560546875,6.540432865846157,-0.7812774376478046,-0.7284398006252945
1782835403823385900,9.9023857421875,7.2073396087527275,-0.6461320312295109,-0.9863983706332743
1782835403833316000,9.912316162109375,5.870205454084277,-0.4346721775460988,-0.8428055269304663
1782835403843246000,9.92224609375,3.578260053309798,-0.6102613110989332,-1.1893734506964684
1782835403853175800,9.93217578125,3.8375101244330403,-0.9752775494210422,-1.3203271045133471
1782835403863106000,9.94210595703125,3.485276649186015,-0.6395718689963221,-1.5521256896093487
1782835403873037000,9.952037109375,3.562327740162611,0.1443455617662519,-2.0805295323632658
1782835403882967000,9.961967041015624,3.082390260544419,1.0660786410696803,-1.319174427346885
1782835403892896800,9.971896728515626,0.6530699407339096,1.2112743168592452,-0.6964017174601554
1782835403902827000,9.981826904296875,-0.4083808944046497,0.8743886328697205,-0.429487541449815
