time,seconds_elapsed,z,y,x
1782835394002692000,0.081692138671875,-0.07651712745428085,-0.032647956162691116,0.06838970631361008
1782835394012621800,0.091621826171875,-0.08022984117269516,0.024150878190994263,0.06576170027256012
1782835394022551800,0.1015517578125,-0.05341699719429016,0.054665107280015945,0.0697755217552185
1782835394032481800,0.111481689453125,-0.02050858363509178,0.06304635107517242,0.08193285018205643
1782835394042411800,0.121411865234375,-0.0002317633479833603,0.047611162066459656,0.08891933411359787
1782835394052341000,0.131341064453125,0.018884673714637756,0.03566102683544159,0.07873860746622086
1782835394062271000,0.14127099609375,0.025881271809339523,0.02447691559791565,0.06592787802219391
1782835394072200700,0.15120068359375,0.015647275373339653,0.0054837847128510475,0.04270990192890167
1782835394082131000,0.161130859375,-0.010695231147110462,0.020436566323041916,0.009723732247948647
1782835394092061000,0.17106103515625,-0.030350692570209503,0.06557821482419968,-0.018857844173908234
1782835394101991000,0.180990966796875,-0.03041389212012291,0.09495311975479126,-0.038396600633859634
1782835394111921000,0.1909208984375,-0.00864255242049694,0.07018917798995972,-0.05659770965576172
1782835394121851000,0.200850830078125,0.034225642681121826,0.011314628645777702,-0.04580879583954811
1782835394131780900,0.21078076171875,0.07512514293193817,-0.01793673448264599,0.00937456265091896
1782835394141710800,0.2207109375,0.09729865938425064,-0.024765823036432266,0.09750441461801529
1782835394151640800,0.230640869140625,0.11597141623497009,-0.029386674985289574,0.21752215921878815
1782835394161570800,0.24057080078125,0.12957459688186646,-0.029280025511980057,0.31907734274864197
1782835394171500800,0.250500732421875,0.14464569091796875,-0.03641090542078018,0.37624236941337585
1782835394181430800,0.2604306640625,0.16511386632919312,-0.055147599428892136,0.32584184408187866
1782835394191361000,0.270361083984375,0.181931734085083,-0.05453161150217056,0.19845032691955566
1782835394201290800,0.280290771484375,0.20560957491397858,0.01895095780491829,0.07583852857351303
1782835394211221000,0.290220947265625,0.22561869025230408,0.1512884944677353,-0.03205278143286705
1782835394221150000,0.30014990234375,0.2476458102464676,0.23018738627433777,-0.12158000469207764
1782835394231080000,0.310079833984375,0.2687588334083557,0.2675195634365082,-0.2008306235074997
1782835394241010000,0.320010009765625,0.28192856907844543,0.2836393415927887,-0.2349124252796173
1782835394250940000,0.32993994140625,0.2725907266139984,0.2824028432369232,-0.2123866081237793
1782835394260870000,0.339869873046875,0.2592102289199829,0.19939827919006348,-0.15350885689258575
1782835394270800000,0.3497998046875,0.2412395030260086,0.07053031027317047,-0.03058372624218464
1782835394280729900,0.359729736328125,0.21514983475208282,-0.013648143969476223,0.13734252750873566
1782835394290659800,0.369659912109375,0.1857442706823349,-0.0785517767071724,0.289907842874527
1782835394300589800,0.37958984375,0.18764019012451172,-0.10156156122684479,0.379410982131958
1782835394310519800,0.389519775390625,0.20803575217723846,-0.09372387826442719,0.3955790400505066
1782835394320449800,0.39944970703125,0.22540606558322906,-0.08397183567285538,0.36965733766555786
1782835394330380000,0.409380126953125,0.23959217965602875,-0.053224049508571625,0.33950185775756836
1782835394340309800,0.419309814453125,0.21752029657363892,-0.00907801277935505,0.28488948941230774
1782835394350239700,0.42923974609375,0.18350958824157715,0.0613628625869751,0.176753431558609
1782835394360170000,0.439169921875,0.18292130529880524,0.15854206681251526,0.030293390154838562
1782835394370099700,0.449099609375,0.21011272072792053,0.28746968507766724,-0.10905704647302628
1782835394380030000,0.459030029296875,0.24714617431163788,0.4032731056213379,-0.19760319590568542
1782835394389959000,0.468958984375,0.26497682929039,0.476755827665329,-0.19993984699249268
1782835394399888600,0.478888671875,0.2210814505815506,0.5492881536483765,-0.0905199944972992
1782835394409819000,0.48881884765625,0.11472305655479431,0.6233035326004028,0.10586416721343994
1782835394419748900,0.498748779296875,-0.02719421684741974,0.661784827709198,0.35863471031188965
1782835394429678800,0.508678955078125,-0.16219864785671234,0.7366760969161987,0.5941904783248901
1782835394439608800,0.51860888671875,-0.23206552863121033,0.8553370833396912,0.7268229722976685
1782835394449539000,0.5285390625,-0.20160137116909027,0.9960036873817444,0.7324401140213013
1782835394459468800,0.53846875,-0.124868243932724,1.0948809385299683,0.6215798258781433
1782835394469399000,0.54839892578125,-0.035829976201057434,1.1301872730255127,0.41804933547973633
1782835394479328800,0.558328857421875,0.05010339245200157,1.134722113609314,0.1750648468732834
1782835394489258800,0.5682587890625,0.13542094826698303,1.1113494634628296,-0.08839181810617447
1782835394499189000,0.57818896484375,0.2836683392524719,1.088515043258667,-0.31596076488494873
1782835394509118700,0.58811865234375,0.47671476006507874,1.074928879737854,-0.5029932260513306
1782835394519049000,0.598049072265625,0.6594902873039246,1.057803988456726,-0.5943154096603394
1782835394528979000,0.60797900390625,0.772418200969696,1.095845103263855,-0.559240996837616
1782835394538909000,0.617908935546875,0.7128732800483704,1.2259587049484253,-0.4264015555381775
1782835394548838000,0.627837890625,0.44272059202194214,1.3711259365081787,-0.3089867830276489
1782835394558767900,0.637767822265625,0.08412754535675049,1.2062580585479736,-0.3509586453437805
1782835394568697900,0.64769775390625,-0.16877208650112152,0.6976935863494873,-0.5381885170936584
1782835394578627800,0.6576279296875,-0.25999027490615845,0.15728861093521118,-0.8172857761383057
1782835394588558000,0.66755810546875,-0.21953685581684113,-0.26445409655570984,-1.0481109619140625
1782835394598487800,0.67748779296875,-0.0791659876704216,-0.42872580885887146,-1.1435976028442383
1782835394608417800,0.687417724609375,0.10355216264724731,-0.39228737354278564,-1.046402096748352
1782835394618347800,0.69734765625,0.3582156002521515,-0.19755695760250092,-0.741159200668335
1782835394628277800,0.70727783203125,0.6567772030830383,-0.03936280310153961,-0.3272397518157959
1782835394638208000,0.7172080078125,0.9639877676963806,-0.058227960020303726,0.06077820062637329
1782835394648137700,0.7271376953125,1.2354916334152222,-0.21346601843833923,0.36430853605270386
1782835394658068000,0.73706787109375,1.3944382667541504,-0.4211289584636688,0.5859973430633545
1782835394667998000,0.746998046875,1.4236505031585693,-0.6432166695594788,0.7479577660560608
1782835394677928000,0.756927978515625,1.3448983430862427,-0.8892468214035034,0.8753180503845215
1782835394687858000,0.76685791015625,1.197271704673767,-1.1098244190216064,0.8746504187583923
1782835394697787600,0.77678759765625,1.0494633913040161,-1.3022212982177734,0.6484826803207397
1782835394707716400,0.78671630859375,0.9526748061180115,-1.5082937479019165,0.1772584617137909
1782835394717646600,0.796646484375,0.9331068992614746,-1.6502389907836914,-0.4273553490638733
1782835394727576600,0.80657666015625,0.9926125407218933,-1.6447038650512695,-1.0068645477294922
1782835394737506600,0.816506591796875,1.1205016374588013,-1.48477041721344,-1.437685489654541
1782835394747436500,0.8264365234375,1.2580689191818237,-1.3410987854003906,-1.6741688251495361
1782835394757366500,0.836366455078125,1.3403303623199463,-1.3536471128463745,-1.687804102897644
1782835394767296500,0.846296630859375,1.3440015316009521,-1.3935619592666626,-1.4622076749801636
1782835394777226500,0.8562265625,1.2414919137954712,-1.3367602825164795,-1.09801185131073
1782835394787156500,0.866156494140625,1.0698729753494263,-1.1795940399169922,-0.6619617938995361
1782835394797086500,0.87608642578125,0.8615046739578247,-0.9961687326431274,-0.277432382106781
1782835394807016700,0.8860166015625,0.637718677520752,-0.7953780889511108,0.010228171944618225
1782835394816946400,0.895946533203125,0.41223475337028503,-0.607759952545166,0.15297815203666687
1782835394826876700,0.905876708984375,0.2257857769727707,-0.42350834608078003,0.15915828943252563
1782835394836806700,0.915806640625,0.0810869112610817,-0.2370435893535614,0.03532963991165161
1782835394846736400,0.925736328125,-0.027362607419490814,-0.04416388273239136,-0.1990589052438736
1782835394856666600,0.93566650390625,-0.09584031999111176,0.13466864824295044,-0.4850720167160034
1782835394866595600,0.945595703125,-0.1266016960144043,0.22736850380897522,-0.6921926736831665
1782835394876525600,0.955525634765625,-0.12145614624023438,0.3324485421180725,-0.678077757358551
1782835394886455600,0.96545556640625,-0.13592669367790222,0.5914742350578308,-0.424854040145874
1782835394896385500,0.975385498046875,-0.229523703455925,0.8677164912223816,-0.04466015100479126
1782835394906315500,0.9853154296875,-0.4029463827610016,0.9771111607551575,0.30779698491096497
1782835394916245500,0.99524560546875,-0.5562313199043274,1.0280905961990356,0.5543590784072876
1782835394926175500,1.005175537109375,-0.5961875319480896,1.146112322807312,0.697109580039978
1782835394936105500,1.01510546875,-0.5625354647636414,1.238970398902893,0.7530574798583984
1782835394946035700,1.02503564453125,-0.5738027691841125,1.1396640539169312,0.7539317607879639
1782835394955965400,1.03496533203125,-0.667178213596344,1.0255106687545776,0.7772720456123352
1782835394965895400,1.0448955078125,-0.8453298807144165,1.1566530466079712,0.7379710078239441
1782835394975825700,1.05482568359375,-1.008707880973816,1.3207006454467773,0.5849034786224365
1782835394985755400,1.06475537109375,-1.0951281785964966,1.4718118906021118,0.3951292634010315
1782835394995685600,1.074685546875,-1.068686842918396,1.7001773118972778,0.28017863631248474
1782835395005615400,1.084615478515625,-0.8971943855285645,1.7820314168930054,0.3374025225639343
1782835395015545600,1.094545654296875,-0.7000336647033691,1.609131097793579,0.5019142627716064
1782835395025474600,1.104474609375,-0.5393281579017639,1.313826560974121,0.7151290774345398
1782835395035404500,1.114404541015625,-0.4508450925350189,1.149603009223938,0.9027151465415955
1782835395045334500,1.12433447265625,-0.4167097806930542,1.1255064010620117,0.9297704696655273
1782835395055264500,1.134264404296875,-0.33563774824142456,0.9734737277030945,0.7405897378921509
1782835395065194500,1.144194580078125,-0.08768041431903839,0.6952484846115112,0.45772477984428406
1782835395075124500,1.15412451171875,0.19459114968776703,0.26675501465797424,0.1697804480791092
1782835395085054700,1.1640546875,0.3624592423439026,0.026100333780050278,0.03948955982923508
1782835395094984400,1.173984375,0.34315428137779236,0.07311949133872986,0.07334411889314651
1782835395104914400,1.18391455078125,0.19645565748214722,0.22755061089992523,0.19432432949543
1782835395114844700,1.1938447265625,0.037023644894361496,0.3267492949962616,0.31727612018585205
1782835395124774400,1.2037744140625,-0.06550965458154678,0.19652897119522095,0.3132252097129822
1782835395134704600,1.21370458984375,-0.07121201604604721,-0.044859591871500015,0.20572566986083984
1782835395144634400,1.22363427734375,-0.052536871284246445,-0.3296396732330322,-0.015232009813189507
1782835395154564600,1.233564697265625,-0.05879190191626549,-0.6614505052566528,-0.31713172793388367
1782835395164494600,1.24349462890625,-0.08644243329763412,-0.9209291934967041,-0.5549882054328918
1782835395174424600,1.253424560546875,-0.15668337047100067,-0.9203621745109558,-0.6175034046173096
1782835395184353500,1.263353515625,-0.2816407382488251,-0.7709822654724121,-0.5334415435791016
1782835395194283500,1.273283447265625,-0.47277209162712097,-0.7054128646850586,-0.43951794505119324
1782835395204213500,1.283213623046875,-0.6919846534729004,-0.8102356791496277,-0.48486971855163574
1782835395214143500,1.2931435546875,-0.867474377155304,-1.0159761905670166,-0.7247251272201538
1782835395224073700,1.30307373046875,-0.9532907605171204,-1.217698097229004,-1.0908973217010498
1782835395234003500,1.31300341796875,-0.9029521346092224,-1.2929723262786865,-1.4576467275619507
1782835395243933400,1.322933349609375,-0.7139601111412048,-1.255957007408142,-1.7116174697875977
1782835395253863700,1.33286376953125,-0.4656473398208618,-1.1830418109893799,-1.7870296239852905
1782835395263793400,1.34279345703125,-0.26889699697494507,-1.084336280822754,-1.6992840766906738
1782835395273723600,1.3527236328125,-0.11573296040296555,-0.8936607837677002,-1.4840855598449707
1782835395283653400,1.3626533203125,-0.0066088661551475525,-0.5350664258003235,-1.1633048057556152
1782835395293583600,1.37258349609375,0.0341988168656826,-0.10904917120933533,-0.7949709296226501
1782835395303513600,1.382513671875,-0.006764859892427921,0.2982887625694275,-0.41189491748809814
1782835395313443300,1.392443359375,-0.10870584100484848,0.5993362665176392,-0.057763680815696716
1782835395323373600,1.40237353515625,-0.19099965691566467,0.604057252407074,0.2335246205329895
1782835395333303600,1.412303466796875,-0.25989678502082825,0.23658877611160278,0.44896331429481506
1782835395343232500,1.422232421875,-0.3777371346950531,-0.3767188489437103,0.5340512990951538
1782835395353162500,1.43216259765625,-0.5145758986473083,-0.9959553480148315,0.45605939626693726
1782835395363092500,1.442092529296875,-0.5449095964431763,-1.1937717199325562,0.32108184695243835
1782835395373022500,1.4520224609375,-0.42215684056282043,-0.7197113633155823,0.2503587305545807
1782835395382952400,1.461952392578125,-0.24737918376922607,0.012407619506120682,0.22729521989822388
1782835395392882700,1.471882568359375,-0.07667288184165955,0.5587703585624695,0.22003193199634552
1782835395402812400,1.4818125,0.047298334538936615,0.7402046322822571,0.19048762321472168
1782835395412742700,1.49174267578125,0.1530175358057022,0.6490041017532349,0.21449844539165497
1782835395422672400,1.50167236328125,0.23675638437271118,0.4675554931163788,0.3313787281513214
1782835395432602600,1.5116025390625,0.21803991496562958,0.16403506696224213,0.4589477777481079
1782835395442532600,1.52153271484375,0.10219641774892807,-0.19110198318958282,0.5485572814941406
1782835395452462300,1.53146240234375,-0.07996978610754013,-0.31330618262290955,0.5770155787467957
1782835395462392600,1.541392578125,-0.22716084122657776,-0.11146228015422821,0.6112923622131348
1782835395472322600,1.551322509765625,-0.31576234102249146,0.2751801311969757,0.6666181087493896
1782835395482252500,1.56125244140625,-0.3345978260040283,0.6068955063819885,0.6978282332420349
1782835395492182500,1.5711826171875,-0.23464633524417877,0.9153443574905396,0.7210085391998291
1782835395502111500,1.581111572265625,-0.09391772747039795,1.182932734489441,0.7210103869438171
1782835395512041500,1.59104150390625,0.012257884256541729,1.408939242362976,0.6493951678276062
1782835395521971500,1.600971435546875,0.08304337412118912,1.4765664339065552,0.509316086769104
1782835395531901700,1.610901611328125,0.1819043755531311,1.0929690599441528,0.3682345151901245
1782835395541831400,1.62083154296875,0.32072964310646057,0.47310054302215576,0.2756297290325165
1782835395551761700,1.63076171875,0.34184491634368896,-0.16695153713226318,0.08422375470399857
1782835395561691600,1.640691650390625,0.29755547642707825,-0.4147767722606659,-0.21749800443649292
1782835395571621400,1.650621337890625,0.21059346199035645,0.05762254446744919,-0.6003997325897217
1782835395581551600,1.660551513671875,0.1313636302947998,0.879058837890625,-1.017863392829895
1782835395591481300,1.6704814453125,0.09284493327140808,1.600731372833252,-1.314936637878418
1782835395601411600,1.68041162109375,0.18310825526714325,2.0652828216552734,-1.2552155256271362
1782835395611341600,1.690341552734375,0.361110121011734,2.2423830032348633,-0.8248776793479919
1782835395621271600,1.700271484375,0.5468668937683105,2.2064874172210693,-0.13487473130226135
1782835395631201500,1.710201416015625,0.6897452473640442,2.1502327919006348,0.5813074707984924
1782835395641131500,1.720131591796875,0.7465534210205078,1.723522424697876,1.0412781238555908
1782835395651060500,1.730060546875,0.7641991972923279,0.7539210319519043,1.1846699714660645
1782835395660990500,1.739990478515625,0.8295321464538574,-0.359079509973526,1.1691210269927979
1782835395670920700,1.749920654296875,0.8905327320098877,-1.4896626472473145,0.9860711097717285
1782835395680850400,1.759850341796875,0.8853409290313721,-2.274810791015625,0.6254346370697021
1782835395690780700,1.76978076171875,0.8503810167312622,-2.523268938064575,0.18651176989078522
1782835395700710700,1.779710693359375,0.795032799243927,-2.3817780017852783,-0.20278912782669067
1782835395710645200,1.789645263671875,0.6604677438735962,-1.9397211074829102,-0.4075196087360382
1782835395720575000,1.799574951171875,0.4159405529499054,-1.3161041736602783,-0.3791673183441162
1782835395730505200,1.809505126953125,0.10472811758518219,-0.641232430934906,-0.14342273771762848
1782835395740435200,1.819435302734375,-0.21263200044631958,-0.12384521961212158,0.1898825317621231
1782835395750365200,1.829365234375,-0.5332152843475342,0.033774811774492264,0.4905846118927002
1782835395760295200,1.839295166015625,-0.8646576404571533,-0.11697341501712799,0.6148927211761475
1782835395770225200,1.84922509765625,-1.125036597251892,-0.3653763234615326,0.5390879511833191
1782835395780155100,1.859155029296875,-1.1696075201034546,-0.6693726778030396,0.3662383556365967
1782835395790085000,1.869085205078125,-1.0194848775863647,-0.9948908090591431,0.15464457869529724
1782835395800015000,1.87901513671875,-0.7975648045539856,-1.1403470039367676,-0.02179223671555519
1782835395809945000,1.888945068359375,-0.6597034931182861,-0.8576614260673523,-0.1066887304186821
1782835395819874000,1.8988740234375,-0.7170096635818481,-0.2879074215888977,-0.1750081181526184
1782835395829804300,1.90880419921875,-0.9054245352745056,0.30405738949775696,-0.17756611108779907
1782835395839734000,1.918734130859375,-1.085179328918457,0.7164213061332703,-0.06010446324944496
1782835395849664300,1.928664306640625,-1.1862348318099976,0.7834163904190063,0.17377391457557678
1782835395859594000,1.938593994140625,-1.1833178997039795,0.526334285736084,0.4470803141593933
1782835395869524200,1.948524169921875,-1.1067789793014526,0.12147559225559235,0.6490383744239807
1782835395879454200,1.9584541015625,-1.0029000043869019,-0.27890485525131226,0.697350800037384
1782835395889384200,1.96838427734375,-0.9336786866188049,-0.4720132648944855,0.5897267460823059
1782835395899314200,1.978314208984375,-0.8477289080619812,-0.4475870132446289,0.39962366223335266
1782835395909244200,1.988244140625,-0.7007601261138916,-0.2493436187505722,0.1493145227432251
1782835395919174100,1.998174072265625,-0.4576082229614258,-0.05366518720984459,-0.09096759557723999
1782835395929104100,2.008104248046875,-0.2723545432090759,0.022904057055711746,-0.24319471418857574
1782835395939034000,2.0180341796875,-0.24504461884498596,0.14733439683914185,-0.21297822892665863
1782835395948964000,2.027964111328125,-0.2735000252723694,0.2878982722759247,0.006545211188495159
1782835395958894300,2.037894287109375,-0.32288169860839844,0.38713324069976807,0.3573293387889862
1782835395968824000,2.047823974609375,-0.40187501907348633,0.29644301533699036,0.6644071936607361
1782835395978753000,2.0577529296875,-0.4866764545440674,0.08140605688095093,0.8491551876068115
1782835395988683300,2.067683349609375,-0.5372572541236877,-0.054968394339084625,0.9546082615852356
1782835395998613000,2.077613037109375,-0.5321027040481567,0.0903341993689537,1.03815758228302
1782835396008543200,2.087543212890625,-0.5142101049423218,0.4000737965106964,1.064831018447876
1782835396018473200,2.09747314453125,-0.45811137557029724,0.6630563735961914,1.0141923427581787
1782835396028403000,2.10740283203125,-0.3269396424293518,0.6987965703010559,0.8671305775642395
1782835396038333200,2.117333251953125,-0.11384440213441849,0.38332435488700867,0.5638532638549805
1782835396048263200,2.12726318359375,0.12423700094223022,-0.18255215883255005,0.1628851443529129
1782835396058193200,2.137193115234375,0.2786817252635956,-0.711785078048706,-0.24850693345069885
1782835396068123100,2.147123046875,0.252292275428772,-0.8084967136383057,-0.6168578267097473
1782835396078053000,2.15705322265625,0.14103257656097412,-0.5498955249786377,-0.8472881317138672
1782835396087983000,2.166983154296875,0.10172829777002335,-0.4360939860343933,-0.7432555556297302
1782835396097913300,2.176913330078125,0.2282755821943283,-0.6855980753898621,-0.29718083143234253
1782835396107843000,2.186843017578125,0.4412608742713928,-0.9212223887443542,0.31449630856513977
1782835396117773000,2.19677294921875,0.5958001017570496,-0.575383722782135,0.8034015893936157
1782835396127703300,2.206703369140625,0.675474226474762,0.15936797857284546,0.9040670394897461
1782835396137632300,2.21663232421875,0.7495274543762207,0.8350353837013245,0.6179788708686829
1782835396147562200,2.226562255859375,0.772197961807251,1.0926344394683838,0.15934544801712036
1782835396157492200,2.2364921875,0.7593010663986206,1.009454607963562,-0.2401188611984253
1782835396167422000,2.246421875,0.7096092700958252,0.7478875517845154,-0.46248066425323486
1782835396177352200,2.256352294921875,0.5942680239677429,0.33694764971733093,-0.6046894788742065
1782835396187282200,2.2662822265625,0.44096022844314575,-0.19414791464805603,-0.7592039704322815
1782835396197212200,2.276212158203125,0.221515491604805,-0.74111407995224,-1.0113922357559204
1782835396207142100,2.28614208984375,0.0014109527692198753,-0.9512333869934082,-1.3158587217330933
1782835396217072000,2.296072021484375,-0.09077676385641098,-0.8637932538986206,-1.5542409420013428
1782835396227002000,2.306002197265625,-0.014238775707781315,-0.7231221199035645,-1.6338616609573364
1782835396236932000,2.31593212890625,0.14227226376533508,-0.6431050300598145,-1.5555980205535889
1782835396246862000,2.325862060546875,0.20618873834609985,-0.8269381523132324,-1.395323634147644
1782835396256792000,2.3357919921875,0.1445019394159317,-0.957271933555603,-1.1940743923187256
1782835396266722300,2.345722412109375,-0.11024431884288788,-0.9012380242347717,-1.1716744899749756
1782835396276652000,2.355652099609375,-0.41923490166664124,-0.789740264415741,-1.3844043016433716
1782835396286582300,2.365582275390625,-0.5677184462547302,-0.5144433379173279,-1.6738150119781494
1782835396296511200,2.37551123046875,-0.5528811812400818,-0.15419113636016846,-1.8255677223205566
1782835396306441000,2.38544091796875,-0.37829893827438354,0.18006770312786102,-1.6711044311523438
1782835396316371200,2.39537109375,-0.14178040623664856,0.4274734854698181,-1.2647641897201538
1782835396326301200,2.40530126953125,0.10122554749250412,0.5273550748825073,-0.70789635181427
1782835396336231200,2.415231201171875,0.26565951108932495,0.4686243236064911,-0.10825182497501373
1782835396346161200,2.4251611328125,0.31189289689064026,0.29656845331192017,0.4587416648864746
1782835396356091100,2.435091064453125,0.29077988862991333,0.07417690753936768,0.9308785796165466
1782835396366021000,2.445021240234375,0.20208004117012024,-0.1576233208179474,1.1977423429489136
1782835396375951000,2.454951171875,0.06628651916980743,-0.3219006657600403,1.1966816186904907
1782835396385881000,2.464881103515625,-0.0827796533703804,-0.33442819118499756,0.9338685274124146
1782835396395811000,2.47481103515625,-0.19959144294261932,-0.13633669912815094,0.4498479664325714
1782835396405741300,2.4847412109375,-0.2218657284975052,0.17339929938316345,-0.09949507564306259
1782835396415671000,2.494671142578125,-0.19290944933891296,0.5015987753868103,-0.5238745808601379
1782835396425601300,2.504601318359375,-0.12119930237531662,0.7191742658615112,-0.7107577323913574
1782835396435531300,2.51453125,0.04237737879157066,0.7903776168823242,-0.5999268293380737
1782835396445461200,2.524461181640625,0.19252754747867584,0.7099778056144714,-0.27146297693252563
1782835396455391200,2.53439111328125,0.30161914229393005,0.4448162019252777,0.21467366814613342
1782835396465320200,2.5443203125,0.3324989974498749,0.2562786042690277,0.7556955218315125
1782835396475250200,2.554250244140625,0.2834744453430176,0.13691198825836182,1.2320085763931274
1782835396485180200,2.56418017578125,0.16554871201515198,0.10431265085935593,1.517437219619751
1782835396495110400,2.5741103515625,0.0037488890811800957,0.2290915995836258,1.5311713218688965
1782835396505040100,2.5840400390625,-0.1759972870349884,0.4594847857952118,1.249401330947876
1782835396514970000,2.59397021484375,-0.30498749017715454,0.6700716018676758,0.781480610370636
1782835396524900000,2.603900146484375,-0.35394299030303955,0.7794941663742065,0.28999951481819153
1782835396534830000,2.613830078125,-0.33481085300445557,0.873308539390564,-0.05813717469573021
1782835396544760300,2.62376025390625,-0.22663792967796326,0.9572739005088806,-0.23583124577999115
1782835396554690000,2.63368994140625,-0.07381776720285416,0.8940291404724121,-0.29859238862991333
1782835396564620300,2.643620361328125,0.13129964470863342,0.6624931693077087,-0.2581271827220917
1782835396574550300,2.65355029296875,0.41154754161834717,0.27127376198768616,-0.143278107047081
1782835396584480000,2.66347998046875,0.6963543891906738,-0.10226410627365112,-0.02760188840329647
1782835396594410200,2.67341015625,0.8657021522521973,-0.06256011128425598,0.0706983134150505
1782835396604340000,2.683340087890625,0.8843615055084229,0.5710974335670471,0.07776546478271484
1782835396614270200,2.693270263671875,0.7851278781890869,1.287604570388794,-0.21088552474975586
1782835396624199200,2.70319921875,0.6457317471504211,1.6157209873199463,-0.7461381554603577
1782835396634129200,2.713129150390625,0.6319509148597717,1.544001817703247,-1.1185601949691772
1782835396644059100,2.72305908203125,0.7319426536560059,1.4550312757492065,-1.061761736869812
1782835396653989000,2.732989013671875,0.8390976190567017,1.3250434398651123,-0.6448541879653931
1782835396663919000,2.742919189453125,0.9695108532905579,1.1253275871276855,-0.01689162850379944
1782835396673849000,2.75284912109375,1.126112461090088,0.5953999757766724,0.504327654838562
1782835396683779300,2.762779296875,1.3541544675827026,-0.07837474346160889,0.8042759895324707
1782835396693709000,2.772708984375,1.5827796459197998,-0.7026734948158264,0.8309901356697083
1782835396703639300,2.782639404296875,1.7135984897613525,-1.266838788986206,0.5712478756904602
1782835396713564700,2.792564697265625,1.70205819606781,-1.7301454544067383,0.13553288578987122
1782835396723494700,2.80249462890625,1.451380968093872,-1.8949689865112305,-0.351073682308197
1782835396733424600,2.812424560546875,0.9889136552810669,-1.6896096467971802,-0.7681922912597656
1782835396743355000,2.82235498046875,0.41891494393348694,-1.2846283912658691,-1.0799951553344727
1782835396753284600,2.83228466796875,-0.13145631551742554,-0.946968138217926,-1.2373077869415283
1782835396763214800,2.84221484375,-0.5745404958724976,-0.7714009881019592,-1.2182689905166626
1782835396773143800,2.852143798828125,-0.8715322017669678,-0.7509865164756775,-1.1165144443511963
1782835396783073500,2.862073486328125,-0.9292887449264526,-0.8529779314994812,-0.9579857587814331
1782835396793003800,2.872003662109375,-0.7173005938529968,-0.9945986866950989,-0.7618402242660522
1782835396802933800,2.881933837890625,-0.30502527952194214,-1.1297171115875244,-0.5856555104255676
1782835396812863700,2.89186376953125,0.12621080875396729,-1.1880885362625122,-0.4542170464992523
1782835396822793700,2.901793701171875,0.4037974774837494,-0.8975111842155457,-0.34992992877960205
1782835396832724000,2.911723876953125,0.46614739298820496,-0.3555554449558258,-0.28719598054885864
1782835396842653700,2.92165380859375,0.3542075753211975,0.09281598031520844,-0.3007272183895111
1782835396852583700,2.931583740234375,0.11244209110736847,0.3317316174507141,-0.3950643837451935
1782835396862513700,2.941513671875,-0.18934346735477448,0.4182937443256378,-0.5113311409950256
1782835396872443600,2.951443603515625,-0.48177266120910645,0.3608730733394623,-0.5653062462806702
1782835396882374000,2.961373779296875,-0.7332252860069275,0.270900160074234,-0.5674469470977783
1782835396892303600,2.9713037109375,-0.8994616270065308,0.19291427731513977,-0.5415029525756836
1782835396902233900,2.98123388671875,-0.956882119178772,0.15393507480621338,-0.5340047478675842
1782835396912163800,2.991163818359375,-0.8550518751144409,0.055358704179525375,-0.47617608308792114
1782835396922093600,3.001093505859375,-0.5758707523345947,0.05459126457571983,-0.2940908372402191
1782835396932022800,3.011022705078125,-0.2506084740161896,0.13767124712467194,0.017969846725463867
1782835396941952800,3.020952880859375,-0.03184617683291435,0.1965489387512207,0.3724931478500366
1782835396951882800,3.0308828125,0.07015182822942734,0.22641415894031525,0.6975178122520447
1782835396961812700,3.040812744140625,0.11459124833345413,0.267257958650589,0.9208986759185791
1782835396971742700,3.05074267578125,0.15735521912574768,0.3134712874889374,1.0121873617172241
1782835396981672700,3.060672607421875,0.18293417990207672,0.3608550727367401,0.9779097437858582
1782835396991602700,3.070602783203125,0.12678460776805878,0.3053728938102722,0.8539829850196838
1782835397001532700,3.08053271484375,-0.012730698101222515,0.17679934203624725,0.7355750203132629
1782835397011462700,3.090462646484375,-0.20612359046936035,0.10183456540107727,0.6643831133842468
1782835397021393000,3.100392822265625,-0.3872639834880829,0.16662168502807617,0.6501842737197876
1782835397031322600,3.110322509765625,-0.520064115524292,0.2760158181190491,0.5994164347648621
1782835397041252900,3.1202529296875,-0.5121456384658813,0.439719557762146,0.5163507461547852
1782835397051182800,3.130182861328125,-0.3468613624572754,0.6567075252532959,0.48167240619659424
1782835397061112600,3.140112548828125,-0.15055659413337708,0.7549017667770386,0.4805785119533539
1782835397071042800,3.150042724609375,0.03787509724497795,0.629124641418457,0.5073312520980835
1782835397080972500,3.15997265625,0.19762960076332092,0.438795804977417,0.5355027914047241
1782835397090902800,3.16990283203125,0.2766924500465393,0.3753044605255127,0.46765002608299255
1782835397100831700,3.179831787109375,0.34253862500190735,0.49381640553474426,0.16604797542095184
1782835397110761700,3.18976171875,0.47435232996940613,0.6626299619674683,-0.27640506625175476
1782835397120691700,3.199691650390625,0.5905395746231079,0.8500695824623108,-0.6982369422912598
1782835397130621700,3.20962158203125,0.6857156157493591,1.1211843490600586,-0.9263361692428589
1782835397140551700,3.2195517578125,0.9496095776557922,1.4322134256362915,-0.9414775371551514
1782835397150481700,3.229481689453125,1.379307746887207,1.8226463794708252,-0.725105345249176
1782835397160412000,3.239411865234375,1.8222684860229492,2.123722553253174,-0.25140616297721863
1782835397170341600,3.249341552734375,2.1281611919403076,2.0025854110717773,0.39374807476997375
1782835397180271600,3.259271728515625,2.1576991081237793,1.2858595848083496,0.985383927822113
1782835397190201900,3.269201904296875,1.9329965114593506,0.16135017573833466,1.316818356513977
1782835397200131600,3.279131591796875,1.6566085815429688,-1.0684679746627808,1.2774118185043335
1782835397210061800,3.289061767578125,1.4485524892807007,-2.129204034805298,0.8841570019721985
1782835397219991800,3.29899169921875,1.2100919485092163,-2.74603271484375,0.23212234675884247
1782835397229921800,3.308921875,0.7779144048690796,-2.7883434295654297,-0.7091548442840576
1782835397239851800,3.318851806640625,0.1578143984079361,-2.2118170261383057,-1.8281917572021484
1782835397249780700,3.32878076171875,-0.4252929985523224,-1.180045247077942,-2.7526509761810303
1782835397259710700,3.338710693359375,-0.8237928748130798,-0.05463717132806778,-3.176744222640991
1782835397269640700,3.348640625,-1.0310728549957275,0.863301694393158,-3.1162798404693604
1782835397279571000,3.358571044921875,-1.0632128715515137,1.201654314994812,-2.638313055038452
1782835397289500700,3.368500732421875,-0.9552744626998901,0.8649871349334717,-1.867276668548584
1782835397299431000,3.378430908203125,-0.7788438200950623,0.2350645810365677,-0.9587834477424622
1782835397309360600,3.388360595703125,-0.6724010109901428,-0.3396599590778351,-0.15637405216693878
1782835397319290600,3.39829052734375,-0.6222354769706726,-0.7104213237762451,0.38409674167633057
1782835397329220900,3.408220947265625,-0.6076565384864807,-0.7872543334960938,0.5857875347137451
1782835397339150600,3.418150634765625,-0.6448323130607605,-0.47608089447021484,0.44196486473083496
1782835397349080800,3.428080810546875,-0.5939528942108154,0.12680312991142273,0.1414063572883606
1782835397359010800,3.4380107421875,-0.450310081243515,0.723336935043335,-0.1889183074235916
1782835397368940800,3.44794091796875,-0.2563675045967102,1.1102890968322754,-0.4287838935852051
1782835397378870800,3.457870849609375,-0.08108310401439667,1.2051396369934082,-0.46009311079978943
1782835397388800800,3.46780078125,0.04363726079463959,1.0884857177734375,-0.24011549353599548
1782835397398729700,3.477729736328125,0.14866477251052856,0.8596071004867554,0.23466582596302032
1782835397408659700,3.48765966796875,0.20650944113731384,0.33976101875305176,0.7785565853118896
1782835397418590000,3.49758984375,0.20872965455055237,-0.41834500432014465,1.236663818359375
1782835397428519700,3.507519775390625,0.19590359926223755,-1.0467619895935059,1.5710564851760864
1782835397438450000,3.517449951171875,0.16929155588150024,-1.0811508893966675,1.7592912912368774
1782835397448379600,3.527379638671875,0.13253620266914368,-0.49295762181282043,1.7311073541641235
1782835397458309600,3.5373095703125,0.09441031515598297,0.2266734093427658,1.4889007806777954
1782835397468240000,3.547239990234375,0.04384914040565491,0.8271323442459106,1.0612999200820923
1782835397478169600,3.557169677734375,0.024912729859352112,1.1634248495101929,0.7104119658470154
1782835397488099800,3.567099853515625,-0.0016602901741862297,1.2815685272216797,0.5859035849571228
1782835397498029800,3.57702978515625,-0.10260826349258423,1.1105921268463135,0.6651367545127869
1782835397507959800,3.586959716796875,-0.22473657131195068,0.7716366648674011,0.9206644296646118
1782835397517889800,3.596889892578125,-0.3453599810600281,0.4726584255695343,1.3177754878997803
1782835397527819500,3.606819580078125,-0.44976627826690674,0.2283208817243576,1.6653732061386108
1782835397537749800,3.616749755859375,-0.5141921043395996,0.0514984168112278,1.85211980342865
1782835397547679700,3.6266796875,-0.5287846326828003,0.0051309168338775635,1.8378633260726929
1782835397557609000,3.63660888671875,-0.5049118995666504,0.07601095736026764,1.606097936630249
1782835397567538700,3.64653857421875,-0.4278637170791626,0.2193625122308731,1.0920157432556152
1782835397577468700,3.65646875,-0.2848658561706543,0.4748390316963196,0.3994135558605194
1782835397587398700,3.666398681640625,-0.09599873423576355,1.007231593132019,-0.17806147038936615
1782835397597328600,3.67632861328125,-0.0032130153849720955,1.3397454023361206,-0.5878554582595825
1782835397607259000,3.6862587890625,0.04063193500041962,0.7335370182991028,-0.9015196561813354
1782835397617188600,3.696188720703125,0.09853382408618927,-0.24513301253318787,-1.0396851301193237
1782835397627118800,3.706118896484375,0.19782286882400513,-0.43012791872024536,-0.8490471839904785
1782835397637048800,3.716048828125,0.32677939534187317,0.09361321479082108,-0.2712874710559845
1782835397646978800,3.725978759765625,0.28123030066490173,0.833122968673706,0.41776391863822937
1782835397656908800,3.73590869140625,-0.07311373949050903,1.3341665267944336,0.8161216378211975
1782835397666838500,3.745838623046875,-0.3108706474304199,1.417358160018921,0.8243361711502075
1782835397676768800,3.755768798828125,-0.1953510046005249,1.070039987564087,0.46674203872680664
1782835397686698800,3.76569873046875,0.05249634385108948,0.7728524804115295,0.005400536581873894
1782835397696628700,3.775628662109375,0.12174750864505768,0.5830878615379333,-0.358652263879776
1782835397706559500,3.7855595703125,0.11601931601762772,0.36205267906188965,-0.5243772864341736
1782835397716488400,3.795488525390625,0.18388861417770386,-0.13961845636367798,-0.5503162145614624
1782835397726418200,3.805418212890625,0.2670189142227173,-1.0161806344985962,-0.5707818269729614
1782835397736348400,3.815348388671875,0.35928258299827576,-1.8816909790039062,-0.6100242733955383
1782835397746278400,3.8252783203125,0.47715887427330017,-2.4897453784942627,-0.675040066242218
1782835397756208400,3.83520849609375,0.4949977993965149,-2.53031063079834,-0.7404825091362
1782835397766138400,3.845138427734375,0.34061887860298157,-1.9898067712783813,-0.7803375124931335
1782835397776068400,3.855068359375,0.06399441510438919,-1.1979721784591675,-0.75411057472229
1782835397785998300,3.864998291015625,-0.2831595540046692,-0.49818241596221924,-0.675521194934845
1782835397795928600,3.874928466796875,-0.6982862949371338,-0.08834729343652725,-0.649601399898529
1782835397805858300,3.8848583984375,-1.036876916885376,0.06090317666530609,-0.7396913766860962
1782835397815788300,3.894788330078125,-1.1785459518432617,-0.03924204781651497,-0.9151686429977417
1782835397825718500,3.904718505859375,-1.050235629081726,-0.3101523816585541,-1.0730056762695312
1782835397835648300,3.914648193359375,-0.6620435118675232,-0.511729896068573,-1.0791040658950806
1782835397845578500,3.92457861328125,-0.16319212317466736,-0.6917540431022644,-0.9112865924835205
1782835397855508200,3.93450830078125,0.2751848101615906,-0.8596196174621582,-0.5879772901535034
1782835397865437200,3.944437255859375,0.5200883150100708,-0.8280057907104492,-0.1817954182624817
1782835397875367400,3.954367431640625,0.5414712429046631,-0.5909644961357117,0.17606960237026215
1782835397885297400,3.96429736328125,0.40975421667099,-0.29224035143852234,0.395281046628952
1782835397895227400,3.974227294921875,0.20408745110034943,-0.09113587439060211,0.4456403851509094
1782835397905157400,3.984157470703125,-0.03147474676370621,-0.025973379611968994,0.3711315393447876
1782835397915087400,3.99408740234375,-0.27613621950149536,-0.038835473358631134,0.2507345676422119
1782835397925017300,4.004017333984375,-0.4790611267089844,-0.07362860441207886,0.13111868500709534
1782835397934947300,4.013947265625,-0.5454489588737488,-0.10966292023658752,0.07168474048376083
1782835397944877300,4.023877197265625,-0.4360441267490387,-0.11957865953445435,0.0454680509865284
1782835397954807300,4.033807373046875,-0.1942834109067917,-0.05781250447034836,0.04586592689156532
1782835397964737500,4.043737548828125,0.09909359365701675,0.036975257098674774,0.10593432933092117
1782835397974667300,4.053667236328125,0.3777927756309509,0.14161722362041473,0.28654465079307556
1782835397984597500,4.063597412109375,0.5329285860061646,0.14576776325702667,0.5250104665756226
1782835397994527200,4.07352734375,0.5156678557395935,0.07100082188844681,0.7055202722549438
1782835398004457500,4.08345751953125,0.4411443769931793,0.0029242979362607002,0.8095108866691589
1782835398014386400,4.093386474609375,0.3963988423347473,-0.071446992456913,0.8235886096954346
1782835398024316400,4.10331640625,0.3910685181617737,-0.11880305409431458,0.7367482781410217
1782835398034246400,4.113246337890625,0.3638421595096588,-0.08974167704582214,0.617045521736145
1782835398044176400,4.12317626953125,0.27475622296333313,-0.02028403803706169,0.5057483315467834
1782835398054106400,4.1331064453125,0.16807956993579865,0.040430307388305664,0.4355402886867523
1782835398064036400,4.143036376953125,0.07997554540634155,0.0734042376279831,0.4224354028701782
1782835398073966300,4.15296630859375,0.05080129951238632,-0.046021632850170135,0.4718383848667145
1782835398083896300,4.162896240234375,0.09879865497350693,-0.22702524065971375,0.617324948310852
1782835398093826300,4.172826416015625,0.13841266930103302,-0.15644042193889618,0.7831191420555115
1782835398103756500,4.182756591796875,0.18617112934589386,0.11614023894071579,0.7738947868347168
1782835398113686300,4.192686279296875,0.23352579772472382,0.11505109071731567,0.47638601064682007
1782835398123616500,4.202616455078125,0.3231251835823059,-0.22504815459251404,0.0062240902334451675
1782835398133546200,4.212546142578125,0.4009091854095459,-0.3445581793785095,-0.35669851303100586
1782835398143476200,4.222476318359375,0.4130915403366089,-0.169245183467865,-0.3782205879688263
1782835398153405400,4.232405517578125,0.42203888297080994,0.03383100777864456,-0.1330290585756302
1782835398163335400,4.24233544921875,0.4081595540046692,0.1995621770620346,0.10725917667150497
1782835398173265400,4.252265380859375,0.3850080966949463,0.4260514974594116,0.19080327451229095
1782835398183195400,4.2621953125,0.4445745050907135,0.9033554792404175,0.16428086161613464
1782835398193125000,4.272125,0.6281632781028748,1.5033090114593506,0.23347008228302002
1782835398203055400,4.282055419921875,0.7934334874153137,1.7395551204681396,0.43259117007255554
1782835398212985300,4.2919853515625,0.8855730295181274,1.4995436668395996,0.6079936027526855
1782835398222915300,4.301915283203125,0.9401776790618896,0.7393344640731812,0.6204100251197815
1782835398232845300,4.31184521484375,1.001570463180542,-0.32930541038513184,0.41741323471069336
1782835398242775600,4.321775634765625,1.0613346099853516,-1.3479701280593872,0.06709516048431396
1782835398252705300,4.331705322265625,1.0140196084976196,-1.9427266120910645,-0.40641385316848755
1782835398262635500,4.341635498046875,0.8890042304992676,-1.8673431873321533,-0.8908140659332275
1782835398272565200,4.351565185546875,0.5645358562469482,-1.370562195777893,-1.353185772895813
1782835398282495200,4.3614951171875,0.14474233984947205,-0.7717155814170837,-1.657062292098999
1782835398292425500,4.371425537109375,-0.2512432038784027,-0.25068899989128113,-1.7266898155212402
1782835398302354400,4.3813544921875,-0.5536211729049683,-0.03668615221977234,-1.5960569381713867
1782835398312284400,4.391284423828125,-0.8144481778144836,-0.026278913021087646,-1.3433518409729004
1782835398322214400,4.40121435546875,-1.035035490989685,-0.12716130912303925,-1.0524462461471558
1782835398332144400,4.411144287109375,-1.1468449831008911,-0.3112306296825409,-0.7766799330711365
1782835398342074400,4.421074462890625,-1.0697344541549683,-0.43299806118011475,-0.5321492552757263
1782835398352004400,4.43100439453125,-0.7774229049682617,-0.45065930485725403,-0.29952964186668396
1782835398361934300,4.440934326171875,-0.3977813124656677,-0.4782531261444092,-0.07304748892784119
1782835398371864300,4.4508642578125,-0.10225217789411545,-0.43769368529319763,0.11559860408306122
1782835398381794600,4.460794677734375,0.01488935574889183,-0.3120577335357666,0.22630301117897034
1782835398391724300,4.470724365234375,-0.049144499003887177,-0.1609635055065155,0.20837628841400146
1782835398401654500,4.480654541015625,-0.2395530492067337,0.005015069618821144,0.08164285123348236
1782835398411584300,4.490584228515625,-0.44320422410964966,0.18957968056201935,-0.0809488594532013
1782835398421514200,4.50051416015625,-0.6123581528663635,0.34630778431892395,-0.21703745424747467
1782835398431444500,4.510444580078125,-0.7114382982254028,0.40328919887542725,-0.269668310880661
1782835398441373400,4.52037353515625,-0.7188725471496582,0.3905699551105499,-0.24110856652259827
1782835398451303400,4.530303466796875,-0.613915741443634,0.43152639269828796,-0.1253860592842102
1782835398461233400,4.5402333984375,-0.4456486999988556,0.5346360206604004,0.0791172906756401
1782835398471163400,4.550163330078125,-0.28949400782585144,0.5521888136863708,0.3181421458721161
1782835398481093400,4.56009326171875,-0.1532014161348343,0.46200302243232727,0.5524715781211853
1782835398491023400,4.5700234375,-0.03676515445113182,0.3842300772666931,0.7528123259544373
1782835398500953300,4.579953369140625,-0.005398710258305073,0.2703109681606293,0.8241413831710815
1782835398510883300,4.58988330078125,-0.017239423468708992,0.11308294534683228,0.7680591344833374
1782835398520813600,4.5998134765625,-0.011226005852222443,0.03655674308538437,0.6594732403755188
1782835398530743300,4.609743408203125,-0.025714341551065445,0.0013757608830928802,0.5285337567329407
1782835398540673300,4.61967333984375,-0.08922062069177628,0.026505080983042717,0.4238899052143097
1782835398550603300,4.629603271484375,-0.17139701545238495,0.29961591958999634,0.4137524962425232
1782835398560533200,4.639533203125,-0.23641622066497803,0.6902387738227844,0.46314936876296997
1782835398570463500,4.64946337890625,-0.2989356815814972,0.9576557874679565,0.4772239923477173
1782835398580392400,4.659392333984375,-0.30627936124801636,0.9249191284179688,0.480158269405365
1782835398590322200,4.669322265625,-0.2317882925271988,0.5983867049217224,0.534728467464447
1782835398600252400,4.67925244140625,-0.15807224810123444,0.12094716727733612,0.589058518409729
1782835398610182400,4.689182373046875,-0.0656408965587616,-0.1874876171350479,0.5893616080284119
1782835398620112400,4.6991123046875,0.03765113279223442,-0.29946818947792053,0.40550684928894043
1782835398630042400,4.70904248046875,0.16202929615974426,-0.39882904291152954,-0.04340669512748718
1782835398639972400,4.718972412109375,0.304499089717865,-0.7574212551116943,-0.6823680400848389
1782835398649902300,4.72890234375,0.45621299743652344,-1.1466578245162964,-1.3684018850326538
1782835398659832600,4.73883251953125,0.6615866422653198,-0.9439908266067505,-1.667399287223816
1782835398669762300,4.74876220703125,0.7974418997764587,0.12096089124679565,-1.232541561126709
1782835398679692300,4.7586923828125,0.7113826274871826,1.44270658493042,-0.28933095932006836
1782835398689622500,4.76862255859375,0.46378645300865173,2.340217113494873,0.6816057562828064
1782835398699552300,4.77855224609375,0.3287524878978729,2.6182663440704346,1.438306212425232
1782835398709482500,4.788482421875,0.3909304738044739,2.2479844093322754,1.8236833810806274
1782835398719411500,4.798411376953125,0.5400171875953674,1.3723584413528442,1.741288661956787
1782835398729341400,4.808341552734375,0.6784186363220215,0.5435678958892822,1.3255980014801025
1782835398739271400,4.818271484375,0.7208457589149475,-0.14207223057746887,0.770710825920105
1782835398749201700,4.82820166015625,0.6561816930770874,-0.7677562236785889,0.22863447666168213
1782835398759131400,4.83813134765625,0.5143675208091736,-1.2136313915252686,-0.271619588136673
1782835398769061600,4.8480615234375,0.2820950746536255,-1.3274712562561035,-0.6608229279518127
1782835398778991400,4.857991455078125,-0.02222779020667076,-1.1065683364868164,-0.9170509576797485
1782835398788921600,4.867921630859375,-0.3626769185066223,-0.9001676440238953,-1.0793942213058472
1782835398798851600,4.8778515625,-0.6695542931556702,-0.9380577802658081,-1.1924206018447876
1782835398808781300,4.88778125,-0.8627513647079468,-1.1249076128005981,-1.2694716453552246
1782835398818711600,4.897711669921875,-0.9174761772155762,-1.2597604990005493,-1.3256441354751587
1782835398828641500,4.9076416015625,-0.8954974412918091,-1.3521029949188232,-1.4081346988677979
1782835398838571500,4.917571533203125,-0.7299609780311584,-1.332520842552185,-1.510939121246338
1782835398848501500,4.92750146484375,-0.4324875473976135,-1.154552936553955,-1.5630381107330322
1782835398858430500,4.937430419921875,-0.1333591639995575,-0.8308387994766235,-1.4765269756317139
1782835398868360400,4.9473603515625,0.008737809024751186,-0.3532602787017822,-1.2011066675186157
1782835398878290400,4.95729052734375,-0.023457679897546768,0.1452386975288391,-0.7863253951072693
1782835398888220700,4.967220703125,-0.1647120863199234,0.47155147790908813,-0.3133496642112732
1782835398898150400,4.977150390625,-0.33346378803253174,0.6007989645004272,0.12311180680990219
1782835398908080600,4.98708056640625,-0.4746617376804352,0.4935556650161743,0.44440793991088867
1782835398918010400,4.99701025390625,-0.571840226650238,0.2882475256919861,0.6212511658668518
1782835398927940600,5.006940673828125,-0.5870287418365479,0.14148949086666107,0.6938454508781433
1782835398937870600,5.01687060546875,-0.5316476821899414,0.06179477274417877,0.7023358941078186
1782835398947800300,5.02680029296875,-0.4341996908187866,-0.08462320268154144,0.6411609053611755
1782835398957730600,5.03673046875,-0.32542338967323303,-0.2550884187221527,0.48738300800323486
1782835398967660500,5.04666064453125,-0.22840791940689087,-0.2344892919063568,0.19503416121006012
1782835398977590500,5.056590576171875,-0.1151181161403656,-0.029024822637438774,-0.18934732675552368
1782835398987519500,5.06651953125,-0.0258463267236948,0.20061790943145752,-0.5458389520645142
1782835398997449500,5.076449462890625,0.014923475682735443,0.37679263949394226,-0.7350791692733765
1782835399007379500,5.08637939453125,-0.010057508945465088,0.3724066913127899,-0.7355375289916992
1782835399017309400,5.096309326171875,-0.07719659805297852,0.19074583053588867,-0.5541719794273376
1782835399027239700,5.10623974609375,-0.1955459862947464,-0.12858223915100098,-0.2269645482301712
1782835399037169400,5.11616943359375,-0.27080878615379333,-0.2900712490081787,0.1961004137992859
1782835399047099600,5.126099609375,-0.28767573833465576,-0.2033805549144745,0.627046525478363
1782835399057029400,5.136029296875,-0.27262645959854126,-0.06921476125717163,0.9581509232521057
1782835399066959400,5.14595947265625,-0.23003152012825012,0.1342799812555313,1.1390275955200195
1782835399076889600,5.1558896484375,-0.15123124420642853,0.49995702505111694,1.2108938694000244
1782835399086819300,5.1658193359375,-0.08215329796075821,0.8777888417243958,1.1780941486358643
1782835399096749600,5.17574951171875,-0.10394834727048874,0.991037130355835,0.9651306867599487
1782835399106679600,5.185679443359375,-0.18784616887569427,0.8670612573623657,0.6224023103713989
1782835399116609500,5.195609619140625,-0.2556707561016083,0.560692310333252,0.25986248254776
1782835399126538500,5.20553857421875,-0.28371259570121765,-0.016649728640913963,-0.10567320883274078
1782835399136468500,5.215468505859375,-0.30031871795654297,-0.6538384556770325,-0.39471912384033203
1782835399146398500,5.2253984375,-0.217094287276268,-0.8606200218200684,-0.5346962213516235
1782835399156328400,5.235328369140625,0.018160313367843628,-0.44767239689826965,-0.4228394329547882
1782835399166258700,5.2452587890625,0.2725050449371338,0.27126678824424744,-0.13176219165325165
1782835399176188400,5.2551884765625,0.3467235863208771,1.013939380645752,0.21562187373638153
1782835399186118700,5.26511865234375,0.20732708275318146,1.5653647184371948,0.47148892283439636
1782835399196048400,5.27504833984375,0.049234915524721146,1.5241118669509888,0.5642609000205994
1782835399205978400,5.284978271484375,0.03935413807630539,0.9346315264701843,0.5589758157730103
1782835399215908600,5.29490869140625,0.09005007147789001,0.1641513705253601,0.43367916345596313
1782835399225838300,5.30483837890625,0.17548221349716187,-0.38801339268684387,0.24521900713443756
1782835399235768600,5.3147685546875,0.2983253300189972,-0.666964054107666,0.03786368668079376
1782835399245698600,5.324698486328125,0.41475626826286316,-0.6693904995918274,-0.12025348842144012
1782835399255624400,5.33462451171875,0.5247917175292969,-0.6145796775817871,-0.12394196540117264
1782835399265554400,5.344554443359375,0.6128914952278137,-0.9019061326980591,-0.048086442053318024
1782835399275484700,5.354484619140625,0.6257007718086243,-1.3557713031768799,-0.028310872614383698
1782835399285414400,5.364414306640625,0.5477110147476196,-1.4820122718811035,-0.1345103681087494
1782835399295343400,5.37434326171875,0.4805929362773895,-1.1579796075820923,-0.2638923227787018
1782835399305273600,5.384273681640625,0.3968883156776428,-0.6621531844139099,-0.36400148272514343
1782835399315203300,5.394203369140625,0.20017550885677338,-0.20680855214595795,-0.4903351962566376
1782835399325133600,5.404133544921875,-0.0803891271352768,0.05391590669751167,-0.6013423800468445
1782835399335063600,5.4140634765625,-0.37169045209884644,0.09172321110963821,-0.6703898906707764
1782835399344993500,5.42399365234375,-0.6080365777015686,-0.07487847656011581,-0.7449418902397156
1782835399354923500,5.433923583984375,-0.6525909900665283,-0.3918710947036743,-0.7723397016525269
1782835399364853500,5.443853515625,-0.4376600384712219,-0.610871434211731,-0.6778119802474976
1782835399374783500,5.453783447265625,-0.07708586752414703,-0.7394688129425049,-0.4443065822124481
1782835399384713500,5.46371337890625,0.31008845567703247,-0.7799500226974487,-0.09367486834526062
1782835399394643500,5.4736435546875,0.577770471572876,-0.7306399941444397,0.3033478558063507
1782835399404573400,5.483573486328125,0.6390678882598877,-0.6119692325592041,0.6523575186729431
1782835399414503700,5.493503662109375,0.49639275670051575,-0.43312013149261475,0.8342394232749939
1782835399424432600,5.5034326171875,0.2725144624710083,-0.30622485280036926,0.8167474269866943
1782835399434362400,5.5133623046875,0.03855522722005844,-0.23145101964473724,0.5895504951477051
1782835399444292600,5.523292724609375,-0.12372060120105743,-0.18146446347236633,0.21537819504737854
1782835399454222300,5.533222412109375,-0.21859492361545563,-0.11060679703950882,-0.1878289133310318
1782835399464152600,5.543152587890625,-0.27923068404197693,-0.07842365652322769,-0.5203374028205872
1782835399474082600,5.55308251953125,-0.3006467819213867,-0.08644776046276093,-0.6897831559181213
1782835399484012500,5.563012451171875,-0.2793346047401428,0.005336037836968899,-0.6404404640197754
1782835399493942500,5.572942626953125,-0.20195087790489197,0.16746234893798828,-0.39476120471954346
1782835399503872500,5.58287255859375,-0.08557547628879547,0.3658236563205719,-0.007103252690285444
1782835399513802500,5.592802490234375,0.04307277500629425,0.5704444050788879,0.4522970914840698
1782835399523732500,5.602732421875,0.1334264576435089,0.6514514088630676,0.9205143451690674
1782835399533662500,5.612662353515625,0.17007634043693542,0.487894743680954,1.3127778768539429
1782835399543592400,5.622592529296875,0.13987873494625092,0.17942681908607483,1.5543893575668335
1782835399553521400,5.632521484375,0.0465804785490036,-0.107073113322258,1.5472174882888794
1782835399563451600,5.64245166015625,-0.05351454019546509,-0.20728427171707153,1.306931972503662
1782835399573381400,5.65238134765625,-0.19729648530483246,-0.07184149324893951,0.8812475204467773
1782835399583311600,5.6623115234375,-0.33846500515937805,0.17539796233177185,0.38349395990371704
1782835399593241300,5.672241455078125,-0.4307589828968048,0.5153738856315613,-0.06636827439069748
1782835399603171600,5.682171630859375,-0.487568199634552,0.7713377475738525,-0.38267961144447327
1782835399613101600,5.6921015625,-0.47516053915023804,0.8251831531524658,-0.4604308605194092
1782835399623031300,5.70203125,-0.4043165147304535,0.8582837581634521,-0.24836288392543793
1782835399632961500,5.71196142578125,-0.3645879924297333,0.752358078956604,0.16502656042575836
1782835399642891500,5.7218916015625,-0.3956739008426666,0.4213160276412964,0.6276553869247437
1782835399652821500,5.731821533203125,-0.41229814291000366,0.16619107127189636,1.020938754081726
1782835399662751500,5.74175146484375,-0.3233638107776642,0.14109264314174652,1.2691237926483154
1782835399672681500,5.751681396484375,-0.12007755041122437,0.10466326773166656,1.3017328977584839
1782835399682610400,5.7616103515625,0.07110024988651276,-0.17886507511138916,1.0513713359832764
1782835399692540400,5.77154052734375,0.22138376533985138,-0.4707930386066437,0.5724417567253113
1782835399702470700,5.781470703125,0.33630114793777466,-0.5537319779396057,0.018815018236637115
1782835399712400000,5.79139990234375,0.30228936672210693,-0.4698501527309418,-0.5716709494590759
1782835399722329900,5.801329833984375,0.06831321120262146,-0.3954141139984131,-1.1551231145858765
1782835399732259800,5.811259765625,-0.2502080500125885,-0.24459533393383026,-1.5321747064590454
1782835399742189800,5.82118994140625,-0.5070381164550781,-0.0907912477850914,-1.4748127460479736
1782835399752119800,5.831119873046875,-0.6878063082695007,0.21658948063850403,-0.9198120832443237
1782835399762049800,5.8410498046875,-0.8906581401824951,0.5211440920829773,-0.2372647225856781
1782835399771979800,5.850979736328125,-0.8740471601486206,0.4926080107688904,0.20677423477172852
1782835399781910000,5.860909912109375,-0.4834344685077667,0.1421622484922409,0.3413494825363159
1782835399791839700,5.87083984375,0.07494891434907913,-0.28507617115974426,0.3118099570274353
1782835399801770000,5.88077001953125,0.526582658290863,-0.7322978377342224,0.2784568667411804
1782835399811699000,5.890698974609375,0.7869628667831421,-1.3743960857391357,0.16767151653766632
1782835399821629000,5.90062890625,0.9247375130653381,-1.8191907405853271,0.02091119810938835
1782835399831559000,5.910558837890625,0.8147239089012146,-1.8353137969970703,-0.24145251512527466
1782835399841489000,5.920489013671875,0.4007880389690399,-1.5910005569458008,-0.7276977896690369
1782835399851419000,5.9304189453125,-0.2402758151292801,-1.1801973581314087,-1.497342586517334
1782835399861348900,5.940348876953125,-0.8180463314056396,-0.6253740191459656,-2.2955946922302246
1782835399871278800,5.95027880859375,-1.1776881217956543,-0.0075941733084619045,-2.8024628162384033
1782835399881208800,5.960208740234375,-1.2937941551208496,0.4126540720462799,-2.8809025287628174
1782835399891138800,5.970138916015625,-1.1350188255310059,0.4228566586971283,-2.4994125366210938
1782835399901068800,5.98006884765625,-0.8039872646331787,0.12399258464574814,-1.79216730594635
1782835399910998800,5.989998779296875,-0.43884024024009705,-0.22880728542804718,-0.9494810104370117
1782835399920929000,5.999928955078125,-0.1567087173461914,-0.3996751606464386,-0.14280101656913757
1782835399930858800,6.009858642578125,-0.0156559981405735,-0.47712838649749756,0.493643581867218
1782835399940787700,6.01978759765625,-0.042929891496896744,-0.4565567076206207,0.857356607913971
1782835399950718000,6.029718017578125,-0.2025405913591385,-0.3681948781013489,0.9037416577339172
1782835399960648000,6.03964794921875,-0.44493597745895386,-0.22364366054534912,0.5857517123222351
1782835399970578000,6.049577880859375,-0.6496545672416687,-0.02828109636902809,0.036071255803108215
1782835399980508000,6.0595078125,-0.7883048057556152,0.1831483244895935,-0.5099212527275085
1782835399990438000,6.06943798828125,-0.8505405187606812,0.30779731273651123,-0.8675521016120911
1782835400000367900,6.079367919921875,-0.8296934366226196,0.3216255009174347,-0.9668496251106262
1782835400010297900,6.0892978515625,-0.6335955858230591,0.24792331457138062,-0.7166062593460083
1782835400020227800,6.099227783203125,-0.3322353661060333,0.18544794619083405,-0.16540588438510895
1782835400030157800,6.10915771484375,-0.1236262321472168,0.07129339873790741,0.49049022793769836
1782835400040088000,6.119088134765625,-0.0084373839199543,-0.07229026407003403,1.127922534942627
1782835400050017800,6.129017822265625,0.10263001173734665,-0.1591697633266449,1.6841789484024048
1782835400059946800,6.13894677734375,0.1397252082824707,-0.07393375039100647,2.0272374153137207
1782835400069877000,6.148876953125,0.0765872374176979,0.05516963452100754,2.0798721313476562
1782835400079806700,6.158806640625,-0.037615977227687836,0.06347116827964783,1.7977195978164673
1782835400089737000,6.168737060546875,-0.13553482294082642,0.05180571973323822,1.271070957183838
1782835400099667000,6.1786669921875,-0.22328440845012665,0.22594521939754486,0.7034187316894531
1782835400109597000,6.188596923828125,-0.32735514640808105,0.53641277551651,0.2210869938135147
1782835400119527000,6.19852685546875,-0.39854538440704346,0.7009784579277039,-0.09394413977861404
1782835400129456600,6.20845654296875,-0.41273975372314453,0.5060095191001892,-0.2181537002325058
1782835400139387000,6.218386962890625,-0.3247341811656952,0.11441881954669952,-0.13985826075077057
1782835400149316900,6.22831689453125,-0.11149566620588303,-0.1836882382631302,0.16239453852176666
1782835400159246800,6.238246826171875,0.10467048734426498,-0.2843298017978668,0.6517592668533325
1782835400169176800,6.2481767578125,0.2702178955078125,-0.2060621678829193,1.1673589944839478
1782835400179107000,6.258107177734375,0.3504924476146698,-0.12960250675678253,1.4926189184188843
1782835400189035800,6.268035888671875,0.4007830321788788,-0.21090534329414368,1.4875035285949707
1782835400198965800,6.2779658203125,0.37013372778892517,-0.2009267359972,1.0414384603500366
1782835400208896000,6.28789599609375,0.25242385268211365,0.02243044227361679,0.3168131113052368
1782835400218825700,6.29782568359375,0.11640811711549759,0.48055127263069153,-0.24234923720359802
1782835400228756000,6.307755859375,-0.014765085652470589,0.8379874229431152,-0.39218294620513916
1782835400238686000,6.31768603515625,-0.14951229095458984,0.9934611916542053,-0.20587216317653656
1782835400248616000,6.327615966796875,-0.22923241555690765,1.0977833271026611,0.14074543118476868
1782835400258546000,6.3375458984375,-0.07992064207792282,1.0520833730697632,0.4283158481121063
1782835400268475600,6.3474755859375,0.23710206151008606,0.8072496652603149,0.610605776309967
1782835400278406000,6.357406005859375,0.49240460991859436,0.4164813756942749,0.8013126254081726
1782835400288336000,6.3673359375,0.6114233732223511,0.10110799968242645,1.0146996974945068
1782835400298265900,6.377265869140625,0.6848733425140381,-0.2129400074481964,1.1876057386398315
1782835400308194800,6.38719482421875,0.7078721523284912,-0.6467077136039734,1.1198816299438477
1782835400318124800,6.397124755859375,0.7117273807525635,-1.173482060432434,0.7504439949989319
1782835400328054800,6.4070546875,0.5566432476043701,-1.6646089553833008,0.16705648601055145
1782835400337984800,6.41698486328125,0.27967679500579834,-1.7735506296157837,-0.48402053117752075
1782835400347915000,6.4269150390625,-0.034223612397909164,-1.451263666152954,-1.0184540748596191
1782835400357844700,6.4368447265625,-0.32520416378974915,-0.9440004825592041,-1.2900991439819336
1782835400367775000,6.44677490234375,-0.5565189123153687,-0.5186122059822083,-1.3616769313812256
1782835400377705000,6.456705078125,-0.7103059887886047,-0.17850074172019958,-1.3475561141967773
1782835400387634700,6.466634765625,-0.7509165406227112,0.11156728863716125,-1.2611961364746094
1782835400397565000,6.47656494140625,-0.7259262800216675,0.2550654411315918,-1.0772030353546143
1782835400407494700,6.48649462890625,-0.6853631734848022,0.23754049837589264,-0.8503462672233582
1782835400417425000,6.4964248046875,-0.639571487903595,0.01894545555114746,-0.6442216634750366
1782835400427353900,6.506353759765625,-0.5490277409553528,-0.3128809630870819,-0.4849454462528229
1782835400437283800,6.516283935546875,-0.4188450872898102,-0.5196300148963928,-0.41195574402809143
1782835400447213800,6.5262138671875,-0.3105226159095764,-0.48543214797973633,-0.43646082282066345
1782835400457143800,6.536143798828125,-0.22095777094364166,-0.2998746335506439,-0.5045987367630005
1782835400467073800,6.54607373046875,-0.18272890150547028,-0.13695122301578522,-0.5423541069030762
1782835400477003800,6.556003662109375,-0.2327357977628708,-0.06972449272871017,-0.5195878744125366
1782835400486934000,6.56593408203125,-0.32047736644744873,-0.046079352498054504,-0.4065278470516205
1782835400496863700,6.57586376953125,-0.3817306458950043,-0.11804039776325226,-0.24239882826805115
1782835400506794000,6.5857939453125,-0.4001733064651489,-0.2213420271873474,-0.09978654235601425
1782835400516724000,6.595723876953125,-0.38818883895874023,-0.28727447986602783,0.01769181340932846
1782835400526653700,6.60565380859375,-0.36702391505241394,-0.28497910499572754,0.1480599343776703
1782835400536584000,6.615583984375,-0.34884077310562134,-0.12830020487308502,0.2716814875602722
1782835400546513000,6.625512939453125,-0.2988564372062683,0.10163340717554092,0.31443774700164795
1782835400556443000,6.63544287109375,-0.21987013518810272,0.27356380224227905,0.27146443724632263
1782835400566372900,6.645372802734375,-0.14942233264446259,0.3217105567455292,0.18238887190818787
1782835400576302800,6.655302734375,-0.11121461540460587,0.3068191409111023,0.09412675350904465
1782835400586232800,6.66523291015625,-0.10978689789772034,0.24779978394508362,0.02787236124277115
1782835400596162800,6.675162841796875,-0.15596847236156464,0.1981005072593689,-0.04690539836883545
1782835400606093000,6.685093017578125,-0.22817423939704895,0.2200271189212799,-0.10195933282375336
1782835400616022800,6.695022705078125,-0.2967243194580078,0.2524062693119049,-0.11589276790618896
1782835400625953000,6.704953125,-0.3661089837551117,0.20597003400325775,-0.0637107864022255
1782835400635882800,6.7148828125,-0.44687288999557495,0.08743591606616974,0.03621826320886612
1782835400645812700,6.724812744140625,-0.49893370270729065,0.060102030634880066,0.14560867846012115
1782835400655743000,6.734742919921875,-0.46856817603111267,0.20208710432052612,0.20301368832588196
1782835400665672000,6.744671875,-0.35675162076950073,0.4672040045261383,0.13986800611019135
1782835400675602000,6.754601806640625,-0.18129576742649078,0.6674609184265137,-0.020996157079935074
1782835400685532000,6.764531982421875,-0.0029500024393200874,0.6950365900993347,-0.2343750149011612
1782835400695461600,6.774461669921875,0.10014915466308594,0.4921877682209015,-0.4189382493495941
1782835400705391900,6.784391845703125,0.13911493122577667,0.24023886024951935,-0.5263683199882507
1782835400715326000,6.794325927734375,0.1785866767168045,0.07322605699300766,-0.5383358597755432
1782835400725256000,6.804255859375,0.230813667178154,-0.06581518799066544,-0.4079205393791199
1782835400735186200,6.814186279296875,0.17176012694835663,-0.045670583844184875,-0.1655748039484024
1782835400745116000,6.824115966796875,-0.06897632777690887,0.14382104575634003,0.08767983317375183
1782835400755046000,6.8340458984375,-0.31797462701797485,0.44510021805763245,0.287621408700943
1782835400764976000,6.84397607421875,-0.383411705493927,0.8360122442245483,0.4704594016075134
1782835400774905900,6.85390576171875,-0.3450377285480499,1.0922921895980835,0.6300850510597229
1782835400784835000,6.8638349609375,-0.30568474531173706,1.2431232929229736,0.7132946848869324
1782835400794765000,6.87376513671875,-0.3170461654663086,1.282706618309021,0.5342302918434143
1782835400804694800,6.88369482421875,-0.22723187506198883,1.0881741046905518,0.08942216634750366
1782835400814625000,6.893625,0.06961776316165924,0.8905901908874512,-0.26766085624694824
1782835400824555000,6.903554931640625,0.3637971878051758,0.483594685792923,-0.3255563974380493
1782835400834485000,6.913485107421875,0.5007190704345703,-0.2732960283756256,-0.16267725825309753
1782835400844415000,6.9234150390625,0.521898627281189,-1.0454082489013672,0.03834240883588791
1782835400854345000,6.933344970703125,0.49282020330429077,-1.54209566116333,0.07365463674068451
1782835400864275000,6.94327490234375,0.43565839529037476,-1.5456608533859253,-0.0701771005988121
1782835400874205000,6.953204833984375,0.3411830961704254,-1.0280309915542603,-0.25388920307159424
1782835400884135000,6.963135009765625,0.20441246032714844,-0.31379273533821106,-0.3444600999355316
1782835400894065000,6.97306494140625,0.06478047370910645,0.3313620090484619,-0.23243367671966553
1782835400903994000,6.982994140625,-0.06058650091290474,0.6962867379188538,-0.004514231812208891
1782835400913924000,6.992924072265625,-0.14284388720989227,0.6780982613563538,0.25974851846694946
1782835400923853800,7.002853759765625,-0.22784000635147095,0.2961503863334656,0.44038382172584534
1782835400933784000,7.0127841796875,-0.3123072683811188,-0.34045255184173584,0.42747384309768677
1782835400943713800,7.0227138671875,-0.2986553907394409,-0.9533016085624695,0.1893100142478943
1782835400953644000,7.03264404296875,-0.1673700213432312,-1.2480206489562988,-0.20808832347393036
1782835400963574000,7.042573974609375,0.040889445692300797,-1.2311985492706299,-0.6914718151092529
1782835400973504000,7.05250390625,0.23543250560760498,-1.0306954383850098,-1.1016740798950195
1782835400983434000,7.06243408203125,0.3390057682991028,-0.7162097096443176,-1.3575791120529175
1782835400993364000,7.072364013671875,0.34856167435646057,-0.29000431299209595,-1.358150839805603
1782835401003294000,7.0822939453125,0.24672693014144897,0.23457768559455872,-1.105391025543213
1782835401013224000,7.092223876953125,0.05861824378371239,0.614790141582489,-0.6624677181243896
1782835401023153200,7.102153076171875,-0.160140722990036,0.7088322639465332,-0.10705031454563141
1782835401033083000,7.112082763671875,-0.29293200373649597,0.657517671585083,0.4863227307796478
1782835401043013000,7.12201318359375,-0.35266566276550293,0.47898226976394653,1.0109810829162598
1782835401052943000,7.131943115234375,-0.39453065395355225,0.24002256989479065,1.3299716711044312
1782835401062872800,7.141872802734375,-0.3456195592880249,0.050090715289115906,1.36590576171875
1782835401072803000,7.151802978515625,-0.14652563631534576,-0.004632257856428623,1.139417052268982
1782835401082732800,7.16173291015625,0.12392929196357727,0.12471694499254227,0.7412281036376953
1782835401092663000,7.1716630859375,0.3729308247566223,0.3693140149116516,0.30995672941207886
1782835401102593000,7.181593017578125,0.49082043766975403,0.5853627324104309,-0.07699446380138397
1782835401112523000,7.19152294921875,0.5145756006240845,0.6551474928855896,-0.340008407831192
1782835401122453000,7.201452880859375,0.44686442613601685,0.5402203798294067,-0.4612456262111664
1782835401132383200,7.21138330078125,0.2959793508052826,0.3335728049278259,-0.4394853413105011
1782835401142312000,7.22131201171875,0.1862209290266037,0.23015372455120087,-0.2122820019721985
1782835401152242000,7.231241943359375,0.126338392496109,0.2852613031864166,0.15720516443252563
1782835401162172200,7.241172119140625,0.09761273860931396,0.3148801922798157,0.5642293691635132
1782835401172102000,7.251101806640625,0.07124170660972595,0.23241069912910461,0.8773733973503113
1782835401182032100,7.2610322265625,0.08862122148275375,0.1585410088300705,1.0168039798736572
1782835401191962000,7.270962158203125,0.13422739505767822,0.2861294150352478,0.987604022026062
1782835401201891800,7.280891845703125,0.10647325962781906,0.5114112496376038,0.8103421926498413
1782835401211822000,7.290822021484375,0.013452814891934395,0.6290132999420166,0.5163904428482056
1782835401221751800,7.300751708984375,-0.036184243857860565,0.6355534791946411,0.21229258179664612
1782835401231682000,7.31068212890625,-0.012405323795974255,0.5647938251495361,0.047306500375270844
1782835401241612000,7.320612060546875,-0.020120233297348022,0.42901045083999634,-0.004958034493029118
1782835401251542000,7.3305419921875,-0.10959376394748688,0.1523890644311905,-0.07457584142684937
1782835401261471000,7.340470947265625,-0.1781611144542694,-0.22250919044017792,-0.19298212230205536
1782835401271401000,7.35040087890625,-0.119612917304039,-0.6363937854766846,-0.23271162807941437
1782835401281331000,7.3603310546875,0.03342802822589874,-0.8232624530792236,-0.07605144381523132
1782835401291261000,7.370260986328125,0.2012375444173813,-0.8747696876525879,0.2704257369041443
1782835401301191200,7.380191162109375,0.1977117955684662,-0.7110225558280945,0.6376716494560242
1782835401311121000,7.390120849609375,0.06965439766645432,-0.06374231725931168,0.8423758745193481
1782835401321051000,7.40005078125,-0.0643281638622284,0.9158258438110352,0.8047792315483093
1782835401330981000,7.409981201171875,-0.23684199154376984,1.631024956703186,0.4310222566127777
1782835401340910800,7.419910888671875,-0.37399235367774963,1.819394588470459,-0.04356822371482849
1782835401350841000,7.429841064453125,-0.4077065587043762,1.341992735862732,-0.39531052112579346
1782835401360770800,7.439770751953125,-0.3159297704696655,0.24579066038131714,-0.6114025712013245
1782835401370701000,7.449701171875,-0.10714200884103775,-1.07191002368927,-0.7495372891426086
1782835401380630000,7.459630126953125,0.13120104372501373,-1.9810384511947632,-0.8473911285400391
1782835401390560000,7.46956005859375,0.27711984515190125,-2.2622218132019043,-0.8592441082000732
1782835401400490000,7.479489990234375,0.4115125238895416,-2.0165774822235107,-0.7002672553062439
1782835401410420000,7.489419921875,0.44874686002731323,-1.5074480772018433,-0.3941197395324707
1782835401420350000,7.499349853515625,0.3577365279197693,-0.9815800189971924,-0.0270322747528553
1782835401430280000,7.509280029296875,0.13147884607315063,-0.578277587890625,0.23004215955734253
1782835401440210200,7.519210205078125,-0.22001074254512787,-0.4188767969608307,0.17672434449195862
1782835401450140000,7.529139892578125,-0.5616625547409058,-0.4385598599910736,-0.1783594787120819
1782835401460070000,7.53906982421875,-0.7631498575210571,-0.4474545419216156,-0.6835057139396667
1782835401470000000,7.549000244140625,-0.782349169254303,-0.3669045865535736,-1.1289477348327637
1782835401479929900,7.558929931640625,-0.6615315675735474,-0.32307013869285583,-1.3550703525543213
1782835401489859000,7.568859130859375,-0.44698628783226013,-0.3482770323753357,-1.2665449380874634
1782835401499789000,7.5787890625,-0.26477867364883423,-0.38763588666915894,-0.9954856634140015
1782835401509718800,7.58871875,-0.1546134203672409,-0.37215787172317505,-0.6525548696517944
1782835401519649000,7.59864892578125,-0.10985980182886124,-0.3053322434425354,-0.3264486789703369
1782835401529579000,7.6085791015625,-0.11106646060943604,-0.255049467086792,-0.04555504024028778
1782835401539509000,7.618509033203125,-0.11849081516265869,-0.2789124846458435,0.2272956669330597
1782835401549439000,7.62843896484375,-0.15493065118789673,-0.319954514503479,0.48568055033683777
1782835401559369000,7.638368896484375,-0.2294432371854782,-0.33415156602859497,0.6174401640892029
1782835401569299000,7.648298828125,-0.3034757971763611,-0.3312196433544159,0.5426761507987976
1782835401579229000,7.65822900390625,-0.3799170255661011,-0.2977016568183899,0.216661274433136
1782835401589159000,7.668158935546875,-0.4357800781726837,-0.18237844109535217,-0.25305551290512085
1782835401599089000,7.6780888671875,-0.4313794672489166,0.06244196370244026,-0.6409939527511597
1782835401609019100,7.68801904296875,-0.3746901750564575,0.37988531589508057,-0.8181085586547852
1782835401618948000,7.697947998046875,-0.2843637466430664,0.5260907411575317,-0.7834296822547913
1782835401628877800,7.7078779296875,-0.1859181523323059,0.41845738887786865,-0.571014940738678
1782835401638808000,7.71780810546875,-0.10216467827558517,0.19761395454406738,-0.21693941950798035
1782835401648737800,7.72773779296875,-0.025733843445777893,0.03512129932641983,0.2233627885580063
1782835401658668000,7.73766796875,0.0034317653626203537,-0.06451821327209473,0.6735895872116089
1782835401668598000,7.747597900390625,-0.03166677802801132,-0.14345674216747284,1.0190457105636597
1782835401678528000,7.757528076171875,-0.056076779961586,-0.10814482718706131,1.2573336362838745
1782835401688458000,7.7674580078125,-0.058203499764204025,0.1111510694026947,1.3926820755004883
1782835401698388200,7.77738818359375,-0.06281928718090057,0.39586907625198364,1.4360026121139526
1782835401708318000,7.78731787109375,-0.13344840705394745,0.6229587197303772,1.3426744937896729
1782835401718243800,7.797243896484375,-0.2348509281873703,0.7303935289382935,1.081060767173767
1782835401728174000,7.807174072265625,-0.31637042760849,0.7119224071502686,0.6971108913421631
1782835401738103000,7.81710302734375,-0.34183236956596375,0.5196301937103271,0.2672939896583557
1782835401748032800,7.82703271484375,-0.2859678268432617,0.15997861325740814,-0.09513956308364868
1782835401757963000,7.836962890625,-0.09798620641231537,-0.21849465370178223,-0.3107869029045105
1782835401767892700,7.846892822265625,0.14099468290805817,-0.4131387770175934,-0.33956581354141235
1782835401777823000,7.856822998046875,0.2901167869567871,-0.3022751212120056,-0.1865629404783249
1782835401787753000,7.8667529296875,0.1859213411808014,0.06825920939445496,0.13531705737113953
1782835401797683000,7.876682861328125,-0.12894898653030396,0.4984603822231293,0.6074782013893127
1782835401807613000,7.886613037109375,-0.45726093649864197,0.7567680478096008,1.1043202877044678
1782835401817543000,7.89654296875,-0.6029387712478638,0.9922162294387817,1.4793529510498047
1782835401827473000,7.906472900390625,-0.46417003870010376,1.0894111394882202,1.5738496780395508
1782835401837403000,7.91640283203125,-0.1567525863647461,1.077475666999817,1.3210967779159546
1782835401847332900,7.926332763671875,0.16494929790496826,1.1109579801559448,0.8551673889160156
1782835401857261800,7.93626171875,0.4561159014701843,0.9738749265670776,0.4015897810459137
1782835401867191800,7.94619189453125,0.7127513885498047,0.633965015411377,0.17683100700378418
1782835401877122000,7.9561220703125,0.8977009654045105,0.15221543610095978,0.19076094031333923
1782835401887051800,7.9660517578125,0.9942368268966675,-0.597489058971405,0.2076672911643982
1782835401896982000,7.97598193359375,1.0562472343444824,-1.3662129640579224,0.10362983494997025
1782835401906911700,7.985911865234375,0.9745810031890869,-1.7462210655212402,-0.2837252616882324
1782835401916842000,7.995842041015625,0.7530691027641296,-1.5519732236862183,-0.7695651650428772
1782835401926772000,8.00577197265625,0.37479928135871887,-0.7888096570968628,-1.064233422279358
1782835401936702000,8.015701904296876,-0.11789722740650177,0.10867113620042801,-1.1620843410491943
1782835401946632000,8.0256318359375,-0.5913549661636353,0.7673588395118713,-1.1889944076538086
1782835401956562000,8.03556201171875,-0.9617018699645996,1.0628384351730347,-1.1759260892868042
1782835401966492000,8.045491943359375,-1.146561861038208,0.9070811867713928,-1.1811707019805908
1782835401976420900,8.0554208984375,-1.0913598537445068,0.28032729029655457,-1.1942518949508667
1782835401986351000,8.06535107421875,-0.7611076831817627,-0.5764973163604736,-1.1637699604034424
1782835401996280800,8.07528076171875,-0.24401286244392395,-1.4193366765975952,-1.0247516632080078
1782835402006210800,8.0852109375,0.2526761591434479,-1.9081252813339233,-0.7994832992553711
1782835402016141000,8.09514111328125,0.6261909008026123,-1.8862104415893555,-0.5025336146354675
1782835402026070800,8.10507080078125,0.7671992778778076,-1.4922945499420166,-0.20521961152553558
1782835402036001000,8.1150009765625,0.5796523094177246,-0.868590772151947,0.007839938625693321
1782835402045930800,8.1249306640625,0.16360965371131897,-0.20831707119941711,0.09557166695594788
1782835402055861000,8.134861083984376,-0.30985644459724426,0.3268962800502777,0.08074717968702316
1782835402065791000,8.144791015625,-0.6570847630500793,0.6677159070968628,0.0556621216237545
1782835402075721000,8.154720947265625,-0.8356337547302246,0.8098863959312439,0.05720994994044304
1782835402085651000,8.16465087890625,-0.897031307220459,0.7000299096107483,0.07427293062210083
1782835402095580000,8.174579833984374,-0.8283199071884155,0.34922611713409424,0.13322944939136505
1782835402105510000,8.184510009765624,-0.6460866332054138,-0.10246547311544418,0.16894708573818207
1782835402115439900,8.19443994140625,-0.36710986495018005,-0.47499164938926697,0.15987847745418549
1782835402125370000,8.2043701171875,-0.06174156442284584,-0.4806594252586365,0.1368720531463623
1782835402135299800,8.2142998046875,0.1407897025346756,-0.2675314247608185,0.11240345984697342
1782835402145229800,8.224229736328125,0.15810057520866394,-0.07744068652391434,0.042392298579216
1782835402155160000,8.23416015625,0.02366686798632145,0.04890500381588936,-0.03333868086338043
1782835402165089800,8.24408984375,-0.16967535018920898,0.12055793404579163,-0.04288271442055702
1782835402175020000,8.25402001953125,-0.4043158292770386,0.1522120088338852,0.022314131259918213
1782835402184949800,8.26394970703125,-0.6252127885818481,0.18857517838478088,0.10433689504861832
1782835402194880000,8.2738798828125,-0.7654183506965637,0.2541597783565521,0.20416122674942017
1782835402204810000,8.28381005859375,-0.8018736243247986,0.32897859811782837,0.32371005415916443
1782835402214739000,8.293739013671875,-0.7409945130348206,0.44580426812171936,0.4674272835254669
1782835402224669000,8.3036689453125,-0.611295759677887,0.5662481784820557,0.5585024952888489
1782835402234599000,8.313598876953124,-0.41827306151390076,0.6944407224655151,0.5755999684333801
1782835402244529000,8.32352880859375,-0.22270303964614868,0.7827730178833008,0.5253732800483704
1782835402254459000,8.333458984375,-0.09376928955316544,0.6877151727676392,0.413326621055603
1782835402264388900,8.343388916015625,-0.04873033985495567,0.43381258845329285,0.27793776988983154
1782835402274318800,8.35331884765625,-0.15713004767894745,0.06473387032747269,0.1432366818189621
1782835402284248800,8.363248779296875,-0.32045242190361023,-0.22887909412384033,0.027841653674840927
1782835402294179000,8.373178955078124,-0.42938289046287537,-0.16490039229393005,-0.06048714369535446
1782835402304108800,8.38310888671875,-0.42750945687294006,0.06500887870788574,-0.07826456427574158
1782835402314039000,8.3930390625,-0.31241029500961304,0.37522557377815247,-0.042386189103126526
1782835402323968800,8.40296875,-0.1351543664932251,0.5357512831687927,0.030839506536722183
1782835402333897700,8.412897705078125,-0.0024186884984374046,0.5152379870414734,0.10736037790775299
1782835402343828000,8.422827880859375,0.05860108137130737,0.39409399032592773,0.10035063326358795
1782835402353758000,8.432758056640624,0.054987967014312744,0.4673519730567932,-0.019192013889551163
1782835402363688000,8.44268798828125,0.020900247618556023,0.63404780626297,-0.11669767647981644
1782835402373618000,8.452617919921876,-0.008821428753435612,0.5729913711547852,-0.0985703393816948
1782835402383548000,8.4625478515625,-0.058162108063697815,0.34656694531440735,-0.03775312379002571
1782835402393478000,8.472477783203125,-0.10196071863174438,0.3040841817855835,-0.0272781141102314
1782835402403408000,8.482407958984375,-0.06509298086166382,0.7107552289962769,-0.03161560371518135
1782835402413337900,8.492337890625,0.023484017699956894,1.1567600965499878,0.0004547145217657089
1782835402423267800,8.502267822265624,0.13337868452072144,1.1110081672668457,0.06191825121641159
1782835402433198000,8.512197998046876,0.28393039107322693,0.2524431347846985,0.10373334586620331
1782835402443127800,8.5221279296875,0.4149012267589569,-0.8752173185348511,0.01974547654390335
1782835402453056800,8.532056884765625,0.5445846319198608,-1.4863896369934082,-0.175472229719162
1782835402462987000,8.541987060546875,0.6357635259628296,-1.6556929349899292,-0.3808639347553253
1782835402472916700,8.551916748046875,0.6425050497055054,-1.5738472938537598,-0.5720735788345337
1782835402482847000,8.561846923828124,0.5560554265975952,-1.2937417030334473,-0.7362909913063049
1782835402492777000,8.57177685546875,0.45099613070487976,-0.8554118275642395,-0.8562746644020081
1782835402502707000,8.58170703125,0.32091453671455383,-0.40155068039894104,-0.9754469394683838
1782835402512637000,8.591636962890625,0.2098572701215744,-0.09884591400623322,-1.0734919309616089
1782835402522567000,8.60156689453125,0.115305595099926,-0.005094185471534729,-1.1024284362792969
1782835402532497000,8.611496826171875,0.06083516404032707,-0.09356572479009628,-1.027767539024353
1782835402542427000,8.621427001953125,0.022508321329951286,-0.2852153182029724,-0.8770297765731812
1782835402552356900,8.63135693359375,-0.005683101713657379,-0.4545478820800781,-0.6877309679985046
1782835402562286800,8.641286865234376,0.017862481996417046,-0.5273362994194031,-0.4806075990200043
1782835402572215800,8.6512158203125,0.07893303036689758,-0.4942089915275574,-0.2858594059944153
1782835402582146000,8.66114599609375,0.1397915631532669,-0.3582931160926819,-0.14799121022224426
1782835402592075800,8.67107568359375,0.20396788418293,-0.1945025771856308,-0.07413455098867416
1782835402602006000,8.681006103515625,0.21546566486358643,-0.06889233738183975,-0.06489577144384384
1782835402611935700,8.690935791015624,0.19943450391292572,-0.003239821642637253,-0.08806554228067398
1782835402621866000,8.700865966796876,0.12661783397197723,0.012786469422280788,-0.1568566858768463
1782835402631796000,8.7107958984375,-0.00003705080598592758,-0.016265688464045525,-0.24821190536022186
1782835402641726000,8.720725830078125,-0.09937846660614014,-0.010483939200639725,-0.3095914125442505
1782835402651656000,8.730656005859375,-0.16589677333831787,0.09015105664730072,-0.2837766110897064
1782835402661586000,8.7405859375,-0.21602599322795868,0.2236492782831192,-0.17987674474716187
1782835402671516000,8.750515869140624,-0.21873070299625397,0.24492579698562622,-0.006565675139427185
1782835402681446000,8.76044580078125,-0.14698252081871033,0.2299555391073227,0.2245577573776245
1782835402691375000,8.770375,-0.06213340163230896,0.25766468048095703,0.45289212465286255
1782835402701304800,8.780304931640625,0.02368799038231373,0.3032161295413971,0.6267380118370056
1782835402711234800,8.79023486328125,0.03337603807449341,0.37326952815055847,0.718527615070343
1782835402721164800,8.800164794921875,-0.008751725777983665,0.4360983967781067,0.7116662859916687
1782835402731094500,8.810094482421874,-0.027964303269982338,0.45364516973495483,0.6625744104385376
1782835402741024800,8.820024658203126,-0.020263491198420525,0.43406978249549866,0.6295230984687805
1782835402750954800,8.829954833984376,-0.01079648733139038,0.3444048762321472,0.646375298500061
1782835402760884700,8.839884765625,-0.034511737525463104,0.18922021985054016,0.6915318369865417
1782835402770814700,8.849814697265625,-0.06790058314800262,0.03072991780936718,0.7087984085083008
1782835402780744400,8.859744384765625,-0.10974746942520142,0.009143982082605362,0.6605604887008667
1782835402790674700,8.8696748046875,-0.10164853185415268,0.10833634436130524,0.5954541563987732
1782835402800604700,8.879604736328124,-0.03111162595450878,0.25729429721832275,0.5679323077201843
1782835402810534000,8.889533935546876,0.06295495480298996,0.3549433648586273,0.5772461891174316
1782835402820463600,8.899463623046875,0.16559411585330963,0.2184256762266159,0.5726914405822754
1782835402830393600,8.9093935546875,0.251770555973053,-0.07622672617435455,0.5108099579811096
1782835402840323600,8.919323486328125,0.2728574573993683,-0.15929889678955078,0.33714479207992554
1782835402850253600,8.929253662109375,0.2574896812438965,-0.023149587213993073,0.05596425384283066
1782835402860183800,8.939183837890624,0.19782260060310364,0.1713280975818634,-0.21112805604934692
1782835402870113500,8.949113525390626,0.05774699151515961,0.3915960192680359,-0.28826865553855896
1782835402880043800,8.959043701171876,-0.2445301115512848,0.6893689632415771,-0.10284515470266342
1782835402889973800,8.968973876953125,-0.5580486059188843,0.8556868433952332,0.20832765102386475
1782835402899903700,8.97890380859375,-0.5772823691368103,0.7886876463890076,0.389078825712204
1782835402909833700,8.988833740234375,-0.28772756457328796,0.6124241948127747,0.3185647130012512
1782835402919763500,8.998763427734374,0.07440616935491562,0.5346447825431824,0.12956610321998596
1782835402929692700,9.008692626953126,0.3123084604740143,0.5289019346237183,-0.0012797899544239044
1782835402939622700,9.01862255859375,0.39232829213142395,0.4875403940677643,0.051532670855522156
1782835402949553000,9.028552978515625,0.380551278591156,0.37494298815727234,0.2593929171562195
1782835402959482600,9.038482666015625,0.32988590002059937,0.08544011414051056,0.53203946352005
1782835402969412600,9.04841259765625,0.281345009803772,-0.39812231063842773,0.6646278500556946
1782835402979342600,9.058342529296874,0.2685137987136841,-1.2277251482009888,0.4143388271331787
1782835402989272600,9.0682724609375,0.3438445031642914,-1.827985167503357,-0.18489983677864075
1782835402999202800,9.078202880859376,0.47129160165786743,-1.7064008712768555,-0.763292670249939
1782835403009132500,9.088132568359375,0.4445931315422058,-1.1850823163986206,-1.1231752634048462
1782835403019062800,9.098062744140625,0.2773332893848419,-0.5720367431640625,-1.1745513677597046
1782835403028992800,9.10799267578125,0.05955915153026581,-0.07168945670127869,-0.978769063949585
1782835403038922500,9.117922607421875,-0.156728133559227,0.15577779710292816,-0.7109487652778625
1782835403048851700,9.127851806640624,-0.32973188161849976,0.05514146387577057,-0.5203402042388916
1782835403058781700,9.13778173828125,-0.43062254786491394,-0.34457796812057495,-0.43300241231918335
1782835403068711700,9.147711669921875,-0.47060802578926086,-0.8156408667564392,-0.45616820454597473
1782835403078641700,9.1576416015625,-0.45422273874282837,-1.0917497873306274,-0.5440296530723572
1782835403088571600,9.167571533203125,-0.33164089918136597,-1.2018024921417236,-0.6482572555541992
1782835403098501600,9.177501708984375,-0.11486514657735825,-1.140613079071045,-0.6998841762542725
1782835403108431600,9.187431640625,0.13266928493976593,-0.893135130405426,-0.6476712822914124
1782835403118361600,9.197361572265624,0.342141330242157,-0.4863749146461487,-0.4845826327800751
1782835403128291600,9.20729150390625,0.4339729845523834,-0.02009933814406395,-0.22738757729530334
1782835403138221800,9.217221923828125,0.4367252290248871,0.3591049611568451,0.07348871231079102
1782835403148151600,9.227151611328125,0.33650141954421997,0.5649963617324829,0.36408379673957825
1782835403158081800,9.237081787109375,0.19251056015491486,0.5672677755355835,0.6039064526557922
1782835403168010800,9.2470107421875,0.042800698429346085,0.43518802523612976,0.7272608876228333
1782835403177940500,9.2569404296875,-0.060269299894571304,0.28131845593452454,0.7590845227241516
1782835403187870700,9.26687060546875,-0.12493005394935608,0.13863614201545715,0.7239209413528442
1782835403197800700,9.27680078125,-0.15565785765647888,0.012828541919589043,0.6457207798957825
1782835403207730700,9.286730712890625,-0.13706126809120178,0.02936490811407566,0.5772032141685486
1782835403217660700,9.29666064453125,-0.08914986252784729,0.21337085962295532,0.5365206003189087
1782835403227590700,9.306590576171875,-0.02339162304997444,0.39628446102142334,0.5210338234901428
1782835403237520600,9.316520751953124,0.051060281693935394,0.5014415383338928,0.4992067813873291
1782835403247450600,9.32645068359375,0.10818641632795334,0.46541884541511536,0.49709516763687134
1782835403257380600,9.336380615234376,0.15478211641311646,0.29138410091400146,0.5176541805267334
1782835403267310600,9.346310546875,0.16754823923110962,0.08138957619667053,0.5101413726806641
1782835403277240800,9.35624072265625,0.14077842235565186,-0.04285096004605293,0.4977695941925049
1782835403287170600,9.366170654296875,0.04009416699409485,-0.05382664501667023,0.45624077320098877
1782835403297099500,9.376099609375,-0.10067074000835419,0.004272770136594772,0.39895960688591003
1782835403307029800,9.38602978515625,-0.24083025753498077,0.2106698900461197,0.38411620259284973
1782835403316959700,9.395959716796876,-0.33362454175949097,0.5604009032249451,0.4618275463581085
1782835403326889700,9.4058896484375,-0.33486369252204895,0.816764235496521,0.6299752593040466
1782835403336819700,9.41581982421875,-0.2864006757736206,0.8071365356445312,0.7836325764656067
1782835403346749400,9.42574951171875,-0.18888716399669647,0.5271408557891846,0.8488331437110901
1782835403356679700,9.4356796875,-0.016517050564289093,0.25736454129219055,0.7869781851768494
1782835403366609700,9.445609619140624,0.09601907432079315,0.14312079548835754,0.5781977772712708
1782835403376539600,9.45553955078125,0.1090216413140297,-0.09098216146230698,0.28464028239250183
1782835403386469600,9.4654697265625,0.11092633008956909,-0.49298977851867676,-0.05165008828043938
1782835403396399600,9.475399658203125,0.18016041815280914,-0.6362038254737854,-0.33146578073501587
1782835403406329600,9.48532958984375,0.2916421890258789,-0.36234456300735474,-0.43104803562164307
1782835403416258600,9.495258544921874,0.2566838264465332,0.1616237908601761,-0.3764949440956116
1782835403426188800,9.505188720703124,0.015388657338917255,0.8039207458496094,-0.26058831810951233
1782835403436118500,9.515118408203126,-0.24883870780467987,1.2337695360183716,-0.12277243286371231
1782835403446048800,9.525048828125,-0.3525930345058441,1.255321979522705,-0.037837833166122437
1782835403455978800,9.534978759765625,-0.30166953802108765,1.0076032876968384,-0.052229899913072586
1782835403465908700,9.54490869140625,-0.2373960316181183,0.8202677965164185,-0.20509640872478485
1782835403475838700,9.554838623046875,-0.31636154651641846,0.5240257978439331,-0.5058263540267944
1782835403485768400,9.5647685546875,-0.42947903275489807,-0.14106544852256775,-0.8909378051757812
1782835403495698700,9.57469873046875,-0.31866082549095154,-1.1173202991485596,-1.3210643529891968
1782835403505628700,9.584628662109376,0.06258854269981384,-1.8904532194137573,-1.594807744026184
1782835403515558700,9.59455859375,0.3887421786785126,-2.05367374420166,-1.6328155994415283
1782835403525488600,9.604488525390625,0.4994271397590637,-1.8147122859954834,-1.5115385055541992
1782835403535417600,9.61441748046875,0.49079903960227966,-1.4953422546386719,-1.2704851627349854
1782835403545347600,9.62434765625,0.5094552636146545,-1.2480722665786743,-0.9074351191520691
1782835403555277600,9.634277587890624,0.5133303999900818,-0.9542179107666016,-0.4524086117744446
1782835403565207800,9.644207763671876,0.320812851190567,-0.5780951380729675,-0.08214373886585236
1782835403575137500,9.654137451171875,-0.12962308526039124,-0.22409090399742126,0.07838587462902069
1782835403585067800,9.66406787109375,-0.6023006439208984,0.11900680512189865,-0.01567111350595951
1782835403594997800,9.673997802734375,-0.956490159034729,0.2968205511569977,-0.336210697889328
1782835403604927500,9.683927490234375,-1.0113824605941772,0.28649309277534485,-0.7031037211418152
1782835403614857700,9.693857666015624,-0.7956487536430359,0.14563435316085815,-0.9956974387168884
1782835403624787500,9.703787353515626,-0.4194870889186859,-0.04082927852869034,-1.117534875869751
1782835403634717700,9.7137177734375,0.018954092636704445,-0.1466096192598343,-1.0344518423080444
1782835403644646700,9.723646728515625,0.40143516659736633,-0.24223469197750092,-0.7531492710113525
1782835403654576600,9.73357666015625,0.6553782820701599,-0.31209513545036316,-0.339260995388031
1782835403664506600,9.743506591796875,0.7629383206367493,-0.2718137800693512,0.0864407867193222
1782835403674436600,9.7534365234375,0.6992490291595459,-0.18664610385894775,0.4106408357620239
1782835403684366600,9.76336669921875,0.5075698494911194,-0.005285374820232391,0.6097472906112671
1782835403694296600,9.773296630859376,0.26419299840927124,0.2291722595691681,0.6646345257759094
1782835403704226800,9.783226806640625,0.06894282251596451,0.4336308538913727,0.6054590940475464
1782835403714156500,9.793156494140625,-0.021329231560230255,0.5723212957382202,0.4732316732406616
1782835403724087000,9.803087158203125,0.04375043511390686,0.6484506726264954,0.3592108190059662
1782835403734016800,9.813016845703125,0.21007052063941956,0.6694449186325073,0.30631160736083984
1782835403743947000,9.822947021484374,0.4066498875617981,0.5950660705566406,0.37443605065345764
1782835403753877000,9.832876953125,0.5633214116096497,0.4405127465724945,0.4958643615245819
1782835403763807000,9.842806884765626,0.5926830172538757,0.2972352206707001,0.5483542680740356
1782835403773736000,9.85273583984375,0.5796319842338562,0.3251892924308777,0.5038974285125732
1782835403783666000,9.862666015625,0.5498075485229492,0.4730544090270996,0.4500959813594818
1782835403793596000,9.872595947265625,0.4664343595504761,0.6578221321105957,0.4300183653831482
1782835403803526000,9.88252587890625,0.3237541615962982,0.7415266633033752,0.42460307478904724
1782835403813456100,9.8924560546875,0.15668094158172607,0.7613763213157654,0.428172767162323
1782835403823385900,9.9023857421875,-0.017960093915462494,0.8382405042648315,0.5794363021850586
1782835403833316000,9.912316162109375,-0.13437819480895996,0.5189842581748962,0.5229255557060242
1782835403843246000,9.92224609375,-0.12556207180023193,0.4223778545856476,0.4072335660457611
1782835403853175800,9.93217578125,-0.09127603471279144,0.6775272488594055,0.3500211536884308
1782835403863106000,9.94210595703125,0.019411863759160042,0.912319004535675,0.43105611205101013
1782835403873037000,9.952037109375,0.15588422119617462,1.000924825668335,0.7131775617599487
1782835403882967000,9.961967041015624,0.25013935565948486,0.44731035828590393,1.0968793630599976
1782835403892896800,9.971896728515626,0.39148104190826416,-0.3811407685279846,1.5479645729064941
1782835403902827000,9.981826904296875,0.45104822516441345,-0.721969723701477,1.9663748741149902
