time,seconds_elapsed,z,y,x
1782831351906929700,0.0829296875,-0.07716390370130538,-0.02115418968105223,0.021256175051070747
1782831351916858600,0.092858642578125,-0.08539280286431312,-0.017090493039251305,0.024769370803795755
1782831351926788900,0.102788818359375,-0.09092997872531414,-0.008213331701117568,0.0180890162570402
1782831351936717800,0.1127177734375,-0.07821195144951343,-0.003138247793377377,-0.003987133407406509
1782831351946646800,0.122646728515625,-0.08479717505872249,0.010308833542489446,-0.025455097178788855
1782831351956575700,0.13257568359375,-0.08195581415295601,0.01581284235282801,-0.007654843868408352
1782831351966504700,0.142504638671875,-0.08779343426525592,0.0221575900033582,-0.0009605338615365326
1782831351976434700,0.1524345703125,-0.08375380348563194,0.015256409479887224,0.006287126578623428
1782831351986364000,0.162364013671875,-0.07866846304535866,0.0034844765483168882,0.005909772033058106
1782831351996292900,0.17229296875,-0.07403203541636466,-0.01066042802571319,-0.00031114830840379
1782831352006221800,0.182221923828125,-0.08316168281137942,-0.01821211748032365,0.013570817313389851
1782831352016150800,0.19215087890625,-0.08540507782399653,-0.017835283524566328,0.025403312192624435
1782831352026080800,0.202080810546875,-0.08076046688854693,-0.023678296764614058,0.02927501165997237
1782831352036009700,0.212009765625,-0.07926058371961116,-0.013802411279291845,0.017265525379171594
1782831352045938700,0.221938720703125,-0.07222469373345375,-0.0025102292552590367,0.01635678563695401
1782831352055867600,0.23186767578125,-0.06339549058973788,0.0038735123985214155,0.0011476721977815032
1782831352065796900,0.241796875,-0.08284837907850742,0.01165759040347766,-0.007397562905400991
1782831352075726800,0.251726806640625,-0.07102817742526531,0.023845323894592,0.0011765055666211992
1782831352085655800,0.26165576171875,-0.07971300366222858,0.019998535106214695,0.0003094769411254674
1782831352095584800,0.271584716796875,-0.07867255469858646,0.007004508467204868,0.0095148747197818
1782831352105513700,0.281513671875,-0.0833195037215948,0.0002480473437812179,0.006072150387382134
1782831352115442700,0.291442626953125,-0.0821300016760826,-0.01741556484173052,0.00017444325145334004
1782831352125373000,0.301373046875,-0.07764379617273807,-0.019940557841281407,0.0020492698131594806
1782831352135302000,0.311302001953125,-0.07569850732386112,-0.0181924674983602,0.010405119824083521
1782831352145230800,0.32123095703125,-0.08063187207281589,-0.010608944433648139,0.010626416158257051
1782831352155159800,0.331159912109375,-0.07508885099291801,0.001733472729101777,0.013246161069441586
1782831352165089800,0.34108984375,-0.0872065742880106,0.0063828877038322384,0.004305469508422539
1782831352175018800,0.351018798828125,-0.07374269708096981,0.012037584430701099,-0.0016497399684041738
1782831352184947700,0.36094775390625,-0.07823357875943183,0.016692684794124214,-0.0076385959865059696
1782831352194876700,0.370876708984375,-0.07524374929368495,0.02620309796791989,0.004160224951989948
1782831352204806000,0.380805908203125,-0.08123159153163433,0.015442712132493033,0.018026627678470686
1782831352214736000,0.39073583984375,-0.08258359066247939,-0.0020411915379809215,0.0014858820430468766
1782831352224664600,0.40066455078125,-0.08453063307702541,-0.01332742331183981,0.008570616139611228
1782831352234593800,0.41059375,-0.07869768913984299,-0.014341888450854457,0.011041052240598946
1782831352244522800,0.420522705078125,-0.07914601742923259,-0.01620343540587928,0.0075503514474723485
1782831352254451700,0.43045166015625,-0.08348316985070704,-0.019724289308674633,0.0043262017691973595
1782831352264382000,0.4403818359375,-0.08318097203373909,-0.0041811033432371915,0.008381596373533829
1782831352274311000,0.450310791015625,-0.08392799100875854,0.004261621233541518,-0.005956661648396402
1782831352284240000,0.460239990234375,-0.07794657851159573,0.008559373226389288,-0.008880120480200275
1782831352294168800,0.4701689453125,-0.07929448598921299,0.00900580638621468,-0.023493743111100047
1782831352304097800,0.480097900390625,-0.0730155518501997,0.015714861871069297,-0.005385629427945241
1782831352314027800,0.49002783203125,-0.06972761622071266,0.020058576464070936,0.00444717953405343
1782831352323956700,0.499956787109375,-0.08619184428751468,0.011210001899604685,0.010336246705800294
1782831352333885700,0.5098857421875,-0.0776642544388771,-0.0035783288442296905,0.006592584931757301
1782831352343815000,0.51981494140625,-0.07153086625039577,-0.014806629018927923,0.01406011693398468
1782831352353744000,0.529743896484375,-0.09008359102904796,-0.018466448434418997,0.011251936778612434
1782831352363673600,0.539673583984375,-0.08753916724324226,-0.018662788423849268,0.017414432330569253
1782831352373602800,0.549602783203125,-0.09217501035034656,-0.007557151081017218,0.01282273889244534
1782831352383531800,0.55953173828125,-0.07930383833944797,0.0011779486050363629,0.01348375095129013
1782831352393460700,0.569460693359375,-0.08813304148316382,0.014405030514672398,0.0032984113577287644
1782831352403391000,0.579390869140625,-0.07227145548462867,0.014231085020140744,-0.006227468813257291
1782831352413320000,0.58931982421875,-0.08439327043294906,0.014543621568032539,-0.004771315188193693
1782831352423248600,0.59924853515625,-0.08544365626871585,0.023136476938915438,-0.0033544432607479392
1782831352433177600,0.609177490234375,-0.08065817555785179,0.00971736588878557,0.0065492115809116505
1782831352443106800,0.61910693359375,-0.07347966223061084,-0.006187753290799446,0.0026279282176401467
1782831352453036800,0.629036865234375,-0.07318330963253974,-0.01497790306576062,0.006669513492332771
1782831352462965800,0.6389658203125,-0.08066694338619708,-0.023513625988503917,0.00565974279474467
1782831352472894700,0.648894775390625,-0.07483107683956623,-0.01867449256137479,-0.0015605912470724433
1782831352482824000,0.658823974609375,-0.08021569248735905,-0.015497574991732835,0.004387622233387083
1782831352492753000,0.6687529296875,-0.08111176454424858,-0.001979994836077094,0.018158866622857747
1782831352502682600,0.6786826171875,-0.07841653411090374,0.0031524270157795397,0.005260514344088733
1782831352512611800,0.68861181640625,-0.07168225741982459,0.008298388769221492,-0.002294065753929317
1782831352522540800,0.698540771484375,-0.07886369335651397,0.00765954287641216,-0.005369819937460124
1782831352532469800,0.7084697265625,-0.08335282146930693,0.015949396712728776,-0.0017264402001164853
1782831352542398700,0.718398681640625,-0.06928747123777866,0.009070437154220417,0.009398198670707642
1782831352552328700,0.72832861328125,-0.08903963493406772,0.006782207486033439,0.013562670539552344
1782831352562257700,0.738257568359375,-0.09622340895831584,-0.011699749044771305,0.0044485769066959615
1782831352572186600,0.7481865234375,-0.09248363790810107,-0.016195393663318826,0.010038350604614242
1782831352582115800,0.75811572265625,-0.08500234224200248,-0.019293688472220672,0.00988627444859594
1782831352592044800,0.768044921875,-0.08544950148761273,-0.019013524390547536,-0.000681826518010348
1782831352601974800,0.777974853515625,-0.07377718387246131,-0.006418881465820595,-0.003084522011876106
1782831352611903700,0.78790380859375,-0.07198036358356476,0.00432677715793252,0.011588566588144748
1782831352621833000,0.7978330078125,-0.06644552581012249,0.014095631205360405,-0.00032319493922404946
1782831352631761700,0.80776171875,-0.0706365477591753,0.019067533299839123,-0.011842870142776518
1782831352641690600,0.817690673828125,-0.06884323460161686,0.011585904273600317,-0.010142687761923298
1782831352651620900,0.827620849609375,-0.0754296272546053,0.010733858588105067,0.00031283794199116525
1782831352661549800,0.8375498046875,-0.0775251382291317,0.0004946059833746404,0.006123871441464871
1782831352671478800,0.847478759765625,-0.0787234081029892,-0.01140670721521601,0.014533031675359234
1782831352681407700,0.85740771484375,-0.07632803739905357,-0.017112010751315392,0.009960554394358768
1782831352691337000,0.8673369140625,-0.07423369546830653,-0.0168719092519721,0.01373194442554377
1782831352701266700,0.8772666015625,-0.06600128917396068,-0.010947953429934569,0.008501788687100633
1782831352711195600,0.887195556640625,-0.06525134758949279,-0.011784796979720704,0.009135300817666574
1782831352721124900,0.897124755859375,-0.08125964858233928,0.0032510787843959403,0.00013561821156181394
1782831352731053800,0.9070537109375,-0.08051087604165076,0.011492997259180992,0.004589985538227483
1782831352740983800,0.91698388671875,-0.08889058185219764,0.012518107089796103,-0.005763321900228038
1782831352750912800,0.926912841796875,-0.07452770997881888,0.004864765625307336,-0.009075798315927386
1782831352760841700,0.936841796875,-0.07004150447547436,0.008524653539457357,-0.00768332104422152
1782831352770770700,0.946770751953125,-0.0808189190775156,0.011563450413197278,-0.001120364065747708
1782831352780699600,0.95669970703125,-0.07318798580765724,-0.012402979110414162,0.006575971723673865
1782831352790630000,0.9666298828125,-0.0886006589949131,-0.008799145932169631,0.00600900375698693
1782831352800558800,0.976558837890625,-0.09728022453486919,-0.013508780361269599,0.01237613676926121
1782831352810487800,0.98648779296875,-0.0779781426936388,-0.017534254751377737,0.006533703484525904
1782831352820416800,0.996416748046875,-0.07737608514726162,-0.012917193976556881,0.00207316214540042
1782831352830346000,1.006345947265625,-0.0830628986120224,-0.004632367941807024,0.0019188483665231613
1782831352840275700,1.016275634765625,-0.09129413586258887,0.004976920762890949,0.008663609918998554
1782831352850204700,1.02620458984375,-0.07363689861893653,0.023212679413706062,0.009971605511335656
1782831352860134000,1.0361337890625,-0.07334054602086544,0.011547558724321423,-0.0036396168776787817
1782831352870062800,1.046062744140625,-0.08546411453485489,0.008894226637366227,-0.009308154900232329
1782831352879991800,1.05599169921875,-0.07933131086826324,0.002454786440706812,0.0007610931661445647
1782831352889921800,1.065921875,-0.07229834349155426,-0.0024723905960563567,0.009433781440742313
1782831352899850800,1.075850830078125,-0.07469312967360019,-0.007729069015244021,0.013961460598791017
1782831352909779700,1.08577978515625,-0.0865133313268423,-0.01173086570224259,0.007604967711539939
1782831352919708700,1.095708740234375,-0.07768471270501613,-0.01490238557755947,0.010620086882170289
1782831352929637600,1.1056376953125,-0.07663841852247714,-0.02065069713832345,-0.00766381262615323
1782831352939567900,1.11556787109375,-0.07259644965529441,-0.014426922686072065,-0.0013574698904063552
1782831352949496800,1.125496826171875,-0.07304302437901497,0.007517577122454531,0.0011678108035121113
1782831352959425800,1.13542578125,-0.07917875065505504,0.012669685488892718,0.0004137227668892592
1782831352969354800,1.145354736328125,-0.07708440872430801,0.008979073642916046,0.00713086566007696
1782831352979283500,1.155283447265625,-0.06780804633498191,0.011790509767876937,-0.0059706171085126694
1782831352989213700,1.165213623046875,-0.07244856561720371,0.00874836559300311,-0.010314454999100416
1782831352999142700,1.175142578125,-0.08247603863477707,0.00532346461166162,-0.0005177128643263131
1782831353009071600,1.185071533203125,-0.08636661633253097,-0.007971289406437427,0.010743156139412895
1782831353019000800,1.195000732421875,-0.07484335179924964,-0.012232102355803362,0.0211707983225584
1782831353028929800,1.2049296875,-0.07768646627068519,-0.013345328861288726,0.0009362579368054866
1782831353038859500,1.214859619140625,-0.0794815329939127,-0.009066103472397662,-0.0025540866632945834
1782831353048788500,1.22478857421875,-0.08232464746534823,-0.008908917316421867,0.012282321005966514
1782831353058717700,1.2347177734375,-0.07140110239088535,-0.012027688657771795,0.004357839016476646
1782831353068646700,1.244646728515625,-0.07409457925856112,0.0007991236215922981,0.008350306186126545
1782831353078576600,1.25457666015625,-0.06975391970574855,0.014743829448404721,0.004915774293337017
1782831353088505900,1.264505859375,-0.08082710238397121,0.01096825643244665,-0.0076393449051771305
1782831353098434600,1.2744345703125,-0.07963233964145183,0.006707808809261769,-0.005249463227111846
1782831353108363500,1.284363525390625,-0.0743967770755291,0.0020068691432708874,-0.008321536749368533
1782831353118292500,1.29429248046875,-0.07753916675448418,-0.003713389933365397,-0.0057269993446767324
1782831353128222700,1.30422265625,-0.08217793247103691,-0.013343986287573351,0.006846331363962963
1782831353138151700,1.314151611328125,-0.08038286574780941,-0.017230422099749558,0.014451052480330689
1782831353148080600,1.32408056640625,-0.07709259203076362,-0.012898626273404806,0.004217097105225548
1782831353158009900,1.334009765625,-0.07844049950838089,-0.011296963230427354,0.006370932404557243
1782831353167938800,1.343938720703125,-0.08038461931347847,-0.004260251260362565,0.004918879565875977
1782831353177868500,1.35386865234375,-0.06990823348462581,-0.0001060267908964306,0.0029188831213861704
1782831353187797500,1.363797607421875,-0.08083060951530933,0.00806672630466055,0.0061267392519861455
1782831353197726700,1.373726806640625,-0.08142506827712058,0.010977636182145215,-0.0006573587970342486
1782831353207655700,1.38365576171875,-0.07798340339064598,0.008491870081285014,0.004371420017257333
1782831353217584600,1.393584716796875,-0.07199906828403473,-0.007769154430460184,0.004314292135694995
1782831353227514600,1.4035146484375,-0.0785837073713541,-0.01144220322028268,0.0038697175728157162
1782831353237443600,1.413443603515625,-0.08097966259717941,-0.009186391684086992,0.008208787956740706
1782831353247372500,1.42337255859375,-0.08217734794914722,-0.007625462510297074,0.004757113132905215
1782831353257301500,1.433301513671875,-0.08113046924471855,-0.016188671661587432,0.000574338422389701
1782831353267230700,1.443230712890625,-0.08157821301221847,-0.011494581861491314,0.003926206133561209
1782831353277160700,1.45316064453125,-0.07738836010694504,-0.0020818295090459286,-0.0019754008593503383
1782831353287089700,1.463089599609375,-0.08083002499341964,-0.008869064796646125,0.004073103790963068
1782831353297019000,1.473018798828125,-0.08083002499341964,0.00429214423596859,-0.007305272378912195
1782831353306947600,1.482947509765625,-0.08696399770379067,0.010149067270359954,-0.00005051547768525779
1782831353316876500,1.49287646484375,-0.09040624711215496,0.008299037223192862,-0.006388248865539208
1782831353326806500,1.502806640625,-0.0896592281371355,-0.0041402735759271305,-0.008890541409514844
1782831353336735700,1.51273583984375,-0.07334872932732105,-0.005472645557695068,0.000023883199086412786
1782831353346664700,1.522664794921875,-0.07514262700676917,-0.014405847932002506,0.007184367679292336
1782831353356593700,1.53259375,-0.0787315914094448,-0.021209011441096663,0.0077825436349958175
1782831353366522600,1.542522705078125,-0.07723463084995746,-0.01984248602797743,0.00784784568985924
1782831353376452600,1.55245263671875,-0.08052607361078262,-0.007837447593430987,0.00485942272990942
1782831353386381600,1.562381591796875,-0.084117376101017,-0.00844660616745241,-0.0015837711932603269
1782831353396310500,1.572310546875,-0.07259469608962535,-0.0038362947938265276,-0.001245552214840427
1782831353406239700,1.58223974609375,-0.0710983200520277,-0.001651091675274074,-0.0025591281645931303
1782831353416169700,1.592169677734375,-0.08292144431471825,0.01267710617694538,0.007668954592151567
1782831353426098700,1.6020986328125,-0.08367197042107581,0.011666956453444436,-0.0015474851703271269
1782831353436027600,1.612027587890625,-0.07394611069858074,0.005494697559298947,-0.0019306484021712094
1782831353445956600,1.62195654296875,-0.07319616911411285,-0.0007436990733491256,-0.00846844353992492
1782831353455885600,1.631885498046875,-0.07454173850417137,-0.006008469467447139,-0.008237338197790085
1782831353465815600,1.641815673828125,-0.07648819639682769,-0.017437402214203028,-0.00020589783564209938
1782831353475744800,1.651744873046875,-0.07574176194369793,-0.011165345340548083,0.008335245614312588
1782831353485673700,1.661673828125,-0.07559329338371754,-0.013718468456040135,0.015755559207638725
1782831353495602700,1.671602783203125,-0.08621990133821963,-0.02283203236593399,0.014319124063197523
1782831353505531600,1.68153173828125,-0.07933598704338073,-0.01017715172052849,0.004306748150056228
1782831353515461600,1.691461669921875,-0.06975976492464542,0.0036097012300277125,0.0008209609940648078
1782831353525390600,1.701390625,-0.07559680051505566,0.01607994602352846,0.0016092618275433779
1782831353535319600,1.711319580078125,-0.07918868752717971,0.013251796225784346,0.0035054873703047633
1782831353545248800,1.721248779296875,-0.08696984292268753,0.003061483629583381,-0.0010735018498729914
1782831353555177700,1.731177734375,-0.07993687554597854,-0.004750815822859295,0.00013194668344222008
1782831353565107500,1.741107421875,-0.0729062462568283,-0.0023284475141437722,-0.0037885329622309653
1782831353575036700,1.75103662109375,-0.07335749715566635,-0.013263057405315339,0.0073141863377299155
1782831353584965600,1.760965576171875,-0.08817161992788314,-0.013054775816341862,0.00864241186734289
1782831353594894600,1.77089453125,-0.0787444508910179,-0.01780894807348959,-0.0027321557770948854
1782831353604823600,1.780823486328125,-0.07724865937530993,-0.006979479057225398,0.001601197252096608
1782831353614753800,1.79075390625,-0.0832324099600315,-0.0019114505113568155,0.0009114614222664385
1782831353624682800,1.800682861328125,-0.0736556033194065,0.005889158503292128,0.004001234997995197
1782831353634611700,1.81061181640625,-0.06991466322541237,0.002166671948018484,0.004674458084441721
1782831353644540700,1.820540771484375,-0.08607435538768768,0.010057594161201267,-0.005740991337411105
1782831353654469600,1.8304697265625,-0.08323182543814182,0.007755386200011707,0.0032526542535517363
1782831353664399600,1.840399658203125,-0.08532967450022697,0.010863992340373807,0.003069680635770783
1782831353674328600,1.85032861328125,-0.0788970111042261,0.007787393340049311,0.004089570868574082
1782831353684257800,1.8602578125,-0.0839864431977272,-0.013597732719779014,0.00417967857113108
1782831353694186800,1.870186767578125,-0.08728080856800079,-0.005547144699166529,0.0037543566979933527
1782831353704116500,1.880116455078125,-0.0797995129019022,-0.012387786107859573,0.00644513928508386
1782831353714045700,1.890045654296875,-0.08039923236072063,-0.008955163044366053,0.0046976836964022365
1782831353723974700,1.899974609375,-0.08548691088855266,-0.004569646003097295,0.0018303024333901703
1782831353733903600,1.909903564453125,-0.08832885631620883,-0.0022941251194337382,-0.0002462298460304737
1782831353743832600,1.91983251953125,-0.07815349926054477,0.0032767338154604656,0.0022386914380360394
1782831353753762800,1.9297626953125,-0.0718693044245243,0.008823942446708678,0.006107075570290908
1782831353763691800,1.93969189453125,-0.08937807310819626,0.006816922606388107,-0.00578277551936917
1782831353773620500,1.949620361328125,-0.08354454464912414,0.00029380444795824585,-0.010494469474814831
1782831353783549400,1.959549560546875,-0.08594225344061851,-0.00524709774008952,-0.0014740180753171443
1782831353793478700,1.969478759765625,-0.06753741270005703,-0.009171271746768616,-0.0023033724383916703
1782831353803408600,1.97940869140625,-0.08384849603176116,-0.007328461458254605,0.0020905060058459637
1782831353813337600,1.989337646484375,-0.0847445680886507,-0.016074877122766337,0.007277169662434607
1782831353823266800,1.999266845703125,-0.08130056511461735,-0.007110402827360667,0.007673375038942322
1782831353833195800,2.00919580078125,-0.08384323533475399,-0.011111628692201338,0.006605919337365776
1782831353843124700,2.019124755859375,-0.06259586464464664,-0.0031761960504343733,-0.0025107955108396706
1782831353853054700,2.0290546875,-0.0730722504734993,0.005265058088465594,0.0014683098537381738
1782831353862983700,2.038983642578125,-0.07008242100775242,0.005831057940772735,-0.0028620292344596235
1782831353872912600,2.04891259765625,-0.07442308056056499,0.007815751784853636,-0.007567339114891365
1782831353882841600,2.058841552734375,-0.07547171283066273,0.015202254440123214,0.008264655462978407
1782831353892770800,2.068770751953125,-0.07562427304387093,0.0028607094936305656,-0.0011179346466436981
1782831353902700500,2.078700439453125,-0.07816635874211787,-0.0063150557651650155,-0.0032459596512839197
1782831353912629500,2.08862939453125,-0.08265548685491085,-0.010309545928542501,-0.0005465553663205355
1782831353922558500,2.098558349609375,-0.06769114195704459,-0.016553778646932915,-0.0032237569526303556
1782831353932487700,2.10848779296875,-0.08280512445867061,-0.010771067059645428,0.00029384098057635126
1782831353942417700,2.118417724609375,-0.08160919267237186,-0.01501475077769719,-0.004766803409857675
1782831353952346600,2.1283466796875,-0.07307984925806522,-0.01563960924434941,-0.004894777171080932
1782831353962275800,2.13827587890625,-0.08519932611882686,0.006908697109646164,-0.0031107250322122124
1782831353972204800,2.148204833984375,-0.07936404409408569,0.00877287897975184,-0.011799250196758657
1782831353982133800,2.1581337890625,-0.07726970216333866,0.012168750229431315,-0.005414709391957148
1782831353992063700,2.168063720703125,-0.07756956189274787,0.005158067749766633,0.0038825679212342945
1782831354001993000,2.177992919921875,-0.06948971581161022,0.005960100281075574,0.008422613370511681
1782831354011922000,2.187921875,-0.07801789018213748,0.00325516130446922,-0.0015176928202621637
1782831354021851000,2.197850830078125,-0.07607318585515022,-0.004967810441250912,0.004187313888315111
1782831354031779800,2.20777978515625,-0.07472703194320202,-0.010563516123034059,0.0037444289590232074
1782831354041709800,2.217709716796875,-0.07532616688013076,-0.016620898199547082,0.008523224200773984
1782831354051638800,2.227638671875,-0.07367839967310429,-0.00934576523057185,0.008702343627344816
1782831354061567700,2.237567626953125,-0.08295417754054069,0.00013208368076011537,-0.0015204601660836487
1782831354071496700,2.24749658203125,-0.07577098803818226,0.0005419705227483064,-0.002768843658827245
1782831354081426000,2.257426025390625,-0.07741758620142936,0.004636034903349354,-0.007724776432616636
1782831354091356000,2.26735595703125,-0.07846446490585804,0.00742775254768785,-0.0153631623565685
1782831354101284900,2.277284912109375,-0.0792114838808775,0.0017479853116441518,-0.0015497227931860833
1782831354111213800,2.2872138671875,-0.08190612979233264,0.0023054456644691526,-0.0011442929306067526
1782831354121142800,2.297142822265625,-0.08041092279851436,0.006559956737211905,0.009476077079353853
1782831354131071700,2.30707177734375,-0.07711831099390982,-0.007901256377529352,-0.0018369696361944078
1782831354141002000,2.317001953125,-0.08983867635726928,-0.013202299094828776,-0.004563837316818535
1782831354150931000,2.326930908203125,-0.07517360666692256,-0.010956515762303025,-0.0008742438175715505
1782831354160860000,2.33685986328125,-0.0751724376231432,-0.008676597264735028,0.010019901632471009
1782831354170788900,2.346788818359375,-0.08010989402532577,-0.01056484043044038,0.014716535016102716
1782831354180718800,2.35671875,-0.07292612000107765,0.004508673063479364,0.012824748186441137
1782831354190647800,2.366647705078125,-0.08100421251654624,0.009073894053208641,0.004353034977195784
1782831354200576800,2.37657666015625,-0.08220189786851406,0.0006815159907564521,0.002178175156144425
1782831354210505700,2.386505615234375,-0.07606617159247397,0.004636610292084515,-0.002334753957344219
1782831354220435000,2.39643505859375,-0.07651333083808422,0.006005802586325444,-0.00024517040010541675
1782831354230364700,2.40636474609375,-0.06917991921007632,-0.00045086273977067317,0.000494441586593166
1782831354240293600,2.416293701171875,-0.07546411404609679,-0.0101418566448614,0.0007950228352099657
1782831354250222800,2.426222900390625,-0.07875672585070133,-0.0145740715052234,-0.004038489135308191
1782831354260151800,2.43615185546875,-0.07157528991401195,-0.009239615142089314,-0.000714669341687113
1782831354270080800,2.446080810546875,-0.07741232550442219,-0.0016522378861671312,0.0000044569794088602065
1782831354280011000,2.456010986328125,-0.08339841417670249,-0.005649047870794311,-0.0016718330692034214
1782831354289940000,2.46593994140625,-0.07950666743516921,0.0004638637852389365,-0.004323982412647456
1782831354299869000,2.475868896484375,-0.07127601470649242,-0.000495035241637379,0.004752637887187302
1782831354309798000,2.4857978515625,-0.08324643848538399,0.009146548297465779,0.0019171130671631544
1782831354319726600,2.4957265625,-0.0853413649380207,0.010952387576457112,0.002050055264448747
1782831354329656800,2.50565673828125,-0.08444353931546211,0.014206503134733066,0.0007549465531483292
1782831354339585800,2.515585693359375,-0.07202420272529125,-0.008260673407604918,0.0022645017327275127
1782831354349514800,2.5255146484375,-0.0739694915741682,-0.006250292566418647,0.0030905681601725516
1782831354359444000,2.53544384765625,-0.07890694797635078,-0.002395060176681727,0.009320101066352799
1782831354369373700,2.545373779296875,-0.07830372138619422,-0.005467992215463891,0.004018222665414214
1782831354379302700,2.555302734375,-0.07590951972603797,-0.010251815258781424,0.003154564173938706
1782831354389231900,2.56523193359375,-0.07590718163847923,-0.011416790217813104,0.006794683375116437
1782831354399160800,2.575160888671875,-0.07590601259469985,-0.01012119744932279,-0.002851873166626319
1782831354409089800,2.58508984375,-0.09206512023508548,-0.0017489260265603661,-0.0015535861175507307
1782831354419020000,2.59502001953125,-0.07605506567656993,0.010598678767960518,0.00006240684487856924
1782831354428949000,2.604948974609375,-0.06827332575917243,0.0007498365531908348,-0.011443833488365635
1782831354438877700,2.614877685546875,-0.08338672373890876,0.007641788024012931,0.0008304686079267412
1782831354448806700,2.624806640625,-0.07725275102853775,0.006602366540255025,0.0012373780415393411
1782831354458735600,2.634735595703125,-0.07635492540597916,0.0019747569719562306,0.006915725072054192
1782831354468665900,2.644665771484375,-0.08084346899688244,-0.008657038614316843,0.008672743073524907
1782831354478594800,2.6545947265625,-0.08892623768746852,-0.009674056470021605,-0.0022556791054550557
1782831354488523800,2.664523681640625,-0.08204349243640899,-0.015377793670119717,-0.00004110832852311432
1782831354498453000,2.674452880859375,-0.07874971158802509,-0.010746421242156065,0.0038032190747093408
1782831354508382000,2.6843818359375,-0.06857201644480228,-0.0027462162684882057,0.011048751489864662
1782831354518311700,2.694311767578125,-0.07545476169586181,0.006510834065591916,-0.001393290122458711
1782831354528241000,2.704240966796875,-0.07769757218658924,0.007503607962606474,-0.0008636767577845603
1782831354538169900,2.714169921875,-0.06482932278513907,0.008369842003658413,-0.0015254560016095637
1782831354548098800,2.724098876953125,-0.08054244022369385,0.006179624783270992,0.0024511651449371126
1782831354558027800,2.73402783203125,-0.07126432426869869,-0.0011048468362074345,0.004994109359709546
1782831354567957800,2.743957763671875,-0.08278700428009032,0.0032819808127358555,-0.00024924378702417013
1782831354577886700,2.75388671875,-0.08532967450022697,-0.0031702823328785597,0.003417452893825248
1782831354587815700,2.763815673828125,-0.07470540463328361,-0.00793654688661918,-0.001433092409884557
1782831354597744600,2.77374462890625,-0.08099135303497314,-0.013107894243067129,0.004289669151091948
1782831354607675000,2.7836748046875,-0.07754968814849852,-0.01079080837315414,0.004238623950444161
1782831354617603800,2.793603759765625,-0.07740063506662845,-0.0102272516396828,0.0073396587057039135
1782831354627532800,2.80353271484375,-0.07770049479603768,-0.005764102784940041,0.0002397179068531841
1782831354637462000,2.8134619140625,-0.08982172522246837,0.0037214179761940612,-0.006031133390404284
1782831354647390700,2.823390625,-0.0768015001296997,0.006922876332048326,-0.005874965581158176
1782831354657320700,2.83332080078125,-0.07919570178985595,0.010945587942912243,-0.00224507551304996
1782831354667250000,2.84325,-0.07904489514231682,-0.0030047347739338873,-0.007271297044074162
1782831354677179000,2.853178955078125,-0.08353226968944072,0.009271389386686497,-0.009737230499880388
1782831354687107800,2.86310791015625,-0.0787444508910179,-0.005347562439879402,-0.0009902440132107586
1782831354697036800,2.873036865234375,-0.07754735006093978,-0.007699874886800535,0.004997908751992509
1782831354706966800,2.882966796875,-0.07934358582794666,-0.013230150649556889,0.0036087102827616034
1782831354716895700,2.892895751953125,-0.07111410214304924,-0.011830805245647205,0.00179566951142624
1782831354726824700,2.90282470703125,-0.08458090195953845,-0.009358537947176955,0.007055380137916654
1782831354736754000,2.91275390625,-0.08502981477081775,-0.010786118498304858,0.005723254751320928
1782831354746683000,2.922682861328125,-0.07769874123036861,-0.005930052202683873,-0.002381944966781884
1782831354756612900,2.93261279296875,-0.08413082010447978,0.0005913900218904018,-0.0016808931584935635
1782831354766541800,2.942541748046875,-0.08173428035676479,-0.006002268055523745,-0.0017071966435294598
1782831354776470800,2.952470703125,-0.07634615757763386,0.002500401980988681,0.00359066316941753
1782831354786399700,2.962399658203125,-0.07754092032015324,-0.00030375501981470734,-0.0008603066237643361
1782831354796329700,2.972329833984375,-0.0916068550735712,0.0035694514180300754,0.00040229719057679173
1782831354806259000,2.982259033203125,-0.08263035241365432,-0.005526033412478864,0.011651448357058688
1782831354816188000,2.99218798828125,-0.07679448586702346,-0.018728021980053744,0.004527003304613754
1782831354826116900,3.002116943359375,-0.06961071184277534,-0.011890677640144712,0.0007265241762623191
1782831354836045800,3.0120458984375,-0.07888648971021175,-0.0022991255215369165,0.008032499808073043
1782831354845975800,3.021975830078125,-0.0727495943903923,-0.005390798793407156,0.007122225695895031
1782831354855904800,3.03190478515625,-0.08082885594964027,-0.003960857321834191,0.0008876147557981312
1782831354865833700,3.041833740234375,-0.07678805612623692,-0.0008843907522503286,-0.0125456755167339
1782831354875763000,3.051762939453125,-0.08142740636467934,0.005062343157175928,0.0013057853689417242
1782831354885692000,3.06169189453125,-0.0812765997171402,0.010080294616776517,-0.008198604489443824
1782831354895622000,3.071621826171875,-0.07813537908196448,0.00566605380452238,-0.010495419322885573
1782831354905550600,3.081550537109375,-0.07559270886182784,0.001302725762175396,-0.0020195322620216757
1782831354915479800,3.091479736328125,-0.09175415458977222,-0.006952910710708238,0.0030286819051019848
1782831354925408800,3.10140869140625,-0.0779869105219841,-0.014812026713252997,0.00233182221474126
1782831354935337700,3.111337646484375,-0.07095511218905448,-0.012029889748012647,-0.008013603311358019
1782831354945268000,3.12126806640625,-0.07978139272332191,-0.014943174245674162,0.007545419544028118
1782831354955197000,3.131197021484375,-0.08696282866001129,-0.008183164891717023,0.0009621047641150653
1782831354965126400,3.14112646484375,-0.08277239123284816,-0.008923160470905713,0.007246966320415958
1782831354975055400,3.151055419921875,-0.0722965899258852,0.002790580566599965,0.001763959198910743
1782831354984985600,3.160985595703125,-0.07693535564243793,0.004367515593697317,-0.005895268583670258
1782831354994914600,3.17091455078125,-0.07543839508295058,0.003883152443123981,0.003990202147327363
1782831355004843500,3.180843505859375,-0.0824701934158802,0.0012603296588640659,0.005297211358975619
1782831355014772700,3.190772705078125,-0.0820212806046009,0.0029659417000832034,0.0024702077721245586
1782831355024701700,3.20070166015625,-0.0725923580020666,-0.0003205463244114071,0.005473426442407071
1782831355034631400,3.21063134765625,-0.08112111689448356,-0.007497644012700766,0.0034291798642370848
1782831355044560600,3.220560546875,-0.07992284702062606,-0.014133611428458244,0.00047632140801288187
1782831355054489600,3.230489501953125,-0.08022095318436623,-0.002879272630205378,0.005764089085208252
1782831355064418600,3.24041845703125,-0.0721399380594492,-0.012932496576965786,0.004454531723447144
1782831355074347500,3.250347412109375,-0.0721399380594492,-0.01151089367547538,0.0076813574159983545
1782831355084277500,3.260277587890625,-0.08411153088212013,-0.005181096998904832,-0.005788091015303507
1782831355094206500,3.27020654296875,-0.08321370525956154,0.010537719528074375,-0.0002373706861399114
1782831355104135400,3.280135498046875,-0.07722995467483997,0.009269795651221647,-0.003643790729297325
1782831355114064400,3.290064453125,-0.07423720259964466,-0.0009190830397186801,0.0009786814395803959
1782831355123993600,3.29999365234375,-0.08306348313391208,0.0054336241549812255,0.001576556001184508
1782831355133923600,3.309923583984375,-0.08530629362463951,-0.004861948047135956,0.007938364384369925
1782831355143852500,3.3198525390625,-0.07378478265702725,-0.012247254259162581,0.004885826679645106
1782831355153781800,3.32978173828125,-0.08261340127885342,-0.009173705732449888,-0.0002557191935833543
1782831355163710700,3.339710693359375,-0.07468085471391678,-0.00610799801889807,0.0034339565040543674
1782831355173640400,3.349640380859375,-0.06974456735551357,-0.004296190223423764,0.010666967364354058
1782831355183569700,3.359569580078125,-0.07961948015987873,0.001935840600519441,0.008228789565153419
1782831355193498600,3.36949853515625,-0.07797288199663162,-0.0031597107065143063,0.009497439527790993
1782831355203427600,3.379427490234375,-0.08785013288855552,-0.0009649314754409715,0.007353897293610498
1782831355213356500,3.3893564453125,-0.07962123372554779,-0.0014291742865927516,-0.0002232051634695381
1782831355223286500,3.39928662109375,-0.0701923111230135,0.0011187383642420172,-0.0020447945674415676
1782831355233215500,3.409215576171875,-0.067947747066617,0.005547199498093687,0.007413618991058319
1782831355243144400,3.41914453125,-0.08051672126054764,-0.005620104904100299,-0.0017034885827917606
1782831355253073400,3.429073486328125,-0.08650280993282794,-0.009211539825075306,-0.0006941654097754508
1782831355263002600,3.439002685546875,-0.08395721710324287,-0.003095911055570468,0.003604490765370428
1782831355272932600,3.4489326171875,-0.0728846189469099,-0.005233105747355148,0.011108527986239642
1782831355282861600,3.458861572265625,-0.07109072126746177,-0.010567749340157024,0.00620210604313761
1782831355292790500,3.46879052734375,-0.08441022156774997,-0.011200329888961278,0.007016893024742603
1782831355302719500,3.478719482421875,-0.06974515187740325,0.006198521279986016,0.0020815646475646644
1782831355312648400,3.4886484375,-0.07423194190263747,0.0071604114149697124,-0.005198929483117535
1782831355322578700,3.49857861328125,-0.07019114207923412,0.008329875319451093,0.004719457136793062
1782831355332507600,3.508507568359375,-0.08081716551184653,0.00314349935723003,0.0014696798269171268
1782831355342436600,3.5184365234375,-0.07857260145545006,0.006486147148907185,-0.002603542695054784
1782831355352365600,3.528365478515625,-0.08845043686926364,-0.00036379637767095115,-0.000024732582457363604
1782831355362294800,3.538294677734375,-0.08456102821528912,-0.007005988038238138,0.005314765281975269
1782831355372224500,3.548224609375,-0.07169160977005958,-0.00939333526592236,0.009525779706286265
1782831355382153500,3.558153564453125,-0.0712421124368906,-0.015239604475558735,0.002548615903733298
1782831355392082700,3.568082763671875,-0.08336392738521099,-0.010435546928388066,-0.0006634140784852207
1782831355402011600,3.57801171875,-0.07543430342972278,-0.0027056513626594093,-0.0020682302419561894
1782831355411941600,3.587941650390625,-0.07528408130407332,-0.005520768148894422,-0.0044081992305349555
1782831355421870600,3.59787060546875,-0.07543079629838466,0.001350295797525905,-0.0006585643734317272
1782831355431799600,3.607799560546875,-0.0694464611917734,-0.0018044053737306966,-0.006419630384491756
1782831355441728500,3.617728515625,-0.08231471059322357,0.004928971701627597,-0.00572252409895882
1782831355451657500,3.627657470703125,-0.08515724054276942,0.0035239728750661014,0.006482137694070115
1782831355461587700,3.637587646484375,-0.08006780844926834,-0.0005368285567499697,-0.0003442742598708719
1782831355471516700,3.6475166015625,-0.08276070079505443,-0.008115858109435065,-0.005060105534316971
1782831355481445600,3.657445556640625,-0.06989245139360427,-0.009967363161058165,0.006577560892561451
1782831355491374600,3.66737451171875,-0.07168751811683177,-0.013343168870243243,0.011163783571124077
1782831355501303600,3.677303466796875,-0.07527940512895584,-0.008632949919253587,0.006203393817925826
1782831355511233500,3.687233642578125,-0.08455576751828194,-0.011563153585675171,0.0060914852755144236
1782831355521162500,3.69716259765625,-0.08006547036170959,-0.0024408309805905447,0.0045184729382861406
1782831355531091700,3.707091796875,-0.07482756970822811,0.005090875131916255,0.002155013476265594
1782831355541020700,3.717020751953125,-0.08021276987791061,-0.0013949660563142968,0.002081455049710348
1782831355550949600,3.72694970703125,-0.06704466074705123,0.006556020347611047,-0.0007360500564333051
1782831355560879400,3.73687939453125,-0.06988894426226616,0.006676632786286063,-0.004346002448210493
1782831355570808600,3.74680859375,-0.07976677967607974,0.00654235258186236,-0.004883196331141516
1782831355580737500,3.756737548828125,-0.07931786686480045,0.0048361514521762725,0.0016132986818440257
1782831355590666500,3.76666650390625,-0.0724357061356306,-0.00854638131407555,0.006188369778729975
1782831355600595500,3.776595458984375,-0.07527823608517646,-0.001319160873745568,0.00021260157106444238
1782831355610525700,3.786525634765625,-0.08201134373247623,-0.007432515487773343,0.011872817756468429
1782831355620454700,3.79645458984375,-0.09024141193926334,-0.009405377330165356,0.006468666291143745
1782831355630383600,3.806383544921875,-0.07198503975868224,-0.006705128228408284,0.0069694097543600945
1782831355640312600,3.8163125,-0.08111176454424858,-0.0033078322066226974,0.005534216718934476
1782831355650241500,3.826241455078125,-0.07183481763303279,0.005214935336424969,0.00003616729192435741
1782831355660171500,3.836171630859375,-0.07557517320513725,0.0010424902236787603,-0.003884851209865883
1782831355670100700,3.846100830078125,-0.07213467736244202,0.004258296765293925,0.0057752863326575605
1782831355680029700,3.85602978515625,-0.07886953857541083,0.00382012454373762,0.0002371606235858053
1782831355689958700,3.865958740234375,-0.07452770997881888,0.0013802068785997107,0.0010747530920431018
1782831355699888400,3.875888427734375,-0.07213175475299358,-0.0032410642804577947,0.007724237576499581
1782831355709817600,3.885817626953125,-0.0824567494124174,-0.008388464505737646,0.010292818556027487
1782831355719746600,3.89574658203125,-0.07632277670204639,-0.011122195751988329,0.008624172957753763
1782831355729675500,3.905675537109375,-0.08634849615395068,-0.006543585557723417,0.011119095046026631
1782831355739604500,3.9156044921875,-0.0793155287772417,0.0018487514055334031,0.013590362264076247
1782831355749534700,3.92553466796875,-0.0706365477591753,0.004397600204707123,0.00007156739886850118
1782831355759463400,3.93546337890625,-0.07946458185911179,-0.003027275399304926,-0.0032428087129723277
1782831355769392400,3.945392333984375,-0.07467676306068897,0.0021284405631711704,0.0026730825336184353
1782831355779321600,3.955321533203125,-0.08170973043739795,0.00645096167109441,-0.0021320344594772905
1782831355789250600,3.96525048828125,-0.08425415422320365,-0.009535456283506936,0.012300495983473957
1782831355799180500,3.9751806640625,-0.07572481080889701,-0.0037625856702215967,0.006409656979748979
1782831355809109800,3.98510986328125,-0.07901683809161186,-0.0057344565653474995,0.004628061659447849
1782831355819038700,3.995038818359375,-0.08081015124917029,-0.007025642586778849,0.014172317737340926
1782831355828967700,4.0049677734375,-0.0882908623933792,-0.009568504603160544,0.013957670339662581
1782831355838896600,4.014896728515625,-0.08350129002928733,-0.0073499015385052185,0.014894467132585121
1782831355848826600,4.02482666015625,-0.08439736208617686,-0.012711679733404889,0.000728232076158747
1782831355858755600,4.034755615234375,-0.07541910586059093,-0.00980155530720949,0.01194421162540093
1782831355868684500,4.0446845703125,-0.07736322566568851,0.0019383750509005039,0.008968118424061686
1782831355878613500,4.054613525390625,-0.08364858954548836,0.00041714769983664153,0.003566177182132378
1782831355888542700,4.064542724609375,-0.08499591250121594,0.0008501962217036635,0.009423780636535957
1782831355898472400,4.074472412109375,-0.07631693148314952,0.004892046357877552,0.009673051823023707
1782831355908401400,4.0844013671875,-0.07661679121255874,0.0017615891453111544,-0.000562355723651126
1782831355918330600,4.09433056640625,-0.07661737573444843,-0.008946061855880543,-0.002953762638522312
1782831355928259600,4.104259521484375,-0.08035773130655288,-0.011413287653052247,0.004276069884002209
1782831355938188500,4.1141884765625,-0.08334814529418945,-0.011353524856409057,-0.002459321051929146
1782831355948118800,4.124118896484375,-0.0796072052001953,-0.01653464925477747,0.004220010581519455
1782831355958047700,4.1340478515625,-0.07392039173543453,-0.009575331636168994,0.009768137094797565
1782831355967975400,4.143975341796875,-0.07466741071045398,-0.007961790925730019,0.007483131430158391
1782831355977904400,4.153904296875,-0.0725707306921482,-0.008697105763223953,0.004893188002193346
1782831355987833300,4.163833251953125,-0.0740653531640768,0.0015791361173382028,0.0024721440008841455
1782831355997763300,4.173763427734375,-0.07631050174236297,0.0015860864479327573,0.0037013478691224006
1782831356007692300,4.1836923828125,-0.07960135998129844,-0.00246939035479445,0.0061707245241850615
1782831356017621200,4.193621337890625,-0.08034896347820758,-0.008672606076207012,0.0022254848965909332
1782831356027550200,4.20355029296875,-0.07960019093751906,-0.004101169974822551,0.007530002779187634
1782831356037479400,4.2134794921875,-0.07152209842205047,-0.008511720992648042,-0.0027944986898917703
1782831356047409400,4.223409423828125,-0.0692769498437643,-0.009068176698475145,0.0075993508215062315
1782831356057338000,4.233338134765625,-0.08573533269166946,-0.014533282837108709,-0.0011242091238033026
1782831356067267300,4.243267333984375,-0.07765373304486274,-0.009757054011779837,0.002911841459246352
1782831356077196300,4.2531962890625,-0.0807967072457075,-0.005066873201820999,-0.0006010254999157041
1782831356087126300,4.263126220703125,-0.06313888548016548,-0.006637401321018114,-0.004196054317196831
1782831356097055500,4.273055419921875,-0.07720365118980407,0.001650392988952808,-0.006638771294197068
1782831356106984400,4.282984375,-0.07899813339114188,0.006461588096385821,0.0028513891094364223
1782831356116913400,4.292913330078125,-0.07525777781903743,-0.004550370480469428,-0.0015287530703935771
1782831356126842400,4.30284228515625,-0.06942249579429625,-0.004430223832675256,0.004065952530968934
1782831356136772400,4.3127724609375,-0.0801958187431097,-0.006598174422327428,0.012193428012961522
1782831356146701300,4.322701416015625,-0.07705167549848556,0.00004193487900774926,0.008309554050629959
1782831356156630300,4.33263037109375,-0.0725625473856926,-0.008762928407895379,0.0005058123639784753
1782831356166559200,4.342559326171875,-0.07690320693850516,-0.0063048996973317116,0.011642187338368967
1782831356176488400,4.352488525390625,-0.08004559661746025,-0.010728237131494097,0.004721703892806545
1782831356186418200,4.362418212890625,-0.08797638961672782,-0.012500384203437714,0.01291975125982426
1782831356196347100,4.37234716796875,-0.06777648215293884,0.0020070472397841514,-0.00011683131270110606
1782831356206276400,4.3822763671875,-0.08408698096275329,0.0006723919693846255,0.0018331519776023924
1782831356216205300,4.392205322265625,-0.08872457763552666,-0.0013563191129360348,0.0037974651873577386
1782831356226134300,4.40213427734375,-0.08034662539064884,-0.005132476650783792,0.001044248355925083
1782831356236064500,4.412064453125,-0.07092062539756297,-0.0027433621576987205,0.0031024686605203894
1782831356245993500,4.421993408203125,-0.07301730541586876,-0.003837710432778112,-0.006116875445097684
1782831356255922400,4.43192236328125,-0.0775076025724411,-0.0037302588697755708,-0.009529168106615542
1782831356265851100,4.44185107421875,-0.07421674433350563,-0.012922399874636902,-0.0001881521163973957
1782831356275780400,4.4517802734375,-0.07152385198771953,-0.008461205514962784,0.010213095250166952
1782831356285710300,4.46171044921875,-0.08469313016235828,-0.004557982964767143,0.006401930331019684
1782831356295639300,4.471639404296875,-0.06823416279256343,-0.007034351049619726,0.014890037552639842
1782831356305568300,4.481568359375,-0.07392097625732422,-0.004375790231698193,0.001813963219942525
1782831356315497500,4.49149755859375,-0.07047989589273929,-0.0071678595024859525,0.0008551920572295785
1782831356325426400,4.501426513671875,-0.07706570402383804,0.004050339403306134,0.0006102773854508996
1782831356335356200,4.511356201171875,-0.08873451450765132,0.0029717732192482797,0.0010933207951951771
1782831356345285400,4.521285400390625,-0.07092763966023921,0.00277665707252454,0.0024330906321294605
1782831356355214300,4.53121435546875,-0.07092822418212891,-0.003569095225003548,0.005926805366249755
1782831356365143300,4.541143310546875,-0.08768822032511234,-0.005226214782265015,0.008607057426171377
1782831356375072300,4.551072265625,-0.07407178290486335,-0.009172979646665044,0.001101056577078998
1782831356385002500,4.56100244140625,-0.07930851451456546,-0.01085278595976997,-0.0046423915788996965
1782831356394931200,4.57093115234375,-0.07347147892415523,-0.008133969154860823,0.003847615338861942
1782831356404860200,4.580860107421875,-0.07960603615641594,-0.016272788014775143,0.006109367992077022
1782831356414789400,4.590789306640625,-0.08439443947672844,-0.0029162299399962646,-0.0012942045290023087
1782831356424718300,4.60071826171875,-0.08604045311808585,-0.003743255348666571,0.003027531127631664
1782831356434648300,4.6106484375,-0.0764618929117918,-0.0049789391900412735,-0.0061903242737986145
1782831356444577300,4.620577392578125,-0.0725713152140379,0.0008973872311413288,-0.0032403610275592654
1782831356454506500,4.630506591796875,-0.08035363965332508,-0.0016104445710545404,-0.0007706281794700771
1782831356464435500,4.640435546875,-0.07616261770427227,0.0002388639569049701,0.005392296630749478
1782831356474365200,4.650365234375,-0.07092471705079079,0.0055151832249015565,0.0035047932505607605
1782831356484294400,4.66029443359375,-0.0833458072066307,-0.002514142811973579,0.008259668760607018
1782831356494223400,4.670223388671875,-0.07825929772257804,-0.011439148180093615,0.015823025820124893
1782831356504152300,4.68015234375,-0.07436872002482414,-0.020283320564078167,0.01399871473610401
1782831356514081300,4.690081298828125,-0.08364858954548836,-0.009088539066491649,0.016072717131720853
1782831356524011300,4.70001123046875,-0.07886193979084491,-0.0023380829921690748,-0.0018833112622611223
1782831356533940200,4.709940185546875,-0.08006137870848179,-0.0007110845785355195,0.008632511527836322
1782831356543869200,4.719869140625,-0.06868716725707054,-0.00586385966525413,-0.0014458422936033458
1782831356553798400,4.72979833984375,-0.07512216874063014,-0.002120965076191351,-0.0014595511585474012
1782831356563727400,4.739727294921875,-0.08275251748859881,-0.0004354094423120841,-0.0091403697184287
1782831356573656300,4.74965625,-0.074374565243721,0.0009560951484367251,0.001257251785788685
1782831356583586300,4.75958642578125,-0.08440320730507374,0.008042007421934977,0.00939349509612657
1782831356593515500,4.769515625,-0.08365677285194396,0.002493492749589495,0.005455242331745103
1782831356603444200,4.7794443359375,-0.07318389415442943,-0.01062667188658379,0.007072614400507882
1782831356613373200,4.789373291015625,-0.07468085471391678,-0.007522020402131601,0.0031944760592188684
1782831356623303400,4.799303466796875,-0.07213701545000076,-0.0008061150513822212,0.0006200681271031498
1782831356633232400,4.809232421875,-0.08994505934119224,-0.00905037161372602,-0.002365751883806661
1782831356643161300,4.819161376953125,-0.06809796919226646,-0.004068546346854419,0.009920277182897553
1782831356653090300,4.82909033203125,-0.07138765838742256,0.004023944586724974,0.002612210058700293
1782831356663019500,4.83901953125,-0.0782698191165924,0.0003119383262703195,0.008093993337498977
1782831356672949200,4.84894921875,-0.07243336804807186,-0.0027187574394047257,0.002777063497900963
1782831356682878200,4.858878173828125,-0.0760258395820856,0.013571570798638275,-0.002918490395741537
1782831356692807400,4.868807373046875,-0.0710895522236824,-0.006318069706158712,0.011988790552644058
1782831356702736400,4.878736328125,-0.08141337783932685,-0.005218383102258667,0.005936322113266214
1782831356712665300,4.888665283203125,-0.0881470700085163,0.001475817306758836,0.007494438275462016
1782831356722595300,4.89859521484375,-0.08261106319129466,-0.005764463544543832,-0.0004453417478594929
1782831356732524300,4.908524169921875,-0.07617547718584537,-0.00558232561040204,0.0020543387139216065
1782831356742453200,4.918453369140625,-0.07258475921750068,-0.00014358232230879365,0.011747876202547922
1782831356752382200,4.92838232421875,-0.08440788348019122,0.0008172574999043717,0.0018006744801066816
1782831356762311200,4.938311279296875,-0.06929507002234458,-0.002164580455631949,0.0021984690255019814
1782831356772241400,4.948241455078125,-0.08246317915320396,0.00009914952553808688,0.005216392074571922
1782831356782170400,4.95817041015625,-0.07423369546830653,0.01177225715855602,-0.004134560787770897
1782831356792099300,4.968099365234375,-0.07752572275102138,-0.0001515829656738788,0.0009020999388769269
1782831356802028500,4.978028564453125,-0.08695289178788661,-0.0008718600642401724,0.009310977044980972
1782831356811957200,4.987957275390625,-0.06989245139360427,-0.0017920390825020148,0.012583231048146262
1782831356821887200,4.99788720703125,-0.07273439682126044,0.001593685232498683,0.008000944759184494
1782831356831816400,5.00781640625,-0.07617781527340411,-0.003031905908649787,0.007956868155440316
1782831356841745400,5.017745361328125,-0.08530570910274982,-0.0037748423635959624,-0.0009051686787977814
1782831356851674400,5.02767431640625,-0.08710311391353606,-0.006767758835572749,0.0033224772199057042
1782831356861603300,5.037603271484375,-0.07872457714676856,-0.0015824834184721111,0.007842155734589323
1782831356871533300,5.047533203125,-0.07752981440424919,-0.008021097064646892,0.005129864568589255
1782831356881462300,5.057462158203125,-0.07019698729813098,-0.0007978906457312405,0.007296623281575739
1782831356891391200,5.06739111328125,-0.07663081973791122,0.0009811519578797742,0.0022431666837539523
1782831356901320200,5.0773203125,-0.07438450211584567,-0.0012858522591879592,0.00040782274906523525
1782831356911249400,5.08724951171875,-0.0838116711527109,-0.004651574965775944,0.002558845036802813
1782831356921179400,5.097179443359375,-0.07902151426672935,-0.0032107239411212503,0.0041374833972193294
1782831356931108400,5.1071083984375,-0.08485504272580147,-0.0012258428673725574,0.011657996828854083
1782831356941037300,5.117037353515625,-0.07617547718584537,-0.0028375158477108925,0.009786293805995955
1782831356950966300,5.12696630859375,-0.08545300861895083,-0.006577953618206084,0.008801566218119113
1782831356960895200,5.136895263671875,-0.08305880695879458,-0.0058407938834978265,0.012545931245060636
1782831356970829800,5.146829833984375,-0.08530278649330139,-0.0017578125859145073,0.008031979218265041
1782831356980758800,5.1567587890625,-0.08275777818560599,0.0014695839287946,0.013633233291422948
1782831356990687500,5.1666875,-0.07153437338173389,-0.007204839645163156,0.002764898136071861
1782831357000616400,5.176616455078125,-0.0725835901737213,-0.0027752916659228503,0.005351718025188893
1782831357010545700,5.186545654296875,-0.0758779555439949,0.002377506253682077,0.00775268735284917
1782831357020475600,5.1964755859375,-0.08276128531694411,0.005769066654425114,0.0001518112945370376
1782831357030404600,5.206404541015625,-0.08350947333574295,0.0025526892906520514,0.005906895089382305
1782831357040333800,5.216333740234375,-0.07393091312944888,-0.0007143725141650066,0.009635889017255976
1782831357050262800,5.2262626953125,-0.08545359314084053,-0.003632904009101912,0.00782052842467092
1782831357060191700,5.236191650390625,-0.07079027701616286,-0.010465339278453029,0.005897889799019321
1782831357070121700,5.246121826171875,-0.07512626039385795,-0.004461596218473278,0.009703958417940884
1782831357080050700,5.25605078125,-0.07901391548216342,-0.004944648761372082,0.0007431465175002813
1782831357089979600,5.265979736328125,-0.0817073923498392,-0.006598343385686167,0.0019334431474562733
1782831357099908600,5.27590869140625,-0.0832020148217678,0.0035040260655805466,0.004893617260456085
1782831357109837800,5.285837890625,-0.07497311565876007,-0.0026494048305088654,0.008027220844756811
1782831357119767600,5.295767578125,-0.0757207191556692,0.0035731412124587222,0.0009106303052045404
1782831357129696500,5.305696533203125,-0.0731762953698635,0.0006550298426300287,0.004121372512634843
1782831357139625500,5.31562548828125,-0.07542085942625999,-0.006902212569932453,0.006032128904247656
1782831357149554700,5.3255546875,-0.07272738255858421,-0.004390060785645619,0.0021342081502545625
1782831357159483600,5.335483642578125,-0.06853752965331077,0.0013038537067594006,0.011100061551993712
1782831357169413600,5.34541357421875,-0.07572130367755889,-0.002278954949765466,0.01224429055051878
1782831357179342800,5.3553427734375,-0.08095861980915069,-0.0032050065863877533,0.0023536413209047165
1782831357189271800,5.365271728515625,-0.07407704360187053,0.002592149084783159,0.0012049370766617357
1782831357199200500,5.375200439453125,-0.07273088968992233,-0.006828508012904785,0.002126983825024217
1782831357209129500,5.38512939453125,-0.07093523844480513,-0.004164503834885545,0.006445276282401755
1782831357219059700,5.395059814453125,-0.08275953175127505,0.0023259632961126044,0.009879899506736546
1782831357228988700,5.40498876953125,-0.08231178798377513,0.01034191839476116,0.0017210790384095162
1782831357238917600,5.414917724609375,-0.09413608129024505,0.0025042333393124863,-0.0026142102195415642
1782831357248846800,5.424846923828125,-0.08590659760534763,0.006795418594055809,-0.004033228438301012
1782831357258775800,5.43477587890625,-0.08052081291377544,0.0037677048033336177,0.0030190098944585767
1782831357268705500,5.44470556640625,-0.08949848461747169,-0.005962333337357267,0.0015667287269141524
1782831357278634500,5.454634521484375,-0.07947451873123645,-0.007509434915194287,-0.0024610198186710477
1782831357288563700,5.464563720703125,-0.08875263468623161,-0.01180118185894098,0.007157744533848017
1782831357298492700,5.47449267578125,-0.08067278860509396,-0.003715193731384352,0.01006682778042741
1782831357308421600,5.484421630859375,-0.08531213884353638,-0.0028950364549178626,0.009168938225787132
1782831357318352000,5.494351806640625,-0.08067337312698364,-0.004546813116781413,-0.00012985519105568528
1782831357328280600,5.504280517578125,-0.07513619726598263,0.00729843621274922,0.0052578839955851435
1782831357338209500,5.51420947265625,-0.07603168480098248,0.005499378300993703,0.005699079291289672
1782831357348138500,5.524138427734375,-0.08560849144160747,0.0014066610606852919,0.0032308442805428056
1782831357358067700,5.534067626953125,-0.0694470457136631,0.0027375671711517497,0.011048112169047816
1782831357367997700,5.543997802734375,-0.07378595170080661,0.0018456369998399167,-0.0001478931712452322
1782831357377926700,5.5539267578125,-0.0775251382291317,0.0014447052158648146,0.000005470759561285376
1782831357387856000,5.56385595703125,-0.08994447481930255,-0.005126279805437661,0.0007483341492712497
1782831357397784800,5.573784912109375,-0.07692541877031325,-0.0011533301870105788,-0.0016370174841489641
1782831357407713500,5.583713623046875,-0.0814157159268856,-0.006036668082047254,0.00831558193261735
1782831357417643500,5.5936435546875,-0.07707680993974209,-0.002869107429217547,0.007321648124977946
1782831357427572700,5.60357275390625,-0.07887187666296959,-0.003670299710310064,-0.00023242964954115449
1782831357437501700,5.613501708984375,-0.07902151426672935,-0.010058297414099797,0.004104795837169513
1782831357447430700,5.6234306640625,-0.0748322458833456,-0.010385296312184072,0.0019756017887499183
1782831357457359600,5.633359619140625,-0.07288520346879959,-0.001996251851134002,0.006894225626299157
1782831357467289600,5.64328955078125,-0.07258709730505943,0.0038878514511277895,0.00223575969543308
1782831357477218600,5.653218505859375,-0.07797580460608006,-0.0008981087503489106,0.004816935295052826
1782831357487147500,5.6631474609375,-0.08007131558060646,-0.0018515918165910989,-0.0004815090397838503
1782831357497076700,5.67307666015625,-0.07602934671342372,-0.00575442620771937,0.002771227412158623
1782831357507005700,5.683005615234375,-0.08575579095780848,-0.00038655619875062254,0.005159081529919058
1782831357516935700,5.692935791015625,-0.06989362043738365,-0.0020644125833641737,0.004644008147250861
1782831357526864600,5.70286474609375,-0.07932078947424888,0.0009988611445063726,0.009571856470871717
1782831357536793600,5.712793701171875,-0.0844090525239706,-0.006448797113471664,0.007734530641650781
1782831357546722600,5.72272265625,-0.08261340127885342,-0.0027970377068500963,0.002618776796804741
1782831357556651500,5.732651611328125,-0.07438274855017661,0.0009130186251131817,0.0072988700375892215
1782831357566581800,5.742581787109375,-0.07468202375769614,0.004704497029678896,0.0014647205240093171
1782831357576510700,5.7525107421875,-0.0752805741727352,0.0008737597603816539,0.001491818593489006
1782831357586439700,5.762439697265625,-0.08036883722245693,0.002071148284827359,0.010422947741718962
1782831357596368600,5.77236865234375,-0.07513210561275482,-0.001271147880400531,0.009082657314976678
1782831357606297900,5.7822978515625,-0.08770166432857512,0.0035973258056445044,0.014491128762392327
1782831357616227600,5.7922275390625,-0.08650397897660732,-0.00740013388840016,0.0035113873881287873
1782831357626156500,5.802156494140625,-0.0758820471972227,-0.001964253844250925,0.005205359223904088
1782831357636085800,5.812085693359375,-0.08486147246658801,-0.000735839993879199,0.006653539605066179
1782831357646014700,5.8220146484375,-0.07992226249873638,-0.0010084007244091481,0.003433353715855628
1782831357655943700,5.831943603515625,-0.07872691523432732,-0.005363148168078624,0.005574868389731273
1782831357665873700,5.841873779296875,-0.08112228593826293,-0.008292949975701049,0.008442788508860394
1782831357675802600,5.851802734375,-0.07214578327834606,0.004783676912845112,0.0005499163671862334
1782831357685731600,5.861731689453125,-0.07080430554151534,0.006180186472274363,0.0004963230164255946
1782831357695660500,5.87166064453125,-0.07993219937086105,0.003561313777347095,-0.0039693511555437
1782831357705589800,5.88158984375,-0.07993336841464042,0.00042276915644761173,0.0002671447698958218
1782831357715519700,5.891519775390625,-0.07439736159741878,-0.006819808683218434,0.0035770091034006326
1782831357725448700,5.90144873046875,-0.07918284230828285,-0.001739555410016328,0.011705918490653857
1782831357735377700,5.911377685546875,-0.0760392835855484,0.003439303966029547,0.009387120154267176
1782831357745306600,5.921306640625,-0.06840718127191066,0.0036361417123815043,0.006810045341029762
1782831357755235600,5.931235595703125,-0.07319675363600253,-0.00563432522569783,0.0004642930435016751
1782831357765165600,5.94116552734375,-0.08337503330111504,-0.005628146646660752,0.0016019553039222955
1782831357775094800,5.9510947265625,-0.08726502647697926,0.0006676883948035538,0.011504203639784827
1782831357785023700,5.961023681640625,-0.08367430850863457,-0.005390999722806737,0.0074636230120901014
1782831357794952700,5.97095263671875,-0.08711831148266792,-0.001975852950499393,0.0035895945903379467
1782831357804884700,5.980884765625,-0.08053367239534855,-0.004896622068295255,0.0055430758788250385
1782831357814813700,5.990813720703125,-0.07469663680493831,-0.002472765055391937,0.004549096405413002
1782831357824742700,6.00074267578125,-0.0723012661010027,-0.0009663197149289771,0.006063857483072206
1782831357834671600,6.010671630859375,-0.08367138589918613,-0.0008282629511086269,-0.007537912091007456
1782831357844600600,6.0206005859375,-0.07663900304436683,0.0060981387785868715,-0.007118608966702595
1782831357854530600,6.030530517578125,-0.07604162167310714,-0.003917662067501805,0.004631714921258389
1782831357864459800,6.040459716796875,-0.07305120768547058,0.001430452928226441,0.000621858225390315
1782831357874388700,6.050388671875,-0.06527005228996277,0.0023692179159494117,0.0061537916556932025
1782831357884317700,6.060317626953125,-0.07948679369091988,-0.00857707327986136,0.006525118319271132
1782831357894246700,6.07024658203125,-0.07305296125113964,0.0002753874418558553,0.0015254742679186165
1782831357904176600,6.0801767578125,-0.08771919998526573,-0.0018028984032338485,0.008914479407528415
1782831357914105600,6.090105712890625,-0.07305354577302932,0.008348616552539169,0.0019218988401349633
1782831357924034600,6.10003466796875,-0.07320259885489941,-0.003899039565422572,-0.0013560451183002441
1782831357933963500,6.109963623046875,-0.07664426374137401,-0.006839970121835358,-0.0019984620745293795
1782831357943892700,6.119892822265625,-0.07724281415641307,-0.002863956330064684,-0.0041431916187983
1782831357953822700,6.12982275390625,-0.07425123112499714,-0.004107700180308893,0.003313928587269038
1782831357963751700,6.139751708984375,-0.08502806120514869,-0.00556290395730175,0.002052804343961179
1782831357973680600,6.1496806640625,-0.08323533256947993,-0.012040712536126374,-0.0024295743676368145
1782831357983609600,6.159609619140625,-0.0851800368964672,-0.0014325307208811863,0.0002137249490711838
1782831357993538800,6.169538818359375,-0.08518062141835689,0.001920492334337905,0.007341768464399501
1782831358003468800,6.17946875,-0.06931903541982173,-0.00015926851520780473,0.0026979703797027467
1782831358013397800,6.189397705078125,-0.07066577385365963,0.008332323004864155,0.005372148891864344
1782831358023327000,6.199326904296875,-0.07261164722442627,0.004752007699524984,-0.0036381647061090915
1782831358033256000,6.209255859375,-0.0751549019664526,-0.0006675696637947112,0.003998805578891188
1782831358043184600,6.2191845703125,-0.07380699448883533,-0.007500603154767304,0.004345627988874912
1782831358053115000,6.229114990234375,-0.07081307336986065,-0.006069405874446965,0.002294896870991215
1782831358063043800,6.2390439453125,-0.07455459798574447,-0.0031527649424970146,-0.000027162001561373472
1782831358072972800,6.248972900390625,-0.09056874419748782,-0.012210694241593592,-0.003949733139621094
1782831358082901800,6.25890185546875,-0.0815904879719019,-0.002022368106502108,-0.00017323767505586147
1782831358092831000,6.2688310546875,-0.0788975956261158,-0.0034116213746601715,0.010968973385076968
1782831358102760700,6.2787607421875,-0.08353519229888916,0.002499000041768886,0.00820309800147079
1782831358112689700,6.288689697265625,-0.08069032426178455,0.005558670740178786,0.00003711713999509811
1782831358122618600,6.29861865234375,-0.07410568517446517,-0.00523878656947054,-0.006655220105499029
1782831358132547800,6.3085478515625,-0.0812894591987133,0.0006657932652393355,0.00525681541650556
1782831358142476800,6.318476806640625,-0.07515607101023197,0.0029888704845216123,0.005929773641470819
1782831358152406800,6.32840673828125,-0.07336158880889415,-0.0062389400553423905,0.009134131773887201
1782831358162336000,6.3383359375,-0.0745581051170826,-0.006029462023125961,-0.0005667031052056699
1782831358172264700,6.3482646484375,-0.08713058644235133,-0.003649307154631242,0.00860910325278528
1782831358182193700,6.358193603515625,-0.08892682220935821,-0.002375684189354069,-0.005767541417619213
1782831358192122600,6.36812255859375,-0.08338847730457782,-0.00032933698564302174,0.004233308454509825
1782831358202052900,6.378052978515625,-0.07680208465158939,-0.0023779400785220784,0.008302174461772664
1782831358211981800,6.38798193359375,-0.07680266917347908,-0.0020980591246392575,-0.0013444368788972495
1782831358221910800,6.397910888671875,-0.0892231748074293,-0.001812310118973255,0.0031961656928062437
1782831358231840000,6.407840087890625,-0.08847674035429955,0.0012823496944271027,0.003115894397674128
1782831358241769000,6.41776904296875,-0.07680500726103782,0.0068504960824269795,-0.0019586597871035336
1782831358251698700,6.42769873046875,-0.07575754403471946,0.0017630687163444235,0.003889828779082745
1782831358261627600,6.437627685546875,-0.08084697612822056,0.0005820833374280482,-0.009642181760724634
1782831358271556900,6.447556884765625,-0.07186871990263462,-0.0009505924228345975,-0.004124505184637382
1782831358281485800,6.45748583984375,-0.07201718846261501,-0.005936363212461583,-0.000636480405787006
1782831358291414800,6.467414794921875,-0.07800269261300563,-0.005060763121442869,0.004891315705515444
1782831358301344800,6.4773447265625,-0.07441314368844032,-0.003668874938203953,0.0027944073583465066
1782831358311273700,6.487273681640625,-0.07381751588284968,-0.001316932384041138,0.007488921850128099
1782831358321202700,6.49720263671875,-0.08324585396349429,-0.00028972192788496613,0.0035140177366323765
1782831358331131600,6.507131591796875,-0.08070201469957829,0.0003133174326037988,0.0006563267505727708
1782831358341060900,6.517060791015625,-0.07651333083808422,0.01251017951166723,0.005117187750106677
1782831358350990800,6.526990966796875,-0.07845861968696118,0.004329389240127057,0.010963886218005791
1782831358360919800,6.536919921875,-0.07890811702013015,-0.00014490662971511484,-0.002182887863880023
1782831358370848800,6.546848876953125,-0.08025543997585773,0.004767579727992416,-0.00029012378668412565
1782831358380777700,6.55677783203125,-0.08130465676784515,0.00011258439584635197,0.006084635409619659
1782831358390706700,6.566706787109375,-0.07920797674953937,-0.0028999957578256723,0.006335651028621941
1782831358400636700,6.57663671875,-0.07382043849229812,-0.0044988183897454286,0.002251231259200722
1782831358410566000,6.58656591796875,-0.08429273266792296,-0.00478820239091292,0.001159782760683447
1782831358420494800,6.596494873046875,-0.0703746819525957,0.00042173254340887066,-0.0012690609545912594
1782831358430423800,6.606423828125,-0.07695990556180476,-0.0035593318828148765,-0.0016538042221684007
1782831358440352800,6.616352783203125,-0.08055413066148757,0.004755528530594893,-0.0019507870079018175
1782831358450282000,6.626281982421875,-0.0687321754425764,0.0038473504773806778,0.002267004217067733
1782831358460211700,6.636211669921875,-0.08384498890042305,-0.004469628827879205,0.008415370778972283
1782831358470140700,6.646140625,-0.08324643848538399,-0.000036628516227938234,0.00015239581642672418
1782831358480070000,6.65606982421875,-0.07741115646064281,0.001107915576128289,0.00458591215130873
1782831358489998800,6.665998779296875,-0.07486731719672679,0.00032522706610616295,-0.00021921397494152186
1782831358499927800,6.675927734375,-0.08189853100776671,-0.003975392737262882,0.0029289295913651585
1782831358509857800,6.68585791015625,-0.07411912917792797,-0.005417065745824947,-0.002291846397379413
1782831358519786800,6.695786865234375,-0.08668985693752765,-0.0016118145442334934,-0.004670850488403812
1782831358529715700,6.7057158203125,-0.08085632847845554,-0.006415506765223108,-0.005457836147630587
1782831358539644700,6.715644775390625,-0.07637129201889038,-0.0022746806334471327,0.007103502729116007
1782831358549574000,6.725573974609375,-0.07547346639633178,0.0030969111359911037,0.0057391647065058345
1782831358559504000,6.73550390625,-0.07427636556625365,0.004928410012624227,0.0010601491779554635
1782831358569432800,6.745432861328125,-0.07622223893702029,-0.0012000097397947683,0.003788341165985912
1782831358579361800,6.75536181640625,-0.06769464908838271,0.0002590208289446309,0.00781732268743217
1782831358589290800,6.765290771484375,-0.06934066272974014,0.0037012611041544003,0.0022371662012301385
1782831358599219700,6.7752197265625,-0.07756897737085819,0.000004361081286333501,0.0011238255313131957
1782831358609149700,6.785149658203125,-0.08415244741439819,-0.013119196521793492,-0.008391049188468605
1782831358619079000,6.795078857421875,-0.07352876206934451,0.00016575762149877846,-0.0034679501052014526
1782831358629008000,6.8050078125,-0.08610124339461327,0.008600257792626508,-0.0021362265774048862
1782831358638936800,6.814936767578125,-0.07472937003076076,-0.0059890980466967446,0.009164764374168589
1782831358648865800,6.82486572265625,-0.08191314405500888,0.00000922448607161641,0.0036795744287315755
1782831358658795800,6.834795654296875,-0.07353460728824138,0.0032733454151311885,0.007692691660765558
1782831358668724700,6.844724853515625,-0.07278641926944256,-0.0013197545287897809,-0.0002882788894698024
1782831358678653700,6.85465380859375,-0.08819909245669841,0.002114612967218272,-0.00044602673444896934
1782831358688583000,6.8645830078125,-0.08535597798526287,-0.006203891574847511,-0.00372348663569428
1782831358698512000,6.874511962890625,-0.08041969062685966,-0.00828457030642312,-0.009355601637996733
1782831358708441900,6.88444189453125,-0.07742810759544372,0.0061299175897613165,-0.002376812133938074
1782831358718370600,6.89437060546875,-0.08476151922345161,0.003888636902417056,0.0033758787744212894
1782831358728299800,6.9042998046875,-0.08386544716656208,0.000508675607922487,-0.007520814825734123
1782831358738228700,6.914228759765625,-0.0838642781227827,-0.006147416713833808,0.0027162184224463998
1782831358748157700,6.92415771484375,-0.07787994301617145,-0.005036299967044033,-0.002936555775394663
1782831358758086700,6.934086669921875,-0.07728197712302208,-0.002319095163908787,-0.0027534634266048667
1782831358768017000,6.944016845703125,-0.07982640090882778,-0.0020212081958772615,-0.0027883155442774295
1782831358777945900,6.95394580078125,-0.08266893085837364,0.002627471559913829,0.0044226935467682775
1782831358787874800,6.963874755859375,-0.07773088993430137,0.005943249610974453,0.007148182121058925
1782831358797803800,6.9738037109375,-0.0753372727960348,-0.003941814694646746,-0.005436428033420816
1782831358807732700,6.983732666015625,-0.06755728644430636,-0.0024539005247177555,0.0008541874102316796
1782831358817662700,6.993662841796875,-0.0729454092234373,0.003559555645100772,-0.0030720004570204762
1782831358827592000,7.003592041015625,-0.07234685880839824,-0.0004480542947538197,0.004280864790128544
1782831358837521000,7.01352099609375,-0.08341828792095184,-0.0018707303419010712,0.0006444536496885121
1782831358847449900,7.023449951171875,-0.07174538578391075,0.0021318243969231845,0.0015608469753991812
1782831358857378800,7.03337890625,-0.08162088311016559,-0.0038719551956746725,0.0003335062706843018
1782831358867308800,7.043308837890625,-0.07907645932435989,0.0006469424342969432,0.0003053670215886086
1782831358877237800,7.05323779296875,-0.08760755630433559,-0.002668369825882837,-0.001868780413409695
1782831358887166700,7.063166748046875,-0.08611118026673793,-0.006564710544142872,-0.00030351299121975897
1782831358897095700,7.073095703125,-0.08476502635478973,0.0011939635914983227,0.005084262728039175
1782831358907025000,7.08302490234375,-0.07803308775126934,-0.0027500978591619056,0.002272073117829859
1782831358916955000,7.092954833984375,-0.07833353200256823,0.006924958691280335,0.0030308738621883094
1782831358926883600,7.102883544921875,-0.07444353882670401,0.004279586148494855,0.002669995527388528
1782831358936812800,7.112812744140625,-0.0835726016998291,0.011678445961838587,-0.005456027783034369
1782831358946741800,7.12274169921875,-0.08282441368103027,0.0002875984694575891,0.004740161998104304
1782831358956670700,7.132670654296875,-0.08387187690734862,-0.008768590963701717,0.0026490258045960215
1782831358966600200,7.14260009765625,-0.0877636236488819,-0.005281538865808397,-0.00424779363758862
1782831358976529400,7.152529296875,-0.07669044097065925,-0.004251547364098951,0.007580764852045103
1782831358986458400,7.162458251953125,-0.07294833183288574,0.003636936296825297,-0.0033131705354433505
1782831358996387300,7.17238720703125,-0.07040449256896972,0.010932554931403137,-0.004524245091946795
1782831359006316300,7.18231640625,-0.07519289588928223,-0.002050932047283277,-0.0000054616264067590235
1782831359016246300,7.192246337890625,-0.07818447892069816,0.0035173193719936534,0.006925177886988967
1782831359026175200,7.20217529296875,-0.0786310536444187,-0.0069304979495005675,0.005395758096314966
1782831359036104200,7.212104248046875,-0.06800503021180629,-0.007047461692942306,-0.0021627035923767832
1782831359046033400,7.222033447265625,-0.07533610375225544,0.0053159160594455895,-0.0019842417529318482
1782831359055962400,7.23196240234375,-0.08281681489646435,0.006313699491717852,-0.0016029142851475625
1782831359065891300,7.241891357421875,-0.08296762154400349,0.0006267581627937034,0.0030907782227266576
1782831359075821300,7.2518212890625,-0.0790758748024702,-0.0059349338737782085,0.001999758982472122
1782831359085750300,7.261750244140625,-0.07713000143170357,-0.0035795481203589586,0.004734718638006598
1782831359095679200,7.27167919921875,-0.07847673986554145,-0.007605191473825834,0.006360995532432571
1782831359105608200,7.281608154296875,-0.07563245635032653,-0.009025949558522551,0.005504460901487618
1782831359115537200,7.291537109375,-0.0751852971047163,-0.0018404311017598957,-0.0030524372400250284
1782831359125467400,7.30146728515625,-0.07144377248883246,-0.002547529058344662,-0.00249043770940043
1782831359135396400,7.311396240234375,-0.06785363904237747,0.0010125289102550596,0.0032745920907240357
1782831359145325000,7.321324951171875,-0.07219254502952098,-0.002742384910164401,0.005552957952022552
1782831359155254300,7.331254150390625,-0.08221709543764591,0.0004957247948041186,0.0041104492598213254
1782831359165183200,7.341183349609375,-0.08266893085837364,0.002999912468343973,0.0013569036348257213
1782831359175113200,7.35111328125,-0.07039923187196254,-0.0014051175575703382,0.003429344261018559
1782831359185042400,7.36104248046875,-0.07653378910422325,0.0008033979379106313,-0.003207700866973027
1782831359194971400,7.370971435546875,-0.08326865031719208,-0.007738745592464693,-0.0014260964135173707
1782831359204900400,7.380900390625,-0.07922785049378872,-0.0021307421181118113,-0.0016647092086728662
1782831359214829300,7.390829345703125,-0.07623626746237278,-0.00030014285719953476,0.0030351938442792744
1782831359224759300,7.40075927734375,-0.0814724145501852,-0.0016845190208405255,0.00154564940626733
1782831359234688300,7.410688232421875,-0.07428922504782676,0.0002671219370095059,-0.0009144479637965559
1782831359244617200,7.4206171875,-0.08491232587099075,0.004688189782272092,0.001084205906977877
1782831359254546200,7.430546142578125,-0.07847732438743114,0.0020475893127266317,-0.0010050305903889238
1782831359264475400,7.440475341796875,-0.08087094152569771,0.005780875823227689,-0.0021714257549494504
1782831359274405000,7.450405029296875,-0.07608136916160584,0.0045059194173896686,-0.0007322323978412896
1782831359284334000,7.460333984375,-0.07324000825583935,-0.002284781902353279,0.003849195374595001
1782831359294263300,7.47026318359375,-0.07803074966371058,-0.004138775738584809,-0.004087881234986707
1782831359304192300,7.480192138671875,-0.06875555631816387,-0.0010395676142303273,-0.002866541012795642
1782831359314121200,7.490121337890625,-0.06576397328674793,-0.0031872334676794705,0.0036408224540762603
1782831359324050200,7.50005029296875,-0.08476853348612785,-0.0029595804579555986,-0.00027372064115479584
1782831359333980400,7.50998046875,-0.07923018858134746,-0.00004032744381111115,0.0028131029256619512
1782831359343909400,7.519909423828125,-0.08162263667583465,0.0014224340185523033,0.0049201308080460875
1782831359353838000,7.529838134765625,-0.06860299610495567,-0.0019366077854996546,-0.008311298483144491
1782831359363767300,7.539767333984375,-0.06471183388531207,0.007568859785120003,-0.004354286219365894
1782831359373696300,7.5496962890625,-0.07069792255759239,-0.00013512958779465407,0.002444233080651611
1782831359383626200,7.559626220703125,-0.07399053436219692,0.0042218783116200935,-0.002941268483130261
1782831359393555200,7.56955517578125,-0.08371814765036105,0.003858899351279251,0.007352107195323333
1782831359403484400,7.579484375,-0.07862988460063934,0.0000942815541755408,-0.0016819617375731467
1782831359413413400,7.589413330078125,-0.06920037747621535,0.007226585686090402,0.004914157724985852
1782831359423342300,7.59934228515625,-0.07458616216778755,0.0015456448396900667,0.002464353420073166
1782831359433272300,7.609272216796875,-0.0786269619911909,-0.002912768474430777,-0.0008662249078974127
1782831359443201300,7.619201171875,-0.07413724935650826,-0.0015194920517038553,0.0009896686244755984
1782831359453130200,7.629130126953125,-0.07533493470847606,-0.007191308876732364,-0.003673299951571971
1782831359463059200,7.63905908203125,-0.07264145784080028,-0.004849065732676535,-0.004078647615760564
1782831359472988400,7.648988525390625,-0.0819172357082367,0.005311326649296097,0.003974803648795933
1782831359482918100,7.658918212890625,-0.08027005302309989,0.00992565204433631,0.001618066188506782
1782831359492847000,7.66884716796875,-0.08431143736839294,0.007717721070745028,-0.006509719820739701
1782831359502776300,7.6787763671875,-0.07982347829937934,-0.0012456481129629537,0.0019413981250487266
1782831359512705300,7.688705322265625,-0.08266542372703552,-0.000693238394591026,-0.00008864639783278107
1782831359522634200,7.69863427734375,-0.0846095435321331,0.0013141239390242845,0.004147146274708211
1782831359532564200,7.708564208984375,-0.07204115386009216,-0.00666828964962624,-0.00225486625470221
1782831359542493400,7.718493408203125,-0.08715455183982848,-0.003948395132482983,0.0003219619633629918
1782831359552422400,7.72842236328125,-0.08805237746238707,0.0016021060009719804,0.0017408431848045438
1782831359562351000,7.73835107421875,-0.07368658297955989,0.006186817142460495,0.003400255163852125
1782831359572280000,7.748280029296875,-0.0738344670176506,-0.0010901515905745328,0.0015960735524073242
1782831359582209300,7.758209228515625,-0.07278525022566318,0.006074767036153935,0.004694642355944961
1782831359592139300,7.76813916015625,-0.0724836369305849,0.002077856586826965,-0.002552734956424683
1782831359602068200,7.778068115234375,-0.07173486438989639,-0.00006067611209582537,0.0006810593330301344
1782831359611997400,7.78799755859375,-0.06515139434635639,0.0057219030444510275,0.005096400690404698
1782831359621926400,7.797926513671875,-0.0777209530621767,0.007722945235134102,0.003925639877980574
1782831359631855400,7.80785546875,-0.07846855655908584,0.0003724089423893019,0.008017274839477614
1782831359641785300,7.817785400390625,-0.07801847470402717,-0.0038293033640366047,0.009155357225006445
1782831359651714300,7.82771435546875,-0.07741992428898811,-0.0032555951293092218,-0.0018127119777724145
1782831359661643300,7.837643310546875,-0.07876724724471569,0.0004631468326086178,0.005105186785059049
1782831359671572200,7.847572265625,-0.08490414256453514,-0.007180353657878003,0.004685920193372294
1782831359681501400,7.85750146484375,-0.08415653906762599,0.007825263965292832,0.008988494491809978
1782831359691431200,7.86743115234375,-0.08385843290388584,0.0035152050467208026,0.004551872884389013
1782831359701360000,7.877360107421875,-0.0670984367609024,0.0018459109944757074,-0.004011400198983028
1782831359711289000,7.8872890625,-0.07667348983585834,-0.0026519438474671914,0.0015341416315641254
1782831359721218300,7.89721826171875,-0.07861936320662498,-0.005696727503999136,-0.005220492860954254
1782831359731147300,7.907147216796875,-0.07308335638940334,-0.00046706038932316,-0.001208051482355222
1782831359741077200,7.9170771484375,-0.08056348301172256,-0.002877624095813371,0.0008537124861963093
1782831359751006500,7.92700634765625,-0.07816752778589725,-0.00259465156912338,0.005589134377101436
1782831359760935400,7.936935302734375,-0.0805617294460535,-0.0029851167580112812,0.004268644629372284
1782831359770864000,7.946864013671875,-0.08205810548365115,0.00040384069369174536,0.005834825367014855
1782831359780793000,7.95679296875,-0.07861585607528686,0.0045427625627489756,0.005467480758810416
1782831359790722300,7.966722412109375,-0.08026070067286491,-0.0009056070702150463,0.005380149535229429
1782831359800652300,7.97665234375,-0.07367664610743523,-0.0026127580479718745,0.004016094640409574
1782831359810581200,7.986581298828125,-0.0777162768870592,0.0035457645817659794,-0.003886906169634312
1782831359820510500,7.996510498046875,-0.08190437622666358,0.005222502154950052,0.002935541995242238
1782831359830439400,8.006439453125,-0.08818915558457374,0.0053583030296023935,-0.001120902921864763
1782831359840368400,8.016368408203125,-0.07726677955389022,-0.009342883720318787,0.0032645090881269424
1782831359850298000,8.026298095703124,-0.0811591108173132,-0.009352916490565985,0.00889909004215151
1782831359860227300,8.036227294921876,-0.06948562415838241,-0.002777894614962861,0.008552906952984631
1782831359870156300,8.04615625,-0.07053367190659046,-0.0017050868848338722,-0.006143973514577373
1782831359880085200,8.056085205078125,-0.07217910102605819,0.0011279628503136337,0.0012462463345844297
1782831359890014200,8.06601416015625,-0.07831248921453952,-0.006226738160895183,0.005025363014498725
1782831359899944200,8.075944091796876,-0.07606850968003273,0.001843417643290013,-0.004009345239214599
1782831359909873200,8.085873046875,-0.0765180070132017,-0.004222380635119043,0.00454301372449845
1782831359919802000,8.095802001953125,-0.06559504646062851,0.007716154734743758,-0.008870658532110973
1782831359929731300,8.1057314453125,-0.07577215708196162,0.0032794235294684765,-0.007851590283215045
1782831359939660300,8.115660400390626,-0.08460194474756717,0.0059710235338890924,-0.0090688023195602
1782831359949590300,8.12559033203125,-0.07906476888656616,0.004014514604676515,0.006084187885047868
1782831359959519500,8.13551953125,-0.08415303193628787,0.003302813538210466,-0.011674052914511412
1782831359969444600,8.145444580078125,-0.0753249978363514,0.002835716616269201,-0.003491513643879443
1782831359979373600,8.15537353515625,-0.07397767488062382,-0.0024735733395675197,0.00009167860513553023
1782831359989302300,8.16530224609375,-0.07487666954696177,-0.01013126218561083,0.0006163235337473452
1782831359999231200,8.175231201171876,-0.083707041734457,-0.009775425352109596,0.0012561740735545753
1782831360009161500,8.185161376953126,-0.08056465205550194,0.004783480550022795,0.0020172489733900874
1782831360019090400,8.19509033203125,-0.07936579765975475,0.0038279333908576517,0.002565046448726207
1782831360029019400,8.205019287109375,-0.08071370513737201,0.0015269173063337802,-0.001970478089060634
1782831360038948400,8.2149482421875,-0.06934358533918857,-0.00004938296652399003,-0.003533380024228245
1782831360048877600,8.224877685546875,-0.07083879233300686,-0.0032646323857130483,-0.0012448854945600032
1782831360058807300,8.234807373046875,-0.07233399932682513,-0.0037985246332827953,-0.0019530702965334056
1782831360068736300,8.244736328125,-0.07667465887963772,-0.0019104915301315485,-0.005408672376815229
1782831360078665500,8.25466552734375,-0.09014087417423725,0.0005702011033892631,0.006512907291669398
1782831360088594400,8.264594482421876,-0.08774608799219132,-0.004637382043641992,0.003962848349520936
1782831360098523400,8.2745234375,-0.07667290531396866,-0.0024522885229438544,0.005435624315822497
1782831360108453600,8.28445361328125,-0.08505202660262584,-0.00043182924573775377,0.007305902566574513
1782831360118382300,8.29438232421875,-0.07562602660953999,-0.00022667576218955216,-0.00022073007859289644
1782831360128311300,8.304311279296876,-0.08086451178491115,-0.012410541362361981,0.004892393417749554
1782831360138240300,8.314240234375,-0.08191314405500888,-0.003981224256427958,0.006308680823305621
1782831360148169500,8.32416943359375,-0.06350771879255772,-0.0008861077853012829,0.0009304857831448316
1782831360158098400,8.334098388671874,-0.06919219416975975,0.0007014536670874804,-0.0009900522169657051
1782831360168028400,8.3440283203125,-0.07502747619450092,0.0005548117380123585,0.0012500274605583399
1782831360177957400,8.353957275390625,-0.08669804024398327,-0.0010293613140471278,0.004319224039139226
1782831360187886600,8.363886474609375,-0.07622399250268935,-0.0018835761237423867,0.008339958322048186
1782831360197815300,8.373815185546874,-0.07921616005599498,-0.0016690931228455154,-0.007353522834274918
1782831360207744300,8.383744140625,-0.08475216687321663,-0.0018589759720256552,0.00098370467456989
1782831360217674500,8.393674560546875,-0.07532616688013076,0.0017370163930580018,0.006493581536691636
1782831360227603500,8.403603515625,-0.08535071728825569,-0.002794051165319979,0.004452221035351977
1782831360237532400,8.413532470703124,-0.0813110865086317,0.0029972090546041726,0.0006612860534805804
1782831360247461400,8.42346142578125,-0.07697276504337787,-0.004581226843036711,0.0044356717593502255
1782831360257390600,8.433390625,-0.07637538367211819,0.002708605938148685,-0.007655793716479092
1782831360267320300,8.4433203125,-0.06724748984277248,0.0054344461388885976,-0.0019708982141688463
1782831360277249300,8.453249267578125,-0.08176175288558006,-0.00008076448547653853,-0.0010181366671342402
1782831360287178500,8.463178466796874,-0.07951718882918357,-0.003889262523502111,0.0005962671264074743
1782831360297107500,8.473107421875,-0.07861936320662498,-0.008129379744711332,0.006471872028382494
1782831360307036400,8.483036376953125,-0.07996551711857318,-0.0072718359001912175,-0.0044819311870262024
1782831360316966400,8.49296630859375,-0.07323124042749404,-0.0018198175719939171,0.0036596458855550733
1782831360326895400,8.502895263671874,-0.07457622529566288,0.0048538104064529755,0.0034839331256225703
1782831360336824300,8.51282421875,-0.0813069948554039,-0.003324363216315396,0.008511369366198777
1782831360346753300,8.522753173828125,-0.08220657404363155,0.0007649930231273174,-0.0027230226225685326
1782831360356682200,8.53268212890625,-0.07981120333969592,-0.004539780587796122,0.0064504273815546185
1782831360366611500,8.542611572265624,-0.08011106306910515,-0.0046804220343474295,0.002076176086394116
1782831360376541400,8.55254150390625,-0.08654372646510601,0.0010503401699941605,-0.00032576135564595457
1782831360386470400,8.562470458984375,-0.07142974396348,0.0014017565567046404,0.009009939138637854
1782831360396399600,8.572399658203125,-0.0844523071438074,-0.006604398667137138,0.007492191519448533
1782831360406328300,8.582328369140624,-0.07442541864812374,0.0032858076044823973,-0.005798174017900601
1782831360416257300,8.59225732421875,-0.07891571580469608,-0.0007556543726241216,0.0006704283411614597
1782831360426187500,8.6021875,-0.07861702511906624,-0.0037522241064114493,0.007076925249444321
1782831360436116500,8.612116455078125,-0.08011457020044327,-0.00196943690944463,0.012885830723913385
1782831360446045400,8.62204541015625,-0.08191080596745014,0.0006854934795526787,-0.0028757106999401003
1782831360455974400,8.631974365234376,-0.07801672113835811,0.0016800209422362967,0.0006211823719553649
1782831360465903600,8.641903564453125,-0.07577274160385132,-0.004560512848570943,-0.0016748835428152232
1782831360475833300,8.651833251953125,-0.08086158917546271,0.0045663032685406505,0.002696883534314111
1782831360485762300,8.66176220703125,-0.08026479232609271,0.002707172032888047,-0.0032856249413918703
1782831360495691300,8.671691162109376,-0.077123571690917,0.007406837623822503,0.0032412195440847426
1782831360505620500,8.681620361328125,-0.0753290894895792,0.005284292511898093,-0.005451433806307614
1782831360515549400,8.691549560546875,-0.0878992327272892,0.0031286397148156536,-0.00328116796198301
1782831360525478400,8.701478515625,-0.08400748598575591,-0.004357889248826541,-0.0007343878223095089
1782831360535408400,8.711408447265624,-0.08325754440128803,-0.004870501246349886,-0.0031813243167009204
1782831360545337300,8.72133740234375,-0.09433131160140037,0.00023380875587463378,0.00470293526025489
1782831360555266300,8.731266357421875,-0.08550444654524327,-0.00011610979349352419,-0.0006026420682668685
1782831360565195300,8.7411953125,-0.07847264821231364,0.0013521954936673863,0.002126362770516425
1782831360575124500,8.75112451171875,-0.07188917816877365,-0.005551770641934127,-0.0029058775093406437
1782831360585054500,8.761054443359376,-0.07488193024396896,-0.006624190212995745,-0.000826011628517881
1782831360594983400,8.7709833984375,-0.079969608771801,0.0018134289304027333,-0.0011062533420044928
1782831360604912600,8.78091259765625,-0.07847264821231364,0.0036429550456581637,0.00027587606562301515
1782831360614841300,8.79084130859375,-0.08296294536888599,0.0019708479818189516,0.0022132556026801466
1782831360624770300,8.800770263671875,-0.07173895604312419,0.001206681509176269,0.006301164237130433
1782831360634700300,8.8107001953125,-0.08056757466495036,0.0046446977004176,-0.006326125148450956
1782831360644629500,8.82062939453125,-0.07458207051455974,-0.00592560435642954,0.0012861673530191182
1782831360654558500,8.830558349609374,-0.07577800230085849,0.0008077681523514911,-0.0070134954912588
1782831360664487400,8.8404873046875,-0.07069090829491614,-0.0011614769608480856,0.0018046017365530133
1782831360674416400,8.85041650390625,-0.0777250447154045,-0.0016238520418992266,0.0005935545795131475
1782831360684345600,8.860345703125,-0.0820651197463274,-0.0016143992269644512,-0.00271135958423838
1782831360694275300,8.870275390625,-0.07802490444481372,0.0005924540343927219,-0.004541488487692549
1782831360704204300,8.880204345703126,-0.07966974904239177,-0.0014101910249097272,0.000006913797976449132
1782831360714133500,8.890133544921875,-0.07877075437605381,0.004183377498714253,-0.00607964870724827
1782831360724062500,8.9000625,-0.07712649430036544,-0.0023636238588020204,0.007284494452364743
1782831360733991400,8.909991455078124,-0.08236322591006755,-0.007202729886467568,-0.004239774727914482
1782831360743921400,8.91992138671875,-0.07263736618757248,-0.006890371435089036,0.007250446052290499
1782831360753850400,8.929850341796875,-0.08131517816185951,-0.006157243988104164,0.0016387162508908657
1782831360763779300,8.939779296875,-0.08685293854475021,-0.0014821557160001248,-0.0020674265243578703
1782831360773708300,8.949708251953124,-0.09104396049380302,0.003436687317257747,0.0002961060028988868
1782831360783637500,8.959637451171876,-0.07608136916160584,-0.006172089930786751,-0.00047690592990256843
1782831360793567500,8.9695673828125,-0.08386135551333426,-0.0006346126756863668,0.010235106152575462
1782831360803496400,8.979496337890625,-0.06874737301170826,-0.006509208364086225,-0.0003787062524352222
1782831360813425400,8.98942529296875,-0.08715455183982848,-0.002847192424931563,-0.005196618795022368
1782831360823354400,8.999354248046876,-0.0817681826263666,-0.0016890718983719123,0.0048479058220516884
1782831360833283300,9.009283447265625,-0.0795247876137495,0.003120625371718779,-0.011826768391346559
1782831360843212300,9.01921240234375,-0.07488719094097614,0.0006150905578862875,-0.004113581931823864
1782831360853142500,9.029142578125,-0.07922960405945778,-0.0008217281790450215,0.00587823525047861
1782831360863071500,9.039071533203124,-0.07758417493999004,-0.002342074180697091,0.0008216094480361788
1782831360873000400,9.04900048828125,-0.07698620904684067,0.000034559856727719304,0.004107015193719417
1782831360882929400,9.058929443359375,-0.07788520371317863,-0.008374198518367484,-0.006237926275189966
1782831360892858600,9.068858642578125,-0.07833411652445793,-0.006654895878513343,0.010543222253676503
1782831360902788400,9.078788330078124,-0.06501753883361816,0.0056654281834373245,-0.0011131854062899947
1782831360912717300,9.08871728515625,-0.07429507026672363,0.0053222088029142465,-0.007092424212675541
1782831360922646500,9.098646484375,-0.07788520371317863,0.005701846637111157,0.00029938480537384745
1782831360932575500,9.108575439453125,-0.077886372756958,-0.0019875205554068087,-0.008048583293193952
1782831360942504400,9.11850439453125,-0.07175123100280761,-0.0006660352938342839,-0.0011756287837866692
1782831360952433400,9.128433349609375,-0.08836158954203129,-0.003992873595026322,-0.0076162654236890375
1782831360962363400,9.13836328125,-0.07818564796447754,-0.0005049036151031032,-0.003046756417909637
1782831360972292600,9.148292724609375,-0.07743862898945808,0.002045812914171256,-0.0035709994877222923
1782831360982221600,9.1582216796875,-0.07354922033548354,0.001016963056777604,0.0027706611565779895
1782831360992150500,9.168150634765626,-0.07968494661152363,-0.005607318487763404,0.005783624902740121
1782831361002079700,9.178079833984375,-0.08327741814553737,-0.001662791246222332,0.002355851544300094
1782831361012009700,9.188009765625,-0.08237959252297877,-0.004820547457667999,0.00565771523443982
1782831361021938700,9.197938720703124,-0.0855202286362648,-0.002202209052280523,0.0015998364120721816
1782831361031867600,9.20786767578125,-0.07624211268126964,0.005377222359203733,-0.0016064762154128403
1782831361041796600,9.217796630859375,-0.07654197241067887,-0.006190525203198194,-0.008757416549138725
1782831361051725600,9.2277255859375,-0.0850713158249855,0.0019459647023119032,0.0004798559388145804
1782831361061654500,9.237654541015624,-0.07459668356180191,0.002991290770471096,-0.0059843442397657775
1782831361071584800,9.247584716796876,-0.07624211268126964,-0.009716306442860513,-0.0014779087991453705
1782831361081513700,9.257513671875,-0.0725011725872755,-0.005680854081432335,0.00672405669116415
1782831361091442700,9.267442626953125,-0.08163140450417995,-0.002368975887354463,0.0008115903775207698
1782831361101371600,9.27737158203125,-0.09360299732685089,-0.0010694512958405538,-0.00815699383742176
1782831361111300600,9.287300537109376,-0.08896189352273941,-0.0008630557032767683,-0.005868417109362781
1782831361121230600,9.297230712890626,-0.0702571930527687,0.0026481901209568603,0.0006870872150175273
1782831361131159600,9.30715966796875,-0.07983692230284213,0.0039935951142339035,0.0010073138790205121
1782831361141088800,9.3170888671875,-0.07878945907652378,-0.000011147015099413692,-0.0007807203152216971
1782831361151017700,9.327017822265624,-0.07774141132831573,0.0015350595135940237,0.003545399255584925
1782831361160944600,9.336944580078125,-0.0756470693975687,-0.0011468639136059209,-0.0015289996655657888
1782831361170873600,9.34687353515625,-0.07340367438495159,0.0022535784799139944,-0.0042469990531448275
1782831361180802600,9.356802490234376,-0.08268179033994674,0.0026587297812802717,-0.0031215478203259405
1782831361190732800,9.36673291015625,-0.07953998518288136,-0.00016560692444909364,0.0006151910225860774
1782831361200661800,9.376661865234375,-0.08298048102557659,-0.0019927629861049355,0.0019569244877435266
1782831361210590700,9.3865908203125,-0.07864099051654339,0.00035892840630840506,-0.0016681706742383538
1782831361220519400,9.39651953125,-0.07220715807676314,-0.00027484858573880046,-0.004426410740660503
1782831361230448600,9.40644873046875,-0.07984042943418025,0.006601873349910602,-0.00512554458649829
1782831361240378600,9.416378662109375,-0.07265665540993213,-0.0057615683345589785,-0.0012204908388201146
1782831361250307600,9.4263076171875,-0.0793891785353422,0.000434578325250186,0.0019907171594910323
1782831361260236800,9.43623681640625,-0.07924070997536183,0.0018289233270566909,-0.0010537559697870165
1782831361270165800,9.446165771484376,-0.08492518535256385,0.006445632475428282,-0.0012688691583462059
1782831361280094700,9.4560947265625,-0.08283025889992714,-0.005644842053134925,0.002146181715838611
1782831361290023700,9.466023681640625,-0.08462532562315464,0.0037993603169219564,0.007554918024735525
1782831361299953700,9.47595361328125,-0.08118366073668003,-0.0005022641334449873,0.0006994078404735773
1782831361309882600,9.485882568359376,-0.08372983808815479,-0.00043698491146788,0.0023649298998992888
1782831361319811600,9.4958115234375,-0.0737041186362505,0.005036331933084875,0.005173868107097223
1782831361329740800,9.50574072265625,-0.0749018039882183,0.0008132982774171978,0.0014326357521582394
1782831361339669800,9.515669677734374,-0.08268295938372612,0.004775137413362972,-0.004972874775435775
1782831361349599500,9.525599609375,-0.07520049467384815,-0.0017552233366062864,0.007243888447340577
1782831361359528400,9.535528564453125,-0.07564940748512744,-0.0010562858535908162,0.005719071766547858
1782831361369457700,9.545457763671875,-0.08028875772356986,0.003607070881524123,-0.0031702275339514016
1782831361379386600,9.55538671875,-0.07759820346534252,0.0036408544201171024,-0.010685726863751186
1782831361389315600,9.565315673828126,-0.07789806319475173,0.005867494660755619,-0.003234762403834611
1782831361399244500,9.57524462890625,-0.08433248015642165,-0.008908798585413023,0.004395723341451958
1782831361409174800,9.5851748046875,-0.08164017233252525,-0.0005246403620345518,0.003277669963799417
1782831361419103700,9.595103759765625,-0.08672960442602634,0.000827746927877888,-0.0013598810432013124
1782831361429032400,9.605032470703126,-0.07431202140152454,0.004730206859670579,-0.0027140447316691277
1782831361438961700,9.614961669921875,-0.06967559377253055,0.0034258325631031762,0.005011261423910037
1782831361448890600,9.624890625,-0.08927753534317016,-0.0015831181727116927,-0.0044819129207171494
1782831361458820600,9.634820556640625,-0.08074702288508415,-0.002677334017050452,-0.002399718085490167
1782831361468749800,9.644749755859374,-0.07386369311213493,0.0021308973817387596,0.0071898384388536215
1782831361478678800,9.6546787109375,-0.07655600093603133,-0.0037115404695738105,-0.002901201334223151
1782831361488607700,9.664607666015625,-0.0810451290488243,-0.0035375356095377355,-0.005216638669744133
1782831361498536700,9.67453662109375,-0.07221651042699813,-0.004655844715517014,-0.0031645649781450627
1782831361508465700,9.684465576171876,-0.07865092738866805,0.0031651266671484336,-0.0037307474935427305
1782831361518395600,9.694395751953126,-0.07236673255264758,-0.00007030245696660131,0.00044757937071844935
1782831361528324600,9.70432470703125,-0.07670680758357047,-0.0009544009482720866,-0.004549315601121634
1782831361538253600,9.714253662109375,-0.07775368628799915,0.002336461857240647,-0.0011176880514714867
1782831361548182800,9.724182861328124,-0.0811935976088047,0.008821261865855193,0.0016431092982180416
1782831361558111700,9.73411181640625,-0.07984569013118743,0.002308171911095269,0.01006848088139668
1782831361568041500,9.74404150390625,-0.07760112607479094,-0.002298568399110809,0.00840471238764003
1782831361577970700,9.753970703125,-0.07894669546484946,-0.00269448151467368,-0.010914832045044748
1782831361587899600,9.763899658203124,-0.07071721177995205,0.004763118182006292,-0.0037945517110638317
1782831361597828600,9.77382861328125,-0.07251227850317954,0.001561824222933501,-0.0037065263677388428
1782831361607757600,9.783757568359375,-0.07804886984229087,-0.0025077313374960793,0.002896927017904818
1782831361617686800,9.793686767578125,-0.07984452108740805,-0.001206448613735847,0.0043866358526982365
1782831361627616800,9.80361669921875,-0.08134206616878509,-0.00555409046318382,-0.008112999432068318
1782831361637545500,9.81354541015625,-0.0723620563775301,0.0039779043547576295,-0.007803193697379901
1782831361647474700,9.823474609375,-0.08178980993628501,0.0008320029778871685,-0.0036456812922842797
1782831361657403600,9.833403564453125,-0.0795464149236679,-0.0009870656754355877,0.0019386947113089262
1782831361667332600,9.84333251953125,-0.0731114134401083,-0.0002138802126981318,-0.00942980851852335
1782831361677262600,9.8532626953125,-0.07340951960384845,-0.0011605956114362924,-0.006820082677854225
1782831361687191800,9.86319189453125,-0.07685059996843338,-0.005761435903818346,0.0014619349118787795
1782831361697120800,9.873120849609375,-0.07924480162858963,-0.004323968712915666,-0.006719937638472766
1782831361707049700,9.8830498046875,-0.08567921859025955,0.0021079411978367716,0.0016244593966752289
1782831361716978400,9.892978515625,-0.08777472956478595,0.000030043511814437806,0.004946187697909772
1782831361726908700,9.90290869140625,-0.07445698283016682,-0.0034868100692983716,0.006716512705525383
1782831361736837600,9.912837646484375,-0.07460603591203689,-0.002659414767869748,0.0010003178826533258
1782831361746766600,9.9227666015625,-0.07834639148414134,-0.0029478945867391303,-0.0036757476369850333
1782831361756695800,9.93269580078125,-0.08418108898699284,-0.00429901693474967,0.002172448668256402
1782831361766624800,9.942624755859375,-0.06667407386898994,-0.002728904374083504,-0.0026723062154836953
1782831361776553700,9.9525537109375,-0.07176818213760852,-0.000012448489619418978,0.0017776954633183777
1782831361786483700,9.962483642578125,0.07844225307404995,0.006872977342293598,-0.007838274143915623
1782831361796412700,9.97241259765625,-0.201094234752655,-0.013924754450749605,0.0009925273018423467
1782831361806341600,9.982341552734376,-0.07510872473716736,-0.004020903246267698,-0.002959096400765702
1782831361816270600,9.9922705078125,-0.07600888844728469,-0.0017087721126852556,0.006265846328577026
1782831361826199800,10.00219970703125,-0.13885551298260687,-0.00764119893554598,0.00034022827241569757
1782831361836129800,10.0121298828125,-0.05804594625532627,0.005924604276008903,0.008710691330581903
1782831361846058500,10.02205859375,-0.10457505771815777,0.0003600517843151465,-0.015627612845879046
1782831361855987500,10.031987548828125,-0.12954700188934803,-0.0024316978260641915,-0.014930150367319582
1782831361865916700,10.041916748046875,-0.055309799289703365,-0.001754360253503546,-0.002730511809280142
1782831361875845600,10.051845703125,-0.032411738783121105,0.0052390468643745405,-0.019525268738390878
1782831361885774600,10.061774658203126,-0.03256079186499119,-0.009295067089796065,-0.004086757856979966
1782831361895704800,10.071704833984375,-0.11426233899593352,-0.005364043217222206,-0.011271783123398198
1782831361905633800,10.0816337890625,-0.04064063794612884,0.0035258771377848458,0.0020618918327149002
