time,seconds_elapsed,z,y,x
1782831351906929700,0.0829296875,-0.0014345617964863777,-0.0004784325137734413,0.0009618164040148258
1782831351916858600,0.092858642578125,0.0003793323412537575,0.00036620255559682846,0.001024626661092043
1782831351926788900,0.102788818359375,-0.0009245509281754494,-0.0012921476736664772,0.001319705042988062
1782831351936717800,0.1127177734375,-0.0020961128175258636,-0.0002646530047059059,0.00003699399530887604
1782831351946646800,0.122646728515625,-0.001497434452176094,0.00012816302478313446,0.0002828040160238743
1782831351956575700,0.13257568359375,0.0008573355153203011,-0.0002786824479699135,-0.00008200155571103096
1782831351966504700,0.142504638671875,-0.0009008832275867462,-0.0011175787076354027,-0.000660174060612917
1782831351976434700,0.1524345703125,0.0004143835976719856,-0.0022693928331136703,-0.0004092063754796982
1782831351986364000,0.162364013671875,0.002163015305995941,-0.0032361196354031563,0.0010528690181672573
1782831351996292900,0.17229296875,0.0006270380690693855,-0.00021751783788204193,-0.0004509948194026947
1782831352006221800,0.182221923828125,-0.0004233121871948242,-0.00032990239560604095,-0.002530923578888178
1782831352016150800,0.19215087890625,0.0010339943692088127,0.00026599224656820297,0.0011132913641631603
1782831352026080800,0.202080810546875,-0.0018107946962118149,0.0000737123191356659,0.0019553829915821552
1782831352036009700,0.212009765625,-0.002155240625143051,0.001858786679804325,-0.0024755229242146015
1782831352045938700,0.221938720703125,-0.000218857079744339,-0.0002640187740325928,0.0017120311968028545
1782831352055867600,0.23186767578125,0.000994986854493618,0.0001504877582192421,0.0008340408094227314
1782831352065796900,0.241796875,0.0013289470225572586,-0.00037548691034317017,0.001783724408596754
1782831352075726800,0.251726806640625,-0.000728582963347435,0.001272173598408699,0.00048568984493613243
1782831352085655800,0.26165576171875,0.000032815150916576385,0.0007009254768490791,0.0002185753546655178
1782831352095584800,0.271584716796875,-0.0011345110833644867,-0.0015008039772510529,-0.002582079730927944
1782831352105513700,0.281513671875,-0.0015054894611239433,0.0030143186450004578,0.0022915047593414783
1782831352115442700,0.291442626953125,0.0004741353914141655,-0.0009258696809411049,0.0022218883968889713
1782831352125373000,0.301373046875,-0.0015370836481451988,0.00044406019151210785,0.0022485204972326756
1782831352135302000,0.311302001953125,-8.055940270423889e-7,-0.0021200748160481453,-0.00034613674506545067
1782831352145230800,0.32123095703125,0.0010325005277991295,-0.0011882344260811806,-0.000568510964512825
1782831352155159800,0.331159912109375,-0.003404023125767708,-0.0005616415292024612,-0.0014626691117882729
1782831352165089800,0.34108984375,-0.0013896077871322632,-0.0007099797949194908,0.0003757108934223652
1782831352175018800,0.351018798828125,-0.0013348152860999107,0.0028578592464327812,0.0019569271244108677
1782831352184947700,0.36094775390625,-0.0004037739709019661,-0.00017627980560064316,0.001116700004786253
1782831352194876700,0.370876708984375,0.0011066915467381477,0.0027359379455447197,-0.0007135830819606781
1782831352204806000,0.380805908203125,-0.0017370311543345451,0.0011774562299251556,0.00013703107833862305
1782831352214736000,0.39073583984375,-0.0011988123878836632,0.00021744240075349808,0.00005145370960235596
1782831352224664600,0.40066455078125,0.0006997548043727875,0.0003013322129845619,0.0002413373440504074
1782831352234593800,0.41059375,-0.00011629238724708557,-0.00006159394979476929,0.001063465140759945
1782831352244522800,0.420522705078125,-0.00053387600928545,0.00276322104036808,0.0010133981704711914
1782831352254451700,0.43045166015625,0.0006955452263355255,-0.0006673317402601242,-0.0007040072232484818
1782831352264382000,0.4403818359375,-0.0010730605572462082,-0.0006987573578953743,0.0019772639498114586
1782831352274311000,0.450310791015625,0.00006016809493303299,-0.000882997177541256,0.0009703142568469048
1782831352284240000,0.460239990234375,-0.002870907075703144,-0.0002116141840815544,0.0011791065335273743
1782831352294168800,0.4701689453125,0.00109202042222023,0.001005345955491066,-0.00016256608068943024
1782831352304097800,0.480097900390625,-0.00016073044389486313,0.00001145433634519577,0.0003847135230898857
1782831352314027800,0.49002783203125,0.000620892271399498,-0.0006506536155939102,0.0005026347935199738
1782831352323956700,0.499956787109375,0.0017149187624454498,-0.00015637092292308807,0.0020294254645705223
1782831352333885700,0.5098857421875,-0.0006331885233521461,-0.0010341489687561989,0.0007778815925121307
1782831352343815000,0.51981494140625,0.00013859570026397705,0.0008404506370425224,-0.0013907309621572495
1782831352353744000,0.529743896484375,-0.0009194798767566681,0.0025702742859721184,-0.00042484141886234283
1782831352363673600,0.539673583984375,0.000995066948235035,0.0030826665461063385,0.0032540494576096535
1782831352373602800,0.549602783203125,-0.003583504818379879,0.0017828000709414482,0.000590120442211628
1782831352383531800,0.55953173828125,0.0017444156110286713,0.001199568621814251,0.0011448562145233154
1782831352393460700,0.569460693359375,0.00018961727619171143,0.001524277962744236,0.0004875408485531807
1782831352403391000,0.579390869140625,-0.00042024627327919006,-0.0017609978094696999,-0.0015678871423006058
1782831352413320000,0.58931982421875,-0.00036584585905075073,0.001187758520245552,-0.0013226298615336418
1782831352423248600,0.59924853515625,-0.0010603982955217361,0.0007395483553409576,-0.0019500707276165485
1782831352433177600,0.609177490234375,0.001294621266424656,-0.0006383433938026428,-0.0012079854495823383
1782831352443106800,0.61910693359375,0.0006280317902565002,-0.0005102455615997314,-0.0006652330048382282
1782831352453036800,0.629036865234375,-0.001200985163450241,-0.0004784930497407913,0.0005216076970100403
1782831352462965800,0.6389658203125,0.0013455292209982872,-0.0015932926908135414,0.001134667545557022
1782831352472894700,0.648894775390625,-0.0007037846371531487,-0.0009853271767497063,0.0032311761751770973
1782831352482824000,0.658823974609375,-0.0002909954637289047,-0.00021327659487724304,-0.0005758125334978104
1782831352492753000,0.6687529296875,0.0009450409561395645,0.00012998562306165695,-0.0009123599156737328
1782831352502682600,0.6786826171875,-0.000661112368106842,-0.0010663066059350967,-0.0007419176399707794
1782831352512611800,0.68861181640625,0.00003695208579301834,0.0009280340746045113,-0.0007453672587871552
1782831352522540800,0.698540771484375,0.0009173927828669548,-0.0026379385963082314,-0.0009461697190999985
1782831352532469800,0.7084697265625,-0.00022463686764240265,-0.00039442162960767746,-0.0004665437154471874
1782831352542398700,0.718398681640625,0.0009396970272064209,-0.00173212680965662,0.00154813751578331
1782831352552328700,0.72832861328125,-0.0009293938055634499,0.0005490435287356377,-0.00029824860394001007
1782831352562257700,0.738257568359375,-0.0012359237298369408,-0.00058013666421175,-0.00031449366360902786
1782831352572186600,0.7481865234375,0.0008666478097438812,0.0004959041252732277,-0.0008520749397575855
1782831352582115800,0.75811572265625,-0.00012058578431606293,-0.0005696266889572144,0.00036871805787086487
1782831352592044800,0.768044921875,-0.0012154839932918549,-0.0005447724834084511,-0.0012959912419319153
1782831352601974800,0.777974853515625,-0.0028868839144706726,-0.0007000351324677467,0.00004890561103820801
1782831352611903700,0.78790380859375,0.0006106840446591377,0.0014556972309947014,-0.000859974417835474
1782831352621833000,0.7978330078125,-0.0005390029400587082,0.0007116105407476425,-0.0018626544624567032
1782831352631761700,0.80776171875,-0.0005265539512038231,0.00024034641683101654,-0.0012725647538900375
1782831352641690600,0.817690673828125,-0.000550256110727787,0.0011303741484880447,0.00023105647414922714
1782831352651620900,0.827620849609375,0.0010682111606001854,-0.0005148341879248619,-0.0041448697447776794
1782831352661549800,0.8375498046875,-0.0008362149819731712,-0.0025295158848166466,0.000083165243268013
1782831352671478800,0.847478759765625,-0.0005840696394443512,-0.00014723651111125946,-0.0008170357905328274
1782831352681407700,0.85740771484375,-0.001720706932246685,-0.0007658880203962326,-0.0026484914124011993
1782831352691337000,0.8673369140625,-0.00027434900403022766,-0.0006081722676753998,-0.0019385241903364658
1782831352701266700,0.8772666015625,0.000632191076874733,0.0025751041248440742,-0.0014383825473487377
1782831352711195600,0.887195556640625,-0.0005505438894033432,0.0007949825376272202,-0.00018812250345945358
1782831352721124900,0.897124755859375,0.0011653304100036621,-0.0005893288180232048,-0.000603043008595705
1782831352731053800,0.9070537109375,-0.0022549619898200035,-0.00007316842675209045,0.000970151275396347
1782831352740983800,0.91698388671875,-0.0010405611246824265,-0.0004899529740214348,-0.0016679763793945312
1782831352750912800,0.926912841796875,-0.000002454034984111786,0.0013120556250214577,-0.00133855314925313
1782831352760841700,0.936841796875,0.0004401635378599167,0.00037888437509536743,0.0014441842213273048
1782831352770770700,0.946770751953125,0.0014668069779872894,0.00023205392062664032,-0.0013130526058375835
1782831352780699600,0.95669970703125,0.001307549886405468,0.0009455149993300438,-0.0006134398281574249
1782831352790630000,0.9666298828125,0.002856120467185974,-0.0010797632858157158,-0.0020044557750225067
1782831352800558800,0.976558837890625,-0.00034180376678705215,0.0019120322540402412,0.0010837456211447716
1782831352810487800,0.98648779296875,0.0014458401128649712,-0.000029051676392555237,0.0008033197373151779
1782831352820416800,0.996416748046875,-0.002321467734873295,-0.00040588900446891785,0.0011929403990507126
1782831352830346000,1.006345947265625,-0.001147218979895115,0.0008515836670994759,0.0006885640323162079
1782831352840275700,1.016275634765625,0.0003790389746427536,-0.00036414898931980133,0.0005516782402992249
1782831352850204700,1.02620458984375,0.0001150183379650116,0.0006870264187455177,0.001140577718615532
1782831352860134000,1.0361337890625,0.0014260923489928246,-0.0005167229101061821,0.0014076931402087212
1782831352870062800,1.046062744140625,-0.0011359835043549538,-0.0008470909669995308,0.002220441587269306
1782831352879991800,1.05599169921875,0.0015543419867753983,-0.0008718585595488548,-0.0006816047243773937
1782831352889921800,1.065921875,0.0016675656661391258,-0.0019183680415153503,-0.0013287048786878586
1782831352899850800,1.075850830078125,0.0007738089188933372,-0.0008456464856863022,0.002165095880627632
1782831352909779700,1.08577978515625,0.001642327755689621,-0.0017723673954606056,0.002173835411667824
1782831352919708700,1.095708740234375,0.00040981732308864594,-0.0015904735773801804,0.0021493341773748398
1782831352929637600,1.1056376953125,-0.0007936609908938408,0.0026187533512711525,-0.0013645477592945099
1782831352939567900,1.11556787109375,-0.0008186949416995049,0.0014773225411772728,-0.0019672210328280926
1782831352949496800,1.125496826171875,0.0019976943731307983,-0.000011645257472991943,0.0007326528429985046
1782831352959425800,1.13542578125,-0.0015424462035298347,0.0010022204369306564,0.0010756682604551315
1782831352969354800,1.145354736328125,0.0013925619423389435,0.0003144582733511925,-0.0003989245742559433
1782831352979283500,1.155283447265625,-0.001081780530512333,-0.00020166300237178802,-0.001294279471039772
1782831352989213700,1.165213623046875,-0.000003125518560409546,-0.0006547067314386368,-0.0016330420039594173
1782831352999142700,1.175142578125,-0.00010618939995765686,0.0007453169673681259,0.00007750652730464935
1782831353009071600,1.185071533203125,-0.0005209613591432571,-0.0018582819029688835,-0.0019353190436959267
1782831353019000800,1.195000732421875,0.00044123828411102295,0.0007620025426149368,0.0003757718950510025
1782831353028929800,1.2049296875,0.0021435506641864777,-0.0023527275770902634,-0.0028933114372193813
1782831353038859500,1.214859619140625,-0.001423753798007965,0.0017437469214200974,-0.0016778446733951569
1782831353048788500,1.22478857421875,0.0006944825872778893,-0.0007906835526227951,-0.00025190645828843117
1782831353058717700,1.2347177734375,0.0011349702253937721,0.0013856515288352966,0.000270339660346508
1782831353068646700,1.244646728515625,-0.0023486698046326637,0.0023414911702275276,-0.003980348818004131
1782831353078576600,1.25457666015625,0.0018892185762524605,-0.003349417820572853,0.0010016262531280518
1782831353088505900,1.264505859375,-0.0007279878482222557,0.0004948396235704422,-0.0010961610823869705
1782831353098434600,1.2744345703125,-0.0008931038901209831,0.00003224797546863556,-0.00019814306870102882
1782831353108363500,1.284363525390625,0.0017854748293757439,0.0018158135935664177,0.0009192992001771927
1782831353118292500,1.29429248046875,-0.0011400077491998672,0.0003193831071257591,-0.0005086874589323997
1782831353128222700,1.30422265625,0.00003486406058073044,0.0005048587918281555,-0.00024388357996940613
1782831353138151700,1.314151611328125,-0.0004636794328689575,0.002716081216931343,-0.0006513474509119987
1782831353148080600,1.32408056640625,0.0005355672910809517,0.0002787383273243904,-0.00043181562796235085
1782831353158009900,1.334009765625,0.000194682739675045,0.0018209749832749367,-0.000027813948690891266
1782831353167938800,1.343938720703125,0.0011843014508485794,-0.0006515439599752426,0.00016138330101966858
1782831353177868500,1.35386865234375,-0.00043649785220623016,0.0005663195624947548,-0.002727346960455179
1782831353187797500,1.363797607421875,0.001828550361096859,-0.0004254644736647606,0.0010698037222027779
1782831353197726700,1.373726806640625,-0.0009198319166898727,-0.0033514797687530518,-0.0019779177382588387
1782831353207655700,1.38365576171875,0.0000809989869594574,0.000041855499148368835,0.0005070976912975311
1782831353217584600,1.393584716796875,-0.0008750762790441513,0.00010390672832727432,-0.001501990482211113
1782831353227514600,1.4035146484375,-0.000613827258348465,-0.0016737114638090134,0.0012622997164726257
1782831353237443600,1.413443603515625,0.00042400695383548737,-0.00032029300928115845,-0.0011710305698215961
1782831353247372500,1.42337255859375,-0.0021187392994761467,-0.0005119778215885162,0.002108141779899597
1782831353257301500,1.433301513671875,-0.00026917364448308945,-0.0016099987551569939,-0.000808286014944315
1782831353267230700,1.443230712890625,0.004053211770951748,-0.000014360994100570679,-0.0007221191190183163
1782831353277160700,1.45316064453125,-0.0032185493037104607,0.002799268811941147,-0.0011322456412017345
1782831353287089700,1.463089599609375,0.0002807658165693283,0.000260036438703537,0.0003364095464348793
1782831353297019000,1.473018798828125,0.0009979549795389175,0.0013287635520100594,-0.0005371076986193657
1782831353306947600,1.482947509765625,-0.001223856583237648,-0.00118978600949049,-0.001372292172163725
1782831353316876500,1.49287646484375,0.0007354309782385826,0.0033266693353652954,0.001024818979203701
1782831353326806500,1.502806640625,0.0010160338133573532,0.0007713595405220985,-0.0006783590652048588
1782831353336735700,1.51273583984375,-0.00040928926318883896,-0.0016177622601389885,0.002272423356771469
1782831353346664700,1.522664794921875,0.0006806701421737671,-0.0004349369555711746,-0.00237613869830966
1782831353356593700,1.53259375,-0.0004767393693327904,-0.0022397609427571297,-0.0012016845867037773
1782831353366522600,1.542522705078125,0.001142166554927826,-0.0011523468419909477,-0.001787732820957899
1782831353376452600,1.55245263671875,-0.00005359295755624771,0.00041119568049907684,0.0020741168409585953
1782831353386381600,1.562381591796875,-0.0007189987227320671,-0.0014993827790021896,0.0008401209488511086
1782831353396310500,1.572310546875,-0.00009528640657663345,0.00021622516214847565,0.0008808672428131104
1782831353406239700,1.58223974609375,0.0013122009113430977,-0.002374212257564068,-0.0018061315640807152
1782831353416169700,1.592169677734375,0.00011511053889989853,0.001655682921409607,0.0014277445152401924
1782831353426098700,1.6020986328125,0.001985030248761177,0.00038289930671453476,0.000058066099882125854
1782831353436027600,1.612027587890625,-0.0007556285709142685,-0.0023678792640566826,0.001683659851551056
1782831353445956600,1.62195654296875,0.001396244391798973,-0.0024416055530309677,0.0008277567103505135
1782831353455885600,1.631885498046875,-0.0006277579814195633,-0.0003960318863391876,0.00035637710243463516
1782831353465815600,1.641815673828125,-0.00017934758216142654,0.0013436218723654747,0.0015653395093977451
1782831353475744800,1.651744873046875,0.0017346665263175964,-0.0005179271101951599,-0.0007755793631076813
1782831353485673700,1.661673828125,-0.000004562549293041229,0.0024505900219082832,-0.0005820938386023045
1782831353495602700,1.671602783203125,-0.00031535420566797256,0.002623163163661957,-0.0002609165385365486
1782831353505531600,1.68153173828125,0.0010747350752353668,0.0018566986545920372,0.0016243201680481434
1782831353515461600,1.691461669921875,-0.0015215808525681496,0.000006866641342639923,-0.000886241439729929
1782831353525390600,1.701390625,0.00034046266227960587,0.0023235036060214043,-0.0005793450400233269
1782831353535319600,1.711319580078125,0.0018954826518893242,0.0006648870185017586,0.0017229574732482433
1782831353545248800,1.721248779296875,-0.0009951209649443626,-0.0016277171671390533,-0.000552887562662363
1782831353555177700,1.731177734375,0.000057892873883247375,0.0016916468739509583,0.00018640607595443726
1782831353565107500,1.741107421875,0.002274991013109684,0.0005891080945730209,-0.00014308281242847443
1782831353575036700,1.75103662109375,-0.0022065769881010056,-0.0010876180604100227,-0.0016091526485979557
1782831353584965600,1.760965576171875,0.0017858156934380531,-0.0007528066635131836,0.00047573912888765335
1782831353594894600,1.77089453125,0.001297924667596817,0.000979047268629074,0.0024265041574835777
1782831353604823600,1.780823486328125,-0.00031821057200431824,-0.0023427363485097885,0.0019437172450125217
1782831353614753800,1.79075390625,-0.0006873244419693947,0.0016352273523807526,-0.002647572662681341
1782831353624682800,1.800682861328125,-0.0006766971200704575,-0.0007339855656027794,-0.0004352792166173458
1782831353634611700,1.81061181640625,-0.0009251702576875687,0.0009403442963957787,-0.0031303982250392437
1782831353644540700,1.820540771484375,0.0001675151288509369,-0.0009850934147834778,0.0004457961767911911
1782831353654469600,1.8304697265625,-0.00013821572065353394,0.0015635518357157707,0.000660180114209652
1782831353664399600,1.840399658203125,0.002647281624376774,0.0017552580684423447,0.00006699422374367714
1782831353674328600,1.85032861328125,-0.001370895653963089,-0.0002785976976156235,0.0020893984474241734
1782831353684257800,1.8602578125,-0.0005613025277853012,0.001288323663175106,0.0014041410759091377
1782831353694186800,1.870186767578125,0.0029921531677246094,0.002568771131336689,0.003060894086956978
1782831353704116500,1.880116455078125,0.0006387541070580482,0.0004572831094264984,-0.0003287568688392639
1782831353714045700,1.890045654296875,-0.0003950856626033783,-0.000514504499733448,-0.0007820269092917442
1782831353723974700,1.899974609375,0.0011601019650697708,0.0005711345002055168,-0.0018876395188272
1782831353733903600,1.909903564453125,0.0003955084830522537,0.0006446372717618942,-0.0008990741334855556
1782831353743832600,1.91983251953125,-0.0006835758686065674,-0.0008166739717125893,-0.00024706218391656876
1782831353753762800,1.9297626953125,0.0021673375740647316,0.0003844117745757103,-0.00020205462351441383
1782831353763691800,1.93969189453125,-0.0011648079380393028,0.0002593034878373146,-0.0000402829609811306
1782831353773620500,1.949620361328125,0.0008165836334228516,0.0007274867966771126,0.0034287511371076107
1782831353783549400,1.959549560546875,-0.0022561894729733467,-0.0030085062608122826,0.001567274797707796
1782831353793478700,1.969478759765625,-0.000616215169429779,0.00035373400896787643,0.0010213260538876057
1782831353803408600,1.97940869140625,0.001246531493961811,-0.00010556168854236603,-0.00014109350740909576
1782831353813337600,1.989337646484375,0.0003365296870470047,-0.0008770795539021492,-0.00010327668860554695
1782831353823266800,1.999266845703125,0.0007256222888827324,-0.00047389697283506393,-0.004717168398201466
1782831353833195800,2.00919580078125,0.0013290951028466225,0.001703503541648388,-0.0007935329340398312
1782831353843124700,2.019124755859375,0.0019448446109890938,0.002060435712337494,0.0015128361992537975
1782831353853054700,2.0290546875,0.000887836329638958,0.001231393776834011,0.002441480290144682
1782831353862983700,2.038983642578125,-0.0005081715062260628,-0.0006129629909992218,0.0012029986828565598
1782831353872912600,2.04891259765625,0.0009981123730540276,-0.0009732889011502266,0.00031510088592767715
1782831353882841600,2.058841552734375,0.0030780434608459473,0.002380557358264923,-0.00034789787605404854
1782831353892770800,2.068770751953125,0.0001498982310295105,-0.00002028234302997589,0.0011786255054175854
1782831353902700500,2.078700439453125,0.001066836528480053,-0.0010096980258822441,-0.0020016441121697426
1782831353912629500,2.08862939453125,0.0018024016171693802,0.0004912586882710457,0.0009954767301678658
1782831353922558500,2.098558349609375,-0.0007825614884495735,-0.0019511869177222252,-0.0007762997411191463
1782831353932487700,2.10848779296875,-0.0010866941884160042,0.00005630403757095337,0.00040268152952194214
1782831353942417700,2.118417724609375,-0.004377705976366997,0.0013982076197862625,-0.00028566084802150726
1782831353952346600,2.1283466796875,0.0002769678831100464,-0.002451125532388687,-0.00117542315274477
1782831353962275800,2.13827587890625,-0.00036277901381254196,-0.0004878006875514984,-0.0015005399473011494
1782831353972204800,2.148204833984375,0.0005557453259825706,-0.0017549330368638039,-0.0011266320943832397
1782831353982133800,2.1581337890625,-0.00011169631034135818,0.0012413142248988152,-0.0013480745255947113
1782831353992063700,2.168063720703125,0.00042040273547172546,-0.0006633782759308815,-0.0010545938275754452
1782831354001993000,2.177992919921875,-0.0011770082637667656,-0.0011591995134949684,0.0021290043368935585
1782831354011922000,2.187921875,0.0003409935161471367,-0.001646292395889759,0.001149759627878666
1782831354021851000,2.197850830078125,-0.00008936505764722824,0.001842607744038105,0.0009720968082547188
1782831354031779800,2.20777978515625,0.0016486141830682755,0.0006021065637469292,0.001257321797311306
1782831354041709800,2.217709716796875,0.0006867861375212669,0.0005139065906405449,0.000954916700720787
1782831354051638800,2.227638671875,-0.001165708526968956,0.00004199519753456116,-0.0028818990103900433
1782831354061567700,2.237567626953125,0.0013979701325297356,-0.001332506537437439,-0.0005839071236550808
1782831354071496700,2.24749658203125,-0.001391158439218998,-0.00103849358856678,0.0020259912125766277
1782831354081426000,2.257426025390625,0.0008923159912228584,0.0027951691299676895,0.000645733904093504
1782831354091356000,2.26735595703125,-0.0007135700434446335,-0.00019076745957136154,-0.0023561809211969376
1782831354101284900,2.277284912109375,0.00029028020799160004,0.00028249435126781464,-0.0013427706435322762
1782831354111213800,2.2872138671875,0.0008181184530258179,-0.000593419186770916,0.003300450276583433
1782831354121142800,2.297142822265625,0.0005311267450451851,-0.001406942494213581,0.0007673585787415504
1782831354131071700,2.30707177734375,-0.002952287904918194,-0.00011903699487447739,0.00048239994794130325
1782831354141002000,2.317001953125,0.002004876732826233,-0.0019868724048137665,0.0005936934612691402
1782831354150931000,2.326930908203125,0.00043707434087991714,-0.002121894620358944,0.00288161588832736
1782831354160860000,2.33685986328125,-0.0004953788593411446,-0.002519529312849045,0.0008760704658925533
1782831354170788900,2.346788818359375,0.0019368864595890045,0.0008443091064691544,-0.00047708163037896156
1782831354180718800,2.35671875,0.00010543316602706909,0.0002355845645070076,-0.00318679166957736
1782831354190647800,2.366647705078125,0.0008812118321657181,-0.0011247582733631134,-0.001093813218176365
1782831354200576800,2.37657666015625,0.00001882016658782959,0.0021942192688584328,-0.002606535330414772
1782831354210505700,2.386505615234375,-0.0006624162197113037,0.00014917738735675812,-0.0016789562068879604
1782831354220435000,2.39643505859375,-0.0008681677281856537,-0.002367224544286728,0.0010219467803835869
1782831354230364700,2.40636474609375,0.0013089664280414581,-0.0034231673926115036,0.0019947998225688934
1782831354240293600,2.416293701171875,0.001681402325630188,-0.00019733887165784836,0.0006682886742055416
1782831354250222800,2.426222900390625,-0.0016435543075203896,-0.000334225594997406,0.0008304747752845287
1782831354260151800,2.43615185546875,-0.003045720048248768,0.0022473568096756935,-0.0014076749794185162
1782831354270080800,2.446080810546875,-0.0015663336962461472,0.0002862047404050827,0.001464277971535921
1782831354280011000,2.456010986328125,0.0027674976736307144,0.00015893951058387756,-0.0012167571112513542
1782831354289940000,2.46593994140625,-0.0017449622973799706,0.0003927648067474365,-0.0016865390352904797
1782831354299869000,2.475868896484375,0.0007157707586884499,0.00006138067692518234,-0.00046734651550650597
1782831354309798000,2.4857978515625,0.000662507489323616,0.00017509795725345612,-0.0027158535085618496
1782831354319726600,2.4957265625,0.0018607890233397484,0.0007621552795171738,-0.0003531896509230137
1782831354329656800,2.50565673828125,-0.001109701581299305,-0.0020575998350977898,0.0012172767892479897
1782831354339585800,2.515585693359375,0.002924686297774315,-0.00011578202247619629,0.0007497020997107029
1782831354349514800,2.5255146484375,-0.0005057314410805702,-0.00040739867836236954,0.0031058001331984997
1782831354359444000,2.53544384765625,-0.0011014724150300026,-0.0035584326833486557,-0.0010770750232040882
1782831354369373700,2.545373779296875,0.00035687442868947983,0.0006134090945124626,-0.0002927742898464203
1782831354379302700,2.555302734375,-0.00021629966795444489,-0.002730787731707096,-0.00013006804510951042
1782831354389231900,2.56523193359375,-0.0019343048334121704,0.001421346329152584,-0.0018984070047736168
1782831354399160800,2.575160888671875,-0.0018400419503450394,-0.0020435117185115814,0.0003256737254559994
1782831354409089800,2.58508984375,0.0007674591615796089,0.0005120579153299332,-0.0003539649769663811
1782831354419020000,2.59502001953125,0.0012021725997328758,0.0008885776624083519,-0.0001590191386640072
1782831354428949000,2.604948974609375,-0.0007584458217024803,0.0005303826183080673,-0.0018474631942808628
1782831354438877700,2.614877685546875,-0.0005501946434378624,0.0011131037026643753,0.0008132676593959332
1782831354448806700,2.624806640625,0.0013142842799425125,0.0002821981906890869,-0.001961213070899248
1782831354458735600,2.634735595703125,-0.00010002218186855316,0.00004504155367612839,-0.00023253262042999268
1782831354468665900,2.644665771484375,-0.0009189443662762642,-0.000059087760746479034,-0.0011582477018237114
1782831354478594800,2.6545947265625,-0.0006603337824344635,0.0008495142683386803,0.0007606390863656998
1782831354488523800,2.664523681640625,0.0005841609090566635,0.0001096874475479126,-0.0011749467812478542
1782831354498453000,2.674452880859375,-0.0001042541116476059,-0.0016976231709122658,0.000351534690707922
1782831354508382000,2.6843818359375,0.00033836252987384796,-0.0023658107966184616,0.0003680461086332798
1782831354518311700,2.694311767578125,0.00035753194242715836,-0.001621847040951252,-0.0018162485212087631
1782831354528241000,2.704240966796875,-0.0020789941772818565,-0.0007571186870336533,-0.0012149065732955933
1782831354538169900,2.714169921875,-0.00030445121228694916,-0.0009429650381207466,0.00033435458317399025
1782831354548098800,2.724098876953125,0.00014269351959228516,0.0009388243779540062,-0.003310980275273323
1782831354558027800,2.73402783203125,0.0004889518022537231,-0.0001621311530470848,0.0007333015091717243
1782831354567957800,2.743957763671875,0.00290683563798666,0.0014152592048048973,0.0012776511721313
1782831354577886700,2.75388671875,0.001907835714519024,-0.0028304820880293846,0.00004889955744147301
1782831354587815700,2.763815673828125,-0.0008394811302423477,0.0035824086517095566,-0.0016781608574092388
1782831354597744600,2.77374462890625,0.001660158857703209,0.000655684620141983,0.000034910161048173904
1782831354607675000,2.7836748046875,-0.0019388366490602493,0.0016136234626173973,-0.0001850668340921402
1782831354617603800,2.793603759765625,0.000058039091527462006,0.0014680447056889534,-0.0010735676623880863
1782831354627532800,2.80353271484375,0.00011023692786693573,-0.001049441285431385,0.0013658883981406689
1782831354637462000,2.8134619140625,-0.0010642195120453835,-0.0009552380070090294,0.001012118998914957
1782831354647390700,2.823390625,-0.0008170781657099724,0.00008099805563688278,-0.001379133202135563
1782831354657320700,2.83332080078125,0.0034798327833414078,-0.002018418163061142,0.0018223314546048641
1782831354667250000,2.84325,0.00023849867284297943,-0.0028216270729899406,-0.0017809257842600346
1782831354677179000,2.853178955078125,0.0002804715186357498,-0.0020962869748473167,-0.0016602841205894947
1782831354687107800,2.86310791015625,0.0007819449529051781,0.0001809820532798767,-0.000814464408904314
1782831354697036800,2.873036865234375,-0.00032783113420009613,-0.0011692419648170471,-0.0004468914121389389
1782831354706966800,2.882966796875,0.0034866146743297577,-0.0009929407387971878,0.0013672541826963425
1782831354716895700,2.892895751953125,0.0007362812757492065,0.00014478806406259537,-0.00036480696871876717
1782831354726824700,2.90282470703125,-0.0011002346873283386,-0.0017649652436375618,0.0010839528404176235
1782831354736754000,2.91275390625,0.0009552985429763794,0.0016462942585349083,0.00006931507959961891
1782831354746683000,2.922682861328125,-0.0021435553207993507,0.000946948304772377,-0.0022750655189156532
1782831354756612900,2.93261279296875,-0.0002984683960676193,-0.0014058398082852364,-0.003264856059104204
1782831354766541800,2.942541748046875,-0.0015003522858023643,0.0011095162481069565,0.0001959213986992836
1782831354776470800,2.952470703125,0.0016137314960360527,-0.0003611380234360695,0.000979261938482523
1782831354786399700,2.962399658203125,0.0006142472848296165,-0.001395510509610176,0.0006634113378822803
1782831354796329700,2.972329833984375,-0.0008727842941880226,0.0033890651538968086,-0.000993845984339714
1782831354806259000,2.982259033203125,-0.00016358401626348495,-0.0002544065937399864,0.001882367767393589
1782831354816188000,2.99218798828125,0.001391775906085968,-0.0007734000682830811,-0.0003931191749870777
1782831354826116900,3.002116943359375,-0.0010404884815216064,-0.0013702139258384705,0.0019773608073592186
1782831354836045800,3.0120458984375,0.0010200757533311844,0.0006260965019464493,-0.001009366475045681
1782831354845975800,3.021975830078125,-0.0008342834189534187,-0.0010117478668689728,-0.002111382782459259
1782831354855904800,3.03190478515625,0.0014217076823115349,-0.0009171590209007263,-0.0005128593184053898
1782831354865833700,3.041833740234375,0.0019170558080077171,-0.00032407231628894806,-0.0001179128885269165
1782831354875763000,3.051762939453125,-0.0008169142529368401,-0.0013052085414528847,-0.0016664513386785984
1782831354885692000,3.06169189453125,0.0012206695973873138,-0.0010042712092399597,0.0008494365029036999
1782831354895622000,3.071621826171875,-0.002226675860583782,0.002485322766005993,-0.0005031288601458073
1782831354905550600,3.081550537109375,0.0003808252513408661,-0.0003083338961005211,0.0005935612134635448
1782831354915479800,3.091479736328125,0.0004976224154233932,-0.0010302606970071793,0.0014861049130558968
1782831354925408800,3.10140869140625,0.001614818349480629,0.000253383070230484,-0.00047504715621471405
1782831354935337700,3.111337646484375,0.00039239320904016495,0.0005886862054467201,0.0010340269654989243
1782831354945268000,3.12126806640625,0.0014608539640903473,0.001262732781469822,-0.0016951803117990494
1782831354955197000,3.131197021484375,0.0020485352724790573,0.0010173683986067772,0.00020903628319501877
1782831354965126400,3.14112646484375,-0.001250588335096836,0.0012195026502013206,-0.0015497151762247086
1782831354975055400,3.151055419921875,-0.001066736876964569,0.000600786879658699,0.00029010698199272156
1782831354984985600,3.160985595703125,-0.0018510371446609497,-0.0002735285088419914,-0.0012433412484824657
1782831354994914600,3.17091455078125,-0.0001614745706319809,0.00043053925037384033,-0.0014431155286729336
1782831355004843500,3.180843505859375,0.0012513324618339539,-0.0022209035232663155,-0.0008934391662478447
1782831355014772700,3.190772705078125,-0.001551847904920578,0.00002232193946838379,-0.001584577839821577
1782831355024701700,3.20070166015625,0.0027233241125941277,-0.002530052326619625,-0.0007629925385117531
1782831355034631400,3.21063134765625,-0.0002483269199728966,-0.0014736903831362724,-0.0006576860323548317
1782831355044560600,3.220560546875,0.0022976547479629517,-0.0016390727832913399,-0.0019780811853706837
1782831355054489600,3.230489501953125,-0.0005908319726586342,-0.00010970234870910645,-0.00021718163043260574
1782831355064418600,3.24041845703125,0.0003191707655787468,-0.0004412662237882614,0.00013275723904371262
1782831355074347500,3.250347412109375,0.0006934227421879768,-0.0017906185239553452,0.00002876855432987213
1782831355084277500,3.260277587890625,0.000633501447737217,0.0012946529313921928,-0.0010490124113857746
1782831355094206500,3.27020654296875,0.00009555276483297348,-0.0007016090676188469,0.0002899887040257454
1782831355104135400,3.280135498046875,0.00003989227116107941,0.004584234207868576,0.0013952003791928291
1782831355114064400,3.290064453125,-0.0015697414055466652,-0.0017862459644675255,-0.0009832372888922691
1782831355123993600,3.29999365234375,-0.0012237969785928726,-0.0005279025062918663,-0.0006085303612053394
1782831355133923600,3.309923583984375,-0.000008082017302513123,0.000933406874537468,-0.0010370309464633465
1782831355143852500,3.3198525390625,-0.0003958381712436676,0.00047214701771736145,-0.0020594182424247265
1782831355153781800,3.32978173828125,-0.002247546799480915,0.0008469466120004654,-0.001863262616097927
1782831355163710700,3.339710693359375,0.0017269542440772057,0.0025987746194005013,0.0006235968321561813
1782831355173640400,3.349640380859375,-0.0002263728529214859,-0.00022689718753099442,0.0003632083535194397
1782831355183569700,3.359569580078125,0.001409873366355896,-0.0010676570236682892,0.0020220912992954254
1782831355193498600,3.36949853515625,-0.0006477925926446915,-0.0013470211997628212,0.0012260284274816513
1782831355203427600,3.379427490234375,0.001194581389427185,0.0027190931141376495,0.0010518571361899376
1782831355213356500,3.3893564453125,0.0010911840945482254,-0.000660216435790062,0.0012705344706773758
1782831355223286500,3.39928662109375,-0.00010670535266399384,-0.0029619866982102394,0.0001006079837679863
1782831355233215500,3.409215576171875,-0.0000998442992568016,-0.002338559366762638,0.00014220178127288818
1782831355243144400,3.41914453125,0.00022026803344488144,-0.0014687711372971535,-0.0010152081958949566
1782831355253073400,3.429073486328125,0.0005382644012570381,-0.0035900799557566643,-0.0011360375210642815
1782831355263002600,3.439002685546875,0.00012707244604825974,0.0004480704665184021,0.00007197260856628418
1782831355272932600,3.4489326171875,-0.000677226111292839,-0.00013186316937208176,0.0016772644594311714
1782831355282861600,3.458861572265625,-0.0006418060511350632,0.0023142509162425995,0.0003123944625258446
1782831355292790500,3.46879052734375,0.0005055861547589302,0.001602386124432087,0.001988316886126995
1782831355302719500,3.478719482421875,0.0004848139360547066,-0.0006772801280021667,-0.0027992473915219307
1782831355312648400,3.4886484375,0.001067236065864563,0.00011066999286413193,-0.0015832912176847458
1782831355322578700,3.49857861328125,0.0012581842020154,0.001519748941063881,-0.00029405485838651657
1782831355332507600,3.508507568359375,0.000017276033759117126,0.004838863387703896,-0.0018461542204022408
1782831355342436600,3.5184365234375,0.0000516306608915329,0.0006561027839779854,-0.001011519692838192
1782831355352365600,3.528365478515625,0.0020821932703256607,0.0022166846320033073,0.001053880900144577
1782831355362294800,3.538294677734375,-0.0021090898662805557,-0.0009532757103443146,-0.000273172277957201
1782831355372224500,3.548224609375,-0.0003071138635277748,0.0006152493879199028,0.0006619701161980629
1782831355382153500,3.558153564453125,-0.00021816417574882507,-0.0021997112780809402,-0.00018598046153783798
1782831355392082700,3.568082763671875,-0.0008340682834386826,0.0009537190198898315,0.0031092921271920204
1782831355402011600,3.57801171875,-0.0033611413091421127,-0.0011397916823625565,0.0005404073745012283
1782831355411941600,3.587941650390625,-0.00022523663938045502,-0.0032170619815587997,-0.0015068878419697285
1782831355421870600,3.59787060546875,-0.0004883566871285439,-0.000443912111222744,-0.0014411075972020626
1782831355431799600,3.607799560546875,0.0005811825394630432,-0.0006302250549197197,0.0016825823113322258
1782831355441728500,3.617728515625,0.0007817186415195465,-0.0022632749751210213,0.002243710681796074
1782831355451657500,3.627657470703125,0.0003702910616993904,-0.0008314484730362892,-0.0017653005197644234
1782831355461587700,3.637587646484375,-0.00119857769459486,-0.0010418379679322243,-0.0027022003196179867
1782831355471516700,3.6475166015625,-0.0006796717643737793,-0.0014293165877461433,0.001123126596212387
1782831355481445600,3.657445556640625,-0.00021787919104099274,0.0006077354773879051,0.0014874469488859177
1782831355491374600,3.66737451171875,-0.002418018877506256,-0.0003945324569940567,0.0008524134755134583
1782831355501303600,3.677303466796875,-0.001275789923965931,0.002582881599664688,-0.0003342907875776291
1782831355511233500,3.687233642578125,-0.001966646872460842,0.00004808977246284485,-0.0002850559540092945
1782831355521162500,3.69716259765625,-0.00039591453969478607,0.0016409261152148247,0.0006646267138421535
1782831355531091700,3.707091796875,0.000855117104947567,0.0006598019972443581,-0.0006844843737781048
1782831355541020700,3.717020751953125,0.0007512541487812996,0.0017831232398748398,-0.00036570383235812187
1782831355550949600,3.72694970703125,-0.0001891832798719406,-0.0001368485391139984,0.001246452797204256
1782831355560879400,3.73687939453125,0.002848418429493904,0.001055981032550335,0.0030347653664648533
1782831355570808600,3.74680859375,-0.001214546151459217,-0.0010799439623951912,0.00198278296738863
1782831355580737500,3.756737548828125,0.0006342204287648201,-0.0002554291859269142,0.0008986098691821098
1782831355590666500,3.76666650390625,0.0010499712079763412,-0.0011676186695694923,0.0003050384111702442
1782831355600595500,3.776595458984375,0.000529855489730835,-0.0019860081374645233,-0.0012041744776070118
1782831355610525700,3.786525634765625,0.0007216976955533028,0.0018926793709397316,-0.0028874832205474377
1782831355620454700,3.79645458984375,-0.0011041657999157906,-0.002516983076930046,0.0007477314211428165
1782831355630383600,3.806383544921875,0.0015098340809345245,0.0013630753383040428,-0.00208534998819232
1782831355640312600,3.8163125,-0.0027280542999505997,0.0004456164315342903,0.0009242878295481205
1782831355650241500,3.826241455078125,-0.0017795227468013763,0.00045466143637895584,0.0005274745635688305
1782831355660171500,3.836171630859375,0.000014382414519786835,0.0029596304520964622,-0.0008440534584224224
1782831355670100700,3.846100830078125,-0.00034698378294706345,0.0009210845455527306,-0.001380764413625002
1782831355680029700,3.85602978515625,-0.0019779037684202194,-0.0006563058122992516,0.0005638762377202511
1782831355689958700,3.865958740234375,0.00013301614671945572,-0.00028853584080934525,-0.002012932673096657
1782831355699888400,3.875888427734375,0.0003548571839928627,0.00037432461977005005,0.001275538932532072
1782831355709817600,3.885817626953125,-0.0013162577524781227,-0.0012571429833769798,0.00015943637117743492
1782831355719746600,3.89574658203125,0.0005365032702684402,-0.0009487485513091087,0.0017530727200210094
1782831355729675500,3.905675537109375,-0.0028904974460601807,-0.0007949937134981155,-0.0005164835602045059
1782831355739604500,3.9156044921875,-0.0000875210389494896,-0.0008221575990319252,0.0029277829453349113
1782831355749534700,3.92553466796875,0.00009088590741157532,-0.0029867980629205704,0.0022843643091619015
1782831355759463400,3.93546337890625,0.00019901059567928314,-0.0006578639149665833,-0.0033018821850419044
1782831355769392400,3.945392333984375,0.00002597365528345108,0.001523016020655632,0.00018829014152288437
1782831355779321600,3.955321533203125,0.0017439788207411766,-0.0011233668774366379,-0.0027268058620393276
1782831355789250600,3.96525048828125,-0.0009021041914820671,-0.002218453213572502,0.00009287148714065552
1782831355799180500,3.9751806640625,-0.0003572208806872368,0.00042766332626342773,-0.0022736131213605404
1782831355809109800,3.98510986328125,0.00008136406540870667,-0.004858861677348614,0.0006940271705389023
1782831355819038700,3.995038818359375,-0.00032050721347332,-0.0006396155804395676,-0.0020303865894675255
1782831355828967700,4.0049677734375,0.0006152745336294174,0.00023221224546432495,-0.0015470716170966625
1782831355838896600,4.014896728515625,0.00015002023428678513,0.0003091776743531227,-0.002526049967855215
1782831355848826600,4.02482666015625,0.0010138759389519691,0.00012907572090625763,-0.0022036214359104633
1782831355858755600,4.034755615234375,0.0010634101927280426,0.00014345627278089523,-0.0013050707057118416
1782831355868684500,4.0446845703125,0.00037651602178812027,0.00044233538210392,-0.0001991051249206066
1782831355878613500,4.054613525390625,-0.00028448086231946945,0.0007344838231801987,-0.0011016507633030415
1782831355888542700,4.064542724609375,0.00032723043113946915,0.001516883261501789,-0.0027345628477633
1782831355898472400,4.074472412109375,-0.0010930337011814117,0.0008060857653617859,-0.0011358670890331268
1782831355908401400,4.0844013671875,-0.0015044007450342178,-0.0007898369804024696,-0.0014645475894212723
1782831355918330600,4.09433056640625,-0.0013430127874016762,0.000665048137307167,-0.0002594669349491596
1782831355928259600,4.104259521484375,0.0005896622315049171,-0.0014214906841516495,0.00006911996752023697
1782831355938188500,4.1141884765625,-0.0012178253382444382,-0.0007160194218158722,-0.001016118098050356
1782831355948118800,4.124118896484375,-0.001807868480682373,-0.0008636638522148132,-0.00030730850994586945
1782831355958047700,4.1340478515625,-0.0008070524781942368,-0.0024543702602386475,-0.003432794474065304
1782831355967975400,4.143975341796875,0.0006188983097672462,-0.002140088938176632,0.000721602700650692
1782831355977904400,4.153904296875,-0.0009971074759960175,-0.0022399574518203735,-0.0033290651626884937
1782831355987833300,4.163833251953125,0.0016767438501119614,-0.002468063496053219,0.0015226849354803562
1782831355997763300,4.173763427734375,-0.0017209164798259735,-0.0007929354906082153,0.000769542995840311
1782831356007692300,4.1836923828125,0.0006586480885744095,-0.002246953547000885,0.00016454001888632774
1782831356017621200,4.193621337890625,0.0007220311090350151,-0.0021422915160655975,0.0005235341377556324
1782831356027550200,4.20355029296875,-0.00037254486232995987,0.001604730263352394,-0.0012000375427305698
1782831356037479400,4.2134794921875,0.0008943211287260056,0.0008374741300940514,-0.0007435721345245838
1782831356047409400,4.223409423828125,-0.0019445419311523438,-0.0005333106964826584,0.0014124633744359016
1782831356057338000,4.233338134765625,0.000706900842487812,0.0019410327076911926,-0.0005031484179198742
1782831356067267300,4.243267333984375,0.002812763676047325,0.0026351138949394226,-0.0007430571131408215
1782831356077196300,4.2531962890625,-0.0014075478538870811,0.0027549564838409424,-0.0013358769938349724
1782831356087126300,4.263126220703125,-0.00011312402784824371,0.0006142538040876389,0.0013387245126068592
1782831356097055500,4.273055419921875,0.0021494971588253975,-0.0014006942510604858,0.0009823939763009548
1782831356106984400,4.282984375,-0.00003452133387327194,0.0009193550795316696,-0.0007735393010079861
1782831356116913400,4.292913330078125,-0.00012054108083248138,0.0005755405873060226,0.00023686420172452927
1782831356126842400,4.30284228515625,0.001328442245721817,-0.0010346723720431328,-0.0010704407468438148
1782831356136772400,4.3127724609375,-0.00021059811115264893,-0.004229400306940079,0.0013258717954158783
1782831356146701300,4.322701416015625,0.0015927469357848167,-0.002235220745205879,-0.0011960729025304317
1782831356156630300,4.33263037109375,-0.0005881162360310555,0.0007770806550979614,-0.0014464100822806358
1782831356166559200,4.342559326171875,-0.000017263926565647125,0.00044895708560943604,-0.0005959775298833847
1782831356176488400,4.352488525390625,-0.00006227102130651474,0.00013656821101903915,-0.003943837247788906
1782831356186418200,4.362418212890625,-0.00013524293899536133,0.000673934817314148,0.001372198574244976
1782831356196347100,4.37234716796875,0.00003306940197944641,0.00008431077003479004,0.00029787980020046234
1782831356206276400,4.3822763671875,-0.0009805522859096527,-0.0006053559482097626,0.0005796733312308788
1782831356216205300,4.392205322265625,0.00008551031351089478,0.0018982812762260437,-0.0008869292214512825
1782831356226134300,4.40213427734375,0.002544027753174305,0.0001371726393699646,0.005407300777733326
1782831356236064500,4.412064453125,0.0005490537732839584,0.002710585482418537,-0.0009174402803182602
1782831356245993500,4.421993408203125,0.0011301850900053978,0.0038428734987974167,-0.0005507818423211575
1782831356255922400,4.43192236328125,0.00011605396866798401,0.0011613359674811363,-0.0017073927447199821
1782831356265851100,4.44185107421875,-0.0006392458453774452,0.002253376878798008,-0.0012565059587359428
1782831356275780400,4.4517802734375,-0.0004301881417632103,0.00026852265000343323,-0.001759577076882124
1782831356285710300,4.46171044921875,-0.0004869205877184868,-0.00033159181475639343,0.0015887599438428879
1782831356295639300,4.471639404296875,0.00027793925255537033,0.0005126306787133217,-0.0010813255794346333
1782831356305568300,4.481568359375,0.001573406159877777,0.0004995670169591904,0.00037423335015773773
1782831356315497500,4.49149755859375,0.0023486530408263206,0.00014403462409973145,-0.0007626698352396488
1782831356325426400,4.501426513671875,0.001159975305199623,-0.0012476500123739243,0.00018502864986658096
1782831356335356200,4.511356201171875,-0.00029144715517759323,-0.000795179046690464,0.0017099548131227493
1782831356345285400,4.521285400390625,-0.0015270542353391647,-0.0005452847108244896,-0.001222226768732071
1782831356355214300,4.53121435546875,0.0006546070799231529,0.000033420510590076447,0.0005698143504559994
1782831356365143300,4.541143310546875,0.0012692036107182503,-0.0006932402029633522,0.0011152704246342182
1782831356375072300,4.551072265625,-0.002145235426723957,0.0020918939262628555,-0.00018435250967741013
1782831356385002500,4.56100244140625,0.0005544712767004967,-0.0009881909936666489,0.0005621206946671009
1782831356394931200,4.57093115234375,-0.0008668573573231697,-0.0020782221108675003,0.0012516132555902004
1782831356404860200,4.580860107421875,-0.0003483835607767105,0.001740187406539917,-0.000052980612963438034
1782831356414789400,4.590789306640625,0.0005863858386874199,0.0016709454357624054,-0.0007360815070569515
1782831356424718300,4.60071826171875,0.0011113518849015236,-0.001769772730767727,-0.00027425121515989304
1782831356434648300,4.6106484375,0.00034223124384880066,0.0010659610852599144,-0.002696396317332983
1782831356444577300,4.620577392578125,-0.001035299152135849,-0.000459304079413414,-0.000667087733745575
1782831356454506500,4.630506591796875,-0.0002515306696295738,0.00014416873455047607,0.00022720173001289368
1782831356464435500,4.640435546875,0.00003364868462085724,-0.0004473170265555382,-0.002770983148366213
1782831356474365200,4.650365234375,0.0006815958768129349,-0.002063589170575142,0.0021971440874040127
1782831356484294400,4.66029443359375,-0.00034828390926122665,0.001579192467033863,-0.0004820716567337513
1782831356494223400,4.670223388671875,-0.00020846817642450333,-0.0003702407702803612,0.0007818648591637611
1782831356504152300,4.68015234375,0.00026097148656845093,-0.00023719388991594315,-0.0017867479473352432
1782831356514081300,4.690081298828125,-0.0016842009499669075,0.0012525785714387894,0.0005320664495229721
1782831356524011300,4.70001123046875,0.0010658269748091698,0.001743638888001442,0.000534591730684042
1782831356533940200,4.709940185546875,0.0006551677361130714,-0.0011344393715262413,0.00025815563276410103
1782831356543869200,4.719869140625,-0.0003895638510584831,-0.0004450557753443718,0.0001005660742521286
1782831356553798400,4.72979833984375,0.0005412111058831215,-0.0018970118835568428,-0.0010563107207417488
1782831356563727400,4.739727294921875,0.0008188541978597641,-0.0015305979177355766,0.0016153580509126186
1782831356573656300,4.74965625,0.00006198417395353317,0.0004923390224575996,0.003493951167911291
1782831356583586300,4.75958642578125,0.0006963862106204033,0.0009252345189452171,0.0042085363529622555
1782831356593515500,4.769515625,0.0013659056276082993,0.002187838777899742,0.002297451253980398
1782831356603444200,4.7794443359375,0.000810171477496624,0.002242710441350937,0.003970014862716198
1782831356613373200,4.789373291015625,0.0001462455838918686,0.0001300247386097908,-0.00011713849380612373
1782831356623303400,4.799303466796875,0.0007089609280228615,0.000022717751562595367,-0.0007028714753687382
1782831356633232400,4.809232421875,0.00028791557997465134,0.0016230111941695213,0.0013696001842617989
1782831356643161300,4.819161376953125,-0.0017209919169545174,0.00017370376735925674,0.0011287983506917953
1782831356653090300,4.82909033203125,-0.00017289724200963974,-0.0003288350999355316,0.00011227000504732132
1782831356663019500,4.83901953125,-0.0018717506900429726,-0.0013515064492821693,0.0024691657163202763
1782831356672949200,4.84894921875,-0.0012890510261058807,-0.00003963243216276169,0.00040388433262705803
1782831356682878200,4.858878173828125,0.0007138559594750404,0.00026955828070640564,0.00196930393576622
1782831356692807400,4.868807373046875,-0.0006065396592020988,0.0005862079560756683,-0.0008278139866888523
1782831356702736400,4.878736328125,-0.0018096109852194786,-0.002997377887368202,0.0031667337752878666
1782831356712665300,4.888665283203125,-0.0010266415774822235,-0.0008447449654340744,0.0023520723916590214
1782831356722595300,4.89859521484375,-0.0016616256907582283,-0.000018442049622535706,-0.0013647787272930145
1782831356732524300,4.908524169921875,0.002581322565674782,-0.0016901083290576935,0.00040648970752954483
1782831356742453200,4.918453369140625,0.000380711629986763,0.0003552846610546112,0.0001951032318174839
1782831356752382200,4.92838232421875,-0.00047815777361392975,0.0027563907206058502,-0.0008131694048643112
1782831356762311200,4.938311279296875,0.0009007910266518593,0.00024204887449741364,0.0015635667368769646
1782831356772241400,4.948241455078125,-0.0015479857102036476,0.0010798787698149681,-0.000769362784922123
1782831356782170400,4.95817041015625,0.0008912971243262291,0.0009674336761236191,-0.002171025611460209
1782831356792099300,4.968099365234375,-0.0021633487194776535,0.0026124678552150726,-0.0000021471641957759857
1782831356802028500,4.978028564453125,-0.0032956236973404884,-0.00020128674805164337,0.0013385750353336334
1782831356811957200,4.987957275390625,0.00042907334864139557,0.00057182926684618,-0.001205276232212782
1782831356821887200,4.99788720703125,-0.00010812748223543167,-0.00006292853504419327,-0.00016921665519475937
1782831356831816400,5.00781640625,-0.0003344956785440445,0.0008404161781072617,0.0004899157211184502
1782831356841745400,5.017745361328125,0.00026248395442962646,0.0001522805541753769,0.0006651072762906551
1782831356851674400,5.02767431640625,0.0020571881905198097,0.0006665373221039772,-0.00015834253281354904
1782831356861603300,5.037603271484375,0.0005268706008791924,0.0008523911237716675,-0.000973124522715807
1782831356871533300,5.047533203125,0.0015226257964968681,0.00010830443352460861,-0.0021153539419174194
1782831356881462300,5.057462158203125,0.0006136028096079826,-0.0034910347312688828,0.000987769104540348
1782831356891391200,5.06739111328125,0.0014642169699072838,-0.002140812575817108,-0.00026871031150221825
1782831356901320200,5.0773203125,0.0008581401780247688,-0.001874476671218872,-0.0019860751926898956
1782831356911249400,5.08724951171875,0.00007730070501565933,-0.0016558310016989708,0.00031170016154646873
1782831356921179400,5.097179443359375,0.0009631142020225525,-0.0032069524750113487,-0.001525580883026123
1782831356931108400,5.1071083984375,-0.001141848973929882,-0.002335832454264164,-0.00029546674340963364
1782831356941037300,5.117037353515625,0.00024827197194099426,0.0009355461224913597,0.0015331562608480453
1782831356950966300,5.12696630859375,0.00193804781883955,0.0014471393078565598,0.0004628309980034828
1782831356960895200,5.136895263671875,-0.0011359797790646553,0.0008342983201146126,0.0013888697139918804
1782831356970829800,5.146829833984375,0.0016318438574671745,0.00026704464107751846,-0.0026828371919691563
1782831356980758800,5.1567587890625,-0.0034500276669859886,-0.0002259630709886551,-0.0007153470069169998
1782831356990687500,5.1666875,-0.0004867278039455414,0.001621471717953682,-0.00012598931789398193
1782831357000616400,5.176616455078125,-0.00017483066767454147,0.0028015263378620148,0.002450200729072094
1782831357010545700,5.186545654296875,-0.0006086593493819237,0.0015253396704792976,0.0030773747712373734
1782831357020475600,5.1964755859375,0.000668257474899292,-0.0010256925597786903,0.0008515105582773685
1782831357030404600,5.206404541015625,0.00046026427298784256,-0.0017609912902116776,-0.00109419459477067
1782831357040333800,5.216333740234375,-0.0017483467236161232,0.0006577670574188232,-0.00010898895561695099
1782831357050262800,5.2262626953125,0.00016859639436006546,0.0016673710197210312,-0.0007537398487329483
1782831357060191700,5.236191650390625,0.00007856078445911407,-0.002714548259973526,0.0017264578491449356
1782831357070121700,5.246121826171875,-0.0019081570208072662,-0.004932695534080267,-0.002246180083602667
1782831357080050700,5.25605078125,-0.00004907790571451187,-0.0016117049381136894,0.0007271850481629372
1782831357089979600,5.265979736328125,-0.0007913010194897652,-0.0012830710038542747,-0.002573536243289709
1782831357099908600,5.27590869140625,-0.0009150225669145584,0.00039590243250131607,-0.00019404804334044456
1782831357109837800,5.285837890625,0.002486633136868477,-0.0018512727692723274,0.0011356682516634464
1782831357119767600,5.295767578125,-0.0015455670654773712,-0.00008672662079334259,0.0003692852333188057
1782831357129696500,5.305696533203125,-0.0001780334860086441,0.0012989155948162079,-0.00046188710257411003
1782831357139625500,5.31562548828125,-0.0029682042077183723,0.0008802870288491249,-0.0020955409854650497
1782831357149554700,5.3255546875,-0.002175646834075451,-0.00035035982728004456,0.0008493824861943722
1782831357159483600,5.335483642578125,0.00038425251841545105,0.002064851112663746,-0.0004703942686319351
1782831357169413600,5.34541357421875,-0.0006660986691713333,0.0013330141082406044,-0.0005622734315693378
1782831357179342800,5.3553427734375,0.0003952188417315483,-0.0021310588344931602,-0.00034819217398762703
1782831357189271800,5.365271728515625,0.002956381067633629,0.0014048200100660324,0.0027509285137057304
1782831357199200500,5.375200439453125,-0.003244779072701931,-0.00028436724096536636,0.0004961127415299416
1782831357209129500,5.38512939453125,-0.0008615162223577499,0.0009191147983074188,0.001972569152712822
1782831357219059700,5.395059814453125,0.00011554267257452011,0.00065634585916996,0.0010657822713255882
1782831357228988700,5.40498876953125,0.00008917786180973053,-0.0010320981964468956,0.0008878828957676888
1782831357238917600,5.414917724609375,0.0016252938657999039,0.000458570197224617,0.0003800448030233383
1782831357248846800,5.424846923828125,-0.00008312426507472992,0.0009065140038728714,-0.00001037493348121643
1782831357258775800,5.43477587890625,-0.0020288201048970222,-0.001349342055618763,-0.0007055671885609627
1782831357268705500,5.44470556640625,0.0023403624072670937,0.0003161989152431488,0.0003325329162180424
1782831357278634500,5.454634521484375,-0.002110123634338379,-0.00006363075226545334,0.00024392921477556229
1782831357288563700,5.464563720703125,-0.00012100860476493835,0.0015750126913189888,-0.0012165484949946404
1782831357298492700,5.47449267578125,0.0003068316727876663,-0.0002367096021771431,-0.0005794544704258442
1782831357308421600,5.484421630859375,-0.0008812053129076958,0.0005835434421896935,0.0008136453106999397
1782831357318352000,5.494351806640625,0.0012551043182611465,0.0014388114213943481,-0.0007215933874249458
1782831357328280600,5.504280517578125,0.002174161374568939,-0.0011782767251133919,-0.0010752608068287373
1782831357338209500,5.51420947265625,-0.0008520940318703651,0.00010132323950529099,0.001357364933937788
1782831357348138500,5.524138427734375,-0.0017610304057598114,0.001269652508199215,-0.0015284358523786068
1782831357358067700,5.534067626953125,-0.001408449374139309,-0.0016027260571718216,-0.002056616824120283
1782831357367997700,5.543997802734375,0.0012198248878121376,-0.0009601060301065445,0.0014670118689537048
1782831357377926700,5.5539267578125,-0.00008160155266523361,-0.0016127871349453926,-0.0001221303828060627
1782831357387856000,5.56385595703125,-0.0011958684772253036,-0.0005869371816515923,-0.00044650351628661156
1782831357397784800,5.573784912109375,0.0010890765115618706,-0.0015141051262617111,-0.0008781286887824535
1782831357407713500,5.583713623046875,-0.0018699616193771362,-0.0007652239874005318,0.0014734426513314247
1782831357417643500,5.5936435546875,-0.0001056920737028122,-0.0022213244810700417,0.002383963670581579
1782831357427572700,5.60357275390625,-0.00012619886547327042,-0.0019089356064796448,0.001365837175399065
1782831357437501700,5.613501708984375,-0.001799170859158039,-0.0016752295196056366,-0.00099974125623703
1782831357447430700,5.6234306640625,0.001281839795410633,-0.00003738515079021454,0.00036353152245283127
1782831357457359600,5.633359619140625,0.0013195248320698738,-0.0008419305086135864,0.0014833728782832623
1782831357467289600,5.64328955078125,-0.0018701432272791862,0.001590600237250328,0.00017176615074276924
1782831357477218600,5.653218505859375,-0.002158692106604576,0.0026924367994070053,-0.00031033391132950783
1782831357487147500,5.6631474609375,-0.0016196677461266518,-0.0010285312309861183,-0.001313013955950737
1782831357497076700,5.67307666015625,-0.0009459983557462692,0.001339503563940525,-0.0009917328134179115
1782831357507005700,5.683005615234375,0.0007419129833579063,0.0003575962036848068,0.0032365676015615463
1782831357516935700,5.692935791015625,-0.0013430137187242508,0.001589495688676834,-0.0006712772883474827
1782831357526864600,5.70286474609375,0.0014040367677807808,0.0017902981489896774,-0.0023802281357347965
1782831357536793600,5.712793701171875,-0.00020375847816467285,0.0014202790334820747,0.003207758069038391
1782831357546722600,5.72272265625,0.0022165225818753242,-0.0017781779170036316,-0.00002771662548184395
1782831357556651500,5.732651611328125,0.0014353124424815178,0.00045850779861211777,-0.0005347747355699539
1782831357566581800,5.742581787109375,-0.0017277244478464127,-0.0003068838268518448,0.0006649792194366455
1782831357576510700,5.7525107421875,-0.001220395788550377,-0.0004326086491346359,-0.0020835883915424347
1782831357586439700,5.762439697265625,-0.002177801914513111,-0.0006499225273728371,0.0023678848519921303
1782831357596368600,5.77236865234375,-0.00203742366284132,-0.0012976601719856262,0.0021582520566880703
1782831357606297900,5.7822978515625,-0.0011202311143279076,-0.0010808780789375305,0.000597639475017786
1782831357616227600,5.7922275390625,0.0006246371194720268,-0.0003434186801314354,-0.000024600885808467865
1782831357626156500,5.802156494140625,-0.002198847010731697,0.0023514339700341225,0.0010417294688522816
1782831357636085800,5.812085693359375,0.0007346365600824356,-0.0005648881196975708,0.001358861569315195
1782831357646014700,5.8220146484375,-0.00005392543971538544,0.000004495494067668915,0.001670717727392912
1782831357655943700,5.831943603515625,-0.0004188837483525276,0.002853083424270153,-0.0010712547227740288
1782831357665873700,5.841873779296875,0.0005502412095665932,0.002485566772520542,-0.0002794968895614147
1782831357675802600,5.851802734375,-0.0008864095434546471,0.004772731103003025,0.000993936788290739
1782831357685731600,5.861731689453125,-0.0007295496761798859,0.0010746661573648453,0.0027878419496119022
1782831357695660500,5.87166064453125,0.0005284929648041725,0.002358398400247097,-0.0015430636703968048
1782831357705589800,5.88158984375,0.00015485193580389023,0.000678209587931633,0.0013765599578619003
1782831357715519700,5.891519775390625,-0.0009565744549036026,0.0005010394379496574,0.002079581841826439
1782831357725448700,5.90144873046875,0.00014251191169023514,-0.0015309527516365051,0.000616973266005516
1782831357735377700,5.911377685546875,-0.0006799548864364624,-0.0003476543352007866,-0.0022941455245018005
1782831357745306600,5.921306640625,0.0017496468499302864,-0.0000017099082469940186,-0.00014763744547963142
1782831357755235600,5.931235595703125,0.0014464976266026497,0.00012896303087472916,-0.00042228028178215027
1782831357765165600,5.94116552734375,0.0004041362553834915,0.0015945006161928177,0.00039664236828684807
1782831357775094800,5.9510947265625,0.0008838362991809845,-0.00005520228296518326,0.00219575222581625
1782831357785023700,5.961023681640625,-0.00037717074155807495,0.0004382813349366188,-0.000035976991057395935
1782831357794952700,5.97095263671875,0.0014038840308785439,-0.00047338008880615234,0.00040286406874656677
1782831357804884700,5.980884765625,-0.0013868426904082298,-0.00037697330117225647,-0.0019982419908046722
1782831357814813700,5.990813720703125,-0.0003501288592815399,-0.0023862291127443314,-0.00035376474261283875
1782831357824742700,6.00074267578125,0.0010855812579393387,-0.0010487893596291542,0.0007277452386915684
1782831357834671600,6.010671630859375,-0.0030146390199661255,-0.00005519948899745941,0.0012394804507493973
1782831357844600600,6.0206005859375,0.00021470990031957626,0.0007994081825017929,-0.0005493653006851673
1782831357854530600,6.030530517578125,0.00266316719353199,0.002198583446443081,-0.0002869139425456524
1782831357864459800,6.040459716796875,0.002007763832807541,0.001688055694103241,0.0030758599750697613
1782831357874388700,6.050388671875,0.00017265509814023972,0.000654200091958046,-0.0028393957763910294
1782831357884317700,6.060317626953125,-0.00011896155774593353,0.0008984124287962914,0.0025082319043576717
1782831357894246700,6.07024658203125,-0.002288384363055229,0.0009646937251091003,-0.00022121146321296692
1782831357904176600,6.0801767578125,-0.00025745760649442673,0.0017204992473125458,0.00027040857821702957
1782831357914105600,6.090105712890625,0.00030431710183620453,0.001766430214047432,0.00013553490862250328
1782831357924034600,6.10003466796875,-0.0006352467462420464,0.0005541592836380005,-0.0012471778318285942
1782831357933963500,6.109963623046875,0.0009682690724730492,0.0004518134519457817,0.0000523165799677372
1782831357943892700,6.119892822265625,-0.00023468025028705597,0.0017319945618510246,0.001413990743458271
1782831357953822700,6.12982275390625,0.0003763865679502487,0.0022673560306429863,-0.0003619738854467869
1782831357963751700,6.139751708984375,0.0011937106028199196,0.0026958584785461426,-0.00027728546410799026
1782831357973680600,6.1496806640625,0.0002382146194577217,-0.0009113093838095665,0.0009404448792338371
1782831357983609600,6.159609619140625,0.0006491402164101601,-0.00010437145829200745,-0.0036798734217882156
1782831357993538800,6.169538818359375,-0.0017982162535190582,-0.0009614517912268639,-0.0018689264543354511
1782831358003468800,6.17946875,0.0016977153718471527,-0.002321528270840645,-0.0005578524433076382
1782831358013397800,6.189397705078125,0.00034111645072698593,0.0018853219226002693,0.0006208657287061214
1782831358023327000,6.199326904296875,0.00027480348944664,0.0012219278141856194,-0.0019160611554980278
1782831358033256000,6.209255859375,0.000259903259575367,-0.0009556571021676064,-0.0018363124690949917
1782831358043184600,6.2191845703125,-0.0011710133403539658,0.0012169498950242996,0.0009024827741086483
1782831358053115000,6.229114990234375,-0.00117561686784029,-0.0010356791317462921,-0.00198559183627367
1782831358063043800,6.2390439453125,0.00007420405745506287,0.0022093821316957474,0.0010783746838569641
1782831358072972800,6.248972900390625,0.0015490753576159477,-0.00021760538220405579,0.0002443138509988785
1782831358082901800,6.25890185546875,-0.0005596159026026726,0.003040505573153496,-0.00039937254041433334
1782831358092831000,6.2688310546875,0.0008675074204802513,-0.0010619740933179855,0.0014239484444260597
1782831358102760700,6.2787607421875,-0.0002526184543967247,0.0009532403200864792,-0.0011934060603380203
1782831358112689700,6.288689697265625,-0.00005927868187427521,-0.0016065780073404312,-0.00004119332879781723
1782831358122618600,6.29861865234375,-0.0005999002605676651,0.00010317191481590271,-0.00021563051268458366
1782831358132547800,6.3085478515625,-0.0013955086469650269,0.0015627341344952583,0.002313690260052681
1782831358142476800,6.318476806640625,0.003245316445827484,0.0016916310414671898,0.0007291091606020927
1782831358152406800,6.32840673828125,0.0013543255627155304,-0.0006510419771075249,-0.00013531465083360672
1782831358162336000,6.3383359375,-0.00013491418212652206,0.000057359226047992706,0.00015656743198633194
1782831358172264700,6.3482646484375,0.0010100528597831726,-0.0019378159195184708,0.004229141864925623
1782831358182193700,6.358193603515625,-0.0005297865718603134,0.0003019031137228012,0.00009325286373496056
1782831358192122600,6.36812255859375,-0.0001362524926662445,-0.0007667317986488342,0.0012438721023499966
1782831358202052900,6.378052978515625,0.0006493795663118362,-0.0012977663427591324,0.00029658572748303413
1782831358211981800,6.38798193359375,-0.0011074794456362724,-0.000533275306224823,-0.001568688079714775
1782831358221910800,6.397910888671875,0.001595894806087017,0.0006859200075268745,-0.001637930516153574
1782831358231840000,6.407840087890625,-0.0011733155697584152,0.0007583638653159142,0.002942075952887535
1782831358241769000,6.41776904296875,-0.00042203813791275024,-0.00031462404876947403,0.0008224658668041229
1782831358251698700,6.42769873046875,0.0012855641543865204,0.001427636481821537,0.001285637728869915
1782831358261627600,6.437627685546875,0.0002024564892053604,0.00024146400392055511,-0.000010789372026920319
1782831358271556900,6.447556884765625,0.001447032205760479,0.0004789326339960098,0.0015813400968909264
1782831358281485800,6.45748583984375,-0.0020827213302254677,0.0018390091136097908,0.000449497252702713
1782831358291414800,6.467414794921875,-0.001048581674695015,0.0012080781161785126,-0.0013353358954191208
1782831358301344800,6.4773447265625,0.0011200308799743652,0.00003575533628463745,-0.0018498585559427738
1782831358311273700,6.487273681640625,0.000572442077100277,0.004640017636120319,-0.001393540296703577
1782831358321202700,6.49720263671875,-0.001292036846280098,-0.0005004163831472397,-0.0004949895665049553
1782831358331131600,6.507131591796875,0.0028751324862241745,-0.000275464728474617,-0.000023183412849903107
1782831358341060900,6.517060791015625,0.0024114763364195824,-0.0019865455105900764,0.0012149200774729252
1782831358350990800,6.526990966796875,-0.00011162739247083664,-0.002282537519931793,0.0005341223441064358
1782831358360919800,6.536919921875,0.0018271533772349358,-0.000649220310151577,0.0011261426843702793
1782831358370848800,6.546848876953125,-0.0015002917498350143,-0.0003547193482518196,0.0014073760248720646
1782831358380777700,6.55677783203125,-0.00023848563432693481,-0.0017307745292782784,0.0035075447522103786
1782831358390706700,6.566706787109375,0.0009191380813717842,0.001124488189816475,-0.0026594442315399647
1782831358400636700,6.57663671875,-0.0009077908471226692,-0.0006859283894300461,-0.0005097403191030025
1782831358410566000,6.58656591796875,-0.001647171564400196,-0.0018243463709950447,0.0002517956309020519
1782831358420494800,6.596494873046875,-0.0015880493447184563,-0.00018676836043596268,0.000602534506469965
1782831358430423800,6.606423828125,-0.001080455258488655,0.0015917373821139336,0.0009454670362174511
1782831358440352800,6.616352783203125,-0.0020796731114387512,0.0004601599648594856,-0.00036054663360118866
1782831358450282000,6.626281982421875,0.000028374604880809784,-0.0013082986697554588,-0.0009306650608778
1782831358460211700,6.636211669921875,0.0010670078918337822,0.0018696514889597893,0.000023012980818748474
1782831358470140700,6.646140625,-0.0012704217806458473,0.001995507627725601,-0.0015115090645849705
1782831358480070000,6.65606982421875,-0.00002086721360683441,0.00035153888165950775,-0.0006723473779857159
1782831358489998800,6.665998779296875,-0.0006683198735117912,-0.0001232735812664032,-0.0011398699134588242
1782831358499927800,6.675927734375,-0.003333078697323799,-0.002168048173189163,0.0006785360164940357
1782831358509857800,6.68585791015625,-0.0008363658562302589,0.0005763070657849312,0.003228220622986555
1782831358519786800,6.695786865234375,-0.000034487806260585785,0.002575809136033058,0.0004465491510927677
1782831358529715700,6.7057158203125,0.00048579275608062744,-0.00038251280784606934,0.002008325420320034
1782831358539644700,6.715644775390625,0.0007033729925751686,0.0008385460823774338,-0.0003959760069847107
1782831358549574000,6.725573974609375,0.0015464331954717636,-0.0006477152928709984,-0.0018341895192861557
1782831358559504000,6.73550390625,-0.002875213511288166,-0.00013771932572126389,-0.0014211330562829971
1782831358569432800,6.745432861328125,-0.0007687238976359367,0.000496148131787777,0.00005333730950951576
1782831358579361800,6.75536181640625,-0.0006174566224217415,0.003112437203526497,0.00002883654087781906
1782831358589290800,6.765290771484375,-0.00048555899411439896,-0.0001151151955127716,-0.0014203828759491444
1782831358599219700,6.7752197265625,-0.00020566023886203766,0.0009663943201303482,-0.0008102529682219028
1782831358609149700,6.785149658203125,-0.000014522112905979156,-0.00437322910875082,0.0024835155345499516
1782831358619079000,6.795078857421875,0.0005703084170818329,0.003604801371693611,0.0004906724207103252
1782831358629008000,6.8050078125,0.0009195394814014435,0.002263885922729969,-0.0011088410392403603
1782831358638936800,6.814936767578125,-0.0005353456363081932,0.0017381776124238968,0.000057623255997896194
1782831358648865800,6.82486572265625,-0.00012678932398557663,0.0027644699439406395,0.0022136312909424305
1782831358658795800,6.834795654296875,0.00018639862537384033,0.00021049845963716507,-0.000028484035283327103
1782831358668724700,6.844724853515625,0.0011113788932561874,0.0017784833908081055,-0.0004289853386580944
1782831358678653700,6.85465380859375,0.0011044545099139214,0.0007888525724411011,0.00010204873979091644
1782831358688583000,6.8645830078125,-0.0010610874742269516,0.000393684022128582,0.00047500012442469597
1782831358698512000,6.874511962890625,-0.001231529749929905,0.0008879667147994041,-0.0006557782180607319
1782831358708441900,6.88444189453125,0.0005181394517421722,0.0014713043347001076,-0.0013626646250486374
1782831358718370600,6.89437060546875,-0.001985231414437294,-0.00023871194571256638,0.0010504256933927536
1782831358728299800,6.9042998046875,0.0011698585003614426,-0.00019528530538082123,0.001009396743029356
1782831358738228700,6.914228759765625,0.00012936163693666458,-0.0013716034591197968,-0.0031150411814451218
1782831358748157700,6.92415771484375,0.0005516931414604187,-0.001274273730814457,-0.0007006116211414337
1782831358758086700,6.934086669921875,0.0015367968007922173,-0.0008409777656197548,0.0031441934406757355
1782831358768017000,6.944016845703125,0.00000608246773481369,-0.0013616383075714111,-0.0013344385661184788
1782831358777945900,6.95394580078125,0.00012272875756025314,0.00022933445870876312,0.001209945883601904
1782831358787874800,6.963874755859375,0.0006384747102856636,0.000364178791642189,0.0008699181489646435
1782831358797803800,6.9738037109375,-0.0003919024020433426,-0.00020360667258501053,-0.00011891359463334084
1782831358807732700,6.983732666015625,-0.0005307523533701897,0.0005407454445958138,0.00293517392128706
1782831358817662700,6.993662841796875,-0.00004472583532333374,-0.0003159940242767334,0.0007039783522486687
1782831358827592000,7.003592041015625,-0.0014405986294150352,-0.0005402937531471252,-0.0003670877777040005
1782831358837521000,7.01352099609375,-0.0009684199467301369,-0.001182381995022297,-0.0005716183222830296
1782831358847449900,7.023449951171875,-0.0025192955508828163,0.0016275690868496895,0.00031850067898631096
1782831358857378800,7.03337890625,-0.0010303221642971039,0.0013593891635537148,-0.002262901049107313
1782831358867308800,7.043308837890625,-0.0003338586539030075,-0.00030302349478006363,1.5832483768463135e-8
1782831358877237800,7.05323779296875,0.000571349635720253,-0.001515028066933155,0.0018208189867436886
1782831358887166700,7.063166748046875,0.00012468546628952026,-0.0006467988714575768,0.0028839735314249992
1782831358897095700,7.073095703125,0.00006449781358242035,0.001223272643983364,0.0014304202049970627
1782831358907025000,7.08302490234375,-0.00038338731974363327,0.0028276266530156136,-0.0006400598213076591
1782831358916955000,7.092954833984375,0.0011207656934857368,0.00015807338058948517,-0.0011814804747700691
1782831358926883600,7.102883544921875,0.0008511291816830635,-0.0006836298853158951,-0.0010540583170950413
1782831358936812800,7.112812744140625,0.0015488769859075546,-0.0009400928393006325,-0.00037894677370786667
1782831358946741800,7.12274169921875,0.001041589304804802,-0.00021205469965934753,-0.0003407611511647701
1782831358956670700,7.132670654296875,-0.0019933488219976425,0.0002832924947142601,-0.0000462154857814312
1782831358966600200,7.14260009765625,-0.0005849087610840797,-0.0008672205731272697,0.00016594864428043365
1782831358976529400,7.152529296875,0.0003298865631222725,0.00014105159789323807,-0.0019587213173508644
1782831358986458400,7.162458251953125,0.00036760326474905014,0.0012628063559532166,0.0003948141820728779
1782831358996387300,7.17238720703125,-0.0010497309267520905,-0.0006085969507694244,0.0021604900248348713
1782831359006316300,7.18231640625,-0.001233723945915699,0.0005184132605791092,0.002121938392519951
1782831359016246300,7.192246337890625,0.0000025155022740364075,-0.0006025107577443123,-0.0015907743945717812
1782831359026175200,7.20217529296875,0.0008097747340798378,-0.00009860005229711533,-0.0010976637713611126
1782831359036104200,7.212104248046875,-0.0007705455645918846,0.00016079191118478775,0.0001516249030828476
1782831359046033400,7.222033447265625,0.000546368770301342,-0.0018543032929301262,-0.0005149850621819496
1782831359055962400,7.23196240234375,-0.0009167715907096863,0.0014906274154782295,-0.0000902106985449791
1782831359065891300,7.241891357421875,-0.0008719703182578087,-0.0008519832044839859,0.002094651572406292
1782831359075821300,7.2518212890625,-0.0006743641570210457,-0.0014085844159126282,0.0006938287988305092
1782831359085750300,7.261750244140625,-0.00154013279825449,0.0010875826701521873,-0.0004696827381849289
1782831359095679200,7.27167919921875,0.0008692285045981407,-0.001441088505089283,0.002521047368645668
1782831359105608200,7.281608154296875,0.0011508595198392868,-0.00042373500764369965,-0.0012167138047516346
1782831359115537200,7.291537109375,0.00032155122607946396,-0.0005955090746283531,0.001226203516125679
1782831359125467400,7.30146728515625,-0.0015954850241541862,0.00031551532447338104,0.0000019157305359840393
1782831359135396400,7.311396240234375,0.0009678080677986145,0.000038013793528079987,-0.0019634971395134926
1782831359145325000,7.321324951171875,0.0027268920093774796,0.00008212309330701828,-0.0006989906542003155
1782831359155254300,7.331254150390625,0.0008432380855083466,0.0023822952061891556,-0.00028007570654153824
1782831359165183200,7.341183349609375,0.0010535148903727531,0.00018356740474700928,-0.00019442802295088768
1782831359175113200,7.35111328125,-0.0008674226701259613,0.00046133436262607574,0.0012330268509685993
1782831359185042400,7.36104248046875,0.0009530307725071907,-0.00008707121014595032,-0.0005191341042518616
1782831359194971400,7.370971435546875,-0.0008131777867674828,0.0011275969445705414,0.003357363399118185
1782831359204900400,7.380900390625,-0.00022974610328674316,0.00061813835054636,0.0004238635301589966
1782831359214829300,7.390829345703125,0.0003055492416024208,0.00030468404293060303,-0.0004730895161628723
1782831359224759300,7.40075927734375,-0.0006579896435141563,-0.0006090505048632622,-0.001622276846319437
1782831359234688300,7.410688232421875,0.0004227207973599434,0.001316147856414318,-0.001056088600307703
1782831359244617200,7.4206171875,0.0019979365170001984,-0.001184164546430111,0.0003951145336031914
1782831359254546200,7.430546142578125,-0.001072954386472702,0.0004563424736261368,-0.0011489861644804478
1782831359264475400,7.440475341796875,-0.0009977929294109344,-0.0016035791486501694,0.000154200941324234
1782831359274405000,7.450405029296875,0.0014608372002840042,0.0005466574802994728,0.0022386573255062103
1782831359284334000,7.460333984375,0.0005525602027773857,-0.002130451612174511,-0.0005970727652311325
1782831359294263300,7.47026318359375,0.0009533651173114777,0.0017628241330385208,0.000974725466221571
1782831359304192300,7.480192138671875,-0.0019774511456489563,0.0015361430123448372,0.0004550372250378132
1782831359314121200,7.490121337890625,0.0002441583201289177,0.0015068482607603073,-0.0004001036286354065
1782831359324050200,7.50005029296875,0.0008886074647307396,-0.0000772988423705101,0.0014164638705551624
1782831359333980400,7.50998046875,-0.001667494885623455,-0.001257878728210926,0.0007235095836222172
1782831359343909400,7.519909423828125,-0.00016667693853378296,-0.0016141338273882866,0.0004012123681604862
1782831359353838000,7.529838134765625,0.004854713566601276,-0.0003936067223548889,0.000213725958019495
1782831359363767300,7.539767333984375,-0.0006642714142799377,0.0016452185809612274,0.00006598886102437973
1782831359373696300,7.5496962890625,0.00045239273458719254,0.0010784976184368134,0.002837806474417448
1782831359383626200,7.559626220703125,0.0006675496697425842,0.0009852917864918709,0.0034007891081273556
1782831359393555200,7.56955517578125,-0.001199592836201191,0.00048168841749429703,0.0010092700831592083
1782831359403484400,7.579484375,-0.001826736144721508,-0.0013729874044656754,0.00041499314829707146
1782831359413413400,7.589413330078125,-0.0015646815299987793,-0.0014134682714939117,-0.0010859640315175056
1782831359423342300,7.59934228515625,0.0009225700050592422,0.000025499612092971802,-0.00048324093222618103
1782831359433272300,7.609272216796875,0.002217664383351803,0.00002177152782678604,-0.0010840501636266708
1782831359443201300,7.619201171875,0.0007479023188352585,-0.0022166576236486435,0.0007277447730302811
1782831359453130200,7.629130126953125,0.0016421917825937271,-0.0014398135244846344,-0.0005636219866573811
1782831359463059200,7.63905908203125,0.0010172892361879349,-0.0008956510573625565,-0.0015071290545165539
1782831359472988400,7.648988525390625,0.0014615049585700035,-0.00009137578308582306,-0.0008732969872653484
1782831359482918100,7.658918212890625,0.00005799252539873123,-0.00240254495292902,-0.000051987823098897934
1782831359492847000,7.66884716796875,-0.0024059638381004333,0.001333070918917656,-0.0009164502844214439
1782831359502776300,7.6787763671875,0.0006054164841771126,-0.0006904471665620804,-0.0010270294733345509
1782831359512705300,7.688705322265625,0.0009598834440112114,0.0025277165696024895,-0.0006480617448687553
1782831359522634200,7.69863427734375,-0.0022924700751900673,0.0011082729324698448,-0.0000934484414756298
1782831359532564200,7.708564208984375,-0.0007180087268352509,0.0009926920756697655,-0.0019344915635883808
1782831359542493400,7.718493408203125,0.0029421281069517136,0.0018968228250741959,0.0032393578439950943
1782831359552422400,7.72842236328125,-0.001295759342610836,0.0013926858082413673,0.0013719499111175537
1782831359562351000,7.73835107421875,0.0015079807490110397,-0.00003087613731622696,-0.00003409478813409805
1782831359572280000,7.748280029296875,-0.0013642385601997375,-0.0022514192387461662,0.0009153219871222973
1782831359582209300,7.758209228515625,-0.0009334739297628403,-0.002062123268842697,-0.0029836115427315235
1782831359592139300,7.76813916015625,-0.001768641173839569,0.0008399235084652901,-0.0017327247187495232
1782831359602068200,7.778068115234375,-0.000949908047914505,0.0008607469499111176,-0.001813728827983141
1782831359611997400,7.78799755859375,-0.00035868585109710693,-0.0008242344483733177,0.0010076235048472881
1782831359621926400,7.797926513671875,0.002401946112513542,-0.0007347529754042625,0.0024185669608414173
1782831359631855400,7.80785546875,-0.0009965449571609497,-0.0007971944287419319,-0.00023979973047971725
1782831359641785300,7.817785400390625,-0.0013662027195096016,-0.0005634445697069168,-0.002374563366174698
1782831359651714300,7.82771435546875,-0.00084662064909935,-0.00014053471386432648,-0.0017846734263002872
1782831359661643300,7.837643310546875,-0.00009815394878387451,-0.0012539830058813095,0.002525589894503355
1782831359671572200,7.847572265625,0.00001742783933877945,-0.0008885972201824188,0.000419562216848135
1782831359681501400,7.85750146484375,-0.0007399879395961761,0.0005577085539698601,0.0023687081411480904
1782831359691431200,7.86743115234375,-0.00012133549898862839,0.001171567477285862,-0.00041935499757528305
1782831359701360000,7.877360107421875,-0.000038324855268001556,-0.0014483071863651276,-0.0005557499825954437
1782831359711289000,7.8872890625,0.00023784488439559937,0.0012753074988722801,0.0008946070447564125
1782831359721218300,7.89721826171875,0.0016464488580822945,0.0006457939743995667,-0.0009054243564605713
1782831359731147300,7.907147216796875,-0.001080627553164959,0.0011765621602535248,-0.0016641588881611824
1782831359741077200,7.9170771484375,-0.0003031110391020775,0.0008217673748731613,-0.0003942004404962063
1782831359751006500,7.92700634765625,0.0018087755888700485,-0.0008216686546802521,0.0005357749760150909
1782831359760935400,7.936935302734375,-0.0011627143248915672,0.0009628906846046448,0.0013017593882977962
1782831359770864000,7.946864013671875,0.0015899287536740303,-0.0017660502344369888,0.00007164524868130684
1782831359780793000,7.95679296875,-0.0013610552996397018,-0.001522960141301155,-0.0000482313334941864
1782831359790722300,7.966722412109375,-0.0012012654915452003,-0.0005596950650215149,-0.0007145539857447147
1782831359800652300,7.97665234375,0.00010045431554317474,-0.001301274634897709,-0.0015521901659667492
1782831359810581200,7.986581298828125,-0.0017014406621456146,-0.00016330555081367493,-0.0022278339602053165
1782831359820510500,7.996510498046875,-0.00035876035690307617,-0.003000161610543728,-0.0027545299381017685
1782831359830439400,8.006439453125,0.001928362064063549,0.00046008359640836716,0.001092672348022461
1782831359840368400,8.016368408203125,-0.0016694329679012299,-0.0000847773626446724,-0.001191930379718542
1782831359850298000,8.026298095703124,0.0003351280465722084,-0.0013569686561822891,0.0005436516366899014
1782831359860227300,8.036227294921876,0.0018585026264190674,-0.0020308252424001694,0.00013153720647096634
1782831359870156300,8.04615625,-0.0002938639372587204,-0.00035862717777490616,-0.0013126949779689312
1782831359880085200,8.056085205078125,-0.0011534206569194794,-0.000657523050904274,-0.0011412594467401505
1782831359890014200,8.06601416015625,-0.0006133317947387695,0.00042531825602054596,-0.0016722939908504486
1782831359899944200,8.075944091796876,0.00016852375119924545,-0.0001698983833193779,0.003369415644556284
1782831359909873200,8.085873046875,-0.00024107005447149277,0.0020586345344781876,0.002482848707586527
1782831359919802000,8.095802001953125,-0.003923103213310242,0.0018970519304275513,-0.001524709165096283
1782831359929731300,8.1057314453125,-0.0014383746311068535,0.0006568180397152901,0.0005200663581490517
1782831359939660300,8.115660400390626,0.0011708512902259827,0.0000950302928686142,0.0011115223169326782
1782831359949590300,8.12559033203125,0.0007002707570791245,0.00041008181869983673,0.0007583871483802795
1782831359959519500,8.13551953125,0.0011698119342327118,0.001480557955801487,-0.0001201927661895752
1782831359969444600,8.145444580078125,-0.0011340891942381859,-0.0002206694334745407,-0.0014341967180371284
1782831359979373600,8.15537353515625,0.0004088589921593666,0.0007263654842972755,0.0008225576020777225
1782831359989302300,8.16530224609375,-0.0001501385122537613,0.000958593562245369,0.00020177429541945457
1782831359999231200,8.175231201171876,-0.00040956027805805206,0.0006114020943641663,0.00006433902308344841
1782831360009161500,8.185161376953126,0.0012953951954841614,-0.0013209870085120201,-0.001402796246111393
1782831360019090400,8.19509033203125,0.003629639744758606,-0.00023375265300273895,0.0014475751668214798
1782831360029019400,8.205019287109375,0.00013983342796564102,-0.0009046029299497604,0.0026188334450125694
1782831360038948400,8.2149482421875,0.0007042046636343002,-0.0005799615755677223,0.0021991506218910217
1782831360048877600,8.224877685546875,0.0031540468335151672,0.00028423406183719635,-0.0032323659397661686
1782831360058807300,8.234807373046875,-0.0006760498508810997,-0.0005575455725193024,0.0008014584891498089
1782831360068736300,8.244736328125,-0.000889102928340435,0.0009210417047142982,0.0004025171510875225
1782831360078665500,8.25466552734375,-0.0009806957095861435,-0.0001429254189133644,-0.001860213465988636
1782831360088594400,8.264594482421876,-0.0011942815035581589,0.0016709528863430023,-0.0018269242718815804
1782831360098523400,8.2745234375,0.00041951145976781845,0.00025756191462278366,0.0005049859173595905
1782831360108453600,8.28445361328125,-0.001001817174255848,0.0002935146912932396,0.0023047500289976597
1782831360118382300,8.29438232421875,-0.00008566305041313171,0.0007102321833372116,-0.00009713787585496902
1782831360128311300,8.304311279296876,0.000681060366332531,0.00007054116576910019,0.0007904940284788609
1782831360138240300,8.314240234375,0.00033581070601940155,0.0005528219044208527,0.0019913814030587673
1782831360148169500,8.32416943359375,0.0009824270382523537,0.0015491107478737831,-0.002236386761069298
1782831360158098400,8.334098388671874,-0.0022199414670467377,0.00044346414506435394,0.000040185172110795975
1782831360168028400,8.3440283203125,-0.0014795828610658646,-0.004467404447495937,-0.0012543774209916592
1782831360177957400,8.353957275390625,0.0010710908100008965,-2.0582228899002075e-7,0.00022648554295301437
1782831360187886600,8.363886474609375,-0.0018858173862099648,0.001132170669734478,-0.00021586567163467407
1782831360197815300,8.373815185546874,-0.000029587186872959137,-0.0023734113201498985,-0.0006753290072083473
1782831360207744300,8.383744140625,-0.0023979367688298225,0.00005885399878025055,0.002190498635172844
1782831360217674500,8.393674560546875,-0.0016124770045280457,-0.000729558989405632,0.00010931305587291718
1782831360227603500,8.403603515625,-0.0006353631615638733,-0.0008731037378311157,0.00006164237856864929
1782831360237532400,8.413532470703124,0.0007596146315336227,0.0025332020595669746,-0.0006387713365256786
1782831360247461400,8.42346142578125,0.0006120754405856133,0.0019390508532524109,-0.0007511568255722523
1782831360257390600,8.433390625,-0.0016714204102754593,0.002661285921931267,0.00048372428864240646
1782831360267320300,8.4433203125,-0.00028630997985601425,0.002096429467201233,0.0013628331944346428
1782831360277249300,8.453249267578125,0.0015165628865361214,0.000939488410949707,-0.0004056105390191078
1782831360287178500,8.463178466796874,0.0007825959473848343,0.0013211192563176155,0.0007179770618677139
1782831360297107500,8.473107421875,0.00023749377578496933,-0.0012210020795464516,0.0022918442264199257
1782831360307036400,8.483036376953125,0.0022825347259640694,0.00059500802308321,0.0012928927317261696
1782831360316966400,8.49296630859375,-0.0019253026694059372,0.0007983911782503128,-0.0005377349443733692
1782831360326895400,8.502895263671874,-0.0013042539358139038,-0.0011108284816145897,-0.0022224504500627518
1782831360336824300,8.51282421875,-0.0022282730787992477,0.002417987212538719,-0.00196651928126812
1782831360346753300,8.522753173828125,-0.0014141444116830826,0.0015290239825844765,-0.004298383370041847
1782831360356682200,8.53268212890625,0.0004650969058275223,-0.000651039183139801,-0.001853811088949442
1782831360366611500,8.542611572265624,0.0007921326905488968,-0.0020486656576395035,-0.0007459362968802452
1782831360376541400,8.55254150390625,-0.0005405126139521599,-0.001875617541372776,-0.0009598215110599995
1782831360386470400,8.562470458984375,-0.00033438391983509064,0.002299153245985508,0.0009203706867992878
1782831360396399600,8.572399658203125,-0.0014501707628369331,-0.0006230268627405167,0.0022574281319975853
1782831360406328300,8.582328369140624,0.00048035476356744766,0.0004273233935236931,-0.0008757808245718479
1782831360416257300,8.59225732421875,-0.0001283455640077591,0.001450677402317524,0.000826946459710598
1782831360426187500,8.6021875,-0.00040584709495306015,0.0015550730749964714,0.00047327950596809387
1782831360436116500,8.612116455078125,0.00130485650151968,0.0014190198853611946,0.0003661015070974827
1782831360446045400,8.62204541015625,0.0006763506680727005,-0.00026995688676834106,0.0005839481018483639
1782831360455974400,8.631974365234376,-0.0009008226916193962,-0.002731730230152607,-0.0012208088301122189
1782831360465903600,8.641903564453125,0.002784459851682186,0.000980449840426445,0.0005842815153300762
1782831360475833300,8.651833251953125,-0.0002461383119225502,0.0014458531513810158,-0.0002643638290464878
1782831360485762300,8.66176220703125,-0.0003886166960000992,0.001945994794368744,-0.0009756945073604584
1782831360495691300,8.671691162109376,0.0016052555292844772,-0.000029867514967918396,0.0004174797795712948
1782831360505620500,8.681620361328125,0.001109907403588295,-0.0015923446044325829,0.0017471960745751858
1782831360515549400,8.691549560546875,0.00020558666437864304,0.00030439160764217377,-0.002381674014031887
1782831360525478400,8.701478515625,-0.00013050436973571777,-0.001841849647462368,-0.0012516947463154793
1782831360535408400,8.711408447265624,0.00038945116102695465,-0.0010524485260248184,-0.000257355161011219
1782831360545337300,8.72133740234375,-0.0011906018480658531,-0.0009320732206106186,0.000841465312987566
1782831360555266300,8.731266357421875,0.0003435574471950531,-0.002598949708044529,-0.00019884668290615082
1782831360565195300,8.7411953125,-0.0003081178292632103,0.00018059182912111282,-0.00030990084633231163
1782831360575124500,8.75112451171875,0.00037773046642541885,-0.0008376520127058029,0.00033845892176032066
1782831360585054500,8.761054443359376,-0.00033013802021741867,-0.0013239448890089989,-0.000258089043200016
1782831360594983400,8.7709833984375,-0.0012668734416365623,-0.001925417222082615,0.0025396617129445076
1782831360604912600,8.78091259765625,0.0008322298526763916,-0.0007935734465718269,0.001529524102807045
1782831360614841300,8.79084130859375,0.0003689667209982872,0.0015777582302689552,0.00008694455027580261
1782831360624770300,8.800770263671875,0.0012358250096440315,-0.00034051667898893356,-0.0005559423007071018
1782831360634700300,8.8107001953125,-0.00031174439936876297,0.0015377877280116081,-0.0013176677748560905
1782831360644629500,8.82062939453125,-0.00004995521157979965,0.0009196680039167404,-0.001419400330632925
1782831360654558500,8.830558349609374,0.0020708302035927773,0.002254667691886425,0.002704401034861803
1782831360664487400,8.8404873046875,0.0014734826982021332,-0.00010808836668729782,0.0013003828935325146
1782831360674416400,8.85041650390625,0.000363420695066452,0.001322345808148384,0.000483071431517601
1782831360684345600,8.860345703125,0.002230030484497547,0.00017532240599393845,0.0005834726616740227
1782831360694275300,8.870275390625,-0.001136554405093193,0.001763373613357544,-0.0007967343553900719
1782831360704204300,8.880204345703126,0.0017106309533119202,-0.0006726197898387909,-0.0014073974452912807
1782831360714133500,8.890133544921875,0.0018675914034247398,0.0015705721452832222,0.00022516213357448578
1782831360724062500,8.9000625,-0.0015814676880836487,-0.0012542428448796272,0.00032582972198724747
1782831360733991400,8.909991455078124,-0.0011495379731059074,-0.0022351816296577454,-0.0005360436625778675
1782831360743921400,8.91992138671875,0.0007218653336167336,-0.00042982492595911026,0.0010546622797846794
1782831360753850400,8.929850341796875,-0.0006720582023262978,-0.00007538590580224991,-0.0020627365447580814
1782831360763779300,8.939779296875,-0.00013250112533569336,-0.00043011829257011414,0.0022617042995989323
1782831360773708300,8.949708251953124,-0.0014356449246406555,0.0002870643511414528,0.00018527265638113022
1782831360783637500,8.959637451171876,0.0017279237508773804,-0.002487150952219963,0.0012089917436242104
1782831360793567500,8.9695673828125,0.00020275823771953583,0.0003585983067750931,-0.000727151520550251
1782831360803496400,8.979496337890625,-0.0008611753582954407,0.00220416858792305,-0.00035803765058517456
1782831360813425400,8.98942529296875,-0.0001433519646525383,0.000994616188108921,-0.0018099090084433556
1782831360823354400,8.999354248046876,0.0008974112570285797,0.0019871769472956657,-0.00014996109530329704
1782831360833283300,9.009283447265625,0.0003681899979710579,-0.0002643866464495659,0.0005124080926179886
1782831360843212300,9.01921240234375,0.001987125724554062,0.003414505161345005,0.001706569455564022
1782831360853142500,9.029142578125,0.0010809237137436867,0.0015065502375364304,0.001322649884968996
1782831360863071500,9.039071533203124,-0.0002874080091714859,-0.0002484731376171112,0.0009596613235771656
1782831360873000400,9.04900048828125,0.0006934367120265961,-0.00022977497428655624,-0.00019910186529159546
1782831360882929400,9.058929443359375,-0.00135879497975111,0.0003654416650533676,0.0012374073266983032
1782831360892858600,9.068858642578125,-0.00033333059400320053,0.0004681441932916641,-0.0013094544410705566
1782831360902788400,9.078788330078124,0.0014011869207024574,-0.00006235670298337936,-0.001179492101073265
1782831360912717300,9.08871728515625,-0.0012672729790210724,-0.0009613512083888054,-0.0008415947668254375
1782831360922646500,9.098646484375,-0.00030640512704849243,-0.0020615030080080032,-0.001798468641936779
1782831360932575500,9.108575439453125,-0.0018357550725340843,0.00038058776408433914,-0.0030725644901394844
1782831360942504400,9.11850439453125,0.0010641608387231827,-0.0008117100223898888,0.00034214043989777565
1782831360952433400,9.128433349609375,0.0006072921678423882,0.0008762376382946968,0.00048787565901875496
1782831360962363400,9.13836328125,-0.0010201651602983475,-0.001474001444876194,0.00003567105159163475
1782831360972292600,9.148292724609375,0.0016794493421912193,0.0018055913969874382,-0.0001947483979165554
1782831360982221600,9.1582216796875,0.001834711991250515,0.001703592948615551,-0.002166552934795618
1782831360992150500,9.168150634765626,-0.0004951916635036469,0.00095394067466259,0.00013149622827768326
1782831361002079700,9.178079833984375,0.0008196104317903519,0.0024740733206272125,-0.0015116739086806774
1782831361012009700,9.188009765625,-0.0022940803319215775,-0.00044418685138225555,0.0015419702976942062
1782831361021938700,9.197938720703124,0.00163195189088583,-0.002317987382411957,0.0006737802177667618
1782831361031867600,9.20786767578125,-0.0011240886524319649,0.0018267035484313965,0.0007122536189854145
1782831361041796600,9.217796630859375,0.0002948436886072159,0.0010373424738645554,-0.0007165325805544853
1782831361051725600,9.2277255859375,-0.000024938955903053284,-0.0005093757063150406,-0.0013010716065764427
1782831361061654500,9.237654541015624,0.0014025159180164337,-0.00019618775695562363,0.000004143454134464264
1782831361071584800,9.247584716796876,0.00003681052476167679,-0.000596403144299984,-0.00018162978813052177
1782831361081513700,9.257513671875,0.0022901110351085663,-0.001217985525727272,0.0015741926617920399
1782831361091442700,9.267442626953125,0.0006536021828651428,-0.00038918666541576385,0.0021503008902072906
1782831361101371600,9.27737158203125,-0.0006657280027866364,-0.0020885495468974113,-0.002324076369404793
1782831361111300600,9.287300537109376,0.001386287622153759,-0.0019039670005440712,-0.0005101221613585949
1782831361121230600,9.297230712890626,-0.0006827227771282196,0.0004041949287056923,-0.0005516675300896168
1782831361131159600,9.30715966796875,0.001071050763130188,0.00020119082182645798,0.00021857861429452896
1782831361141088800,9.3170888671875,-0.0006810426712036133,-0.000007068738341331482,-0.00022217445075511932
1782831361151017700,9.327017822265624,0.00033176224678754807,-0.0009928559884428978,-0.0010539982467889786
1782831361160944600,9.336944580078125,-0.00004640687257051468,0.00023592635989189148,0.002016626764088869
1782831361170873600,9.34687353515625,-0.001286473125219345,0.00005511380732059479,0.0006311265751719475
1782831361180802600,9.356802490234376,-0.0006630271673202515,0.0023092133924365044,0.00038744695484638214
1782831361190732800,9.36673291015625,0.0012809094041585922,0.0007750857621431351,-0.0017382637597620487
1782831361200661800,9.376661865234375,-0.0008325753733515739,0.0012448681518435478,-0.003934306558221579
1782831361210590700,9.3865908203125,-0.00022433698177337646,0.0005504386499524117,-0.0007844888605177402
1782831361220519400,9.39651953125,-0.0006387252360582352,0.003892439417541027,0.0012608189135789871
1782831361230448600,9.40644873046875,-0.0003808727487921715,-0.00010331347584724426,-0.0001220223493874073
1782831361240378600,9.416378662109375,0.0025416798889636993,0.0011715414002537727,-0.002572929486632347
1782831361250307600,9.4263076171875,-0.0022579506039619446,0.0004277564585208893,0.0018493193201720715
1782831361260236800,9.43623681640625,-0.00029546674340963364,-0.001386389136314392,0.0017566406168043613
1782831361270165800,9.446165771484376,-0.0007601464167237282,-0.000013815239071846008,-0.0018190047703683376
1782831361280094700,9.4560947265625,-0.00003869552165269852,-0.002517719753086567,0.000025767367333173752
1782831361290023700,9.466023681640625,-0.0012743417173624039,-0.000730457715690136,-0.0003599664196372032
1782831361299953700,9.47595361328125,-0.0014168210327625275,0.00006875675171613693,-0.00009578093886375427
1782831361309882600,9.485882568359376,-0.0006859432905912399,-0.0005570845678448677,0.0028910362161695957
1782831361319811600,9.4958115234375,0.0008176779374480247,0.00009139534085988998,-0.0003297911025583744
1782831361329740800,9.50574072265625,-0.0010385243222117424,-0.00045942794531583786,0.003092107828706503
1782831361339669800,9.515669677734374,-0.0014294767752289772,-0.0016195010393857956,0.001227096188813448
1782831361349599500,9.525599609375,-0.0006842520087957382,-0.0020699677988886833,0.0007650488987565041
1782831361359528400,9.535528564453125,-0.0019143661484122276,0.0012688376009464264,-0.0023175603710114956
1782831361369457700,9.545457763671875,0.0014378773048520088,0.002607269212603569,0.0014041452668607235
1782831361379386600,9.55538671875,0.0013744933530688286,0.002204333432018757,-0.00022757379338145256
1782831361389315600,9.565315673828126,-0.00038448162376880646,-0.0008210586383938789,0.0007272660732269287
1782831361399244500,9.57524462890625,0.0007494920864701271,0.0008700480684638023,0.0002476302906870842
1782831361409174800,9.5851748046875,-0.0004489505663514137,0.004849291406571865,-0.001945022027939558
1782831361419103700,9.595103759765625,-0.0006473558023571968,0.0017347242683172226,0.0011903177946805954
1782831361429032400,9.605032470703126,0.0020166533067822456,0.0016037356108427048,0.0007880749180912971
1782831361438961700,9.614961669921875,-0.0018491912633180618,0.0005200961604714394,0.0028661396354436874
1782831361448890600,9.624890625,-0.0008445996791124344,-0.0012075826525688171,-0.0016777641139924526
1782831361458820600,9.634820556640625,-0.00027308519929647446,0.0003077555447816849,-0.0035877833142876625
1782831361468749800,9.644749755859374,-0.0006942320615053177,-0.001909506507217884,0.0021902453154325485
1782831361478678800,9.6546787109375,-0.0007488271221518517,-0.0020570456981658936,-0.002701448742300272
1782831361488607700,9.664607666015625,-0.0009951861575245857,0.0008945697918534279,-0.0007681823335587978
1782831361498536700,9.67453662109375,-0.0008122269064188004,-0.0006876140832901001,0.0004358328878879547
1782831361508465700,9.684465576171876,0.0011160532012581825,-0.0014645243063569069,0.0005579786375164986
1782831361518395600,9.694395751953126,0.00048088934272527695,-0.00007142499089241028,0.0012629171833395958
1782831361528324600,9.70432470703125,-0.0013871658593416214,0.0023441091179847717,-0.00037322426214814186
1782831361538253600,9.714253662109375,-0.0014580059796571732,-0.000501479022204876,-0.0015351613983511925
1782831361548182800,9.724182861328124,-0.0016200104728341103,-0.0012279478833079338,-0.00412542000412941
1782831361558111700,9.73411181640625,-0.00047671515494585037,0.000009889714419841766,-0.0010982048697769642
1782831361568041500,9.74404150390625,-0.0015131374821066856,0.0025155246257781982,-0.0011225906200706959
1782831361577970700,9.753970703125,0.0014978321269154549,0.00022680405527353287,-0.0016576196067035198
1782831361587899600,9.763899658203124,0.001320868730545044,0.0022749919444322586,0.00019863713532686234
1782831361597828600,9.77382861328125,-0.0003414759412407875,-0.0006273211911320686,0.0019161095842719078
1782831361607757600,9.783757568359375,-0.001054583117365837,-0.000906006433069706,0.0033415118232369423
1782831361617686800,9.793686767578125,0.0005430467426776886,-0.0006817681714892387,-0.0017078416422009468
1782831361627616800,9.80361669921875,0.0003785882145166397,-0.00044512562453746796,0.001257886178791523
1782831361637545500,9.81354541015625,-0.00007308460772037506,-0.001431293785572052,0.00006505660712718964
1782831361647474700,9.823474609375,0.0031580831855535507,-0.00024455320090055466,-0.0005400269292294979
1782831361657403600,9.833403564453125,-0.0012824712321162224,0.0004747668281197548,-0.0017032958567142487
1782831361667332600,9.84333251953125,-0.00034485291689634323,-0.0005600443109869957,-0.0017168987542390823
1782831361677262600,9.8532626953125,-0.0009461939334869385,-0.00030704401433467865,-0.0006455089896917343
1782831361687191800,9.86319189453125,0.0013167643919587135,0.0002091946080327034,0.00004888232797384262
1782831361697120800,9.873120849609375,0.00035376567393541336,-0.0026739435270428658,-0.00012715253978967667
1782831361707049700,9.8830498046875,-0.0005582012236118317,0.00030247680842876434,0.0020933514460921288
1782831361716978400,9.892978515625,-0.0010761860758066177,0.0012036897242069244,0.001079220324754715
1782831361726908700,9.90290869140625,0.0005519017577171326,0.00017105136066675186,-0.0007164026610553265
1782831361736837600,9.912837646484375,0.00006134714931249619,0.0005822433158755302,-0.000563270878046751
1782831361746766600,9.9227666015625,-0.00015407055616378784,-0.0011159628629684448,-0.002041472587734461
1782831361756695800,9.93269580078125,0.001984713599085808,0.0024662548676133156,-0.0016422644257545471
1782831361766624800,9.942624755859375,-0.00034964270889759064,-0.0012457147240638733,-0.0014415751211345196
1782831361776553700,9.9525537109375,-0.00199867133051157,0.013902345672249794,0.0117767583578825
1782831361786483700,9.962483642578125,0.0013761864975094795,0.002881983295083046,0.0019628899171948433
1782831361796412700,9.97241259765625,-0.0009101377800107002,0.009384357370436192,0.006315028294920921
1782831361806341600,9.982341552734376,-0.0001510120928287506,0.003106905147433281,-0.0002336590550839901
1782831361816270600,9.9922705078125,-0.0007797842845320702,0.0009228475391864777,-0.004619885236024857
1782831361826199800,10.00219970703125,0.0010925084352493286,-0.0016450006514787674,0.00119716115295887
1782831361836129800,10.0121298828125,-0.002046559937298298,-0.0026905573904514313,-0.004886297509074211
1782831361846058500,10.02205859375,0.0004765195772051811,-0.005795495584607124,-0.005751355551183224
1782831361855987500,10.031987548828125,0.0013588247820734978,-0.013961014337837696,-0.008279760368168354
1782831361865916700,10.041916748046875,0.00008844397962093353,-0.006903942208737135,-0.0037212809547781944
1782831361875845600,10.051845703125,-0.001906796358525753,-0.0017952006310224533,0.0029701776802539825
1782831361885774600,10.061774658203126,-0.000019710510969161987,-0.00022225268185138702,-0.0006952537223696709
1782831361895704800,10.071704833984375,-0.0014434363692998886,0.0000784182921051979,0.00048825517296791077
1782831361905633800,10.0816337890625,-0.0002232855185866356,-0.0005031190812587738,-0.0005588019266724586
