time,seconds_elapsed,z,y,x
1782836492842478300,0.083478271484375,-0.05839449167251587,0.04659800976514816,-0.007730887737125158
1782836492852407300,0.0934072265625,-0.02054154872894287,0.04836858808994293,0.004183268174529076
1782836492862336300,0.103336181640625,0.01955340802669525,0.020833631977438927,0.039196379482746124
1782836492872265200,0.11326513671875,0.041709963232278824,0.007405516691505909,0.05757448077201843
1782836492882194200,0.123194091796875,0.03876557573676109,-0.008691960945725441,0.057624541223049164
1782836492892123100,0.133123046875,0.021429473534226418,-0.027985796332359314,0.03737425059080124
1782836492902052000,0.143052001953125,0.0032568611204624176,-0.03974897786974907,0.00837029330432415
1782836492911981000,0.15298095703125,0.0051157232373952866,-0.03855980932712555,-0.014536051079630852
1782836492921911300,0.162911376953125,0.015744132921099663,-0.019701700657606125,-0.01831480860710144
1782836492931840300,0.17284033203125,0.019506346434354782,-0.009417658671736717,-0.007642276119440794
1782836492941769200,0.182769287109375,0.023959685117006302,-0.005291889421641827,0.01183235552161932
1782836492951698200,0.1926982421875,0.036833543330430984,-0.010806910693645477,0.04551607370376587
1782836492961627100,0.202627197265625,0.04003492742776871,-0.005858491640537977,0.06416698545217514
1782836492971556000,0.21255615234375,0.030546393245458603,-0.015091055072844028,0.05815637484192848
1782836492981485000,0.222485107421875,0.007324692793190479,-0.024420108646154404,0.023107308894395828
1782836492991414300,0.232414306640625,-0.0057669151574373245,0.0059984344989061356,-0.01152297668159008
1782836493001343200,0.24234326171875,-0.008434336632490158,0.017966413870453835,-0.029727812856435776
1782836493011273200,0.252273193359375,0.0036271559074521065,0.0008875792846083641,-0.027517305687069893
1782836493021202200,0.2622021484375,0.02376917563378811,-0.017798490822315216,-0.012444611638784409
1782836493031131400,0.27213134765625,0.03425537794828415,-0.009061126038432121,-0.004030034877359867
1782836493041060000,0.28206005859375,0.020676983520388603,0.009894722141325474,-0.015500536188483238
1782836493050989000,0.291989013671875,-0.005277534015476704,0.03554300218820572,-0.026700632646679878
1782836493060918000,0.30191796875,-0.023908745497465134,0.036070309579372406,-0.010325919836759567
1782836493070847200,0.31184716796875,-0.02398872748017311,0.03293517231941223,0.027883179485797882
1782836493080776200,0.321776123046875,-0.006550879217684269,0.04007670283317566,0.07542513310909271
1782836493090706200,0.3317060546875,0.010097329504787922,0.0319620780646801,0.10297887772321701
1782836493100635400,0.341635498046875,0.011464064009487629,0.012490376830101013,0.0779251903295517
1782836493110564400,0.351564453125,0.005011281464248896,-0.014715456403791904,0.019076038151979446
1782836493120493000,0.3614931640625,0.006442463956773281,-0.03108004853129387,-0.04786544293165207
1782836493130422000,0.371422119140625,0.000272638164460659,-0.03178834170103073,-0.1041252613067627
1782836493140351200,0.381351318359375,-0.002383066341280937,-0.012533687055110931,-0.13967233896255493
1782836493150280200,0.3912802734375,-0.004162481054663658,0.004148360341787338,-0.14412830770015717
1782836493160209200,0.401209228515625,-0.005824826657772064,0.007431238889694214,-0.12046052515506744
1782836493170138000,0.41113818359375,-0.002879011444747448,0.021302178502082825,-0.08221527934074402
1782836493180068400,0.421068359375,0.003798332065343857,0.026169102638959885,-0.05266724154353142
1782836493189997300,0.430997314453125,0.003894147463142872,0.0180829968303442,-0.03748886659741402
1782836493199926000,0.440926025390625,-0.0018313825130462646,0.029721545055508614,-0.030447736382484436
1782836493209855200,0.450855224609375,-0.007964937016367912,0.027237240225076675,-0.01850881054997444
1782836493219784200,0.4607841796875,0.0022432254627346992,0.02436182275414467,0.0052162278443574905
1782836493229713200,0.470713134765625,0.013604722917079926,0.03528540953993797,0.026832561939954758
1782836493239642000,0.48064208984375,0.024319685995578766,0.03563614934682846,0.042223237454891205
1782836493249571000,0.490571044921875,0.020820390433073044,0.018916059285402298,0.04168466478586197
1782836493259500300,0.500500244140625,0.008068641647696495,0.001047581434249878,0.02833636850118637
1782836493269430300,0.51043017578125,-0.008033165708184242,-0.014306267723441124,0.01324700377881527
1782836493279359000,0.52035888671875,-0.008015057072043419,-0.01916120946407318,0.001803399994969368
1782836493289288200,0.5302880859375,0.004714478272944689,-0.010335235856473446,-0.00716110086068511
1782836493299217200,0.540217041015625,0.014865649864077568,-0.008438000455498695,-0.013111934065818787
1782836493309146000,0.55014599609375,0.020520750433206558,0.0008822912350296974,-0.019918855279684067
1782836493319075000,0.560074951171875,0.011857219971716404,0.0024580834433436394,-0.02378762885928154
1782836493329004300,0.57000439453125,-0.00702520739287138,-0.0022115008905529976,-0.02786973863840103
1782836493338933200,0.579933349609375,-0.014923610724508762,-0.006705851294100285,-0.021799063310027122
1782836493348862200,0.5898623046875,-0.01936640404164791,0.000138196162879467,-0.006965556647628546
1782836493358792200,0.599792236328125,-0.003999432548880577,0.00244316179305315,0.02156914956867695
1782836493368721200,0.60972119140625,0.008177200332283974,-0.0025085732340812683,0.04417959600687027
1782836493378654000,0.619654052734375,0.016018345952033997,-0.02002391591668129,0.05213632062077522
1782836493388583000,0.6295830078125,0.015282155945897102,-0.030572831630706787,0.0371822789311409
1782836493398512000,0.63951220703125,0.006649785675108433,-0.03096005693078041,0.014279361814260483
1782836493408441000,0.649441162109375,-0.005773693323135376,-0.025728844106197357,-0.004607161972671747
1782836493418370000,0.6593701171875,-0.017084671184420586,-0.015663694590330124,-0.014546345919370651
1782836493428299000,0.669299072265625,-0.018355323001742363,-0.00265703909099102,-0.010677352547645569
1782836493438228200,0.679228271484375,-0.008459815755486488,-0.010003369301557541,0.0014573410153388977
1782836493448158000,0.689157958984375,0.000039789825677871704,-0.010933995246887207,0.011106716468930244
1782836493458087000,0.6990869140625,0.0017285002395510674,-0.0025519616901874542,0.008781509473919868
1782836493468016000,0.70901611328125,-0.005133593454957008,0.002217494882643223,0.0006660083308815956
1782836493477945000,0.718945068359375,-0.017314625903964043,0.006093459203839302,-0.009622848592698574
1782836493487874000,0.7288740234375,-0.03061571717262268,0.000558994710445404,-0.02788856253027916
1782836493497803000,0.738802978515625,-0.02820688858628273,-0.009104818105697632,-0.024504218250513077
1782836493507732200,0.748732177734375,-0.02450818195939064,-0.022829145193099976,-0.011573738418519497
1782836493517661200,0.7586611328125,-0.007864488288760185,-0.01518827024847269,0.005483541637659073
1782836493527590100,0.768590087890625,0.006838041357696056,-0.01112947054207325,0.030194656923413277
1782836493537519900,0.778519775390625,0.007249233312904835,-0.026333723217248917,0.04321618378162384
1782836493547449000,0.788448974609375,0.0011101849377155304,-0.027791080996394157,0.0362071692943573
1782836493557378000,0.7983779296875,-0.007459068670868874,-0.022792860865592957,0.010846421122550964
1782836493567307000,0.80830712890625,-0.016241364181041718,-0.02282458171248436,-0.01700080931186676
1782836493577236000,0.818236083984375,-0.01788240298628807,-0.03202899917960167,-0.04033303260803223
1782836493587165200,0.828165283203125,-0.017590224742889404,-0.03204033896327019,-0.048148319125175476
1782836493597094100,0.83809423828125,-0.016617638990283012,-0.033591896295547485,-0.03728421777486801
1782836493607023000,0.848023193359375,-0.011645274236798286,-0.02846711315214634,-0.02984757162630558
1782836493616953000,0.857953125,-0.01166817732155323,-0.020121298730373383,-0.022304166108369827
1782836493626882000,0.867882080078125,-0.013520284555852413,-0.0032041268423199654,-0.022719206288456917
1782836493636811000,0.87781103515625,-0.012149821035563946,0.019398922100663185,-0.008431879803538322
1782836493646740000,0.887739990234375,-0.011082201264798641,0.017802540212869644,0.019379373639822006
1782836493656669200,0.897669189453125,-0.00909255351871252,0.013739354908466339,0.044151563197374344
1782836493666598100,0.90759814453125,-0.014073649421334267,0.013765350915491581,0.04656652733683586
1782836493676527000,0.917527099609375,-0.015398304909467697,0.01805570349097252,0.027928397059440613
1782836493686456000,0.9274560546875,-0.022659923881292343,0.008347096852958202,0.0019889045506715775
1782836493696385000,0.937385009765625,-0.020402628928422928,-0.0029252637177705765,-0.02230232022702694
1782836493706315000,0.94731494140625,-0.006457994692027569,-0.008340850472450256,-0.027463212609291077
1782836493716244000,0.957243896484375,0.0001554330810904503,-0.015145759098231792,-0.022451410070061684
1782836493726173000,0.9671728515625,0.006977939046919346,-0.003486836329102516,-0.014962691813707352
1782836493736102100,0.97710205078125,0.011204642243683338,-0.00817373301833868,-0.013346419669687748
1782836493746031000,0.987031005859375,0.010078160092234612,-0.012597489170730114,-0.02287405915558338
1782836493755960000,0.9969599609375,0.0004383157938718796,-0.01579701155424118,-0.022883646190166473
1782836493765889000,1.006888916015625,-0.0068280259147286415,-0.012118525803089142,-0.019165217876434326
1782836493775818000,1.01681787109375,-0.005046372301876545,0.003243386745452881,-0.009727774187922478
1782836493785747000,1.026746826171875,-0.014918028376996517,0.0347052626311779,0.0013799099251627922
1782836493795677000,1.036677001953125,-0.024875320494174957,0.05410505831241608,0.012405396439135075
1782836493805606100,1.046606201171875,-0.029416657984256744,0.0673435628414154,0.015729468315839767
1782836493815535000,1.05653515625,-0.03356240317225456,0.07935734838247299,0.014740636572241783
1782836493825464000,1.066464111328125,-0.02994510531425476,0.0727723091840744,0.009070010855793953
1782836493835393000,1.07639306640625,-0.017535574734210968,0.05056314915418625,-0.004715044051408768
1782836493845322200,1.086322265625,-0.009567245841026306,0.030173012986779213,-0.02475089579820633
1782836493855251200,1.096251220703125,-0.005687817931175232,0.009908221662044525,-0.043436434119939804
1782836493865180000,1.106179931640625,0.004080142360180616,-0.012266982346773148,-0.05127846822142601
1782836493875108900,1.11610888671875,0.005822915118187666,-0.024283964186906815,-0.05206596478819847
1782836493885039000,1.1260390625,0.00656501017510891,-0.040420472621917725,-0.03945983946323395
1782836493894968000,1.135968017578125,0.011050838977098465,-0.04071208834648132,-0.012581617571413517
1782836493904897000,1.14589697265625,0.015577798709273338,-0.03031991794705391,0.00807720422744751
1782836493914826000,1.155825927734375,-0.001423022709786892,-0.015923401340842247,0.008168283849954605
1782836493924755200,1.165755126953125,-0.02009667456150055,0.009020259603857994,0.008952400647103786
1782836493934684200,1.17568408203125,-0.02418409287929535,0.0170049499720335,0.005220246501266956
1782836493944612900,1.18561279296875,-0.0353129617869854,0.015535627491772175,-0.005073124542832375
1782836493954541800,1.195541748046875,-0.0445416122674942,0.017081059515476227,-0.017576932907104492
1782836493964471000,1.205470947265625,-0.039707913994789124,0.014722519554197788,-0.024509092792868614
1782836493974401000,1.215401123046875,-0.03323110565543175,0.01597607135772705,-0.03350977599620819
1782836493984330000,1.225330078125,-0.03978487104177475,-0.002735595218837261,-0.029395613819360733
1782836493994259200,1.23525927734375,-0.04178250953555107,-0.025493105873465538,-0.02534414455294609
1782836494004188200,1.245188232421875,-0.034381791949272156,-0.020898930728435516,-0.013993706554174423
1782836494014117000,1.2551171875,-0.019314955919981003,-0.021536491811275482,-0.005240695551037788
1782836494024045800,1.2650458984375,-0.010370127856731415,-0.03788118436932564,-0.015935521572828293
1782836494033975000,1.27497509765625,-0.004360172897577286,-0.023298779502511024,-0.03697849065065384
1782836494043904000,1.284904052734375,-0.0019472753629088402,-0.004218727350234985,-0.04278235882520676
1782836494053833000,1.2948330078125,0.002488751895725727,-0.0008016256615519524,-0.029720883816480637
1782836494063763200,1.30476318359375,0.006363182794302702,-0.001971001736819744,-0.01475541666150093
1782836494073692200,1.314692138671875,0.000054154545068740845,0.018636539578437805,0.007751756347715855
1782836494083621000,1.32462109375,0.0002682320773601532,0.026926612481474876,0.03044121526181698
1782836494093550000,1.334550048828125,0.002486378885805607,0.02013927884399891,0.03004094399511814
1782836494103479000,1.34447900390625,0.0010415855795145035,0.014653322286903858,0.007210971787571907
1782836494113408000,1.354407958984375,-0.003142773173749447,0.00151834636926651,-0.027874577790498734
1782836494123337000,1.3643369140625,-0.016904547810554504,-0.027493324130773544,-0.05327470600605011
1782836494133266000,1.374265869140625,-0.024301476776599884,-0.024728963151574135,-0.05636264383792877
1782836494143195100,1.384195068359375,-0.02836572751402855,-0.013590291142463684,-0.04203217476606369
1782836494153125000,1.394125,-0.024380307644605637,-0.017617790028452873,-0.029846347868442535
1782836494163054000,1.40405419921875,-0.017397567629814148,-0.010998428799211979,-0.018442854285240173
1782836494172983000,1.413983154296875,-0.005578194744884968,-0.01927846297621727,-0.002022868487983942
1782836494182912000,1.423912109375,0.011119184084236622,-0.024336080998182297,0.011203421279788017
1782836494192841000,1.433841064453125,0.022651204839348793,-0.0141215268522501,0.01753375679254532
1782836494202770000,1.44377001953125,0.01670049875974655,0.0036554886028170586,0.0027459636330604553
1782836494212699000,1.453698974609375,0.0018073031678795815,0.013492672704160213,-0.015419990755617619
1782836494222628000,1.463628173828125,-0.015690384432673454,0.01462707668542862,-0.03293505683541298
1782836494232558000,1.47355810546875,-0.011204291135072708,0.01054125465452671,-0.025465957820415497
1782836494242487000,1.483487060546875,-0.003213968127965927,-0.0002718959003686905,-0.00383748859167099
1782836494252416300,1.493416259765625,0.007308713626116514,-0.014944048598408699,0.017562873661518097
1782836494262345000,1.503344970703125,0.01308211125433445,-0.011701843701303005,0.025787353515625
1782836494272274000,1.51327392578125,0.01004451047629118,-0.0071038962341845036,0.023392371833324432
1782836494282203000,1.523202880859375,0.0058214557357132435,0.013694696128368378,0.0070325639098882675
1782836494292132000,1.533132080078125,0.009960540570318699,0.022812029346823692,0.0022351453080773354
1782836494302061000,1.54306103515625,0.012072693556547165,0.02261815033853054,0.0065270960330963135
1782836494311990000,1.552989990234375,0.012367239221930504,0.020732099190354347,0.014974109828472137
1782836494321919000,1.5629189453125,0.0033264197409152985,0.018832094967365265,0.01989297941327095
1782836494331849200,1.57284912109375,0.0031578419730067253,0.01366316806524992,0.013450526632368565
1782836494341778000,1.58277783203125,0.006624469067901373,0.0024604247882962227,0.004587997682392597
1782836494351707000,1.592706787109375,0.015152176842093468,-0.015015771612524986,-0.012315617874264717
1782836494361635800,1.6026357421875,0.02122947946190834,-0.022596918046474457,-0.036929696798324585
1782836494371565000,1.61256494140625,0.015214997343719006,-0.02834348753094673,-0.04025678336620331
1782836494381490400,1.622490478515625,0.01021677628159523,-0.029077719897031784,-0.040045592933893204
1782836494391419600,1.632419677734375,0.008732262067496777,-0.02057364024221897,-0.022419091314077377
1782836494401348600,1.6423486328125,0.008273763582110405,-0.024310018867254257,-0.010886886157095432
1782836494411278600,1.652278564453125,0.004550664220005274,-0.011233897879719734,-0.01381742861121893
1782836494421207600,1.66220751953125,0.0005427766591310501,-0.004889935255050659,-0.012964814901351929
1782836494431136500,1.672136474609375,0.001576615497469902,0.010153728537261486,-0.016552358865737915
1782836494441065500,1.6820654296875,0.005016965791583061,0.03569485992193222,-0.02324625849723816
1782836494450994400,1.691994384765625,0.005095262546092272,0.04085846245288849,-0.0178283229470253
1782836494460923400,1.70192333984375,0.013542144559323788,0.022967396304011345,0.013772215694189072
1782836494470852600,1.7118525390625,0.01931055076420307,0.009613506495952606,0.03902723640203476
1782836494480781600,1.721781494140625,0.022791024297475815,0.0034366045147180557,0.047138314694166183
1782836494490710500,1.73171044921875,0.02727578952908516,-0.00920861680060625,0.038013260811567307
1782836494500640500,1.741640625,0.021232016384601593,-0.020794901996850967,0.00005021784454584122
1782836494510569500,1.751569580078125,0.011269397102296352,-0.03191892430186272,-0.04319152981042862
1782836494520498400,1.76149853515625,0.008827791549265385,-0.03864407539367676,-0.06036882475018501
1782836494530427400,1.771427490234375,0.009356962516903877,-0.018824299797415733,-0.04674995318055153
1782836494540356600,1.781356689453125,0.004815834108740091,0.001275874674320221,-0.02350734919309616
1782836494550285600,1.79128564453125,-0.0003488343209028244,0.012916019186377525,-0.009113497100770473
1782836494560214500,1.801214599609375,0.0025332095101475716,0.026726791635155678,-0.00797262229025364
1782836494570143500,1.8111435546875,0.011168509721755981,0.028651190921664238,-0.0074064345099031925
1782836494580072700,1.82107275390625,0.024611705914139748,0.028313908725976944,-0.008629499934613705
1782836494590001700,1.831001708984375,0.027198966592550278,0.00557344127446413,-0.005206538364291191
1782836494599931400,1.840931396484375,0.02446921542286873,-0.015926765277981758,-0.018340565264225006
1782836494609860400,1.8508603515625,0.02206597849726677,-0.026271015405654907,-0.0372689813375473
1782836494619789600,1.86078955078125,0.01694081351161003,-0.031135477125644684,-0.05500183627009392
1782836494629718500,1.870718505859375,0.008395794779062271,-0.020970992743968964,-0.07037972658872604
1782836494639647500,1.8806474609375,0.0037735248915851116,-0.0032312097027897835,-0.07706725597381592
1782836494649576400,1.890576416015625,0.0021505942568182945,0.008545820601284504,-0.04616287723183632
1782836494659505700,1.900505615234375,0.003293137066066265,0.007869099266827106,-0.004194187466055155
1782836494669434600,1.9104345703125,0.010136129334568977,0.00674417894333601,0.035722337663173676
1782836494679364400,1.9203642578125,0.017101678997278214,0.0025303103029727936,0.048746779561042786
1782836494689293600,1.93029345703125,0.017550155520439148,-0.0003589531406760216,0.0288028996437788
1782836494699222500,1.940222412109375,0.010866835713386536,-0.0018496979027986526,-0.0100745540112257
1782836494709151500,1.9501513671875,0.001060010865330696,0.00694911926984787,-0.03804653510451317
1782836494719080400,1.96008056640625,-0.0029038945212960243,0.013794662430882454,-0.03736666962504387
1782836494729009700,1.970009765625,-0.002421596087515354,0.008983928710222244,-0.01865370199084282
1782836494738938600,1.979938720703125,0.001983574591577053,0.013550085946917534,-0.009356795810163021
1782836494748867600,1.98986767578125,0.00223497673869133,0.018683861941099167,-0.014874067157506943
1782836494758796500,1.999796630859375,0.004275941755622625,0.018199538812041283,-0.03377186506986618
1782836494768726500,2.0097265625,-0.004883202724158764,0.01913936622440815,-0.06084263324737549
1782836494778655500,2.019655517578125,-0.017601706087589264,0.025762129575014114,-0.06334993243217468
1782836494788584400,2.02958447265625,-0.01685016229748726,0.030176851898431778,-0.03494119644165039
1782836494798513700,2.039513671875,-0.0021885624155402184,0.010766173712909222,0.01686679571866989
1782836494808442600,2.049442626953125,0.017605647444725037,0.0027069151401519775,0.04381772130727768
1782836494818371600,2.05937158203125,0.014065883122384548,-0.014279250986874104,0.04072555899620056
1782836494828300500,2.069300537109375,0.010826414451003075,-0.04172845184803009,0.0147402947768569
1782836494838229500,2.0792294921875,-0.000006930902600288391,-0.040244657546281815,-0.026968592777848244
1782836494848158700,2.08915869140625,-0.0020881909877061844,-0.03095315396785736,-0.05311178043484688
1782836494858088400,2.09908837890625,-0.002351755276322365,-0.025647539645433426,-0.05079688876867294
1782836494868017400,2.109017333984375,0.002508247271180153,0.0014535868540406227,-0.03277634456753731
1782836494877946600,2.118946533203125,0.005493088159710169,0.020662588998675346,-0.011796250939369202
1782836494887875600,2.12887548828125,0.0017888974398374557,0.020058317109942436,-0.004811578895896673
1782836494897804500,2.138804443359375,-0.004473199136555195,0.023541763424873352,-0.0173184797167778
1782836494907733500,2.1487333984375,-0.009461299516260624,0.02057366818189621,-0.02531914785504341
1782836494917662700,2.158662841796875,-0.004904593341052532,0.008647777140140533,-0.009336370974779129
1782836494927591700,2.168591796875,0.00401699636131525,0.0003986349329352379,0.008470323868095875
1782836494937520400,2.178520263671875,0.005794574972242117,0.0044555338099598885,0.014135124161839485
1782836494947450600,2.18845068359375,-0.0070112356916069984,0.010809569619596004,0.012793423607945442
1782836494957379600,2.198379638671875,-0.01446598395705223,0.0076006148010492325,0.004394855350255966
1782836494967308500,2.20830859375,-0.009982818737626076,0.004962222650647163,0.0008198274299502373
1782836494977237500,2.218237548828125,0.00035542622208595276,0.0005466770380735397,0.0013736467808485031
1782836494987166700,2.228166748046875,0.014402003027498722,-0.014718029648065567,0.004562782123684883
1782836494997095700,2.238095703125,0.017535381019115448,-0.022751491516828537,0.003533816896378994
1782836495007024600,2.248024658203125,0.012546481564640999,-0.019308023154735565,-0.006447976920753717
1782836495016953300,2.257953369140625,0.004059328697621822,-0.01555127277970314,-0.01732170768082142
1782836495026883600,2.267883544921875,-0.0011434229090809822,-0.014095854945480824,-0.025430766865611076
1782836495036812500,2.2778125,-0.0011777253821492195,-0.00015069451183080673,-0.024363650009036064
1782836495046741500,2.287741455078125,-0.0009388402104377747,-0.0073721217922866344,-0.014964289963245392
1782836495056670500,2.29767041015625,0.005578662268817425,-0.009007353335618973,-0.012891272082924843
1782836495066599700,2.307599609375,0.00795766431838274,-0.012352284044027328,-0.01528758555650711
1782836495076528600,2.317528564453125,0.011176765896379948,-0.014730902388691902,-0.015489661134779453
1782836495086457600,2.32745751953125,0.0071460711769759655,-0.009428282268345356,-0.0219331793487072
1782836495096386600,2.337386474609375,-0.005300478078424931,-0.005716368556022644,-0.014527726918458939
1782836495106315500,2.3473154296875,-0.015251114033162594,-0.00013518240302801132,-0.007814696989953518
1782836495116245500,2.35724560546875,-0.011286425404250622,0.0039424654096364975,0.005400312133133411
1782836495126174500,2.367174560546875,-0.008299156092107296,0.0011360272765159607,0.006327890790998936
1782836495136103700,2.377103759765625,-0.00329419132322073,-0.0012801913544535637,0.0018850099295377731
1782836495146032600,2.38703271484375,0.006063357461243868,-0.018747864291071892,-0.011331992223858833
1782836495155961600,2.396961669921875,0.006229972932487726,-0.011744054034352303,-0.009049315005540848
1782836495165890600,2.406890625,0.011901173740625381,-0.005480831488966942,0.007379460148513317
1782836495175819500,2.416819580078125,0.008596538566052914,-0.003410063683986664,0.018969280645251274
1782836495185748500,2.42674853515625,0.0027277301996946335,-0.005443919450044632,0.018486982211470604
1782836495195677400,2.436677490234375,-0.006342840380966663,0.0011042533442378044,0.0064369430765509605
1782836495205607700,2.446607666015625,-0.015413300134241581,0.010645294561982155,-0.003660432528704405
1782836495215536600,2.45653662109375,-0.01430305652320385,0.0013968246057629585,-0.008015256375074387
1782836495225465600,2.466465576171875,-0.010790880769491196,-0.0001379549503326416,-0.017522208392620087
1782836495235394600,2.47639453125,-0.0037503503262996674,-0.0043478067964315414,-0.013825902715325356
1782836495245323500,2.486323486328125,0.004957387689501047,-0.017536045983433723,-0.0044619617983698845
1782836495255252500,2.49625244140625,0.009815328754484653,-0.007144465576857328,0.001934579573571682
1782836495265181400,2.506181396484375,0.00582458171993494,0.0015891054645180702,0.00902045238763094
1782836495275110400,2.5161103515625,-0.002984466031193733,-0.004381975159049034,0.0058595119044184685
1782836495285039400,2.526039306640625,-0.017628390341997147,-0.014518499374389648,-0.01055967528373003
1782836495294969600,2.535969482421875,-0.02433466911315918,-0.01918821781873703,-0.01581396535038948
1782836495304898600,2.545898681640625,-0.018111661076545715,-0.016009468585252762,-0.016218500211834908
1782836495314827500,2.55582763671875,-0.00862954556941986,-0.011055117473006248,-0.009767420589923859
1782836495324756700,2.5657568359375,-0.014257337898015976,-0.010152040049433708,-0.004389166831970215
1782836495334685400,2.575685546875,-0.019588585942983627,-0.004920204170048237,0.0009446153417229652
1782836495344614400,2.585614501953125,-0.010881914757192135,0.0011605918407440186,0.003482608124613762
1782836495354543400,2.59554345703125,0.0009419536218047142,-0.0030554775148630142,0.008862374350428581
1782836495364472600,2.60547265625,0.013345359824597836,-0.01938944309949875,0.01053563877940178
1782836495374402600,2.615402587890625,0.017325568944215775,-0.026679934933781624,0.003991281613707542
1782836495384332300,2.625332275390625,0.004835610277950764,-0.026373937726020813,-0.012623380869626999
1782836495394261200,2.63526123046875,-0.008964618667960167,-0.011870714835822582,-0.023808596655726433
1782836495404190000,2.64518994140625,-0.01434260606765747,0.002988658845424652,-0.023959331214427948
1782836495414119000,2.655118896484375,-0.0121637973934412,0.022980190813541412,-0.009384168311953545
1782836495424048000,2.665048095703125,-0.003923976793885231,0.032808586955070496,0.014282811433076859
1782836495433977000,2.67497705078125,0.0014813132584095001,0.01791045069694519,0.03921005502343178
1782836495443906000,2.684906005859375,0.004719983320683241,-0.007521672174334526,0.050682153552770615
1782836495453835000,2.6948349609375,0.009209251031279564,-0.018799301236867905,0.03319907188415527
1782836495463765200,2.70476513671875,0.009822577238082886,-0.03477027639746666,-0.0076745906844735146
1782836495473694200,2.714694091796875,0.0047569493763148785,-0.04414365440607071,-0.045792706310749054
1782836495483623000,2.724622802734375,0.0012820567935705185,-0.04582756757736206,-0.0662577673792839
1782836495493551900,2.7345517578125,0.00484821479767561,-0.034094370901584625,-0.0566679984331131
1782836495503481000,2.744481201171875,0.008287421427667141,-0.015905514359474182,-0.03339463472366333
1782836495513410000,2.75441015625,0.0000196089968085289,-0.007195758633315563,-0.010320499539375305
1782836495523339000,2.764339111328125,-0.012537461705505848,0.009806394577026367,0.006168728694319725
1782836495533268000,2.77426806640625,-0.022477027028799057,0.027631284669041634,0.011306138709187508
1782836495543198200,2.7841982421875,-0.02249567210674286,0.020365914329886436,0.012082183733582497
1782836495553127200,2.794127197265625,-0.011886724270880222,0.016246601939201355,0.003701520152390003
1782836495563055900,2.804055908203125,0.00593807827681303,0.008991084061563015,-0.000001339241862297058
1782836495572985000,2.813985107421875,0.010747898370027542,0.00017370842397212982,-0.013303389772772789
1782836495582914000,2.8239140625,0.008694867603480816,0.003061373718082905,-0.019161544740200043
1782836495592843000,2.833843017578125,0.0006971396505832672,0.010951225645840168,-0.023043256253004074
1782836495602772000,2.84377197265625,-0.00903298519551754,0.008871563710272312,-0.009356738068163395
1782836495612701200,2.853701171875,-0.010072904638946056,0.013682818040251732,0.008842704817652702
1782836495622630100,2.863630126953125,-0.010205795057117939,0.018098870292305946,0.027330102398991585
1782836495632560000,2.87356005859375,-0.00761199276894331,0.007569350302219391,0.022299297153949738
1782836495642489000,2.883489013671875,-0.00448384415358305,-0.0039179278537631035,0.004266234114766121
1782836495652418000,2.89341796875,0.0037949178367853165,-0.022702312096953392,-0.016036858782172203
1782836495662347000,2.903346923828125,0.017867060378193855,-0.029921874403953552,-0.03851793333888054
1782836495672276000,2.91327587890625,0.025174565613269806,-0.01659625954926014,-0.04754573851823807
1782836495682205000,2.923204833984375,0.014103804714977741,-0.015081453137099743,-0.03715727478265762
1782836495692134100,2.933134033203125,0.001229708082973957,0.01402236707508564,-0.013405909761786461
1782836495702063000,2.94306298828125,-0.01482089702039957,0.048237331211566925,0.022315336391329765
1782836495711993000,2.9529931640625,-0.013606680557131767,0.05354063957929611,0.05078081041574478
1782836495721922000,2.962922119140625,-0.011252712458372116,0.042241912335157394,0.058509569615125656
1782836495731851000,2.97285107421875,-0.010456480085849762,0.02963286265730858,0.03703518211841583
1782836495741780000,2.982780029296875,-0.005220439285039902,0.01444405596703291,-0.0034656361676752567
1782836495751709000,2.992708984375,-0.002723151817917824,0.004179779440164566,-0.03760349750518799
1782836495761638100,3.00263818359375,-0.0025162240490317345,0.007242415100336075,-0.05252997949719429
1782836495771567000,3.012567138671875,0.0013896897435188293,0.0023858482018113136,-0.04041644185781479
1782836495781496000,3.02249609375,0.0071391877718269825,0.003303840756416321,-0.0132916159927845
1782836495791425000,3.032425048828125,0.006141642574220896,0.014540085569024086,0.009004857391119003
1782836495801355000,3.04235498046875,0.003190593793988228,0.008995650336146355,0.01969745010137558
1782836495811284000,3.052283935546875,0.004482271149754524,0.0029983576387166977,0.015228856354951859
1782836495821213000,3.062212890625,0.006415193434804678,-0.007301684468984604,-0.009172888472676277
1782836495831142100,3.07214208984375,0.0106923533603549,-0.011356531642377377,-0.025980476289987564
1782836495841071000,3.082071044921875,0.011601557023823261,-0.005003294441848993,-0.022266164422035217
1782836495851000000,3.092,0.014098971150815487,0.005700977519154549,-0.005797095596790314
1782836495860929000,3.101928955078125,0.004260188899934292,0.013324275612831116,0.0034280940890312195
1782836495870858200,3.111858154296875,0.0023897066712379456,0.029628122225403786,0.014667579904198647
1782836495880788000,3.1217880859375,0.0016040736809372902,0.025431247428059578,0.019601086154580116
1782836495890717000,3.131717041015625,0.0010982174426317215,0.012437175959348679,0.00980476662516594
1782836495900646000,3.14164599609375,0.0027493778616189957,-0.004178818315267563,-0.011779887601733208
1782836495910575000,3.1515751953125,0.0009177364408969879,-0.015668068081140518,-0.03373178094625473
1782836495920504000,3.161504150390625,0.0010607484728097916,-0.013768170028924942,-0.04065600037574768
1782836495930433000,3.17143310546875,0.005983312148600817,-0.010358722880482674,-0.032883793115615845
1782836495940362000,3.181362060546875,0.00848854798823595,-0.021851859986782074,0.0014560697600245476
1782836495950291200,3.191291259765625,0.0043946378864347935,-0.01657777652144432,0.02720732055604458
1782836495960221000,3.201220947265625,-0.0016131876036524773,-0.01206052303314209,0.03752414137125015
1782836495970150000,3.21114990234375,-0.013971718028187752,-0.017329378053545952,0.02196408435702324
1782836495980079000,3.2210791015625,-0.01943146623671055,-0.017335502430796623,-0.002310893964022398
1782836495990008000,3.231008056640625,-0.013096063397824764,-0.017428353428840637,-0.024628859013319016
1782836495999937000,3.24093701171875,-0.007037104107439518,-0.010962197557091713,-0.02754289098083973
1782836496009866000,3.250865966796875,-0.0022071590647101402,-0.011194000020623207,-0.02583972178399563
1782836496019795200,3.260795166015625,-0.0038825534284114838,-0.013329856097698212,-0.02694067358970642
1782836496029724200,3.27072412109375,-0.007170179858803749,-0.020407211035490036,-0.02655777707695961
1782836496039653000,3.280653076171875,0.0014451462775468826,-0.016855886206030846,-0.028879787772893906
1782836496049582800,3.290582763671875,0.008884124457836151,-0.0039239563047885895,-0.02770775370299816
1782836496059512000,3.300511962890625,0.010128620080649853,0.011412921361625195,-0.02319343015551567
1782836496069441000,3.31044091796875,0.0070493463426828384,0.021013732999563217,-0.013247264549136162
1782836496079370000,3.320369873046875,-0.002033097669482231,0.019187338650226593,-0.006366455461829901
1782836496089299000,3.330298828125,-0.010955389589071274,0.016766827553510666,-0.0022282516583800316
1782836496099228200,3.340228271484375,-0.007470110431313515,0.000871485099196434,-0.0012636547908186913
1782836496109157000,3.3501572265625,0.011320778168737888,-0.019122466444969177,0.004678623750805855
1782836496119086000,3.360086181640625,0.02537774294614792,-0.03639199957251549,0.0035297367721796036
1782836496129016000,3.37001611328125,0.03080548346042633,-0.03520502150058746,-0.0011443113908171654
1782836496138945000,3.379945068359375,0.020711038261651993,-0.025719642639160156,-0.0037787104956805706
1782836496148874000,3.3898740234375,0.007881362922489643,-0.01676906831562519,-0.004848254844546318
1782836496158803000,3.399802978515625,-0.0015134699642658234,-0.00797531008720398,-0.012245450168848038
1782836496168732200,3.409732177734375,-0.011831533163785934,0.004837102256715298,-0.01866067573428154
1782836496178661000,3.4196611328125,-0.00874359905719757,0.005323396064341068,-0.020036466419696808
1782836496188590000,3.429590087890625,0.0002967575564980507,-0.003958223387598991,-0.022692549973726273
1782836496198519000,3.43951904296875,0.0017585670575499535,0.013698267750442028,-0.021937277168035507
1782836496208448300,3.4494482421875,0.0039473483338952065,0.013957733288407326,-0.00529827643185854
1782836496218378000,3.4593779296875,0.008748228661715984,0.0001471126452088356,0.010211974382400513
1782836496228307000,3.469306884765625,0.003160487860441208,0.0011068694293498993,0.009933387860655785
1782836496238236200,3.479236083984375,-0.001957841217517853,-0.0018646856769919395,0.005788710899651051
1782836496248165000,3.4891650390625,-0.006488214246928692,-0.018219081684947014,-0.00887987669557333
1782836496258094000,3.499093994140625,-0.005527879111468792,-0.024291621521115303,-0.029278891161084175
1782836496268023000,3.50902294921875,-0.006218244321644306,-0.02218862995505333,-0.03389410674571991
1782836496277952300,3.5189521484375,-0.001525222323834896,0.0004261340945959091,-0.02781251072883606
1782836496287881200,3.528881103515625,0.008052235469222069,0.017966054379940033,-0.0019432594999670982
1782836496297811000,3.53881103515625,0.009614445269107819,0.01168631948530674,0.024414844810962677
1782836496307740000,3.548739990234375,0.0161666888743639,0.0010620970278978348,0.035267919301986694
1782836496317669000,3.558669189453125,0.009287744760513306,-0.012089657597243786,0.013511491939425468
1782836496327598000,3.56859814453125,0.009986280463635921,-0.017878271639347076,-0.011029384098947048
1782836496337527000,3.578527099609375,0.012947183102369308,-0.018707048147916794,-0.02394145354628563
1782836496347456000,3.5884560546875,0.009162535890936852,-0.03250259906053543,-0.01828865334391594
1782836496357385200,3.59838525390625,0.0037704333662986755,-0.02607053518295288,-0.012572976760566235
1782836496367314200,3.608314208984375,-0.010610484518110752,-0.0007230155169963837,-0.003338826820254326
1782836496377244200,3.618244140625,-0.008332683704793453,0.008502175100147724,0.004979290999472141
1782836496387173000,3.628173095703125,0.004736197646707296,0.0004108315333724022,0.008221233263611794
1782836496397102000,3.63810205078125,0.01759660243988037,-0.004023863933980465,0.005885906517505646
1782836496407031300,3.64803125,0.02254374325275421,-0.003980149514973164,0.00025863293558359146
1782836496416960300,3.657960205078125,0.01098456047475338,-0.008177824318408966,-0.020882606506347656
1782836496426889200,3.66788916015625,0.0007096519693732262,-0.019318927079439163,-0.03117121383547783
1782836496436818200,3.677818115234375,-0.009392783045768738,-0.016038179397583008,-0.029400212690234184
1782836496446747400,3.687747314453125,-0.004863882437348366,-0.00653267465531826,-0.014155169948935509
1782836496456677000,3.697677001953125,0.0070098210126161575,-0.01113941054791212,-0.007776899263262749
1782836496466606000,3.707606201171875,0.00820301566272974,-0.020504914224147797,-0.009533600881695747
1782836496476535300,3.717535400390625,0.003046337515115738,-0.01848011091351509,-0.012804761528968811
1782836496486464300,3.72746435546875,0.0017384588718414307,-0.015213211998343468,-0.02158547006547451
1782836496496393200,3.737393310546875,0.005348640028387308,-0.014632376842200756,-0.023170318454504013
1782836496506322200,3.747322265625,0.0036413399502635,-0.012300468981266022,-0.00765928253531456
1782836496516251100,3.757251220703125,-0.002148372121155262,-0.012518049217760563,0.013168767094612122
1782836496526180400,3.767180419921875,-0.0018029715865850449,-0.008607162162661552,0.030405962839722633
1782836496536110000,3.777110107421875,-0.004646163433790207,0.001673971302807331,0.039803989231586456
1782836496546039000,3.7870390625,-0.007763532921671867,0.0025947773829102516,0.036713071167469025
1782836496555968300,3.79696826171875,-0.008647968992590904,0.01542748510837555,0.02271656133234501
1782836496565897200,3.806897216796875,-0.0047228215262293816,0.013921127654612064,0.01592489704489708
1782836496575826200,3.816826171875,-0.0026354361325502396,0.006223526783287525,0.0008724434301257133
1782836496585755100,3.826755126953125,-0.006798136979341507,0.0059250593185424805,-0.012960475869476795
1782836496595684400,3.836684326171875,-0.01403740793466568,-0.0014782613143324852,-0.023280225694179535
1782836496605613300,3.84661328125,-0.015196066349744797,-0.0030136853456497192,-0.022279933094978333
1782836496615543000,3.85654296875,-0.011119034141302109,-0.00698951818048954,-0.015127746388316154
1782836496625472300,3.86647216796875,-0.004710385575890541,-0.0027461564168334007,-0.012260944582521915
1782836496635401200,3.876401123046875,-0.0030746720731258392,-0.017720045521855354,-0.010300857946276665
1782836496645330200,3.886330078125,-0.004485058598220348,-0.019817352294921875,-0.013428512960672379
1782836496655259100,3.896259033203125,-0.010870520956814289,-0.005615779664367437,-0.01775907725095749
1782836496665188400,3.906188232421875,-0.016172844916582108,-0.008957136422395706,-0.01782536692917347
1782836496675117300,3.916117431640625,-0.019650399684906006,-0.01403738185763359,-0.02306939661502838
1782836496685046300,3.92604638671875,-0.010952793061733246,-0.006341155152767897,-0.02302257902920246
1782836496694976000,3.93597607421875,0.0019060149788856506,-0.006536098197102547,-0.013619223609566689
1782836496704905200,3.9459052734375,0.009518450126051903,-0.002297712489962578,0.004515352658927441
1782836496714834200,3.955834228515625,0.014091364108026028,0.01797720044851303,0.0168756153434515
1782836496724763100,3.96576318359375,0.009656723588705063,0.01750212535262108,0.02147248387336731
1782836496734692000,3.975692138671875,0.004669155925512314,0.005558911710977554,0.01660449057817459
1782836496744621300,3.985621337890625,0.000019514933228492737,-0.003811268135905266,0.012172436341643333
1782836496754550300,3.99555029296875,0.0013481657952070236,-0.02388191595673561,0.007799524813890457
1782836496764479200,4.005479248046875,0.006172243971377611,-0.03176023066043854,-0.00693066231906414
1782836496774409200,4.0154091796875,0.008903048932552338,-0.02714657038450241,-0.014498300850391388
1782836496784338200,4.025338134765625,0.010826142504811287,-0.029229765757918358,-0.015169188380241394
1782836496794267100,4.03526708984375,0.007661508396267891,-0.02454420179128647,-0.013166224583983421
1782836496804196000,4.045196044921875,-0.000011784955859184265,-0.013926333747804165,-0.019129619002342224
1782836496814125300,4.055125244140625,-0.009035906754434109,-0.005993575789034367,-0.017887253314256668
1782836496824054300,4.06505419921875,-0.017887327820062637,0.008876070380210876,-0.004810656420886517
1782836496833983200,4.074983154296875,-0.02012811228632927,0.023625724017620087,0.010945935733616352
1782836496843912200,4.084912109375,-0.016462162137031555,0.03478711098432541,0.022067800164222717
1782836496853842200,4.09484228515625,-0.010667123831808567,0.031107688322663307,0.017362793907523155
1782836496863771100,4.104771240234375,-0.010275774635374546,0.008167289197444916,0.013534238561987877
1782836496873700000,4.1147001953125,-0.008967895992100239,-0.00773977255448699,-0.0024063782766461372
1782836496883629000,4.124629150390625,-0.00962564442306757,-0.01313050463795662,-0.01995076611638069
1782836496893558300,4.134558349609375,-0.007988599129021168,-0.012620775029063225,-0.025733020156621933
1782836496903487200,4.1444873046875,-0.0030115554109215736,-0.005697471089661121,-0.01629004068672657
1782836496913416200,4.154416259765625,0.0019906600937247276,0.015908487141132355,0.0018274439498782158
1782836496923345200,4.16434521484375,0.006721499375998974,0.021268632262945175,0.02427469566464424
1782836496933275100,4.174275146484375,0.01334122009575367,0.009609542787075043,0.03698417916893959
1782836496943204000,4.1842041015625,0.013125883415341377,0.012939483858644962,0.03723327815532684
1782836496953133000,4.194133056640625,0.01765299029648304,0.015553110279142857,0.03396877646446228
1782836496963062300,4.204062255859375,0.014354651793837547,0.0018957341089844704,0.02317454293370247
1782836496972991200,4.2139912109375,0.00862725730985403,-0.01100914552807808,0.003670617938041687
1782836496982920200,4.223920166015625,-0.0020038438960909843,-0.013542190194129944,-0.009218040853738785
1782836496992849200,4.23384912109375,-0.007147206924855709,-0.014226356521248817,-0.011672676540911198
1782836497002778400,4.2437783203125,-0.00043650437146425247,-0.0018882723525166512,-0.006452453322708607
1782836497012708000,4.2537080078125,0.012360251508653164,0.01657169498503208,0.0022209296002984047
1782836497022637000,4.263636962890625,0.01642189547419548,0.01363445445895195,0.0020172465592622757
1782836497032566300,4.273566162109375,0.009035884402692318,0.011912189424037933,-0.008372810669243336
1782836497042495200,4.2834951171875,-0.0024559907615184784,0.0312177836894989,-0.017822135239839554
1782836497052424200,4.293424072265625,-0.014389616437256336,0.029798585921525955,-0.02093696780502796
1782836497062353200,4.303353271484375,-0.014387502335011959,0.010168010368943214,-0.02321521006524563
1782836497072282400,4.313282470703125,-0.009752537123858929,0.014467950910329819,-0.024647990241646767
1782836497082211300,4.32321142578125,-0.002681213431060314,0.002123703248798847,-0.0054344311356544495
1782836497092141000,4.33314111328125,0.011288930661976337,-0.010187824256718159,0.011182628571987152
1782836497102070000,4.343070068359375,0.013372212648391724,-0.007970817387104034,0.012403983622789383
1782836497111999200,4.352999267578125,0.0075441510416567326,-0.016502520069479942,-0.0029310304671525955
1782836497121928200,4.36292822265625,-0.00021389033645391464,-0.018023226410150528,-0.004311765544116497
1782836497131857200,4.372857177734375,0.0016330117359757423,-0.015437029302120209,-0.00454239547252655
1782836497141786000,4.3827861328125,-0.00054171122610569,0.0021818727254867554,0.007368173450231552
1782836497151715300,4.39271533203125,-0.003741765394806862,0.005962229333817959,0.026581816375255585
1782836497161644300,4.402644287109375,0.00015870016068220139,0.0017842622473835945,0.02938452735543251
1782836497171574000,4.412573974609375,-0.005609440617263317,0.013515752740204334,0.011296335607767105
1782836497181503200,4.422503173828125,-0.009845142252743244,0.018709678202867508,0.004926103167235851
1782836497191432200,4.43243212890625,-0.00184687040746212,0.009116971865296364,0.009695291519165039
1782836497201361200,4.442361083984375,0.0009929696097970009,0.006539030931890011,0.016147363930940628
1782836497211290000,4.4522900390625,-0.0010872259736061096,-0.004812692757695913,0.028168607503175735
1782836497221219300,4.46221923828125,-0.005331695079803467,-0.003913363441824913,0.03443470597267151
1782836497231148300,4.472148193359375,-0.004716770723462105,-0.007707835640758276,0.028743000701069832
1782836497241077200,4.4820771484375,-0.00439040083438158,-0.01172062661498785,0.013704933226108551
1782836497251007200,4.49200732421875,-0.00613077636808157,-0.02228192612528801,-0.014928575605154037
1782836497260936200,4.501936279296875,-0.004918210208415985,-0.01327446661889553,-0.03673398494720459
1782836497270865200,4.511865234375,-0.0033512068912386894,-0.0046578096225857735,-0.034224219620227814
1782836497280794000,4.521794189453125,0.005387579090893269,-0.001395704224705696,-0.026666201651096344
1782836497290723000,4.53172314453125,0.0018381178379058838,0.006215344183146954,-0.01226542517542839
1782836497300652300,4.54165234375,-0.00561579130589962,0.004458684474229813,0.004350683651864529
1782836497310581200,4.551581298828125,-0.00970880314707756,0.006555924192070961,0.018577823415398598
1782836497320510200,4.56151025390625,-0.007432403042912483,0.017903197556734085,0.027610037475824356
1782836497330440200,4.571440185546875,-0.003466157242655754,0.029552128165960312,0.033796027302742004
1782836497340369200,4.581369140625,-0.00002200249582529068,0.023197561502456665,0.03271741420030594
1782836497350298000,4.591298095703125,0.0027162600308656693,0.0031013470143079758,0.0196056067943573
1782836497360227000,4.60122705078125,0.00320496316999197,0.0005065929144620895,0.0035503236576914787
1782836497370156300,4.61115625,-0.0016723508015275002,0.0019625425338745117,0.00008608400821685791
1782836497380088800,4.6210888671875,-0.0055470941588282585,-0.001196499913930893,0.002023499459028244
1782836497390018000,4.63101806640625,-0.0025864578783512115,-0.008727120235562325,0.0000530267134308815
1782836497399947800,4.64094775390625,0.002351561561226845,-0.020794395357370377,-0.0006213998422026634
1782836497409876700,4.650876708984375,0.011866503395140171,-0.03207527846097946,-0.000249356497079134
1782836497419806000,4.660805908203125,0.022195782512426376,-0.03967057913541794,-0.000004659406840801239
1782836497429735000,4.67073486328125,0.020145416259765625,-0.0359077975153923,-0.0028286753222346306
1782836497439663900,4.680663818359375,0.00006358325481414795,-0.008888964541256428,0.0062649548053741455
1782836497449592800,4.6905927734375,-0.01887468993663788,0.019726701080799103,0.0013239914551377296
1782836497459522000,4.70052197265625,-0.02946498617529869,0.04231042042374611,-0.0020009404979646206
1782836497469451000,4.710450927734375,-0.026134435087442398,0.03870769590139389,-0.0016382182948291302
1782836497479380700,4.720380615234375,-0.009008965454995632,0.01942530646920204,0.007620109245181084
1782836497489310000,4.73031005859375,0.009869650937616825,0.0015882542356848717,0.022685345262289047
1782836497499239000,4.740239013671875,0.022303499281406403,-0.01341991312801838,0.018739409744739532
1782836497509167900,4.75016796875,0.01759103685617447,-0.01306651160120964,0.014505784027278423
1782836497519096800,4.760096923828125,0.0007919007912278175,-0.009528618305921555,0.0064425403252244
1782836497529025800,4.77002587890625,-0.012953206896781921,-0.00896456092596054,-0.0037499102763831615
1782836497538955000,4.779955078125,-0.014150267466902733,-0.0020964909344911575,-0.010121436789631844
1782836497548884000,4.789884033203125,-0.0103379525244236,-0.000612311065196991,-0.004965290427207947
1782836497558813700,4.799813720703125,-0.005421057343482971,-0.004489840939640999,-0.007820446975529194
1782836497568743000,4.809742919921875,-0.0011488134041428566,-0.012952568009495735,-0.014257307164371014
1782836497578671900,4.819671875,0.00236482173204422,-0.009047224186360836,-0.0175138171762228
1782836497588600800,4.829600830078125,0.004318783059716225,-0.008786766789853573,-0.014288462698459625
1782836497598529800,4.83952978515625,0.006668980233371258,-0.013844650238752365,-0.008282434195280075
1782836497608459000,4.849458984375,0.006587487645447254,-0.014993271790444851,-0.0018024309538304806
1782836497618388000,4.859387939453125,0.00608612596988678,-0.007987027987837791,-0.001110508106648922
1782836497628318000,4.86931787109375,0.0038783657364547253,-0.003937957808375359,-0.013975972309708595
1782836497638247000,4.879246826171875,-0.006617167964577675,0.0054298285394907,-0.02509058639407158
1782836497648175900,4.88917578125,-0.01435152068734169,0.02214702218770981,-0.026518572121858597
1782836497658104800,4.899104736328125,-0.006873602047562599,0.019045883789658546,-0.028413919731974602
1782836497668033800,4.90903369140625,0.0061327433213591576,0.01840219646692276,-0.022472407668828964
1782836497677963000,4.918962890625,0.01280582882463932,0.007702340371906757,-0.007826559245586395
1782836497687892000,4.92889208984375,0.018477296456694603,-0.0002874089404940605,0.0014817211776971817
1782836497697821000,4.938821044921875,0.015719003975391388,-0.012269199825823307,-0.01040987204760313
1782836497707751000,4.9487509765625,0.006130291614681482,-0.015888435766100883,-0.024791207164525986
1782836497717679900,4.958679931640625,0.004427510779350996,-0.026577293872833252,-0.035901717841625214
1782836497727608800,4.96860888671875,0.00813356600701809,-0.02331092581152916,-0.03740107640624046
1782836497737537800,4.978537841796875,0.01140597090125084,-0.007606270257383585,-0.026383180171251297
1782836497747466800,4.988466796875,0.014441441744565964,-0.0021827425807714462,-0.0017777015455067158
1782836497757396000,4.99839599609375,0.013556237332522869,-0.002987244166433811,0.02196153625845909
1782836497767325000,5.008324951171875,0.008355350233614445,-0.0022005466744303703,0.030591510236263275
1782836497777254000,5.01825390625,0.007078489754348993,0.005927911959588528,0.03279595822095871
1782836497787184000,5.02818408203125,0.012211199849843979,0.012521100230515003,0.02545814774930477
1782836497797112800,5.03811279296875,0.011802922934293747,0.012785591185092926,-0.00179356150329113
1782836497807041800,5.048041748046875,0.007156505715101957,0.011105136945843697,-0.021391764283180237
1782836497816970800,5.057970703125,0.009864643216133118,-0.0031079230830073357,-0.023872848600149155
1782836497826900000,5.06789990234375,0.011020454578101635,-0.007468316704034805,-0.014995202422142029
1782836497836829000,5.077828857421875,0.008016173727810383,-0.0031507639214396477,0.001192108727991581
1782836497846758000,5.0877578125,0.0014914292842149734,-0.010609479621052742,0.013630135916173458
1782836497856688000,5.097688232421875,-0.0034789983183145523,-0.008794155903160572,0.020208001136779785
1782836497866617000,5.1076171875,-0.003379927948117256,-0.0015708636492490768,0.01633043959736824
1782836497876545800,5.1175458984375,-0.0010367361828684807,0.009081818163394928,0.012449000030755997
1782836497886474800,5.127474853515625,0.003221391700208187,0.0052833519876003265,0.015549719333648682
1782836497896404000,5.137404052734375,0.0018375292420387268,0.005321018397808075,0.021751146763563156
1782836497906333000,5.1473330078125,0.003999483771622181,0.010533357039093971,0.026613544672727585
1782836497916262000,5.157261962890625,0.0023162104189395905,0.004435516893863678,0.021656636148691177
1782836497926190800,5.16719091796875,-0.004383504390716553,0.0010335948318243027,0.007738159038126469
1782836497936121000,5.17712109375,-0.0073096854612231255,0.005699489265680313,-0.0052466969937086105
1782836497946050000,5.187050048828125,-0.009157919324934483,0.0055695269256830215,-0.017917752265930176
1782836497955978800,5.196978759765625,0.0026250388473272324,0.007345247082412243,-0.017503999173641205
1782836497965907700,5.20690771484375,0.015589573420584202,0.009145013056695461,-0.003272600006312132
1782836497975837000,5.2168369140625,0.019019611179828644,0.005737572908401489,0.018374010920524597
1782836497985766000,5.226765869140625,0.017824651673436165,0.001284235157072544,0.02061878889799118
1782836497995694800,5.23669482421875,0.0038641770370304585,-0.005277904681861401,0.008346153423190117
1782836498005625000,5.246625,-0.006934408098459244,-0.019190257415175438,-0.0048210471868515015
1782836498015554000,5.256553955078125,-0.00670433696359396,-0.03417685627937317,-0.018219906836748123
1782836498025483000,5.26648291015625,0.007221599109470844,-0.018767543137073517,-0.009861841797828674
1782836498035411700,5.27641162109375,0.017010917887091637,-0.00125120859593153,0.015038343146443367
1782836498045341000,5.2863408203125,0.010151945985853672,0.005141177214682102,0.035900216549634933
1782836498055270000,5.296269775390625,-0.005234496667981148,0.016706369817256927,0.03064604103565216
1782836498065198800,5.30619873046875,-0.01186789758503437,0.020955711603164673,0.015180266462266445
1782836498075127800,5.3161279296875,-0.011689240112900734,0.027337033301591873,-0.0015409979969263077
1782836498085055700,5.3260556640625,-0.0060430727899074554,0.019218917936086655,-0.013522826135158539
1782836498094986000,5.335986083984375,0.0016543874517083168,0.01077985018491745,-0.013675011694431305
1782836498104915000,5.3459150390625,0.004029660951346159,0.0023631956428289413,-0.008393430151045322
1782836498114844000,5.355843994140625,0.008446050807833672,-0.009462647140026093,0.004492434673011303
1782836498124773000,5.365773193359375,0.0052995262667536736,-0.012679746374487877,0.00836041010916233
1782836498134702000,5.3757021484375,0.0007936814799904823,-0.0090350192040205,0.006161833181977272
1782836498144630800,5.385630859375,-0.002089190296828747,0.0008317269384860992,0.007666786201298237
1782836498154559700,5.395559814453125,-0.009615521878004074,0.012204539030790329,0.00844371598213911
1782836498164488700,5.40548876953125,-0.010775594040751457,0.014268223196268082,0.005399988032877445
1782836498174419000,5.4154189453125,-0.006408374756574631,0.008258294314146042,-0.0020014499314129353
1782836498184348000,5.425347900390625,0.005415528081357479,0.0016701659187674522,-0.005612696520984173
1782836498194276900,5.43527685546875,0.016636744141578674,-0.0058084819465875626,-0.001497162040323019
1782836498204206000,5.4452060546875,0.01890282705426216,-0.014268012717366219,-0.0026284726336598396
1782836498214135000,5.455135009765625,0.007764521054923534,-0.029541734606027603,-0.017824016511440277
1782836498224064000,5.46506396484375,-0.009600087068974972,-0.01567652076482773,-0.03409752994775772
1782836498233992700,5.47499267578125,-0.019453490152955055,-0.010996095836162567,-0.03273402899503708
1782836498243923000,5.4849228515625,-0.01852404698729515,-0.01606089621782303,-0.021508540958166122
1782836498253852000,5.494851806640625,-0.010301747359335423,0.0062214694917202,-0.014401579275727272
1782836498263780900,5.50478076171875,-0.006930450908839703,0.027422362938523293,-0.002277006395161152
1782836498273710000,5.5147099609375,-0.007018826901912689,0.020374849438667297,0.009856820106506348
1782836498283639000,5.52463916015625,-0.006795654073357582,0.00970356073230505,0.007651723921298981
1782836498293568000,5.534568115234375,-0.014347243122756481,0.003599054180085659,-0.010168984532356262
1782836498303497000,5.5444970703125,-0.02605423331260681,0.006925075314939022,-0.03207135200500488
1782836498313426000,5.554426025390625,-0.021967794746160507,0.003969842568039894,-0.026268254965543747
1782836498323356000,5.56435595703125,-0.0066852448508143425,0.00009867176413536072,0.003241167403757572
1782836498333284900,5.574284912109375,0.006008165422827005,0.0030943090096116066,0.033790647983551025
1782836498343213800,5.5842138671875,0.00684732710942626,0.0005943989381194115,0.0389728918671608
1782836498353143000,5.59414306640625,0.00017804373055696487,-0.0005066990852355957,0.026443740352988243
1782836498363072000,5.604072021484375,-0.009971795603632927,-0.017894744873046875,-0.0008858847431838512
1782836498373001000,5.6140009765625,-0.010194730013608932,-0.02549152635037899,-0.027695685625076294
1782836498382929000,5.623928955078125,-0.005293713882565498,-0.0175491813570261,-0.032096292823553085
1782836498392858600,5.633858642578125,-0.001278410665690899,-0.009614327922463417,-0.030390756204724312
1782836498402787600,5.64378759765625,-0.004645977169275284,0.009616357274353504,-0.016736196354031563
1782836498412716800,5.653716796875,-0.009998513385653496,0.010788487270474434,-0.0107582937926054
1782836498422645800,5.663645751953125,-0.013010282069444656,0.003086359240114689,-0.012244338169693947
1782836498432574700,5.67357470703125,-0.01230720803141594,0.007218785583972931,-0.01762445643544197
1782836498442503700,5.683503662109375,-0.005667680874466896,-0.00489673251286149,-0.013149546459317207
1782836498452433000,5.693432861328125,-0.0035592112690210342,-0.01917952671647072,0.004832049831748009
1782836498462361900,5.70336181640625,-0.008875946514308453,-0.021023232489824295,0.022361773997545242
1782836498472291600,5.71329150390625,-0.014822898432612419,-0.022728117182850838,0.021830644458532333
1782836498482220800,5.723220703125,-0.01928901858627796,-0.017296867445111275,0.013081629760563374
1782836498492149800,5.733149658203125,-0.022670451551675797,-0.007648387458175421,-0.008545811288058758
1782836498502078700,5.74307861328125,-0.014918253757059574,-0.0029031671583652496,-0.022528473287820816
1782836498512007700,5.753007568359375,-0.004066126421093941,0.003010611981153488,-0.02912607416510582
1782836498521937000,5.76293701171875,-0.001755567267537117,0.00464685820043087,-0.025175807997584343
1782836498531865900,5.772865966796875,-0.008074097335338593,0.003418414853513241,-0.013009882532060146
1782836498541795800,5.7827958984375,-0.010612623766064644,-0.0009113522246479988,0.00405911635607481
1782836498551724800,5.792724853515625,-0.014086198061704636,0.0021148379892110825,0.01602352038025856
1782836498561653800,5.80265380859375,-0.009677601978182793,0.012936858460307121,0.015257594175636768
1782836498571582700,5.812582763671875,-0.0009267209097743034,0.005097577348351479,0.018026214092969894
1782836498581511700,5.82251171875,0.010786127299070358,-0.001264713704586029,0.013608031906187534
1782836498591440600,5.832440673828125,0.013024402782320976,-0.013575101271271706,0.014920075424015522
1782836498601369900,5.842369873046875,0.012827328406274319,-0.022669795900583267,0.009866462089121342
1782836498611298800,5.852298828125,0.010397013276815414,-0.01965748518705368,0.009622115641832352
1782836498621228800,5.862228759765625,0.007949834689497948,-0.0210346058011055,0.0008557895198464394
1782836498631157800,5.87215771484375,0.004402124788612127,-0.018786828964948654,-0.010311473160982132
1782836498641086700,5.882086669921875,-0.003817455843091011,-0.004086977802217007,-0.0071242013946175575
1782836498651015700,5.892015625,-0.0035689137876033783,0.002829250879585743,-0.001325335819274187
1782836498660944600,5.901944580078125,-0.0011718031018972397,0.007537718862295151,0.0027999011799693108
1782836498670873900,5.911873779296875,-0.0008793715387582779,0.001999826170504093,0.0048568369820714
1782836498680802800,5.921802734375,-0.002444511279463768,0.005314928479492664,0.014049801975488663
1782836498690733600,5.931733642578125,-0.0035349074751138687,0.008668539114296436,0.012294389307498932
1782836498700662800,5.941662841796875,-0.006841488182544708,0.0007589505985379219,0.010557742789387703
1782836498710591700,5.951591796875,-0.009844875894486904,0.0018497379496693611,0.011072412133216858
1782836498720520700,5.961520751953125,-0.007372663356363773,0.00033280160278081894,-0.0009719994850456715
1782836498730449700,5.97144970703125,-0.005339927040040493,0.0008579427376389503,-0.009240835905075073
1782836498740379000,5.98137890625,-0.005464830435812473,0.0021114926785230637,-0.007886884734034538
1782836498750308900,5.991308837890625,0.002678428776562214,0.00515148788690567,0.0031918995082378387
1782836498760237600,6.001237548828125,0.00824922975152731,0.015195332467556,0.025729166343808174
1782836498770166800,6.011166748046875,0.013772780075669289,0.019511789083480835,0.03982657939195633
1782836498780095700,6.021095703125,0.010462471283972263,0.014749256893992424,0.02779095061123371
1782836498790024700,6.031024658203125,0.006099483463913202,0.005284511484205723,0.009008699096739292
1782836498799953700,6.04095361328125,0.003487987443804741,-0.009358612820506096,-0.009119437076151371
1782836498809883000,6.0508828125,0.006328249350190163,-0.007267170585691929,-0.0213407464325428
1782836498819811800,6.060811767578125,0.006793770007789135,0.003727690316736698,-0.018123114481568336
1782836498829741800,6.070741943359375,0.013186872005462646,-0.00830461923032999,0.0007893145084381104
1782836498839670800,6.0806708984375,0.008969223126769066,-0.006764779798686504,0.012352226302027702
1782836498849599700,6.090599853515625,0.009947918355464935,0.005792070180177689,0.024405846372246742
1782836498859528700,6.10052880859375,0.0046362439170479774,0.021249055862426758,0.029068244621157646
1782836498869457700,6.110457763671875,0.005131131503731012,0.015440688468515873,0.022434407845139503
1782836498879387000,6.120386962890625,-0.0036687515676021576,0.006902593187987804,-0.0037524551153182983
1782836498889315800,6.13031591796875,-0.005179618485271931,0.002701425924897194,-0.02797016128897667
1782836498899245800,6.140245849609375,-0.0012453310191631317,-0.0040704598650336266,-0.03915170952677727
1782836498909174800,6.1501748046875,-0.0011955732479691505,-0.0039548855274915695,-0.041810542345047
1782836498919103700,6.160103759765625,0.006712683476507664,0.007879669778048992,-0.017772318795323372
1782836498929032700,6.17003271484375,0.015049750916659832,0.012369834817945957,0.027801429852843285
1782836498938961700,6.179961669921875,0.016128331422805786,0.007112487219274044,0.05300265550613403
1782836498948890600,6.189890625,0.0058332933112978935,-0.0038775429129600525,0.05130404233932495
1782836498958819800,6.19981982421875,0.0007727546617388725,-0.008880291134119034,0.02391849271953106
1782836498968749800,6.209749755859375,0.000990026630461216,-0.013488167896866798,-0.004090909380465746
1782836498978678800,6.2196787109375,0.004672379698604345,-0.011829816736280918,-0.027234045788645744
1782836498988608000,6.22960791015625,0.008848482742905617,0.0003088712692260742,-0.029457518830895424
1782836498998536700,6.23953662109375,0.016130629926919937,0.003948080353438854,-0.010503801517188549
1782836499008465700,6.249465576171875,0.01142882090061903,0.013674143701791763,0.013495070859789848
1782836499018394600,6.25939453125,-0.0009732544422149658,0.009064478799700737,0.03443524241447449
1782836499028323800,6.26932373046875,-0.008437617681920528,-0.005207633599638939,0.03497341647744179
1782836499038252800,6.279252685546875,-0.016879837960004807,-0.018007319420576096,0.011994332075119019
1782836499048182800,6.289182861328125,-0.011051272973418236,-0.026474688202142715,-0.01218346692621708
1782836499058111700,6.29911181640625,0.0038384604267776012,-0.022503647953271866,-0.023392710834741592
1782836499068041000,6.309041015625,0.012610714882612228,-0.011987627483904362,-0.02010973170399666
1782836499077969700,6.3189697265625,0.009394948370754719,-0.0017688125371932983,-0.000195944681763649
1782836499087898600,6.328898681640625,-0.00565070565789938,0.005075485445559025,0.020117497071623802
1782836499097827600,6.33882763671875,-0.018094860017299652,0.015885520726442337,0.027708571404218674
1782836499107756800,6.3487568359375,-0.01622922718524933,0.01619672402739525,0.027859047055244446
1782836499117686800,6.358686767578125,-0.011053907684981823,-0.001766829751431942,0.013899290934205055
1782836499127615700,6.36861572265625,-0.007704534567892551,-0.013132813386619091,-0.008192172273993492
1782836499137545000,6.378544921875,0.003778216429054737,-0.006188088096678257,-0.023357808589935303
1782836499147474000,6.388473876953125,0.010818072594702244,-0.0058088237419724464,-0.021472837775945663
1782836499157403000,6.39840283203125,0.006830255500972271,-0.006998990196734667,-0.011483054608106613
1782836499167331600,6.40833154296875,0.0018517281860113144,0.007318006828427315,-0.005323871038854122
1782836499177260800,6.4182607421875,-0.0057121822610497475,0.0066490210592746735,0.006296832114458084
1782836499187190800,6.428190673828125,-0.006119982339441776,-0.016607755795121193,0.005671094171702862
1782836499197119700,6.43811962890625,-0.0012607788667082787,-0.031108133494853973,-0.005320837255567312
1782836499207049000,6.448049072265625,0.002855207771062851,-0.03417890518903732,-0.023745693266391754
1782836499216978000,6.45797802734375,0.01385406218469143,-0.03404947370290756,-0.029423819854855537
1782836499226907000,6.467906982421875,0.019861508160829544,-0.041939616203308105,-0.018785323947668076
1782836499236835800,6.4778359375,0.00795052107423544,-0.023942239582538605,0.001660296693444252
1782836499246764800,6.487764892578125,-0.0045747309923172,-0.00974151398986578,0.015507549047470093
1782836499256693800,6.49769384765625,-0.01553150825202465,0.0015699965879321098,0.021348128095269203
1782836499266623700,6.507623779296875,-0.022163955494761467,0.009828994981944561,0.01625080406665802
1782836499276552700,6.517552734375,-0.018554309383034706,0.0134338503703475,0.009941508993506432
1782836499286482000,6.52748193359375,-0.01114807277917862,0.010765205137431622,0.004977734759449959
1782836499296411000,6.537410888671875,-0.0006962306797504425,0.0014428095892071724,0.0030623897910118103
1782836499306339800,6.54733984375,0.007737019564956427,-0.02151322364807129,0.0025563985109329224
1782836499316268800,6.557268798828125,0.006588664371520281,-0.021554768085479736,-0.009416640736162663
1782836499326197800,6.56719775390625,-0.007013135589659214,-0.008305761963129044,-0.021719027310609818
1782836499336127700,6.577127685546875,-0.012663831003010273,-0.00229447428137064,-0.02136749029159546
1782836499346056700,6.587056640625,-0.008191247470676899,-0.0059555997140705585,-0.01116396114230156
1782836499355986000,6.59698583984375,0.0038465065881609917,-0.011772742494940758,0.020634982734918594
1782836499365915000,6.606914794921875,0.012796885333955288,-0.005278440658003092,0.05359262600541115
1782836499375843800,6.61684375,0.013549494557082653,-0.0034973183646798134,0.05972189083695412
1782836499385769700,6.626769775390625,0.0034836968407034874,-0.00449273269623518,0.038051389157772064
1782836499395699000,6.636698974609375,-0.011659836396574974,-0.008237402886152267,0.004299284890294075
1782836499405628000,6.6466279296875,-0.02105538174510002,-0.00956045463681221,-0.01591290906071663
1782836499415558000,6.656557861328125,-0.010990495793521404,-0.012162362225353718,-0.02439481019973755
1782836499425486800,6.66648681640625,0.0001534298062324524,-0.009458576329052448,-0.008518598973751068
1782836499435416000,6.676416015625,0.00701453210785985,-0.008378398604691029,0.0065285274758934975
1782836499445345000,6.686344970703125,0.0036845291033387184,-0.00823389831930399,0.005135602317750454
1782836499455274000,6.69627392578125,-0.012937590479850769,-0.009670141153037548,0.0004969090223312378
1782836499465202700,6.70620263671875,-0.011661669239401817,-0.004792561288923025,-0.00468054274097085
1782836499475132000,6.7161318359375,-0.00014767423272132874,-0.0008022664114832878,0.004771620966494083
1782836499485062000,6.726061767578125,0.007742429152131081,0.013106020167469978,0.018122442066669464
1782836499494990800,6.735990966796875,0.003213990479707718,0.016738837584853172,0.027436580508947372
1782836499504920000,6.745920166015625,0.0014165397733449936,0.014518546871840954,0.024191919714212418
1782836499514849000,6.75584912109375,-0.0018570180982351303,0.014399236999452114,0.014913998544216156
1782836499524778000,6.765778076171875,-0.0009746141731739044,0.0005590254440903664,-0.002981398720294237
1782836499534707000,6.77570703125,0.0026046745479106903,-0.01961468532681465,-0.018761426210403442
1782836499544636000,6.785635986328125,0.007714355364441872,-0.026507370173931122,-0.014034525491297245
1782836499554566000,6.79556591796875,0.012985283508896828,-0.022864431142807007,-0.00094615388661623
1782836499564494800,6.805494873046875,0.014283617027103901,-0.018111146986484528,0.018583210185170174
1782836499574424000,6.815424072265625,0.010444138199090958,-0.012319304049015045,0.026065360754728317
1782836499584353000,6.82535302734375,0.004562055226415396,-0.002957484684884548,0.026027480140328407
1782836499594282000,6.835281982421875,0.0005923472344875336,0.0019704289734363556,0.018804186955094337
1782836499604211000,6.8452109375,-0.009885144419968128,0.01696074567735195,0.010233795270323753
1782836499614140000,6.855139892578125,-0.00809283833950758,0.013970015570521355,-0.003829025663435459
1782836499624068900,6.86506884765625,-0.0036099953576922417,0.0004688277840614319,0.00016839336603879929
1782836499633998800,6.874998779296875,0.007489793933928013,-0.016644379124045372,0.011829311028122902
1782836499643927800,6.884927734375,0.012634544633328915,-0.016609393060207367,0.016229841858148575
1782836499653857000,6.89485693359375,0.010632912628352642,-0.018690120428800583,0.01806396059691906
1782836499663786000,6.904785888671875,-0.0048358747735619545,-0.008074644953012466,0.009832387790083885
1782836499673715000,6.91471484375,-0.01687735691666603,0.000212046317756176,-0.0018716729246079922
1782836499683644000,6.924643798828125,-0.019223814830183983,-0.0024920906871557236,-0.011095012538135052
1782836499693573000,6.934572998046875,-0.013340892270207405,-0.011173995211720467,-0.019576115533709526
1782836499703502800,6.9445029296875,-0.0023864824324846268,-0.005139229819178581,-0.02191055752336979
1782836499713431800,6.954431884765625,0.009184420108795166,-0.01067114807665348,-0.011135941371321678
1782836499723361000,6.964361083984375,0.011903970502316952,-0.01084151305258274,-0.004381259437650442
1782836499733290000,6.9742900390625,0.0065579405054450035,0.005127866752445698,-0.0011689546518027782
1782836499743219000,6.984218994140625,-0.002326028421521187,0.022564835846424103,0.007197792641818523
1782836499753148000,6.99414794921875,-0.0089362608268857,0.022505182772874832,0.017777998000383377
1782836499763077000,7.0040771484375,-0.00705593079328537,0.014718817546963692,0.02098976820707321
1782836499773006800,7.0140068359375,-0.009809639304876328,0.013638906180858612,0.011903328821063042
1782836499782935800,7.023935791015625,-0.0028439704328775406,-0.013680712319910526,0.00006199069321155548
1782836499792864800,7.03386474609375,0.008943446911871433,-0.042104631662368774,-0.014380598440766335
1782836499802794000,7.0437939453125,0.013595834374427795,-0.03506249934434891,-0.026159130036830902
1782836499812723000,7.053722900390625,0.018302438780665398,-0.022766953334212303,-0.020691661164164543
1782836499822652000,7.06365185546875,0.01591341383755207,-0.025043318048119545,-0.012710044160485268
1782836499832580900,7.073580810546875,0.002511056140065193,-0.007280299905687571,-0.0062968856655061245
1782836499842510800,7.0835107421875,-0.01176214125007391,0.011460786685347557,0.0035942690446972847
1782836499852439800,7.093439697265625,-0.010250530205667019,0.02622588351368904,0.008678777143359184
1782836499862368800,7.10336865234375,-0.01196461170911789,0.03369612991809845,0.0013040564954280853
1782836499872298000,7.113298095703125,-0.0112381000071764,0.02857886627316475,-0.01262693852186203
1782836499882227000,7.12322705078125,-0.005871227942407131,0.011728700250387192,-0.02594711072742939
1782836499892156000,7.133156005859375,0.0010074498131871223,-0.00002276431769132614,-0.020185096189379692
1782836499902084900,7.1430849609375,0.008185623213648796,-0.01601104624569416,-0.004600841552019119
1782836499912014000,7.15301416015625,0.007383478805422783,-0.006883594673126936,0.0008589047938585281
1782836499921943800,7.16294384765625,-0.0032921116799116135,0.0042811669409275055,-0.003020456526428461
1782836499931872800,7.172872802734375,-0.015264618210494518,0.007586682215332985,-0.007151818368583918
1782836499941802000,7.182802001953125,-0.016084088012576103,-0.0006090831011533737,-0.013128126040101051
1782836499951731000,7.19273095703125,-0.010800110176205635,0.006683717481791973,-0.011575503274798393
1782836499961660000,7.202659912109375,-0.002578398212790489,0.020694609731435776,-0.0015052929520606995
1782836499971588900,7.2125888671875,0.004788970109075308,0.0041398657485842705,0.009233638644218445
1782836499981517800,7.222517822265625,0.0034162094816565514,-0.007225739303976297,0.005772042088210583
1782836499991447800,7.23244775390625,0.000893397256731987,-0.0039982544258236885,-0.008710760623216629
1782836500001376800,7.242376708984375,0.0009094178676605225,0.001658107154071331,-0.013888074085116386
1782836500011305700,7.2523056640625,0.005015745759010315,-0.01236689742654562,-0.018150728195905685
1782836500021235000,7.26223486328125,0.0026934975758194923,-0.016964463517069817,-0.016357067972421646
1782836500031164000,7.272163818359375,-0.0016567762941122055,-0.0035043153911828995,-0.011465640738606453
1782836500041092900,7.2820927734375,-0.00570109486579895,0.008520583622157574,-0.0006789104081690311
1782836500051021800,7.292021728515625,-0.010489724576473236,0.020916268229484558,0.009485842660069466
1782836500060952000,7.3019521484375,-0.012045319192111492,0.014667950570583344,0.013196226209402084
1782836500070880800,7.311880859375,-0.0017910832539200783,0.006724273785948753,0.008520780131220818
1782836500080809700,7.321809814453125,0.0064939395524561405,0.00033696088939905167,-0.0007082377560436726
1782836500090739000,7.331739013671875,0.013258102349936962,-0.007393662817776203,-0.009628229774534702
1782836500100668000,7.34166796875,0.013250618241727352,-0.0029279235750436783,-0.022180262953042984
1782836500110596900,7.351596923828125,0.01462614070624113,-0.007733597885817289,-0.032305337488651276
1782836500120525800,7.36152587890625,0.005218131002038717,0.0124581353738904,-0.031122896820306778
1782836500130455000,7.371455078125,-0.00645184051245451,0.012106065638363361,-0.01338784210383892
1782836500140385000,7.381385009765625,-0.006011716090142727,0.0200435109436512,0.004070651717483997
1782836500150313700,7.391313720703125,-0.00038419105112552643,0.023404952138662338,0.025226272642612457
1782836500160242700,7.40124267578125,0.008432973176240921,0.011149304918944836,0.0284025389701128
1782836500170172000,7.411171875,0.007668646052479744,0.005245876498520374,0.01661032810807228
1782836500180100900,7.421100830078125,-0.0022570528090000153,0.0006137313321232796,-0.0021917144767940044
1782836500190029800,7.43102978515625,-0.009443593211472034,-0.009085501544177532,-0.013712549582123756
1782836500199958800,7.440958740234375,-0.010938495397567749,-0.009064385667443275,-0.005303245969116688
1782836500209889000,7.450888916015625,-0.005858514457941055,0.00007025711238384247,0.005269504152238369
1782836500219818000,7.46081787109375,0.0013246042653918266,0.001909775659441948,0.017413921654224396
1782836500229747000,7.470746826171875,-0.00022934935986995697,-0.0015480723232030869,0.022476324811577797
1782836500239676000,7.480676025390625,-0.004405662417411804,0.00216726865619421,0.008743515238165855
1782836500249604900,7.49060498046875,-0.007274951785802841,0.0028967084363102913,-0.009378762915730476
1782836500259533800,7.500533935546875,-0.01277962327003479,0.002925819717347622,-0.01806033030152321
1782836500269462800,7.510462890625,-0.014666473492980003,0.0057455748319625854,-0.009629295207560062
1782836500279393000,7.52039306640625,-0.011041460558772087,0.012444407679140568,0.011528648436069489
1782836500289322000,7.530322021484375,-0.008319176733493805,0.01330167893320322,0.033224619925022125
1782836500299251000,7.5402509765625,-0.005328952334821224,0.005935491994023323,0.036592744290828705
1782836500309180000,7.550179931640625,-0.003603224642574787,0.0010187635198235512,0.020755194127559662
1782836500319108900,7.56010888671875,-0.00450260192155838,-0.000007734633982181549,-0.0011056531220674515
1782836500329037800,7.570037841796875,-0.0023651476949453354,-0.0016258712857961655,-0.026990780606865883
1782836500338966800,7.579966796875,-0.0009192200377583504,-0.002861805260181427,-0.03721713274717331
1782836500348897000,7.58989697265625,0.0015098489820957184,0.006400137208402157,-0.016801074147224426
1782836500358826000,7.599825927734375,0.008171632885932922,0.003401421941816807,0.010208673775196075
1782836500368755000,7.6097548828125,0.013558675535023212,0.0012208260595798492,0.03189053386449814
1782836500378684000,7.619683837890625,0.008235634304583073,-0.006404192186892033,0.029192227870225906
1782836500388612400,7.6296123046875,0.003724506124854088,-0.015470923855900764,0.01007259450852871
1782836500398541300,7.639541259765625,-0.0041288333013653755,-0.01378038339316845,-0.011023587547242641
1782836500408470300,7.64947021484375,0.000051530078053474426,-0.01396840251982212,-0.020524147897958755
1782836500418400300,7.659400146484375,0.0018244804814457893,-0.013703804463148117,-0.022947881370782852
1782836500428329200,7.6693291015625,-0.0032051661983132362,-0.0027235914021730423,-0.007349747233092785
1782836500438258200,7.679258056640625,-0.005674546584486961,0.010800168849527836,0.006781864911317825
1782836500448187400,7.6891875,-0.0038526784628629684,0.01794303208589554,0.026747049763798714
1782836500458116400,7.699116455078125,-0.0024609817191958427,0.01687712036073208,0.029875243082642555
1782836500468045300,7.70904541015625,0.0003627678379416466,0.012632573023438454,0.023977937176823616
1782836500477974300,7.718974365234375,0.002246268093585968,0.0030485140159726143,0.017029374837875366
1782836500487903200,7.7289033203125,0.004616481717675924,-0.0011867107823491096,0.0025923792272806168
1782836500497833200,7.738833251953125,0.0027424022555351257,-0.0011543799191713333,-0.0063906386494636536
1782836500507762200,7.74876220703125,0.004291562829166651,0.004274207167327404,0.0009655449539422989
1782836500517691400,7.75869140625,0.004105197265744209,0.0018885144963860512,0.014532798901200294
1782836500527620400,7.768620361328125,0.005727595183998346,0.0014450978487730026,0.02631222829222679
1782836500537549300,7.77854931640625,0.006245466414839029,0.00008103158324956894,0.027280252426862717
1782836500547478300,7.788478271484375,0.012410418130457401,-0.009343363344669342,0.017409514635801315
1782836500557407500,7.798407470703125,0.009221857413649559,-0.007360766641795635,-0.0032301759347319603
1782836500567337200,7.808337158203125,0.015621433965861797,0.004964875988662243,-0.011305145919322968
1782836500577266200,7.81826611328125,0.019641447812318802,-0.0035142796114087105,-0.006098362151533365
1782836500587195400,7.8281953125,0.013030150905251503,-0.0019246386364102364,0.005948180332779884
1782836500597124400,7.838124267578125,0.006747852079570293,0.004333562217652798,0.01571497693657875
1782836500607053300,7.84805322265625,0.000046273693442344666,-0.0001314934343099594,0.01678902842104435
1782836500616982300,7.857982177734375,-0.004572208970785141,0.004806422628462315,0.008264495059847832
1782836500626911500,7.867911376953125,-0.005203643813729286,0.007927115075290203,-0.001204108353704214
1782836500636841200,7.87784130859375,-0.004638493061065674,0.001436043530702591,-0.009125924669206142
1782836500646770200,7.887770263671875,-0.0003087259829044342,0.0012416327372193336,-0.01527489721775055
1782836500656699100,7.89769921875,-0.002561185508966446,-0.003505912609398365,-0.02626136504113674
1782836500666628400,7.90762841796875,0.004673025105148554,0.0012731291353702545,-0.021753963083028793
1782836500676557300,7.917557373046875,0.010907036252319813,0.005173146724700928,-0.005832982249557972
1782836500686486300,7.927486328125,0.013042891398072243,0.0051459819078445435,0.012413932010531425
1782836500696415200,7.937415283203125,0.006865535397082567,0.001323215663433075,0.01652701385319233
1782836500706344400,7.947344482421875,0.0043602995574474335,0.0039602769538760185,0.010131431743502617
1782836500716274200,7.957274169921875,0.009044758975505829,-0.004767713136970997,0.001436544582247734
1782836500726203100,7.967203125,0.009736647829413414,-0.012643479742109776,-0.007319929078221321
1782836500736132400,7.97713232421875,0.015376424416899681,-0.005866533610969782,-0.018178436905145645
1782836500746061300,7.987061279296875,0.015890680253505707,0.005403431132435799,-0.006527372635900974
1782836500755990300,7.996990234375,0.0168827623128891,-0.004353624768555164,0.011498013511300087
1782836500765919200,8.006919189453125,0.008584619499742985,-0.00396640133112669,0.020410548895597458
1782836500775848400,8.016848388671875,-0.00011431612074375153,-0.00018948223441839218,0.02903897501528263
1782836500785778200,8.026778076171874,-0.004315453581511974,-0.005085438024252653,0.027734825387597084
1782836500795707100,8.03670703125,-0.0021104244515299797,-0.013122848235070705,0.018540164455771446
1782836500805636000,8.046635986328125,0.003840675577521324,-0.010629330761730671,0.005157247185707092
1782836500815565300,8.0565654296875,0.006035793572664261,-0.009495778009295464,-0.00991299282759428
1782836500825494300,8.066494384765624,0.012712604366242886,-0.012439370155334473,-0.009256524033844471
1782836500835423200,8.07642333984375,0.006945416331291199,-0.000797557644546032,-0.012836173176765442
1782836500845352200,8.086352294921875,0.0026840921491384506,0.0016919653862714767,0.002562223933637142
1782836500855282400,8.096282470703125,-0.00007970910519361496,-0.0032193847000598907,0.025342723354697227
1782836500865211100,8.106211181640624,0.0021453620865941048,0.0034611551091074944,0.04021887481212616
1782836500875140000,8.11614013671875,0.001239115372300148,-0.00214228592813015,0.03207921236753464
1782836500885069300,8.1260693359375,-0.0024331174790859222,-0.007313878275454044,0.004796192981302738
1782836500894998300,8.135998291015625,-0.0014752475544810295,-0.006830968894064426,-0.015080736950039864
1782836500904927200,8.14592724609375,0.003956269007176161,-0.005006437189877033,-0.02450726181268692
1782836500914856200,8.155856201171876,0.002485925331711769,-0.0015820404514670372,-0.017403455451130867
1782836500924786400,8.165786376953125,-0.0007530106231570244,0.005501436069607735,0.001958257518708706
1782836500934715400,8.17571533203125,-0.004490395076572895,0.013629776425659657,0.025633616372942924
1782836500944644000,8.18564404296875,-0.011086777783930302,0.00775484275072813,0.03625696897506714
1782836500954573300,8.1955732421875,-0.01822030544281006,-0.0027639558538794518,0.020763136446475983
1782836500964502300,8.205502197265625,-0.011572523973882198,-0.014283725991845131,0.0032869409769773483
1782836500974431200,8.21543115234375,0.0022229859605431557,-0.03151185065507889,-0.016689740121364594
1782836500984360200,8.225360107421874,0.012422360479831696,-0.034380342811346054,-0.032338473945856094
1782836500994290400,8.23529052734375,0.014623254537582397,-0.033903077244758606,-0.03597982972860336
1782836501004219400,8.245219482421875,0.010817863047122955,-0.023926610127091408,-0.02405605837702751
1782836501014148400,8.2551484375,0.0010732430964708328,-0.0024796361103653908,0.0017507392913103104
1782836501024077000,8.2650771484375,-0.012034834362566471,0.009537612088024616,0.019099636003375053
1782836501034006300,8.27500634765625,-0.016538338735699654,0.015008504502475262,0.02013542130589485
1782836501043935200,8.284935302734375,-0.010041557252407074,0.011728555895388126,0.02186381071805954
1782836501053864200,8.2948642578125,-0.0015738820657134056,0.002906370908021927,0.017217565327882767
1782836501063794400,8.30479443359375,0.0007430678233504295,0.0021561579778790474,0.009201716631650925
1782836501073723400,8.314723388671876,0.0031984616070985794,-0.007561791222542524,-0.0013501313515007496
1782836501083652400,8.32465234375,0.003568108193576336,-0.013996521010994911,-0.0072042918764054775
1782836501093581300,8.334581298828125,0.0010375436395406723,-0.011569625698029995,-0.015622097067534924
1782836501103510300,8.34451025390625,-0.008007350377738476,0.0058708833530545235,-0.012899547815322876
1782836501113439200,8.354439208984376,-0.009784828871488571,0.014930740930140018,-0.004564333241432905
1782836501123368200,8.3643681640625,-0.0023492826148867607,0.01738830655813217,0.008617515675723553
1782836501133298400,8.37429833984375,0.009498127736151218,0.010556419380009174,0.023575585335493088
1782836501143227400,8.384227294921875,0.02036914974451065,-0.007614594418555498,0.03985948488116264
1782836501153156400,8.39415625,0.022324245423078537,-0.0053991880267858505,0.037555478513240814
1782836501163085300,8.404085205078125,0.01069848332554102,-0.010546012781560421,0.020877700299024582
1782836501173014500,8.4140146484375,0.0021863318979740143,-0.013216031715273857,-0.014071257784962654
1782836501182943200,8.423943115234374,-0.008259119465947151,-0.010739291086792946,-0.040608324110507965
1782836501192872200,8.4338720703125,-0.004961030557751656,-0.009105398319661617,-0.03910301998257637
1782836501202802200,8.44380224609375,-0.000762556679546833,-0.0015715816989541054,-0.030665859580039978
1782836501212731400,8.4537314453125,-0.0012434814125299454,0.016878338530659676,-0.014229757711291313
1782836501222660400,8.463660400390625,-0.006542106159031391,0.023239566013216972,0.016269296407699585
1782836501232589300,8.47358935546875,-0.0013520261272788048,0.01853981800377369,0.04364961385726929
1782836501242518300,8.483518310546875,0.0031138285994529724,0.01059987023472786,0.039137691259384155
1782836501252447500,8.493447509765625,0.001798044890165329,-0.002553338184952736,0.018554924055933952
1782836501262376200,8.503376220703124,-0.003954382613301277,-0.011907159350812435,-0.005743224173784256
1782836501272306200,8.51330615234375,-0.0054945023730397224,-0.010164875537157059,-0.031007947400212288
1782836501282235400,8.5232353515625,-0.002262224443256855,0.0004904316738247871,-0.041338082402944565
1782836501292164400,8.533164306640625,-0.0021272459998726845,0.0035902783274650574,-0.03649526461958885
1782836501302093300,8.54309326171875,-0.005070038139820099,0.00013749022036790848,-0.025567516684532166
1782836501312022300,8.553022216796874,-0.0017020367085933685,0.0015103118494153023,-0.011701153591275215
1782836501321951500,8.562951416015625,0.009128240868449211,-0.0030982885509729385,0.013260655105113983
1782836501331880400,8.57288037109375,0.01759207621216774,0.004976289346814156,0.04105987399816513
1782836501341810200,8.58281005859375,0.02078280970454216,0.007225861772894859,0.054253172129392624
1782836501351739100,8.5927392578125,0.017796508967876434,-0.0007629292085766792,0.042146049439907074
1782836501361668400,8.60266845703125,0.006904446054250002,-0.0012111393734812737,0.014828143641352654
1782836501371597300,8.612597412109375,-0.0014911573380231857,0.0017129061743617058,-0.010075697675347328
1782836501381527800,8.62252783203125,-0.013205070979893208,0.0050152260810136795,-0.026676245033740997
1782836501391456800,8.632456787109374,-0.015766635537147522,0.0009764926508069038,-0.03361443430185318
1782836501401385700,8.6423857421875,-0.00567964930087328,0.009745215997099876,-0.016669802367687225
1782836501411314700,8.652314697265625,0.010144476778805256,0.009554005227982998,0.013082465156912804
1782836501421245000,8.662244873046875,0.018600279465317726,-0.0014690840616822243,0.03805918991565704
1782836501431174000,8.672173828125,0.020311933010816574,-0.015553729608654976,0.04918340966105461
1782836501441102800,8.682102783203124,0.009375129826366901,-0.017360949888825417,0.027792900800704956
1782836501451031800,8.69203173828125,-0.0007833847776055336,-0.012287041172385216,0.0019314493983983994
1782836501460960800,8.701960693359375,-0.01324804499745369,-0.0024546505883336067,-0.013277065008878708
1782836501470889700,8.7118896484375,-0.010725975036621094,0.00015148334205150604,-0.01713007688522339
1782836501480818700,8.721818603515626,-0.0027396874502301216,-0.00010497868061065674,-0.01028202474117279
1782836501490749000,8.7317490234375,0.0053074597381055355,0.011176818050444126,0.0057736961171031
1782836501500678000,8.741677978515625,0.009692886844277382,0.007506716065108776,0.022907942533493042
1782836501510606800,8.75160693359375,0.008713880553841591,-0.005629240535199642,0.030421823263168335
1782836501520535800,8.761535888671874,-0.00009585637599229813,-0.005835102871060371,0.02961594983935356
1782836501530464800,8.77146484375,-0.002742435783147812,-0.005500155501067638,0.023433048278093338
1782836501540393700,8.781393798828125,-0.005025830119848251,-0.0038521913811564445,0.019143763929605484
1782836501550322700,8.79132275390625,-0.00810451339930296,-0.0046086544170975685,0.005979267880320549
1782836501560252700,8.801252685546874,-0.004759316332638264,-0.0077735548838973045,-0.010420211590826511
1782836501570182000,8.811181884765626,-0.0015019765123724937,-0.015210847370326519,-0.022866204380989075
1782836501580110800,8.82111083984375,0.003666420467197895,-0.010484801605343819,-0.02776535600423813
1782836501590039800,8.831039794921875,0.012645688839256763,-0.008913001045584679,-0.013942517340183258
1782836501599968800,8.84096875,0.013701099902391434,-0.0093457642942667,0.012236887589097023
1782836501609897700,8.850897705078125,0.007657826412469149,0.008952165953814983,0.03165902942419052
1782836501619826700,8.86082666015625,-0.005069952458143234,0.020172595977783203,0.040842145681381226
1782836501629756700,8.870756591796875,-0.017568040639162064,0.02811669372022152,0.030695175752043724
1782836501639686000,8.880685791015624,-0.021992351859807968,0.030845900997519493,-0.00011679716408252716
1782836501649614800,8.89061474609375,-0.008936850354075432,0.015800442546606064,-0.014756554737687111
1782836501659543800,8.900543701171875,0.009235762059688568,-0.002999076619744301,-0.009057922288775444
1782836501669472800,8.91047265625,0.017559107393026352,-0.010005159303545952,0.0009375959634780884
1782836501679402000,8.920402099609374,0.0149878254160285,-0.00882085133343935,0.004366149194538593
1782836501689331000,8.9303310546875,-0.0007523661479353905,-0.0009362287819385529,-0.0019738678820431232
1782836501699260700,8.9402607421875,-0.01284870970994234,0.003334948793053627,-0.013124523684382439
1782836501709190000,8.95018994140625,-0.013206683099269867,-0.0013049393892288208,-0.010589003562927246
1782836501719118800,8.960118896484374,0.0003930153325200081,0.008095219731330872,0.008479761891067028
1782836501729047800,8.9700478515625,0.012625938281416893,0.006011013872921467,0.03401049226522446
1782836501738976800,8.979976806640625,0.01686941832304001,0.0046517373993992805,0.05134899914264679
1782836501748906000,8.989906005859375,0.011486833915114403,0.004100274294614792,0.043459221720695496
1782836501758835000,8.9998349609375,0.0007367180660367012,-0.005345691926777363,0.015603356994688511
1782836501768764700,9.0097646484375,-0.003653012216091156,-0.006832542829215527,-0.017205655574798584
1782836501778693600,9.019693603515625,-0.0037510162219405174,-0.006115087307989597,-0.0426873117685318
1782836501788622800,9.029622802734375,-0.01101310458034277,-0.002512814477086067,-0.050728920847177505
1782836501798551800,9.0395517578125,-0.00981095340102911,0.0026776855811476707,-0.04033859819173813
1782836501808480800,9.049480712890626,-0.00916455127298832,0.013390815816819668,-0.013914995826780796
1782836501818409700,9.05940966796875,-0.005244378000497818,0.010962811298668385,0.014941420406103134
1782836501828339000,9.0693388671875,-0.0009242100641131401,0.00005214754492044449,0.03471048176288605
1782836501838268700,9.0792685546875,-0.0006626881659030914,0.006212570704519749,0.03129338473081589
1782836501848197600,9.08919775390625,0.0017587412148714066,0.014031163416802883,0.016936084255576134
1782836501858126800,9.099126953125,-0.002645328640937805,0.009776762686669827,-0.009526149369776249
1782836501868055800,9.109055908203125,-0.009010156616568565,0.0075670285150408745,-0.02510969340801239
1782836501877984800,9.11898486328125,-0.0007197372615337372,-0.0008642729371786118,-0.029941201210021973
1782836501887913700,9.128913818359376,0.009446236304938793,-0.025270678102970123,-0.022198747843503952
1782836501897843000,9.138843017578125,0.011671041138470173,-0.029435861855745316,-0.016088658943772316
1782836501907772700,9.148772705078125,0.01215865183621645,-0.01755339466035366,-0.008843314833939075
1782836501917701600,9.15870166015625,0.007038457784801722,-0.012905645184218884,-0.004850171506404877
1782836501927630800,9.168630859375,0.0027491990476846695,-0.010749700479209423,0.005408614873886108
1782836501937559800,9.178559814453125,-0.0027872463688254356,-0.008023688569664955,0.0161917544901371
1782836501947488800,9.18848876953125,-0.0036911359056830406,-0.01004865113645792,0.027459943667054176
1782836501957417700,9.198417724609374,-0.002742251381278038,-0.0037151211872696877,0.026909468695521355
1782836501967346700,9.2083466796875,-0.008218036033213139,-0.004656576085835695,0.012948928400874138
1782836501977277000,9.21827685546875,-0.012745675630867481,-0.007394039537757635,-0.010927642695605755
1782836501987205600,9.22820556640625,-0.010700802318751812,-0.01179567165672779,-0.023131925612688065
1782836501997134600,9.238134521484374,-0.010317838750779629,-0.024270717054605484,-0.025289352983236313
1782836502007063800,9.248063720703126,-0.0075683919712901115,-0.022881612181663513,-0.023997187614440918
1782836502016992800,9.25799267578125,-0.0030319485813379288,-0.01900462806224823,-0.011730285361409187
1782836502026921700,9.267921630859375,-0.003697809763252735,-0.007153484039008617,-0.0010141539387404919
1782836502036850700,9.2778505859375,-0.004393427632749081,0.005460045300424099,0.0068738628178834915
1782836502046781000,9.287781005859374,-0.009580970741808414,0.010291403159499168,0.006957243196666241
1782836502056710000,9.2977099609375,-0.006417402066290379,0.008093494921922684,0.00659025926142931
1782836502066638600,9.307638671875,-0.0006033992394804955,0.013148677535355091,0.01164871547371149
1782836502076567800,9.31756787109375,0.008205804973840714,0.0011530006304383278,0.018188107758760452
1782836502086496000,9.32749609375,0.006603649351745844,0.0004326747730374336,0.013952022418379784
1782836502096424700,9.3374248046875,0.004681645892560482,-0.004615879617631435,0.0025291908532381058
1782836502106353700,9.347353759765625,0.005242339335381985,-0.009558135643601418,-0.007551486138254404
1782836502116282600,9.35728271484375,0.007259417325258255,-0.01047932356595993,-0.020132258534431458
1782836502126212900,9.367212890625,0.007474010810256004,0.00290702935308218,-0.019640091806650162
1782836502136141800,9.377141845703125,0.0009298250079154968,0.009038691408932209,-0.016891976818442345
1782836502146070800,9.38707080078125,-0.0016537625342607498,-0.004031005315482616,0.0013927062973380089
1782836502156000000,9.397,0.0007505388930439949,-0.010349088348448277,0.01575460098683834
1782836502165929000,9.406928955078126,0.011164256371557713,-0.023697659373283386,0.036032240837812424
1782836502175857700,9.416857666015625,0.018916985020041466,-0.03565152361989021,0.03843041881918907
1782836502185786600,9.42678662109375,0.011888271197676659,-0.02439577504992485,0.025859108194708824
1782836502195716900,9.436716796875,0.00807888526469469,-0.008468741551041603,0.006928827613592148
1782836502205645800,9.446645751953126,0.0027068005874753,0.005920122377574444,-0.0027199331670999527
1782836502215574800,9.45657470703125,-0.0015606489032506943,0.021797355264425278,-0.004502386786043644
1782836502225503700,9.466503662109375,-0.0006676642224192619,0.02949167601764202,0.0003796825185418129
1782836502235433000,9.476432861328124,-0.004495691508054733,0.0235323216766119,0.0007029902189970016
1782836502245362000,9.48636181640625,-0.000043489970266819,0.021176502108573914,-0.0023134062066674232
1782836502255290600,9.49629052734375,0.010686120018362999,0.003369542770087719,-0.006035173777490854
1782836502265220900,9.506220947265625,0.012021596543490887,-0.01348511129617691,-0.008404240943491459
1782836502275149800,9.51614990234375,0.008744576945900917,-0.0032151630148291588,-0.005588214378803968
1782836502285078800,9.526078857421876,0.0022322097793221474,0.007382305338978767,0.006518663838505745
1782836502295007700,9.5360078125,-0.0017177900299429893,0.02190345712006092,0.026088904589414597
1782836502304937000,9.54593701171875,-0.0043345289304852486,0.03552940487861633,0.03677830845117569
1782836502314866000,9.555865966796874,-0.00044072140008211136,0.02979668416082859,0.03360435366630554
1782836502324795000,9.565794921875,0.009665259160101414,0.015735477209091187,0.01737864315509796
1782836502334724900,9.575724853515625,0.01433910708874464,-0.007123766466975212,-0.002764706965535879
1782836502344653800,9.58565380859375,0.014714769087731838,-0.023292550817131996,-0.011577202007174492
1782836502354582800,9.595582763671874,0.010231870226562023,-0.021584132686257362,-0.008218689821660519
1782836502364511700,9.60551171875,-0.00019828975200653076,-0.004884048365056515,0.00587991438806057
1782836502374440700,9.615440673828125,-0.012557754293084145,0.002445770427584648,0.013919197954237461
1782836502384368000,9.6253681640625,-0.014709477312862873,0.003764239139854908,0.010528289712965488
1782836502394297000,9.635297119140626,-0.012144853360950947,0.021588511765003204,-0.0030833925120532513
1782836502404227300,9.645227294921876,-0.006335404701530933,0.01601841300725937,-0.012804500758647919
1782836502414156300,9.65515625,-0.0030312202870845795,0.008816161192953587,-0.023011332377791405
1782836502424085200,9.665085205078125,0.0003562094643712044,0.017782825976610184,-0.02002708800137043
1782836502434014200,9.67501416015625,0.002093922346830368,0.025899339467287064,0.0008542248979210854
1782836502443943200,9.684943115234375,0.004415020812302828,0.023022601380944252,0.028592878952622414
1782836502453872000,9.6948720703125,0.0036991629749536514,0.018357539549469948,0.03328057378530502
1782836502463801000,9.704801025390625,-0.0014733141288161278,0.009032871574163437,0.022618599236011505
1782836502473731000,9.71473095703125,-0.0003055175766348839,-0.0006519807502627373,0.0008467249572277069
1782836502483660300,9.724660400390626,-0.004860924556851387,-0.005394193343818188,-0.0203561931848526
1782836502493589200,9.73458935546875,-0.002164473757147789,-0.003037828952074051,-0.031179014593362808
1782836502503518200,9.744518310546875,-0.006597206927835941,0.006436998024582863,-0.02564351074397564
1782836502513447200,9.754447265625,-0.0040640076622366905,0.01255880668759346,-0.01265181228518486
1782836502523376000,9.764376220703125,-0.004204609431326389,0.02655387669801712,0.011950381100177765
1782836502533305000,9.77430517578125,-0.0012194719165563583,0.0305803120136261,0.03173393756151199
1782836502543235000,9.784235107421875,0.0018975622951984406,0.013614034280180931,0.028253881260752678
1782836502553164300,9.794164306640624,0.0011180555447936058,0.0017765508964657784,0.010227743536233902
1782836502563093200,9.80409326171875,-0.0006244238466024399,-0.008398739621043205,-0.01578439213335514
1782836502573022200,9.814022216796875,-0.0036553675308823586,-0.009106874465942383,-0.03155430033802986
1782836502582951200,9.823951171875,-0.006838545203208923,0.002184169366955757,-0.03828605264425278
1782836502592880000,9.833880126953124,-0.003063514828681946,0.007321140728890896,-0.03350434824824333
1782836502602809000,9.84380908203125,0.0005582589656114578,0.008571606129407883,-0.026350241154432297
1782836502612739000,9.853739013671875,0.004968720022588968,0.0009051645174622536,-0.017931722104549408
1782836502622668300,9.863668212890625,0.014063091948628426,0.0012781089171767235,-0.004014685284346342
1782836502632597200,9.87359716796875,0.01705009490251541,0.02439434453845024,0.043678801506757736
1782836502642526200,9.883526123046876,-0.012714795768260956,-0.032689169049263,-0.004766862839460373
1782836502652455200,9.893455078125,-0.010432200506329536,-0.05868295207619667,-0.0322703942656517
1782836502662384400,9.90338427734375,0.0007047876715660095,-0.048416078090667725,-0.044574204832315445
1782836502672313000,9.91331298828125,-0.0053666867315769196,-0.008901426568627357,-0.04129345715045929
