time,seconds_elapsed,z,y,x
1782836435535938600,0.0859384765625,-0.06860241158306599,-0.03760692367288284,0.03643017379437806
1782836435545867500,0.095867431640625,-0.07009937214255332,-0.0263676865456393,0.03456006222369615
1782836435555796500,0.10579638671875,-0.0668067603379488,-0.028140536870481445,0.044283921785349956
1782836435565725400,0.115725341796875,-0.09164543351829052,-0.042732185131590814,0.05632607279331423
1782836435575655400,0.125655517578125,-0.07428688696026801,-0.041932659651199355,0.08507760856845416
1782836435585584400,0.13558447265625,-0.07548281874656677,-0.05053204066099133,0.10840044295890257
1782836435595513300,0.145513427734375,-0.07563070278465747,-0.07652487057882826,0.11210355352684855
1782836435605442600,0.155442626953125,-0.0856546686708927,-0.07578024449029472,0.1109853905513417
1782836435615371500,0.16537158203125,-0.07966741095483303,-0.06932672553593293,0.0960632408273872
1782836435625300500,0.175300537109375,-0.07861936320662498,-0.06272444119406864,0.07830545668555423
1782836435635230500,0.18523046875,-0.07832125704288483,-0.06548338907996658,0.0339973000746686
1782836435645159400,0.195159423828125,-0.06859539732038974,-0.06249841845242772,0.016481192901334724
1782836435655088400,0.20508837890625,-0.07054127069115639,-0.05094653517943807,0.010443853532429784
1782836435665017300,0.215017333984375,-0.0660527271002531,-0.04971538138270844,0.008970091185439377
1782836435674946300,0.2249462890625,-0.08206453522443771,-0.06798337093584705,0.028507653149822725
1782836435684875500,0.23487548828125,-0.082513448035717,-0.06242666382389143,0.04687450910070911
1782836435694805500,0.244805419921875,-0.06904547917544841,-0.06031005982898641,0.08046276258360593
1782836435704734200,0.254734130859375,-0.0774251849859953,-0.08109030163111165,0.09600608554636128
1782836435714663400,0.264663330078125,-0.08640227216780186,-0.07583164588396903,0.10521167512126266
1782836435724592400,0.27459228515625,-0.08281096967756747,-0.06367022957762238,0.1095074726190418
1782836435734521300,0.284521240234375,-0.08131400911808014,-0.040449458189005964,0.09632144423900171
1782836435744451600,0.29445166015625,-0.07562719565331935,-0.02985819554252084,0.07278709512287751
1782836435754380500,0.304380615234375,-0.08056348301172256,-0.025728498159535228,0.049504652108321896
1782836435764309500,0.3143095703125,-0.06305471432805061,-0.02327516845697537,0.03399640959210228
1782836435774238500,0.324238525390625,-0.07322948686182498,-0.017812564802682024,0.029050463922787456
1782836435784167400,0.33416748046875,-0.06859013662338256,-0.04031232387379277,0.02613316540371161
1782836435794096400,0.344096435546875,-0.08235621164739132,-0.0477960215595318,0.03364517586848233
1782836435804026400,0.3540263671875,-0.08549918584823608,-0.05844185023773461,0.05578642665839288
1782836435813955600,0.36395556640625,-0.08041209184229374,-0.08377517506722361,0.07386529598075431
1782836435823884500,0.373884521484375,-0.08804419415593147,-0.08967579567944631,0.07763164907721802
1782836435833813500,0.3838134765625,-0.08520107968449592,-0.09508983835112303,0.077499948988948
1782836435843742500,0.393742431640625,-0.07233341480493545,-0.0745410900502,0.07347743830748367
1782836435853671400,0.40367138671875,-0.07906886053979396,-0.06028786169691011,0.045685450013191437
1782836435863601400,0.413601318359375,-0.07727379381656646,-0.04532718376058619,0.040533391879103146
1782836435873530400,0.4235302734375,-0.0748801766782999,-0.034756256082653994,0.029646091728378086
1782836435883459300,0.433459228515625,-0.07518003640770912,-0.01599654662297107,0.02458252929507289
1782836435893388500,0.443388427734375,-0.07862111677229404,-0.020661314430460334,0.04015522904936224
1782836435903317500,0.4533173828125,-0.07607610846459865,-0.03281878978062887,0.04299200967813376
1782836435913246500,0.46324658203125,-0.08176116836369036,-0.03415335371948313,0.0659621992725879
1782836435923176400,0.473176513671875,-0.0804138454079628,-0.0481975241656648,0.08356271962663159
1782836435933105400,0.48310546875,-0.07233224576115607,-0.05752142919087782,0.09272346541280857
1782836435943034400,0.493034423828125,-0.07367839967310429,-0.06569829677254893,0.09387480000555515
1782836435952963300,0.50296337890625,-0.072779989528656,-0.062146257713623344,0.07902092974483967
1782836435962892500,0.512892578125,-0.08011281663477421,-0.05750054623305331,0.06345037171528674
1782836435972821500,0.522821533203125,-0.0829576846718788,-0.04482551784876268,0.04967389859484974
1782836435982751500,0.53275146484375,-0.07817045039534569,-0.043686102022673,0.025126440613158045
1782836435992680200,0.54268017578125,-0.07009060431420802,-0.042293008263036606,0.007355933987069875
1782836436002609400,0.552609375,-0.07592763990461826,-0.03742188596217893,0.007852553831017576
1782836436012538400,0.562538330078125,-0.08281213872134685,-0.04917889988583047,0.026854894673847593
1782836436022467300,0.57246728515625,-0.07233750645816325,-0.05597791694276966,0.04312313437766861
1782836436032396300,0.582396240234375,-0.07966916452050209,-0.063256036453275,0.06836892248759976
1782836436042326500,0.592326416015625,-0.07877192341983318,-0.05968883179125841,0.08587413837416097
1782836436052255500,0.60225537109375,-0.07847323273420334,-0.06888445709457156,0.08408842400116845
1782836436062184400,0.612184326171875,-0.08206395070254802,-0.06504079641161951,0.08401855536904186
1782836436072113400,0.622113525390625,-0.07637772175967693,-0.04742520178603008,0.07038861001324839
1782836436082042400,0.63204248046875,-0.07338496968448162,-0.03311227456817869,0.061343275334243656
1782836436091972400,0.641972412109375,-0.07398352009952068,-0.02114868238887284,0.04167140576597303
1782836436101901600,0.651901611328125,-0.06470481962263584,-0.025060184143646618,0.024906669515790417
1782836436111830500,0.66183056640625,-0.07652560579776764,-0.02128837855393067,0.026176223660726097
1782836436121759500,0.671759521484375,-0.07188742460310459,-0.030448450769961343,0.023806859614304267
1782836436131688400,0.6816884765625,-0.08236147234439849,-0.044264623429835774,0.03472764190952293
1782836436141617700,0.69161767578125,-0.07652560579776764,-0.058023661358281964,0.05239482972503174
1782836436151547400,0.70154736328125,-0.07787117518782616,-0.06885306187588722,0.06781543962357099
1782836436161476400,0.711476318359375,-0.0757774177789688,-0.0744802358415909,0.06235741624627262
1782836436171405300,0.7214052734375,-0.07338438516259194,-0.07876040651197545,0.06285055635834579
1782836436181334500,0.73133447265625,-0.08670213189721107,-0.06795794423364568,0.0634190632615704
1782836436191263500,0.741263427734375,-0.08400982407331466,-0.05091675196252763,0.04364743224640842
1782836436201192400,0.7511923828125,-0.07697744121849537,-0.04146091395360418,0.0325619928748114
1782836436211122400,0.761122314453125,-0.08416179976463317,-0.026755370688973924,0.017735476411902346
1782836436221051400,0.771051513671875,-0.08057108179628848,-0.02532793398502981,0.009724736344488337
1782836436230980400,0.78098046875,-0.07024667165875434,-0.020517585977679116,0.025784219535300506
1782836436240909300,0.790909423828125,-0.08296586797833443,-0.01999290908302646,0.03624962274583522
1782836436250838500,0.800838623046875,-0.07473521524965762,-0.027922117479983716,0.05587461183192208
1782836436260767500,0.810767578125,-0.07009761857688426,-0.04183063318198547,0.07825916985841468
1782836436270697500,0.820697509765625,-0.07368775202333927,-0.04564617288215086,0.0862396106856875
1782836436280626400,0.83062646484375,-0.08072130392193794,-0.06312411716929636,0.08102016813750379
1782836436290555400,0.840555419921875,-0.07802782705426216,-0.05873123880547937,0.07230411564521491
1782836436300484400,0.850484375,-0.08506020990908146,-0.04449928613565862,0.06297908267541788
1782836436310413300,0.860413330078125,-0.08087035700380801,-0.04168423328150529,0.037091731559205796
1782836436320342500,0.870342529296875,-0.08087152604758739,-0.039538868982996786,0.015982604862586593
1782836436330276600,0.880276611328125,-0.07967559426128863,-0.032326789029582866,0.009041946278675458
1782836436340205600,0.89020556640625,-0.07324059277772903,-0.03062765011163428,0.005800932230567559
1782836436350134500,0.900134521484375,-0.07144552605450152,-0.03067760161702754,0.020653395985485986
1782836436360063700,0.910063720703125,-0.08087386413514613,-0.04249983768044039,0.02436225587420631
1782836436369992700,0.91999267578125,-0.08027589824199675,-0.05029736425543669,0.04397552712303586
1782836436379921700,0.929921630859375,-0.07893091337382793,-0.0486993773071561,0.07171697254017927
1782836436389851600,0.9398515625,-0.0772848997324705,-0.046610469603352245,0.08065549954357557
1782836436399780900,0.94978076171875,-0.07952887926697731,-0.04489299816098064,0.07716189440730958
1782836436409709600,0.95970947265625,-0.06740647979676723,-0.03604092331504216,0.06663758691665717
1782836436419638500,0.969638427734375,-0.07144611057639122,-0.01586961632465245,0.06226396580915898
1782836436429567500,0.9795673828125,-0.07429039409160614,-0.019426603270042687,0.04675620735012926
1782836436439497700,0.989497802734375,-0.07997662303447722,-0.008714536388637497,0.021411598508222957
1782836436449426700,0.9994267578125,-0.07399170340597629,-0.011556454416830092,0.022015816045645623
1782836436459355600,1.009355712890625,-0.07923077310323715,-0.025586676252761387,0.02183219854047056
1782836436469284900,1.019284912109375,-0.0736953508079052,-0.02867819426100468,0.016715029056672936
1782836436479213800,1.0292138671875,-0.06905775413513184,-0.04627439691624604,0.04493930325442925
1782836436489142800,1.039142822265625,-0.077289575907588,-0.05517941437568515,0.048816569379460995
1782836436499072800,1.04907275390625,-0.09090718237161635,-0.05707177202750463,0.055299976582010274
1782836436509001700,1.059001708984375,-0.07818915509581566,-0.06774937951688188,0.05665883014532737
1782836436518930700,1.0689306640625,-0.06427344246804714,-0.05851771935238503,0.051879030256578695
1782836436528859600,1.078859619140625,-0.07295359252989292,-0.03802930695355171,0.04639411430577747
1782836436538788900,1.088788818359375,-0.07579787604510783,-0.02467276942837052,0.02855058810925111
1782836436548717800,1.0987177734375,-0.06951309668719768,-0.017914374359475915,0.02005520176347345
1782836436558647600,1.1086474609375,-0.07131108601987361,-0.01025192485663574,0.013800497883418575
1782836436568576500,1.118576416015625,-0.07176175239682198,-0.008903919197607319,0.026121812892635352
1782836436578505700,1.128505615234375,-0.07445639830827712,-0.021339974027138667,0.03178626839511562
1782836436588434700,1.1384345703125,-0.0731114134401083,-0.021560073918069245,0.050028283256781284
1782836436598363600,1.14836376953125,-0.08104220643937587,-0.0365814644991071,0.05695529234125279
1782836436608292600,1.158292724609375,-0.08762801457047462,-0.040360003506997595,0.05834122114116325
1782836436618222600,1.16822265625,-0.0749105718165636,-0.045599520728830244,0.06417032458686735
1782836436628151600,1.178151611328125,-0.08777882121801375,-0.04944987601405009,0.06234744284152984
1782836436638080500,1.18808056640625,-0.07895137163996696,-0.03882096650460735,0.042585351406270636
1782836436648009700,1.198009765625,-0.07162029809951782,-0.02758738508330425,0.018578302177903242
1782836436657938700,1.207938720703125,-0.07670914567112923,-0.019494830217643176,0.006244881172361784
1782836436667867600,1.21786767578125,-0.0862871213555336,-0.02097511592025403,-0.00028897757579106836
1782836436677798000,1.2277978515625,-0.07731003417372703,-0.024410794023936613,-0.005625169238285161
1782836436687726800,1.237726806640625,-0.07491700155735015,-0.030294004560343455,0.013010653546825051
1782836436697655600,1.247655517578125,-0.07686345945000649,-0.027678061324730514,0.022948146726004776
1782836436707584500,1.25758447265625,-0.08075520619153977,-0.03840480061888229,0.045183144780551084
1782836436717513500,1.267513427734375,-0.08584288471937179,-0.038612173458980395,0.06267521805774885
1782836436727442700,1.277442626953125,-0.07821136692762375,-0.033401016965240705,0.06588234810256399
1782836436737372700,1.28737255859375,-0.07252572250664234,-0.03468474804928992,0.0619509680369636
1782836436747301600,1.297301513671875,-0.07821253597140311,-0.028958858382888135,0.05242532989457249
1782836436757230800,1.30723095703125,-0.08165420085787772,-0.0199158366752672,0.03942755866220686
1782836436767159800,1.317159912109375,-0.07342413265109062,-0.012807418025727383,0.02594598596827127
1782836436777088800,1.3270888671875,-0.07073065578341484,-0.01506274093815591,0.016704311299836263
1782836436787017500,1.337017578125,-0.06803717891573906,-0.016951105118158737,0.009860528085986153
1782836436796947700,1.34694775390625,-0.07582008787691592,-0.01760760311537888,0.012962800383684225
1782836436806876700,1.356876708984375,-0.07552198171317577,-0.018080634304473642,0.020076399815129115
1782836436816805600,1.3668056640625,-0.07956278153657913,-0.04343757518827915,0.03403406558821443
1782836436826734800,1.37673486328125,-0.08225801196992397,-0.03782067373812897,0.04725239793581422
1782836436836663800,1.386663818359375,-0.08106324922740459,-0.04296972478108946,0.055943594548059625
1782836436846593500,1.396593505859375,-0.08480535836517811,-0.047883293417608365,0.05949899460785091
1782836436856522500,1.4065224609375,-0.08615209679901599,-0.04921484341546893,0.04303893582609016
1782836436866451700,1.41645166015625,-0.07492869199514389,-0.029272550274827516,0.03427401639050804
1782836436876380700,1.426380615234375,-0.07343290047943592,-0.017394526620279065,0.024739774816553105
1782836436886309600,1.4363095703125,-0.07852116352915764,-0.020232823352701962,0.012354564258269965
1782836436896238600,1.446238525390625,-0.09214052355885505,-0.010343445914855693,0.006980543069727718
1782836436906168600,1.45616845703125,-0.07822714901864528,0.0009418245944892987,0.01602239345028065
1782836436916097500,1.46609765625,-0.08271978426277637,-0.01368815551616717,0.022660443225270135
1782836436926026500,1.476026611328125,-0.08107844679653645,-0.02411977062153164,0.03583653016660828
1782836436935955700,1.485955810546875,-0.06417173565924167,-0.035457880996388844,0.04491444280780851
1782836436945884700,1.495884765625,-0.07794190233647823,-0.04570738328378647,0.049006146267964505
1782836436955813600,1.505813720703125,-0.07614683561325072,-0.034702274572825986,0.05351104733862448
1782836436965743900,1.515743896484375,-0.08228197736740112,-0.04268730937682558,0.04125584266844671
1782836436975672800,1.5256728515625,-0.07854103727340697,-0.04121284377693664,0.030415053107147105
1782836436985601500,1.5356015625,-0.07884206604659556,-0.02248021183713572,0.022752911848272196
1782836436995530500,1.545530517578125,-0.08617547767460346,-0.02148542179625947,0.005776016985019668
1782836437005459700,1.555459716796875,-0.07241232526004314,-0.018656636102631453,0.009343591539794579
1782836437015388700,1.565388671875,-0.07466039644777775,-0.01782013618778437,0.0006337495925836264
1782836437025318700,1.575318603515625,-0.08394085049033165,-0.01437980245858198,0.006614988559810444
1782836437035247600,1.58524755859375,-0.08603928407430649,-0.020161621280014513,0.02072993182041682
1782836437045176800,1.5951767578125,-0.07392039173543453,-0.026679437642241826,0.039966798371751794
1782836437055105800,1.605105712890625,-0.08484569037556648,-0.02877917270073667,0.04805546251358464
1782836437065034800,1.61503466796875,-0.09053191931843757,-0.029043129999702794,0.052525004576495844
1782836437074964700,1.62496484375,-0.08544365626871585,-0.02696839466843521,0.05347034543547779
1782836437084893700,1.634893798828125,-0.0725754068672657,-0.026360991943371482,0.048716666368674486
1782836437094822700,1.64482275390625,-0.0790104083508253,-0.020332548266975208,0.029175108649185856
1782836437104751600,1.654751708984375,-0.08664251066446303,-0.004079144231037935,0.021461839991272425
1782836437114680800,1.664680908203125,-0.08514671914875507,-0.008007738684507784,0.0011389272023225201
1782836437124609800,1.67460986328125,-0.07991057206094264,-0.008523078070301561,0.007641829123208299
1782836437134539500,1.68453955078125,-0.08095978885293006,-0.01579296746693435,0.010778661277634091
1782836437144468700,1.69446875,-0.08664718683958053,-0.022642300213803535,0.01590137458622921
1782836437154397700,1.704397705078125,-0.07782032178342342,-0.03128014550388325,0.026115031525399533
1782836437164326700,1.71432666015625,-0.08111351810991764,-0.03568325528405839,0.03324058168954216
1782836437174255600,1.724255615234375,-0.0754290427327156,-0.041422714534797705,0.03726048485538922
1782836437184184800,1.734184814453125,-0.07528174321651458,-0.03826357008386403,0.04099676704057492
1782836437194114600,1.744114501953125,-0.07827391076982021,-0.028542012077150864,0.03927355997716076
1782836437204043500,1.75404345703125,-0.08051964386999606,-0.02580604777461849,0.02366163789075799
1782836437213972500,1.763972412109375,-0.07633096000850201,-0.01420537519014906,0.007861371891712769
1782836437223901700,1.773901611328125,-0.07468553088903426,-0.0012030956043803597,0.009025575099186972
1782836437233830700,1.78383056640625,-0.08276829957962036,-0.004381944836204638,0.0039009072955232113
1782836437243759600,1.793759521484375,-0.07573708576858043,-0.003991308400669368,0.005061256311787292
1782836437253689900,1.80368994140625,-0.07813421003818512,-0.0011999012835847678,0.017296879498660562
1782836437263618800,1.813618896484375,-0.08517068454623222,-0.018248402361612532,0.03642090135924518
1782836437273547800,1.8235478515625,-0.08203238652050494,-0.018657615633454406,0.029571647385833785
1782836437283476500,1.8334765625,-0.07949088534414768,-0.03209610609584488,0.0436016249098815
1782836437293405700,1.84340576171875,-0.0742529846906662,-0.03466204759371467,0.04870557871907949
1782836437303335700,1.853335693359375,-0.085476974016428,-0.03318089195813518,0.036879577512713146
1782836437313264600,1.8632646484375,-0.08054068665802479,-0.01805029282349278,0.02455755468402058
1782836437323190500,1.8731904296875,-0.07365735688507556,-0.020517079087602905,0.004481830722326412
1782836437333119700,1.88311962890625,-0.07889642658233642,-0.021840715207066385,-0.0003134133307263255
1782836437343048400,1.89304833984375,-0.07695347582101822,-0.011067219869961262,-0.002734813525062054
1782836437352977400,1.902977294921875,-0.07845160542428493,-0.0023503545269195456,0.0010621402056422084
1782836437362907600,1.91290771484375,-0.06962590941190719,-0.011400276332785142,0.004915865624882281
1782836437372836600,1.922836669921875,-0.06992927627265452,-0.004823113874089904,0.02148510670242831
1782836437382765600,1.932765625,-0.08339958322048187,-0.0172333743919502,0.03189190702694468
1782836437392694500,1.942694580078125,-0.08504618138372898,-0.014986850132263498,0.046148624245263635
1782836437402623700,1.952623779296875,-0.07891103962957859,-0.022196602272917514,0.04704058638261631
1782836437412552700,1.962552734375,-0.0745709645986557,-0.022273172357177826,0.03709954040632583
1782836437422482400,1.972482421875,-0.06484393583238124,-0.019834976291668135,0.038038209495926276
1782836437432411600,1.98241162109375,-0.07157762800157069,-0.004382230818105745,0.022032657582592218
1782836437442340600,1.992340576171875,-0.06649053399562835,-0.009243787852063541,0.006144713300094008
1782836437452269600,2.00226953125,-0.07681611317694187,-0.003828685163639602,0.003959587813355029
1782836437462198500,2.012198486328125,-0.0661924278318882,-0.0065166792844887815,-0.007686188854742795
1782836437472127500,2.02212744140625,-0.07158113513290881,-0.010621201127022504,-0.00682197324084118
1782836437482057500,2.032057373046875,-0.09103519266545772,-0.02315407881097635,0.0037930356074124573
1782836437491986400,2.041986328125,-0.07921616005599498,-0.024034649621346032,0.014480707833077758
1782836437501915400,2.051915283203125,-0.08221008117496967,-0.03701151049642358,0.025482469242904333
1782836437511844600,2.0618447265625,-0.07577683325707912,-0.03496997646514792,0.024427772558201104
1782836437521773600,2.071773681640625,-0.07518003640770912,-0.03039755169978598,0.028869937990419564
1782836437531703600,2.08170361328125,-0.07907002958357334,-0.02213422739407979,0.025948479319456964
1782836437541632800,2.0916328125,-0.07862053225040436,-0.012910638654895591,0.021202947026491163
1782836437551561500,2.1015615234375,-0.07442951030135155,-0.005821155888799694,0.02011632996671833
1782836437561490400,2.111490478515625,-0.07832008799910545,0.004376105325529352,0.01740449545844458
1782836437571419400,2.12141943359375,-0.07757248450219631,-0.002358709080022527,0.0005743292892351746
1782836437581348600,2.1313486328125,-0.07862170129418372,0.0018131994598952587,0.0016852953389752655
1782836437591278600,2.141278564453125,-0.07203881577253342,-0.001851990250457311,0.008068776697851717
1782836437601207600,2.15120751953125,-0.07069499994814396,-0.013764093129476532,0.013404749164637178
1782836437611136500,2.161136474609375,-0.08296820606589317,-0.019563516106258613,0.02816831992655061
1782836437621065700,2.171065673828125,-0.07414192553162574,-0.024105860827188005,0.03403127540950663
1782836437630994400,2.180994384765625,-0.07130056462585925,-0.025765112976031377,0.02796625801580958
1782836437640923400,2.19092333984375,-0.0781868170082569,-0.02713753155710874,0.017331466754851862
1782836437650853600,2.200853515625,-0.08192892614603042,-0.01789577012370573,0.014500526778399943
1782836437660782600,2.210782470703125,-0.07564473131000995,-0.014645492773619479,0.011262220710609108
1782836437670711600,2.220711669921875,-0.082679452252388,-0.00558883469546854,-0.003263385710120201
1782836437680640500,2.230640625,-0.07100888820290566,-0.0006781909516867017,0.00046325186388567087
1782836437690569700,2.24056982421875,-0.07340659699440003,0.0047881881203589724,-0.005205815881630406
1782836437700499500,2.25049951171875,-0.07071545821428299,0.0008476543506345479,0.005884500594483688
1782836437710428400,2.260428466796875,-0.07281272275447845,-0.0056812724940740736,0.02450238129752688
1782836437720357600,2.270357666015625,-0.06892506766617297,-0.013531829018361167,0.012657867186935618
1782836437730286600,2.28028662109375,-0.07715630491673946,-0.014362764558813069,0.02967705312222242
1782836437740215600,2.290215576171875,-0.08104805165827274,-0.01110233684911509,0.03270694060372188
1782836437750144500,2.30014453125,-0.07416589092910289,-0.013440051090170163,0.024583301046630365
1782836437760074500,2.310074462890625,-0.08149930255711078,-0.013803038042021216,0.020267419742047786
1782836437770003500,2.32000341796875,-0.0765618461549282,-0.0058353048576274885,0.009588588409963995
1782836437779932400,2.329932373046875,-0.07611351786553859,-0.005303521797931171,0.00219859688966535
1782836437789861400,2.339861328125,-0.07641454663872718,-0.00580179245955951,-0.004995616330206394
1782836437799790600,2.34979052734375,-0.07791209172010422,-0.012677638183196541,-0.0009539853897411376
1782836437809719600,2.359719482421875,-0.07327507956922054,-0.007950986403925345,-0.000998509518057108
1782836437819649500,2.3696494140625,-0.08240531148612498,-0.013352589719137177,0.0020374149785842744
1782836437829578800,2.379578857421875,-0.07627133877575397,-0.019906281112344004,0.017451357674319296
1782836437839507500,2.389507568359375,-0.06774316440522671,-0.017251098419952905,0.020301733003603294
1782836437849436400,2.3994365234375,-0.08570026137828826,-0.018834572785691124,0.03518215334452689
1782836437859365400,2.409365478515625,-0.08240823409557342,-0.0168719526344561,0.026549130360037088
1782836437869295600,2.419295654296875,-0.07342880882620811,-0.016903718887543072,0.025778556979494167
1782836437879224600,2.429224609375,-0.08270575573742389,-0.008921064411941916,0.017307419158983976
1782836437889153500,2.439153564453125,-0.07761690816581249,-0.004807567532619577,0.005283219366241246
1782836437899082800,2.449082763671875,-0.06818915460705757,-0.0028953940749997854,-0.0009572093932889401
1782836437909011700,2.45901171875,-0.0731283645749092,0.0034828945147062766,-0.000620588716911152
1782836437918940700,2.468940673828125,-0.0800128633916378,0.014333702861110213,-0.005872892355080693
1782836437928870400,2.478870361328125,-0.07717267152965068,-0.0016946409820498955,0.0068760232493281365
1782836437938799600,2.488799560546875,-0.08241291027069092,-0.01725026616124669,0.008800461106421426
1782836437948728600,2.498728515625,-0.07298749479949473,-0.01324783472000854,0.018771582560567185
1782836437958657500,2.508657470703125,-0.06805062291920184,-0.014769946845417143,0.027020903457095846
1782836437968586500,2.51858642578125,-0.0699953272461891,-0.025931041844177525,0.014473821434564887
1782836437978515700,2.528515625,-0.08151859177947043,-0.022128966697072608,0.017805660137860103
1782836437988445400,2.538445556640625,-0.07897650608122349,-0.016577906157902906,0.01358028839463368
1782836437998374400,2.54837451171875,-0.0662578942835331,-0.016057331191276898,-0.0014464359486475585
1782836438008303600,2.5583037109375,-0.07209376083016396,0.000801234379226662,0.0035099900154862552
1782836438018232600,2.568232666015625,-0.06850362738370895,0.0076848576974705785,-0.0005408928105141967
1782836438028161500,2.57816162109375,-0.07927870389819144,0.005642398934299126,-0.0066414290421642356
1782836438038091800,2.588091796875,-0.07284604050219058,0.006723622866324149,0.0016924648652784525
1782836438048020500,2.5980205078125,-0.08227496310472487,-0.0003333148312030971,0.005821408763015642
1782836438057949400,2.607949462890625,-0.07539221785366534,-0.0060388046693842625,0.01953167107971385
1782836438067878400,2.61787841796875,-0.0851192466199398,-0.005249276568266213,0.024904824618576092
1782836438077807600,2.6278076171875,-0.08586626559495926,-0.006879711331290309,0.024839065905986352
1782836438087736600,2.637736572265625,-0.0713508335083723,-0.011280507569259498,0.027597141575627027
1782836438097666600,2.64766650390625,-0.06925532253384589,-0.014838284532516262,0.02270691271550022
1782836438107595500,2.657595458984375,-0.0854155992180109,-0.011166820345004089,0.015771186035033316
1782836438117524700,2.667524658203125,-0.08302139755785465,-0.0020729800531320507,0.0038093474213965234
1782836438127453400,2.677453369140625,-0.07479191387295722,-0.004206651059736032,-0.003156235541217029
1782836438137382400,2.68738232421875,-0.06626315498054026,0.007029429420974338,-0.008628145879972725
1782836438147312600,2.697312744140625,-0.08242518523037433,-0.0025826697266180415,-0.005897734535392374
1782836438157241600,2.70724169921875,-0.08751520184576511,-0.010192592459899605,-0.003755142149282619
1782836438167170600,2.717170654296875,-0.07105681899785996,-0.015545070820202816,0.004264434245135635
1782836438177099500,2.727099609375,-0.07360241182744502,-0.016112938402610598,0.01997479347102344
1782836438187028700,2.73702880859375,-0.08318155655562877,-0.01619764041933231,0.02064870154405944
1782836438196957700,2.746957763671875,-0.07509995690882205,-0.014083095950772985,0.027756944380374623
1782836438206887400,2.756887451171875,-0.0788403124809265,-0.009494185270668821,0.015279530060570687
1782836438216816600,2.766816650390625,-0.08422551265060901,-0.00683647611940687,0.008691420374531298
1782836438226745600,2.77674560546875,-0.0813812291353941,0.0005241749279175565,0.006446235263627022
1782836438236674600,2.786674560546875,-0.07599369087815284,0.0012363886640341661,0.004119692012201994
1782836438246603500,2.796603515625,-0.07823825493454933,0.008023883247599587,-0.0024449728661682453
1782836438256532700,2.80653271484375,-0.07285188572108744,0.0052444462711660885,-0.004746299477946013
1782836438266462500,2.81646240234375,-0.08527297587692736,-0.001631027704540611,0.004856290057906881
1782836438276391400,2.826391357421875,-0.07524900999069213,-0.009108791265831678,0.007038529467815533
1782836438286320400,2.8363203125,-0.06851707138717174,-0.020553134498384314,0.010572411815542727
1782836438296249600,2.84624951171875,-0.07674830863773822,-0.019249589035590178,0.016470064152544362
1782836438306178600,2.856178466796875,-0.07944295454919338,-0.027536773707496465,0.027102197665534913
1782836438316108500,2.866108642578125,-0.08632686884403228,-0.02114802023516968,0.023290274694561956
1782836438326036500,2.876036376953125,-0.0804921713411808,-0.007811455777293304,0.011822895933827385
1782836438335965700,2.885965576171875,-0.0795949302405119,-0.005203448111319449,-0.0002600483088288456
1782836438345894700,2.895894775390625,-0.0712158089518547,0.0010847112272931554,-0.0012130381847266108
1782836438355823600,2.90582373046875,-0.06373509780764579,-0.0009381211716816323,-0.006560701089305803
1782836438365752600,2.915752685546875,-0.07914894003868103,0.0009262507108498539,-0.010858215620135888
1782836438375682600,2.9256826171875,-0.08453764733970165,0.0006450985360213962,-0.009996876949910074
1782836438385611500,2.935611572265625,-0.0815466488301754,-0.0032361380852351427,0.005369938668468967
1782836438395540500,2.94554052734375,-0.08738368442058563,0.0007142170364797493,0.01605354664037004
1782836438405469700,2.9554697265625,-0.08020166396200656,-0.013654014642903348,0.015225388720538467
1782836438415398700,2.965398681640625,-0.07361702487468719,-0.013363205869629746,0.02442858540895395
1782836438425328400,2.975328369140625,-0.0798994661450386,-0.012430911721888696,0.02138090654243715
1782836438435257300,2.98525732421875,-0.0757078596740961,-0.013394665020395768,0.007037068163091316
1782836438445186600,2.9951865234375,-0.06852525469362736,-0.0047743274167209165,0.010637796068796888
1782836438455115500,3.005115478515625,-0.07481003405153751,-0.003033058398586581,-0.00535625720298849
1782836438465044500,3.01504443359375,-0.07525894686281681,0.00473160194902448,-0.005699800810497254
1782836438474973400,3.024973388671875,-0.06942424935996531,-0.005399445607454981,-0.008472845720406621
1782836438484903700,3.034903564453125,-0.07331482705771923,-0.006134219876365386,-0.011510715578962117
1782836438494832600,3.04483251953125,-0.08184533951580523,-0.006904427359905094,-0.0032160394370555874
1782836438504761300,3.05476123046875,-0.07750701805055141,-0.012706301447033183,0.016084188373805954
1782836438514690600,3.064690673828125,-0.07541150707602501,-0.006267583340403507,0.02422458726945333
1782836438524619500,3.07461962890625,-0.0745142659753561,-0.013650375080824596,0.027922546738246453
1782836438534549500,3.084549560546875,-0.07152151390016079,-0.009833062407036778,0.02269256452973932
1782836438544478700,3.094478759765625,-0.07526186947226524,0.0015144966442945586,0.020478697005705905
1782836438554407700,3.10440771484375,-0.0763087481766939,0.0044323210332833695,0.01277508209212683
1782836438564336600,3.114336669921875,-0.0860340233772993,0.004373645652850974,0.0031564273374620824
1782836438574265600,3.124265625,-0.07361351774334907,0.008113516596943373,-0.003023905265284702
1782836438584194600,3.134194580078125,-0.07720540475547313,0.005654836007475387,0.003025220439536497
1782836438594124500,3.14412451171875,-0.07496200974285602,-0.00427505153727252,-0.0006612129882443696
1782836438604053500,3.154053466796875,-0.07077332588136195,-0.0056669505661324365,-0.000035381840635091064
1782836438613982500,3.163982421875,-0.08334346911907195,-0.009120585593258146,0.009923501186445355
1782836438623911700,3.17391162109375,-0.08095043650269508,-0.013425764553202315,0.011289583641570062
1782836438633840600,3.183840576171875,-0.0851408739298582,-0.01256155693081091,0.013166501695662736
1782836438643770400,3.193770263671875,-0.08050210821330547,-0.014448168686788995,0.018096185783343387
1782836438653699600,3.203699462890625,-0.08319558508098125,-0.01272513743659947,0.013785619974695145
1782836438663628500,3.213628662109375,-0.0791547852575779,-0.014126133658189792,0.011552764622401445
1782836438673557500,3.2235576171875,-0.08274608774781227,-0.004879166326706763,0.00484862734125927
1782836438683486500,3.233486572265625,-0.08469254564046859,0.003936147572263144,-0.007080167519301176
1782836438693415700,3.243415771484375,-0.07122516130208968,0.008404778603010345,-0.006626450668741017
1782836438703345700,3.253345703125,-0.07960603615641594,0.0056146489859151185,-0.001661859664460644
1782836438713274400,3.2632744140625,-0.08514262749552726,-0.000341972419519152,0.0035775296932086345
1782836438723203600,3.27320361328125,-0.07107903082966804,0.0017827209815965033,0.015600048985518514
1782836438733132500,3.283132568359375,-0.08320143029987812,-0.005110079872596543,0.018107428696565328
1782836438743061500,3.2930615234375,-0.07721709519326686,-0.007112627892132149,0.02070399366156198
1782836438752991500,3.302991455078125,-0.07691723546385765,-0.02022632282996783,0.024942608478851616
1782836438762920700,3.312920654296875,-0.08739186772704124,-0.014062889988027745,0.009060518548404797
1782836438772849700,3.322849609375,-0.08574468504190444,-0.012967933216528034,0.006628688291599974
1782836438782778600,3.332778564453125,-0.08469663729369639,-0.0008374710260432038,0.004891397903906181
1782836438792707300,3.342707275390625,-0.07766308539509773,-0.00022002796733868306,-0.000002575549576431513
1782836438802636500,3.352636474609375,-0.07332534845173358,-0.0021999570161620793,-0.004191040215361863
1782836438812566500,3.36256640625,-0.0830535462617874,-0.0014433383822077303,-0.014077835253765806
1782836438822495500,3.37249560546875,-0.0764706607401371,-0.0034467029628402084,-0.005259153504064307
1782836438832424700,3.3824248046875,-0.0811105955004692,-0.004880333087197505,0.005563342348719015
1782836438842353700,3.392353759765625,-0.08380290332436562,-0.004976836281211581,0.01942031052657403
1782836438852282600,3.40228271484375,-0.0873936212927103,-0.012990807202039286,0.016957372745452448
1782836438862212600,3.412212646484375,-0.09188158036172389,-0.0028706261015686322,0.01363688655323349
1782836438872141600,3.4221416015625,-0.08006020966470241,-0.0018020354628366475,0.016319960757903755
1782836438882070500,3.432070556640625,-0.0800607941865921,-0.005539123506203759,0.012861664397036655
1782836438891999500,3.44199951171875,-0.07676876690387725,0.0009402163030594237,0.008202714408980682
1782836438901928700,3.4519287109375,-0.07108312248289585,0.0011685177667546667,-0.004399805861525237
1782836438911857700,3.461857666015625,-0.0682400080114603,0.0071943308092362705,-0.009520418544579298
1782836438921787400,3.471787353515625,-0.0773684863626957,0.0033327146298965087,-0.0019161632190924137
1782836438931716400,3.48171630859375,-0.07976327254474162,-0.0070679319463466525,0.006247379090124741
1782836438941645600,3.4916455078125,-0.07931494425535202,-0.005577793282468337,-0.002498922409955412
1782836438951574500,3.501574462890625,-0.08141103975176811,0.002302293869924324,-0.002632732256921008
1782836438961503500,3.51150341796875,-0.08694821561276912,-0.00733095994683972,0.0055171925188973545
1782836438971433700,3.521433837890625,-0.07737140897214412,-0.012470718575891805,0.01332385681499727
1782836438981362700,3.53136279296875,-0.08245850297808646,-0.005627462801715591,0.01682669557048939
1782836438991291600,3.541291748046875,-0.07946516638100147,-0.005855860163533361,0.017485013348748905
1782836439001220400,3.551220458984375,-0.08874211329221725,-0.00600636827108392,0.0081177760718856
1782836439011149600,3.561149658203125,-0.07347907770872115,0.0061893595843517685,0.008726710883621126
1782836439021079600,3.57107958984375,-0.08006254775226115,0.007043005284355604,-0.0024464981029741466
1782836439031008500,3.581008544921875,-0.07647124526202678,0.0002268863955658162,-0.006028064650483429
1782836439040937700,3.590937744140625,-0.06958908453285693,0.004055745945374656,0.004455344574199989
1782836439050866700,3.60086669921875,-0.08111234906613826,0.008218301849646377,0.009264416223205625
1782836439060795600,3.610795654296875,-0.08006663940548896,-0.00745241548984195,0.006736139854602515
1782836439070724600,3.620724609375,-0.07108896770179271,-0.011097230274090543,0.007984413749491796
1782836439080654600,3.630654541015625,-0.08081482742428779,-0.006457941684441175,0.01659230229272507
1782836439090583600,3.64058349609375,-0.08186345969438552,-0.011415808403701521,0.020643504779133945
1782836439100512500,3.650512451171875,-0.08051613673865794,-0.010302077291428577,0.006239049653196707
1782836439110441500,3.66044140625,-0.0754290427327156,-0.009032512871694051,0.013930417006555944
1782836439120370700,3.67037060546875,-0.07617723075151443,-0.0026865801943640687,0.0036011023650411515
1782836439130300400,3.680300537109375,-0.06809796919226646,-0.00411681050194893,-0.00042412542989477513
1782836439140229400,3.6902294921875,-0.07034311777055263,0.008599246295762714,-0.0028831268214154987
1782836439150158600,3.70015869140625,-0.079921093454957,0.001595076896919636,-0.007037186894100159
1782836439160087600,3.710087646484375,-0.0675035104304552,-0.004468622468414832,-0.0006726385645568371
1782836439170016500,3.7200166015625,-0.07513619726598263,-0.0006084570335893658,0.00071495246947743
1782836439179945500,3.729945556640625,-0.07708090159296989,-0.005975339520224952,0.005572740364726632
1782836439189875700,3.739875732421875,-0.08022329127192497,-0.009634958577138603,0.02218453280921094
1782836439199804700,3.7498046875,-0.08500935650467872,-0.005802335882253828,0.019391093565244228
1782836439209733400,3.7597333984375,-0.08500818746089935,-0.007623306515006698,0.019078666615206748
1782836439219662600,3.76966259765625,-0.08051964386999606,-0.0007888762222137302,0.00032028146293014285
1782836439229591600,3.779591552734375,-0.07498363705277443,0.005135304503754014,0.013729177079722285
1782836439239521500,3.789521484375,-0.07962240276932715,0.000503385513574176,0.002948355811042711
1782836439249450500,3.799450439453125,-0.07513385917842387,0.001446755038233823,-0.0018973489207681268
1782836439259379700,3.809379638671875,-0.0800736536681652,0.0008455163362421444,-0.0034701694617513567
1782836439269308700,3.81930859375,-0.07633563618361949,-0.0005628634699605754,-0.01121811670740135
1782836439279237600,3.829237548828125,-0.07543839508295058,-0.006253362447983818,-0.006181940037943422
1782836439289166300,3.839166259765625,-0.08830781352818012,-0.015375254653161391,0.00017403225949965418
1782836439299096600,3.8490966796875,-0.07424129425287246,-0.008697306692623533,0.012494685115013272
1782836439309025500,3.859025634765625,-0.07379179691970347,-0.016328540214936946,0.010615474639134481
1782836439318954500,3.86895458984375,-0.0776817900955677,-0.011284446242148987,0.00636740700691007
1782836439328884000,3.878884033203125,-0.07199614567458629,-0.005152475405085715,0.013171570596424861
1782836439338813000,3.88881298828125,-0.07648468926548957,-0.008318239109762362,0.01171900630109012
1782836439348742700,3.89874267578125,-0.0728933867752552,0.001941512289480306,0.005479171196604148
1782836439358672000,3.908671875,-0.07588555432856083,0.0034687001655169295,0.002073892797762528
1782836439368600800,3.918600830078125,-0.08172142087519169,0.004953611810895381,-0.0005870061077177524
1782836439378529800,3.92852978515625,-0.0746884534984827,0.0002966736855349154,-0.0059843899055384096
1782836439388458800,3.938458740234375,-0.0859124428242445,0.001232848853127507,-0.0023672040553763506
1782836439398388700,3.948388671875,-0.07902969757318497,-0.0004462730442101019,0.00905988836074248
1782836439408317700,3.958317626953125,-0.06556348227858542,-0.003486812352587003,0.0215449562640395
1782836439418246700,3.96824658203125,-0.08980360504388808,-0.011679519107495434,0.006526287363050505
1782836439428175600,3.978175537109375,-0.08157236779332161,-0.005670620381785557,0.013521452613174915
1782836439438104800,3.988104736328125,-0.06720891139805317,-0.016842805313429562,0.007232115811156108
1782836439448033800,3.99803369140625,-0.07947861038446426,-0.011462938905990448,0.006697497477801516
1782836439457963800,4.0079638671875,-0.0710983200520277,-0.011271279658254934,-0.007743819059804082
1782836439467893000,4.01789306640625,-0.08681085296869277,-0.01050403531253687,0.007314560797065496
1782836439477822000,4.027822021484375,-0.0802262138813734,0.0001727761653412017,0.003160500724380836
1782836439487750700,4.037750732421875,-0.08022738292515277,-0.001982058643588971,0.01096411454686895
1782836439497679600,4.0476796875,-0.07065116080641747,-0.007193841614646953,-0.0025172069853171704
1782836439507609900,4.05760986328125,-0.07903086661696433,-0.0022535893255349946,0.0013396237064618617
1782836439517538800,4.067538818359375,-0.08546586810052394,-0.014917845724883954,0.008041084973327815
1782836439527467800,4.0774677734375,-0.06720949591994285,-0.0051878338420123325,0.012725763057684525
1782836439537397000,4.08739697265625,-0.0805266581326723,-0.00420412716956489,0.015492323427880181
1782836439547326000,4.097325927734375,-0.0812765997171402,0.00042807095265015956,0.020817290443461388
1782836439557255700,4.107255615234375,-0.082474285069108,-0.004647318915766664,0.01570268737608567
1782836439567184600,4.1171845703125,-0.07005436395704746,-0.006036680640134727,0.0068497288974467664
1782836439577113900,4.12711376953125,-0.08052782717645168,-0.0016288390296816941,-0.0020067275793757286
1782836439587042800,4.137042724609375,-0.07289572486281394,0.0018676655977353219,-0.0019208119947463273
1782836439596971800,4.1469716796875,-0.07798281886875628,0.0008754810745987924,-0.003106204120721668
1782836439606900700,4.156900634765625,-0.07529051104485988,-0.0026235186164703917,-0.006798930291971191
1782836439616830700,4.166830810546875,-0.07409399473667144,-0.003741020579918404,0.0018506054359022526
1782836439626759700,4.176759765625,-0.07439502350986003,-0.002756740516613354,-0.0026579488965682682
1782836439636688600,4.186688720703125,-0.08741291051506996,-0.0057485924052656625,0.010670511028310284
1782836439646617900,4.196617919921875,-0.0845697960436344,-0.011658124693017453,0.00936780353244394
1782836439656546800,4.206546875,-0.07798515695631504,-0.005627187094613327,0.014384544849069788
1782836439666476800,4.216476806640625,-0.07409516378045082,-0.011838467962294817,0.012169453482329845
1782836439676406000,4.226406005859375,-0.07469546776115894,-0.0018286553260535583,0.005147308893734589
1782836439686335000,4.2363349609375,-0.0775379977107048,0.00239333572294272,0.010143171819113195
1782836439696263700,4.246263671875,-0.07559270886182784,-0.0018761608585002249,0.0018700407887343317
1782836439706192600,4.256192626953125,-0.0812801068484783,0.0016090283612807978,-0.0013535152344964444
1782836439716123000,4.266122802734375,-0.07230185062289238,-0.005665189579775323,-0.0015463891917839646
1782836439726051800,4.2760517578125,-0.07424889303743838,0.0019164146662529673,0.006975839495146647
1782836439735980800,4.285980712890625,-0.07634557305574417,-0.006279796080471714,0.0018972210566047577
1782836439745909800,4.29590966796875,-0.07619535093009472,-0.0052154142562154445,0.008948153348267079
1782836439755839000,4.3058388671875,-0.08098375425040721,-0.009349562339566181,0.003887655088305473
1782836439765768700,4.315768798828125,-0.08068447904288768,-0.014085182876582256,0.011649649125616997
1782836439775697700,4.32569775390625,-0.08262976789176464,-0.00898258990740869,0.011949755450198427
1782836439785627000,4.335626953125,-0.0832283183068037,-0.01053756654773606,0.012132217611325904
1782836439795555800,4.345555908203125,-0.08292845857739448,-0.00268604790270183,0.0075221117336768655
1782836439805484800,4.35548486328125,-0.07559563147127628,-0.0003874338378183893,-0.013531974007189272
1782836439815413800,4.365413818359375,-0.08741700216829776,0.007952093798911665,-0.00004649688969366252
1782836439825343700,4.37534375,-0.08951134409904479,0.006291227365005761,-0.0019263832190074025
1782836439835272700,4.385272705078125,-0.08188099535107612,0.0037726444128769795,0.001252566477516666
1782836439845201700,4.39520166015625,-0.0829278740555048,-0.005409675882168812,0.008465776658803223
1782836439855131000,4.405130859375,-0.0884656344383955,-0.0028316072675545,0.010304061469249427
1782836439865059800,4.415059814453125,-0.0788888277977705,-0.00578654294561129,0.015534390737628563
1782836439874989800,4.42498974609375,-0.07050970650911331,-0.007313328962848754,0.006225158125162124
1782836439884918800,4.434918701171875,-0.07978723794221877,-0.0036197228692428324,0.015019143825024365
1782836439894847700,4.44484765625,-0.07454992181062697,-0.0125643825004925,0.011565112647321074
1782836439904776700,4.454776611328125,-0.08083411664664746,-0.005279432532045757,-0.0009229052648879587
1782836439914705700,4.46470556640625,-0.07858896806836128,-0.0016610719298827462,-0.009961394644575194
1782836439924634600,4.474634521484375,-0.07260346391797065,0.0015947284099922397,-0.0037059235795401033
1782836439934564900,4.48456494140625,-0.07814063977897166,0.0013144827007505228,-0.005549112893966958
1782836439944493800,4.494493896484375,-0.070510291031003,-0.0029797752896687595,0.000630370325408876
1782836439954422800,4.5044228515625,-0.0690115769058466,-0.004064250910116243,0.012534807062847538
1782836439964352000,4.51435205078125,-0.07005845561027527,-0.00018908341274800477,0.013353740496607496
1782836439974281000,4.524281005859375,-0.08098200068473815,-0.009848883313965051,0.016475123920151963
1782836439984210700,4.534210693359375,-0.07813771716952324,-0.0042364585365881795,0.010736845129635185
1782836439994140000,4.544139892578125,-0.07170213116407394,-0.0005324460696327151,0.0074518321095965795
1782836440004068900,4.55406884765625,-0.08052899622023105,-0.0049083924211910926,0.009680184816708787
1782836440013997800,4.563997802734375,-0.07499123583734035,-0.0036679633352177912,0.009051860317913815
1782836440023926800,4.5739267578125,-0.07558920173048973,0.0026083139120615666,0.013150098550133407
1782836440033856800,4.583856689453125,-0.07558978625237942,0.0027220898991625287,0.004916331415763125
1782836440043785700,4.59378564453125,-0.0851665928930044,0.007014622865020646,-0.00022369835381396113
1782836440053714700,4.603714599609375,-0.07618950571119786,0.0017903817003665607,-0.00614526128936559
1782836440063643600,4.6136435546875,-0.07768705079257487,0.002741935958537215,0.0055728682288900015
1782836440073572900,4.62357275390625,-0.0872632729113102,-0.00723650714601681,0.0121961588261649
1782836440083502800,4.6335029296875,-0.07813537908196448,-0.004269741464148683,0.007380739634763449
1782836440093431800,4.643431884765625,-0.07185118424594401,-0.008390538873459445,0.012273470979230478
1782836440103360800,4.65336083984375,-0.07619242832064628,-0.0027235937301375085,0.014089927550358696
1782836440113289700,4.663289794921875,-0.0802308900564909,-0.0034466401724028398,0.009764666496077552
1782836440123218700,4.67321875,-0.08472001816928386,-0.002831513652720605,0.009417360028903931
1782836440133147600,4.683147705078125,-0.07244973466098308,0.006250734953591018,0.01226487668082118
1782836440143078000,4.693077880859375,-0.07993219937086105,-0.0009758070646043052,-0.00035961795947514474
1782836440153006800,4.7030068359375,-0.07858604545891285,0.0059073232060007285,-0.009546457168133928
1782836440162935800,4.712935791015625,-0.06541852084994315,0.008576002417493145,0.0016538772874046116
1782836440172865000,4.722864990234375,-0.06452069522738456,-0.0028699810725302086,-0.01061948409397155
1782836440182793700,4.732793701171875,-0.06796177559196949,-0.005172543799690902,0.011752333181956781
1782836440192723700,4.7427236328125,-0.08442249652743339,-0.0017191405263612977,0.015415778459794818
1782836440202652700,4.752652587890625,-0.07873685210645198,-0.010811017760832327,0.01867542870971374
1782836440212582000,4.762581787109375,-0.07649287257194519,-0.004616071254610142,0.008713522608485073
1782836440222510800,4.7725107421875,-0.0907096139729023,-0.007093452263381914,0.009660475469240919
1782836440232439800,4.782439697265625,-0.06916121450960636,-0.0018642472292427555,0.0005453680562321096
1782836440242369800,4.792369873046875,-0.07394961782991885,0.00015140458374953596,0.006717042428487911
1782836440252298800,4.802298828125,-0.07798924860954284,-0.003872462371161964,-0.0029682660879101603
1782836440262227700,4.812227783203125,-0.08577098852694034,-0.004832898907520576,0.0025314455732237547
1782836440272156700,4.82215673828125,-0.07694353894889354,-0.004440004870350822,-0.0098957911956124
1782836440282086000,4.8320859375,-0.08502572311758995,-0.0012442136368801583,0.0016351086548529565
1782836440292015900,4.842015869140625,-0.0808364547342062,-0.009132486664428143,0.006187282933341339
1782836440301944800,4.85194482421875,-0.07859189067780971,-0.004408385889380588,0.0035012861192226406
1782836440311873800,4.861873779296875,-0.0800865131497383,-0.008656160689837997,0.008905291454074904
1782836440321802800,4.871802734375,-0.06916472164094448,-0.010021878960425964,0.008160738430777564
1782836440331732000,4.88173193359375,-0.07919102561473845,-0.013598780749260913,0.010627137677464633
1782836440341661000,4.891660888671875,-0.0833808785200119,-0.00515986812285264,-0.0026951756344176826
1782836440351591200,4.901591064453125,-0.09041559946238995,-0.0016423458235818543,0.009983716074237599
1782836440361520000,4.91152001953125,-0.08353226968944072,0.004703218958867364,0.0005436144905630499
1782836440371449000,4.921448974609375,-0.06886661547720432,0.005278667630354175,-0.010112813213467598
1782836440381378000,4.9313779296875,-0.07126023261547088,-0.0038615394037595247,-0.003616418665181845
1782836440391307000,4.94130712890625,-0.07709726820588111,-0.004511823430968798,0.003341008390439674
1782836440401237000,4.951237060546875,-0.06796878985464573,0.00119950170807424,0.0020599738702643663
1782836440411166000,4.961166015625,-0.09056406802237034,-0.00025548972307587974,0.01055852942066267
1782836440421095200,4.97109521484375,-0.07844342211782931,-0.008213483539811568,0.00877112541408278
1782836440431024000,4.981024169921875,-0.08487842360138893,-0.006345781980280299,0.013336972024897113
1782836440440953000,4.990953125,-0.08323299448192119,0.00027425435987242963,0.0026833664656151085
1782836440450883000,5.000883056640625,-0.08562719614207744,-0.006484967259506811,0.0037230025785043833
1782836440460812000,5.01081201171875,-0.07949263890981674,-0.0045381463239580625,0.0062268020929768676
1782836440470741000,5.020740966796875,-0.08203647817373275,-0.0019222770098145702,0.0017292440785560755
1782836440480670000,5.030669921875,-0.07201075872182845,0.001140897395000502,0.0033900077644735574
1782836440490599200,5.04059912109375,-0.07680033108592033,-0.0001896599431274808,0.001594621380837634
1782836440500529200,5.050529052734375,-0.08278583523631096,0.0022048759334022177,0.0004009272173978388
1782836440510458000,5.0604580078125,-0.08353402325510978,0.0014829685667529702,-0.010642554442305116
1782836440520386800,5.07038671875,-0.08143851228058338,0.0002197593955133925,-0.00015963840796612202
1782836440530316000,5.08031591796875,-0.08278641975820064,-0.006637135888714692,0.0121519360919483
1782836440540245000,5.090244873046875,-0.0803922180980444,-0.000831744966271799,0.008558322913618757
1782836440550174000,5.100174072265625,-0.07201309680938721,-0.003990459588120575,0.010351115481369197
1782836440560104200,5.110104248046875,-0.07365852592885494,-0.0010761290588547127,0.010086007404932752
1782836440570033200,5.120033203125,-0.07784837883412837,0.0030449628946895243,0.01469829610651359
1782836440579962000,5.129962158203125,-0.08054244022369385,-0.0015687180421344237,0.0008924096619244665
1782836440589891000,5.13989111328125,-0.07784954787790775,0.0015387318979468545,0.003694708065781742
1782836440599820000,5.149820068359375,-0.07126549331247806,-0.0023321689892021823,-0.002788644337840378
1782836440609750000,5.15975,-0.08697919527292251,-0.005537076537945541,-0.002314907612558454
1782836440619679000,5.169678955078125,-0.07246376318633556,-0.004837049926252802,-0.005446273574000224
1782836440629608200,5.179608154296875,-0.08249065168201923,0.002984010504669277,0.007182486249459907
1782836440639537200,5.189537109375,-0.08054594735503197,-0.001798369785644172,0.010275072836782783
1782836440649466000,5.199466064453125,-0.07650748561918735,-0.0022617283932733698,0.012056385029293596
1782836440659395800,5.209395751953125,-0.0844394476622343,-0.005554376445084926,0.009970984456827864
1782836440669325000,5.219324951171875,-0.07546177595853805,-0.004418716057972051,0.011573752611503004
1782836440679254000,5.22925390625,-0.08069909209012985,-0.010776414521620608,0.008550395335489883
1782836440689183000,5.239182861328125,-0.08084814517199992,-0.005348880468241986,0.00625068529206328
1782836440699112000,5.24911181640625,-0.07665595417916775,-0.0028093994315015153,0.001970779483160004
1782836440709042200,5.259042236328125,-0.08533493519723415,0.0015404960238258353,-0.002647098708990961
1782836440718971100,5.26897119140625,-0.08294131805896758,0.0029025730198685776,0.008369102218141779
1782836440728899800,5.27889990234375,-0.07979892838001251,-0.00037550422554049874,0.0010374076231848448
1782836440738829000,5.2888291015625,-0.06887538330554961,-0.0012532109357329317,0.003875855052657425
1782836440748758000,5.298758056640625,-0.0820429079145193,-0.0004594841522324714,0.0027153325064573435
1782836440758687000,5.30868701171875,-0.08114625133574009,0.0000983903320680838,0.00950012467522174
1782836440768617200,5.3186171875,-0.08862930056750774,-0.011799269604712026,0.00983611516393721
1782836440778543900,5.3285439453125,-0.07620937945544719,-0.007310476564525743,0.016142741027474403
1782836440788473000,5.33847314453125,-0.07486147197782993,-0.005498313717669225,0.0056356495331041515
1782836440798402000,5.348402099609375,-0.06887655234932899,-0.0017122347198950591,-0.0045917756365146485
1782836440808331000,5.3583310546875,-0.06753098295927047,0.0011988172923069213,0.0024554029286373404
1782836440818260000,5.368260009765625,-0.07635960158109664,-0.00009286876933474559,-0.0041108419854659585
1782836440828190200,5.378190185546875,-0.08369242868721484,-0.0033813603796035746,-0.0071678640690632164
1782836440838119000,5.388118896484375,-0.07321779642403126,-0.0011714794775209156,-0.0028289763482287522
1782836440848047900,5.3980478515625,-0.08219605264961719,-0.00040213678955042264,0.0007373652306851
1782836440857977000,5.40797705078125,-0.07471534150540829,0.0032619968998100373,0.008427344344556331
1782836440867906000,5.417906005859375,-0.07875555680692195,0.0056424200547189685,-0.0013086349131539463
1782836440877835000,5.4278349609375,-0.08010346428453922,-0.006139310468369513,0.0036834286199416964
1782836440887765200,5.43776513671875,-0.0771107122093439,-0.0034219749469601084,0.009968344975169748
1782836440897694200,5.447694091796875,-0.06947860989570617,-0.0034368562806164843,0.005803955304715782
1782836440907623200,5.457623046875,-0.08474047643542289,0.002386338584931218,0.0030765579011291263
1782836440917551900,5.4675517578125,-0.08025134832262992,0.010144238114904147,-0.0019760675796307624
1782836440927480800,5.477480712890625,-0.07501344766914844,-0.0030109675810759654,0.0026968744011595844
1782836440937411000,5.4874111328125,-0.07112170092761516,0.0038180199224414533,-0.003302265548938885
1782836440947340000,5.497340087890625,-0.07680851439237595,0.008666003947128773,-0.0030470852114725857
1782836440957269000,5.50726904296875,-0.07635901705920696,-0.0013483247486146864,0.003843879878660664
1782836440967198200,5.5171982421875,-0.07995090407133101,-0.00574691304647713,0.0038160237573552874
1782836440977127200,5.527127197265625,-0.0904261208564043,-0.0039053865369962294,0.008374545578239485
1782836440987057000,5.537056884765625,-0.0838426508128643,-0.005041246711864369,0.013395022355066611
1782836440996986000,5.546986083984375,-0.06842880858182906,-0.0052453835611493554,0.008608409133041277
1782836441006915000,5.5569150390625,-0.08683481836616992,-0.0027591271240555216,-0.001449166761850938
1782836441016844000,5.566843994140625,-0.07875497228503227,-0.006138119733348139,-0.0014058756093960254
1782836441026773000,5.57677294921875,-0.07247136197090148,-0.0012462263558089034,0.0013569675669074057
1782836441036703200,5.586703125,-0.06304536197781563,-0.005058450720881228,-0.005212336953962221
1782836441046632000,5.5966318359375,-0.0717255120396614,-0.006843050849021528,-0.0026228867163416
1782836441056561000,5.606560791015625,-0.0795072519570589,0.003300429784879088,0.0019582944609224796
1782836441066489900,5.61648974609375,-0.08145312532782555,0.001975874070919235,-0.0035100722138769924
1782836441076419000,5.626419189453125,-0.07906067723333834,-0.0020187342526449357,0.0036393794156610966
1782836441086349000,5.63634912109375,-0.08519640350937843,-0.005664183791133109,-0.0008858794564381242
1782836441096278000,5.646278076171875,-0.07771510784327984,0.0017750679689255775,0.006245598124992102
1782836441106207200,5.656207275390625,-0.08025953162908554,-0.005510696562740486,0.0025727730974555016
1782836441116136200,5.66613623046875,-0.07637070749700069,-0.006687492107017897,0.013662897777324542
1782836441126065000,5.67606494140625,-0.08071019800603389,-0.0010590743198321433,0.003764120040182024
1782836441135993900,5.685993896484375,-0.08041150732040404,0.0037110803869145454,0.0020638919935561714
1782836441145924000,5.695924072265625,-0.07906476888656616,-0.004949212484524469,0.0002698573167901486
1782836441155853000,5.70585302734375,-0.07861760964095592,0.0020486487586516885,-0.001104627640498802
1782836441165782000,5.715781982421875,-0.07742167785465717,0.005101772126910509,0.0007165416383650154
1782836441175711200,5.725711181640625,-0.06320727454125881,-0.0018556195377372204,-0.006252256194641813
1782836441185640200,5.73564013671875,-0.07487900763452053,0.00412010015004489,-0.0032926026714500036
1782836441195570000,5.74556982421875,-0.07966916452050209,-0.007655975808747461,0.008542084164870902
1782836441205499000,5.755498779296875,-0.08640344121158122,-0.0056411847955692785,0.011342665535677223
1782836441215428000,5.765427978515625,-0.08565583771467208,-0.002545454119800706,0.00019415259892120956
1782836441225357000,5.775357177734375,-0.0754816497027874,-0.0014941583935142262,0.006192050440004095
1782836441235286000,5.7852861328125,-0.09373860640525818,-0.0071277552501385795,0.0003670066814869642
1782836441245216300,5.79521630859375,-0.08820318410992622,-0.009354998278975835,0.0035675288890022784
1782836441255145000,5.80514501953125,-0.07997311590313912,-0.004754181961124413,-0.005573754144879058
1782836441265074000,5.815073974609375,-0.07698094834983349,0.0011897492115065687,-0.01056579027851112
1782836441275003000,5.8250029296875,-0.07653262006044387,0.004788360508650657,0.005986837590951472
1782836441284932000,5.83493212890625,-0.08236790208518505,0.012100046074506826,0.0007849032999947666
1782836441294862000,5.844862060546875,-0.08386486264467238,0.007475193006408517,-0.002365788416424766
1782836441304791000,5.854791015625,-0.08326572770774364,0.002721047007080051,0.0018757307440042494
1782836441314720300,5.86472021484375,-0.07892565267682075,-0.004311651512392564,0.005062361423484981
1782836441324649200,5.874649169921875,-0.07847732438743114,-0.011819286054500843,0.0024549462709110227
1782836441334577700,5.88457763671875,-0.08461129709780216,-0.0007038225790427532,0.002677329450473189
1782836441344506600,5.894506591796875,-0.07847557082176208,-0.004010961807565764,0.00201085576522164
1782836441354436400,5.904436279296875,-0.075333181142807,-0.006897567790033645,0.011907834270922466
1782836441364365600,5.914365478515625,-0.07892565267682075,-0.012541982297372306,0.004287367596151307
1782836441374294500,5.92429443359375,-0.07189268530011177,0.0008500940445373998,-0.009745870464062318
1782836441384223500,5.934223388671875,-0.0795247876137495,0.0055996426422061625,0.003188795237103477
1782836441394152400,5.94415234375,-0.07563479443788527,-0.0016809331160446163,-0.00016499956967309115
1782836441404082400,5.95408251953125,-0.0789279907643795,0.0008725850083807017,-0.004322502841614186
1782836441414011400,5.964011474609375,-0.0844657511472702,0.0026581914959853746,-0.0021593151920475066
1782836441423942700,5.973942626953125,-0.07204466099143028,-0.0007842365797143429,0.004489064180711284
1782836441433872400,5.983872314453125,-0.06845511206686496,-0.0029396199487382543,0.0009277641030959785
1782836441443801300,5.99380126953125,-0.0786310536444187,-0.0064854792869824445,0.0014329006136395035
1782836441453730600,6.00373046875,-0.07773381254374981,-0.006468876353697851,0.0028700207446701823
1782836441463659500,6.013659423828125,-0.0808756177008152,0.0028141538092546397,0.011321047358913346
1782836441473588500,6.02358837890625,-0.08027531372010707,0.0002784584650653414,-0.0021480266130529343
1782836441483518500,6.0335185546875,-0.07713233951926231,-0.007165076744466205,0.0006431384754367173
1782836441493447400,6.043447509765625,-0.07623276033103465,0.0011835880425453069,-0.0008836600998882204
1782836441503376400,6.05337646484375,-0.08551146080791949,0.0012356461671122814,0.0024795692555140704
1782836441513305300,6.063305419921875,-0.08162088311016559,-0.0022392616893717786,-0.0037872451874427495
1782836441523234300,6.073234375,-0.07967559426128863,-0.003050797838787548,0.001712557805236429
1782836441533163500,6.08316357421875,-0.07623334485292434,0.00532858146148501,0.0014511943221557884
1782836441543093500,6.093093505859375,-0.08162146763205527,-0.004105186564936593,-0.000585855330247432
1782836441553022500,6.1030224609375,-0.08730886561870574,-0.0017678390771179691,0.003619496538257226
1782836441562951700,6.11295166015625,-0.09374386710226536,-0.005009493016864871,0.0017930665623862294
1782836441572880400,6.12288037109375,-0.0825222158640623,-0.0006544533122505526,0.004947904730960726
1782836441582809300,6.132809326171875,-0.08342179505228996,0.004476753544642997,-0.0020623576235957444
1782836441592739600,6.142739501953125,-0.07968143948018551,-0.002569048197464144,0.0006753693777602165
1782836441602668500,6.15266845703125,-0.07459376095235347,-0.005002349748380947,-0.009205836170073598
1782836441612597500,6.162597412109375,-0.07219955929219722,-0.007169731799163855,-0.0027383297895547
1782836441622526500,6.1725263671875,-0.07908347358703613,-0.007833981561288237,0.0009228687322698533
1782836441632455700,6.18245556640625,-0.08701368206441402,-0.0039383158402299156,-0.004219718320574611
1782836441642385400,6.192385498046875,-0.0805792651027441,-0.010665555150335421,0.003695283454516902
1782836441652314400,6.202314453125,-0.07773673515319823,-0.004721880276853335,0.005263053361047059
1782836441662243300,6.212243408203125,-0.07893383598327636,-0.001483962368129869,0.006810821659164502
1782836441672172500,6.222172607421875,-0.08881050235331057,-0.008860878636079723,-0.0002965900600887835
1782836441682101500,6.2321015625,-0.07683949405252934,-0.00023877890440344342,0.0025404051978141066
1782836441692031500,6.242031494140625,-0.07175240004658699,-0.010817703229945618,0.0065590662546455855
1782836441701960400,6.25196044921875,-0.08970891249775886,0.000582195218570996,-0.003350452072219923
1782836441711889400,6.261889404296875,-0.07833645461201667,0.005094439345470164,-0.0017028766614384948
1782836441721818400,6.271818359375,-0.07669044097065925,0.008357589306039153,0.0002607515617273748
1782836441731747300,6.281747314453125,-0.07250000354349613,0.0026914721402572467,-0.0029969807257410135
1782836441741677600,6.291677490234375,-0.07474573664367198,0.005171324523561634,-0.0014402528030332178
1782836441751606500,6.3016064453125,-0.07654080336689949,0.004235873729287414,0.0031228629945777354
1782836441761535500,6.311535400390625,-0.07818623248636722,-0.0017421766253653912,0.0020813271855469793
1782836441771464700,6.321464599609375,-0.09060673812031746,0.0010809037007944425,0.008338086025370284
1782836441781393400,6.331393310546875,-0.07519406493306159,0.0017326547409495104,0.0068575651440303765
1782836441791323400,6.341323486328125,-0.07369827341735363,0.0041655644224549175,0.002460873688198626
1782836441801252400,6.35125244140625,-0.08432195876240729,-0.002340856617034296,-0.005115790377464145
1782836441811181600,6.361181640625,-0.08372399286925793,0.004707672513343277,-0.0018933029333129524
1782836441821110500,6.371110595703125,-0.07429740835428238,0.0025581851663882844,-0.004216585648572072
1782836441831039500,6.38103955078125,-0.07923661832213401,0.0007799873795709572,-0.003237575415428728
1782836441840968400,6.390968505859375,-0.08207856374979018,0.0033841465625562704,-0.008228031513327733
1782836441850898400,6.4008984375,-0.07878653646707534,0.004713479487155564,-0.00029047997971065343
1782836441860827400,6.410827392578125,-0.07833762365579605,0.005155061229460989,-0.0022278229841496792
1782836441870756400,6.42075634765625,-0.07833820817768573,0.0041732122977264224,0.00014105243850499392
1782836441880685600,6.430685546875,-0.08432371232807635,-0.0014865493341494583,0.007418815755983814
1782836441890614500,6.440614501953125,-0.07354980485737324,-0.003196175396782928,-0.0030340613331180065
1782836441900544500,6.45054443359375,-0.0756429777443409,-0.007359833844052627,0.005207779509853572
1782836441910473500,6.460473388671875,-0.06681377460062503,-0.003248136196171981,-0.0002329319730401039
1782836441920402400,6.47040234375,-0.08042962749898433,-0.005163348425549338,0.0047938284141011535
1782836441930331400,6.480331298828125,-0.07145195579528808,-0.008436773755782633,0.002058914424339309
1782836441940260400,6.49026025390625,-0.0799818837314844,-0.002420055908153881,-0.007128628037218004
1782836441950190600,6.500190673828125,-0.08342179505228996,0.0004981964547478128,-0.009070884678792208
1782836441960119600,6.51011962890625,-0.08835925145447254,-0.0012613246018852804,-0.004546018532337621
1782836441970048500,6.520048583984375,-0.07189853051900863,-0.0042377825585834215,-0.006428580875927582
1782836441979977500,6.5299775390625,-0.08012918324768543,-0.006168950408918317,-0.0009624883566051721
1782836441989906400,6.539906494140625,-0.0780348413169384,-0.0045006535829830675,-0.0012970906058326363
1782836441999836400,6.54983642578125,-0.07848258508443832,-0.0039427177353005384,0.005842296287417411
1782836442009765400,6.559765380859375,-0.06785773069560527,-0.005022435838473029,0.00082225790200755
1782836442019694600,6.569694580078125,-0.08102583982646465,-0.0019679265140148342,0.003527863598894328
1782836442029623600,6.57962353515625,-0.07922960405945778,-0.0012969889994885306,-0.0030189550955314185
1782836442039552500,6.589552490234375,-0.07863339173197746,-0.011165050796314607,-0.004717429576488212
1782836442049482500,6.599482421875,-0.08282441368103027,-0.002176169857903733,-0.009187432863702997
1782836442059411500,6.609411376953125,-0.07803717940449714,-0.005184153180738212,-0.0032985483550466597
1782836442069340400,6.61934033203125,-0.07399696410298347,-0.005996063218667405,0.0049381961876992135
1782836442079269400,6.629269287109375,-0.08372340834736823,-0.003979578005324583,0.005250285211019217
1782836442089198300,6.6391982421875,-0.08267536059916018,-0.00018520439077401532,0.000027435996197164058
1782836442099128600,6.649128662109375,-0.06935644482076167,-0.005164440979159553,-0.0004541369756683707
1782836442109057500,6.6590576171875,-0.07294774731099606,-0.011786765174521133,0.009604717560857534
1782836442118986500,6.668986572265625,-0.0771370156943798,-0.00318193509640987,0.007856394322495908
1782836442128915500,6.67891552734375,-0.06501753883361816,-0.0006075956629530992,0.0026511629627551884
1782836442138844400,6.688844482421875,-0.06711304980814456,-0.004699306543797138,-0.0022067619298119096
1782836442148774400,6.6987744140625,-0.07025602400898932,-0.0032337275032623437,-0.007493132234364748
1782836442158703600,6.70870361328125,-0.07414718622863292,0.004112447708196123,-0.004998922532144933
1782836442168632600,6.718632568359375,-0.08282675176858902,0.00356534606507048,-0.0016315193251240998
1782836442178561500,6.7285615234375,-0.07848726125955581,0.003912458452710416,0.002137560017965734
1782836442188490500,6.738490478515625,-0.08147942881286144,0.0010404877795488572,0.0018722144795116037
1782836442198420500,6.74842041015625,-0.07773965776264667,0.005098489899502601,-0.0064770687933079895
1782836442208349400,6.758349365234375,-0.0722048199892044,0.0026765525615162914,0.004887507180077954
1782836442218278400,6.7682783203125,-0.09524842644631862,0.0005676683654746739,0.00299776617703028
1782836442228207400,6.778207275390625,-0.08731763344705104,-0.0005363256624288623,-0.002654907556110993
1782836442238136600,6.788136474609375,-0.08611994809508323,-0.005974228700305684,-0.0007875153821893036
1782836442248066300,6.79806640625,-0.08207973279356956,-0.009277382448522256,0.004891544034378603
1782836442257995300,6.807995361328125,-0.08387538403868675,0.002739643822162179,0.004289230759674683
1782836442267924500,6.817924560546875,-0.0717559071779251,0.0031377243494585855,0.004339033851306885
1782836442277853400,6.827853515625,-0.07624561981260776,-0.006259930898554739,-0.004262105290731415
1782836442287782400,6.837782470703125,-0.07834113078713417,0.001182434125553118,-0.007591934700030833
1782836442297711400,6.84771142578125,-0.07175707622170448,-0.0020986042598000495,0.0044910095426253975
1782836442307641600,6.8576416015625,-0.0716080231398344,0.002757227998736198,-0.0036080526956357058
1782836442317570600,6.867570556640625,-0.07714402995705603,-0.006547125796746695,-0.001466455823369324
1782836442327499300,6.877499267578125,-0.08372691547870635,0.0013103536586713744,0.002807632166100666
1782836442337429200,6.88742919921875,-0.0760953976869583,-0.0018428388296219053,-0.003950646455073729
1782836442347358200,6.897358154296875,-0.06621873131692409,-0.007929022879755939,-0.0015105141608044504
1782836442357288200,6.9072880859375,-0.07729191399514675,-0.0073570779146743,-0.0029472598324995487
1782836442367217200,6.917217041015625,-0.08223112396299838,0.0001642734838882461,-0.003075644585676491
1782836442377146400,6.927146484375,-0.08447627254128455,-0.005019428747345228,0.004964024748699739
1782836442387075000,6.937074951171875,-0.08657178351581096,-0.002395784550000098,0.0015837711932603269
1782836442397004000,6.947004150390625,-0.07534954775571823,0.007882973514634068,-0.0012889894977677612
1782836442406934300,6.956934326171875,-0.0868710587233305,0.004726898374443408,-0.0009841887317597867
1782836442416863200,6.96686328125,-0.08732114057838916,-0.0011141552331362617,-0.001357077164761722
1782836442426792200,6.976792236328125,-0.08387947569191455,-0.0019336138232814845,-0.008843514796858652
1782836442436721200,6.98672119140625,-0.084626494666934,-0.003094747149190516,-0.006187310332804918
1782836442446650400,6.996650390625,-0.07519815658628941,-0.0094070755260851,0.007957754071429372
1782836442456580000,7.006580078125,-0.07295359252989292,-0.011029295587434899,0.0055740190063603215
1782836442466509000,7.016509033203125,-0.07370236507058144,-0.004434713919769274,-0.0005958835339173674
1782836442476438300,7.026438232421875,-0.07564882296323776,0.0055166782081330894,-0.004429662143671885
1782836442486367200,7.0363671875,-0.08148468950986862,0.00047366993908945005,-0.0002524312579538673
1782836442496296200,7.046296142578125,-0.0789414347678423,0.0038694492864015046,-0.0028757472325582054
1782836442506226200,7.05622607421875,-0.08432838850319385,-0.006015079588035587,-0.008862539157737047
1782836442516155100,7.066155029296875,-0.08028934224545956,-0.00196449130626861,-0.010019472374208272
1782836442526084000,7.076083984375,-0.07056289800107479,-0.004253118837499642,-0.006532689704373478
1782836442536013000,7.086012939453125,-0.07250701780617237,-0.0013100054571550572,-0.005366504602367058
1782836442545942000,7.09594189453125,-0.06966390333473682,-0.0005480982986133312,0.0002945716329384595
1782836442555872300,7.105872314453125,-0.0754986008375883,-0.002432864015732775,0.0005696165814995766
1782836442565801200,7.11580126953125,-0.07594692912697791,0.0038348763007641537,-0.0007183682692702859
1782836442575730200,7.125730224609375,-0.08238017704486847,-0.0016679606116842478,0.001345870784157887
1782836442585659400,7.135659423828125,-0.07325228321552277,-0.008339869844613712,0.0032969135203864425
1782836442595588000,7.145588134765625,-0.06951075859963894,-0.007872539456409868,0.005460539561370387
1782836442605518000,7.15551806640625,-0.07773907324075699,0.003197101270323037,-0.0038421445793006565
1782836442615447300,7.165447265625,-0.08222878587543964,0.005172507267072797,-0.007021222139988094
1782836442625376300,7.175376220703125,-0.07863865242898464,0.006364455285531585,-0.002984075578395277
1782836442635305200,7.18530517578125,-0.08642097686827183,-0.0023012997831363463,-0.005899141041189432
1782836442645234200,7.195234130859375,-0.08073533244729042,0.0031694186789536613,-0.007002782300999388
1782836442655164200,7.2051640625,-0.07654606406390667,0.005216988583726925,-0.0010638024397660046
1782836442665093000,7.215093017578125,-0.07774374941587447,-0.0026523531269544037,-0.0011646781315095723
1782836442675022000,7.22502197265625,-0.08941606703102588,-0.00399079751483805,0.005205468821758404
1782836442684951000,7.234950927734375,-0.08208323992490768,0.005206700085152988,0.008692105361120774
1782836442694880300,7.24488037109375,-0.08582301097512245,-0.010681708275759592,0.009247711683576926
1782836442704810200,7.254810302734375,-0.08073708601295948,-0.002709222996901371,0.0059580864205025135
1782836442714739200,7.2647392578125,-0.07460194425880909,0.0015572342419618507,-0.004817574615869671
1782836442724668200,7.274668212890625,-0.07235796472430228,-0.0017516973681369562,-0.0011189027610234916
1782836442734597000,7.28459716796875,-0.07026362279355526,-0.0009553313883894589,-0.005998053104709833
1782836442744526000,7.294526123046875,-0.08238426869809627,0.0014815860354865434,-0.008362014890229329
1782836442754456300,7.304456298828125,-0.09285890096127987,0.004610799997393042,-0.005205815881630406
1782836442764385300,7.31438525390625,-0.08268295938372612,-0.0037875305985216982,0.008590416818624361
1782836442774314200,7.324314208984375,-0.0717605833530426,-0.0036676670785178427,0.008816078800661488
1782836442784243200,7.3342431640625,-0.08597674023211002,-0.007983934258879163,0.007089282407518476
1782836442794172200,7.344172119140625,-0.07999123608171939,-0.002631119113502791,-0.005023180190566927
1782836442804102100,7.35410205078125,-0.08238660678565501,-0.004344352201352012,-0.001696976643614471
1782836442814031000,7.364031005859375,-0.07460603591203689,0.0031431968214863442,0.009925684010377153
1782836442823960000,7.3739599609375,-0.0671241557240486,-0.0068109084241325035,-0.00322780294008553
1782836442833889300,7.38388916015625,-0.06832125655412674,-0.00495864474986156,-0.0014312657789792864
1782836442843818200,7.393818359375,-0.08597849379777908,-0.0009624581030308035,-0.001460035215737298
1782836442853747200,7.403747314453125,-0.07700023757219314,0.005592416033687186,0.0027313977252691984
1782836442863677200,7.41367724609375,-0.073259297478199,0.012599348782596644,-0.00907929631411098
1782836442873606100,7.423606201171875,-0.07385843241512775,0.004775614049864816,-0.004667361623374745
1782836442883535000,7.43353515625,-0.07894669546484946,0.0012109107305441284,-0.0021608495620079335
1782836442893464000,7.443464111328125,-0.07430792974829674,0.0016624242075748042,0.0005342256077099591
1782836442903394300,7.453394287109375,-0.07894786450862884,-0.0032821240890974876,-0.0013542367537040263
1782836442913323300,7.4633232421875,-0.07894786450862884,-0.00031114145853789523,0.004591163715161383
1782836442923252200,7.473252197265625,-0.08343874618709086,0.0012135736159107182,0.0007369451055768876
1782836442933181200,7.48318115234375,-0.07386369311213493,-0.006161958408306236,0.00007415208159945905
1782836442943110100,7.493110107421875,-0.06713058546483516,-0.003354632202882203,-0.0019020798948127776
1782836442953039000,7.5030390625,-0.06593465367853642,-0.0011351711925235576,-0.005351708892034367
1782836442962969000,7.512968994140625,-0.07955401370823383,0.0028819475028372833,-0.0020856471676379443
1782836442972898300,7.522898193359375,-0.0809013366639614,0.009215189661952899,-0.007368820868106559
1782836442982827300,7.5328271484375,-0.07760872485935688,-0.002910245440492872,-0.00033391726263798773
1782836442992756200,7.542756103515625,-0.0735685095578432,-0.006119387062592432,0.008247329868841916
1782836443002685200,7.552685302734375,-0.07730828060805797,-0.006505468908129842,-0.00002263195691630244
1782836443012615200,7.562615234375,-0.08000175747573375,-0.002634555462893331,-0.005400598668213933
1782836443022544100,7.572544189453125,-0.08015081055760383,-0.0017661774138163309,0.003916707652853802
1782836443032473000,7.58247314453125,-0.07984919726252555,-0.010727538445172831,0.003521278594480827
1782836443042402300,7.59240234375,-0.0801478879481554,-0.002973506806141813,-0.0028315427646506577
1782836443052331300,7.602331298828125,-0.08493512222468852,0.0031227944959187877,-0.00916696546440944
1782836443062261000,7.612260986328125,-0.07490940277278423,-0.0037709550647006835,-0.005256075630988925
1782836443072190200,7.622190185546875,-0.08194061658382415,0.0020422498422616626,-0.004076236462965607
1782836443082119200,7.632119140625,-0.07999415869116783,-0.009209613871114561,0.0034097536445595322
1782836443092048100,7.642048095703125,-0.08164017233252525,-0.0029215134698897596,0.004758821032801642
1782836443101977000,7.65197705078125,-0.08104279096126556,0.01113932041672524,0.0010310144150163978
1782836443111907300,7.6619072265625,-0.07924830875992775,0.0024715606206387746,-0.005222127695614471
1782836443121836300,7.671836181640625,-0.07999825034439563,-0.0040527385688357755,-0.008829568469896912
1782836443131765200,7.68176513671875,-0.07251695467829704,-0.007105690690447227,-0.001531830943468958
1782836443141694000,7.69169384765625,-0.07521043154597282,-0.005498615682590752,-0.005162917454820126
1782836443151623200,7.701623046875,-0.06683072573542595,-0.0035950864703190744,-0.0006393664826173335
1782836443161553200,7.71155322265625,-0.07236673255264758,-0.004409103412833065,0.004340897014830261
1782836443171482000,7.721482177734375,-0.07326455817520618,0.0005345338516752235,-0.0013490217224694787
1782836443181411300,7.731411376953125,-0.06937456499934196,0.0031766041882772696,-0.0063825223776511845
1782836443191340300,7.74134033203125,-0.07356617147028446,-0.002587979799741879,0.003210714807966724
1782836443201269200,7.751269287109375,-0.07416472188532353,-0.002365006960890605,-0.006254018893465399
1782836443211199200,7.76119921875,-0.0732680653065443,-0.001070681417590822,0.0059326779846102
1782836443221128200,7.771128173828125,-0.0764098704636097,-0.0004633323498099344,0.0061087286712601776
1782836443231057200,7.78105712890625,-0.07685995231866836,-0.008124615662981522,-0.0047596886824816465
1782836443240986000,7.790986083984375,-0.0810498052239418,-0.003976836346500204,0.0019879498136695472
1782836443250915300,7.800915283203125,-0.08568857094049454,-0.002751554597308859,-0.00283486723289825
1782836443260845300,7.81084521484375,-0.07536299175918101,-0.0013192516344686736,-0.0018723332105204462
1782836443270774000,7.82077392578125,-0.07745850273370743,0.0075159890952112614,0.0006309183146804571
1782836443280703000,7.830702880859375,-0.07895604781508446,-0.0027980406413815216,-0.0006327906113583594
1782836443290632200,7.840632080078125,-0.08748656027317046,0.002070587166646146,-0.010644983861409127
1782836443300561200,7.85056103515625,-0.07536766793429851,-0.0048907728536432835,-0.0060380745878443115
1782836443310491100,7.8604912109375,-0.07207622517347335,0.0026342649144149616,-0.010548583415383473
1782836443320420400,7.87042041015625,-0.07492109321057797,-0.006343553490575868,-0.0016052706390153617
1782836443330348800,7.880348876953125,-0.08689385507702826,0.0018427994428930105,-0.00299854249516502
1782836443340277800,7.89027783203125,-0.08914017269909381,0.0015194526649749604,0.0011837481581605971
1782836443350206700,7.900206787109375,-0.08001169434785843,-0.008676378639848553,-0.0009884356486145407
1782836443360136700,7.91013671875,-0.08689327055513858,-0.0067417516072368015,0.0009555380260106175
1782836443370065700,7.920065673828125,-0.0803086314678192,0.002459809104874148,-0.009464048714842646
1782836443379994600,7.92999462890625,-0.075969140958786,-0.00837785006771155,-0.007202515257336199
1782836443389923600,7.939923583984375,-0.07836217357516288,-0.007715488585285492,-0.002293362501030788
1782836443399852800,7.949852783203125,-0.0717775344878435,-0.004886286191482213,-0.00716978203151375
1782836443409782500,7.959782470703125,-0.08644260417819023,0.002635844379325863,-0.0024813319543376565
1782836443419711500,7.96971142578125,-0.08419920916557312,0.0022260465855943037,0.0017701423445250837
1782836443429640700,7.979640625,-0.08135609469413757,0.004338914549475885,-0.004848399012396112
1782836443439569700,7.989569580078125,-0.07641863829195499,0.004939341256947955,-0.0077335259946528815
1782836443449498600,7.99949853515625,-0.08644435774385928,0.004988634604393155,-0.010857439302001148
1782836443459428900,8.009428955078125,-0.0812070416122675,-0.0038060914518078786,-0.0072922393674030896
1782836443469357800,8.01935791015625,-0.07836334261894226,-0.0036978224714752286,0.007011595795117318
1782836443479286800,8.029286865234376,-0.0690852266639471,-0.0011404176189767894,0.004795837708096951
1782836443489215500,8.039215576171875,-0.08614449801445007,-0.0005238497733458643,-0.0003445573876611888
1782836443499144700,8.049144775390625,-0.08255378004610538,-0.00496023791450425,-0.007844731284165754
1782836443509074700,8.05907470703125,-0.07836451166272163,-0.0005334327357326401,-0.003884778144629672
1782836443519003600,8.069003662109376,-0.07926233728528022,0.00031404066427785437,0.003745196144003421
1782836443528932600,8.0789326171875,-0.08494681266248226,-0.0030535811676294542,-0.0038932080462574957
1782836443538861800,8.08886181640625,-0.0752197838962078,-0.009545773894010927,0.0005163885569199919
1782836443548790800,8.098790771484374,-0.07656593780815601,-0.004688943838342675,-0.0019906988931819797
1782836443558720500,8.108720458984376,-0.07521861485242844,0.001072955573067884,-0.004596524876868352
1782836443568649700,8.118649658203125,-0.0810544813990593,0.001858904619255918,-0.001760132407164201
1782836443578578700,8.12857861328125,-0.07791209172010422,0.000652444589076913,-0.0012601652620825917
1782836443588507600,8.138507568359374,-0.0762654935568571,0.00009748843305860646,-0.009039457494067028
1782836443598436600,8.1484365234375,-0.08060673763155937,-0.0004318509369797539,0.00456633066800423
1782836443608366800,8.158366943359376,-0.08719254576265811,-0.00996438917761552,0.0008317015837877988
1782836443618295600,8.168295654296875,-0.07626783164441585,-0.003172083847608883,-0.0020901132802013307
1782836443628224500,8.178224609375,-0.08120587256848812,-0.002196097259435919,-0.0001169409105554223
1782836443638153700,8.18815380859375,-0.08524667239189147,-0.003561503290303517,-0.006288158625084907
1782836443648082700,8.198082763671875,-0.08360182779431342,0.00363828457876225,-0.0038545108705293385
1782836443658012700,8.2080126953125,-0.0737251614242792,-0.0039761958840390434,0.004873935312451795
1782836443667941600,8.217941650390625,-0.08285188620984554,0.004913040626022848,-0.010743576264521106
1782836443677870800,8.227870849609374,-0.07656710685193538,-0.004697731074641342,-0.0004097681109793484
1782836443687799800,8.2377998046875,-0.08045826907157898,-0.000374620878251153,0.004147082342626527
1782836443697728500,8.247728515625,-0.07432429636120796,-0.007225860171127715,-0.003585046279383823
1782836443707658800,8.25765869140625,-0.09108312346041202,-0.0017445152837462954,-0.0009703702689614147
1782836443717587700,8.267587646484374,-0.08135667921602725,-0.002180226120157749,-0.002773419369244948
1782836443727516700,8.2775166015625,-0.08315233046114444,0.0006755406244075857,-0.007255113094253465
1782836443737445600,8.287445556640625,-0.08105974209606646,-0.003178935996792279,-0.007645235789846628
1782836443747374800,8.297374755859375,-0.0746270787000656,-0.006086385550355771,-0.0006427640161011368
1782836443757304600,8.3073046875,-0.07911620681285858,0.003339333027406246,0.0031341241741087286
1782836443767233500,8.317233642578126,-0.07702069583833217,0.0017878874929476295,-0.0026694475381169465
1782836443777162800,8.327162841796875,-0.07851648735404014,-0.005192670988978352,-0.006836595421237871
1782836443787091700,8.337091796875,-0.07477437821626663,-0.00470204477768857,-0.0037272220958955585
1782836443797020700,8.347020751953124,-0.07881283995211123,-0.004131232323768199,-0.005058826892683282
1782836443806950700,8.35695068359375,-0.07836392714083194,-0.0065410950606485125,-0.004906065750075504
1782836443816879900,8.3668798828125,-0.08808978686332702,0.0005216840740788029,-0.00021800839854404328
1782836443826808600,8.37680859375,-0.07791326076388358,-0.004057371932291425,0.0006863748289644717
1782836443836737500,8.386737548828124,-0.07342354812920093,-0.0033844901974953243,-0.0027572171531151978
1782836443846666500,8.39666650390625,-0.07207739421725273,-0.00435052278887888,-0.0012937296049669385
1782836443856596700,8.4065966796875,-0.07971008105278014,-0.006220019584096735,-0.009494105926388875
1782836443866525700,8.416525634765625,-0.08075812880098819,-0.004471452033851528,-0.005352613074332475
1782836443876454700,8.42645458984375,-0.08315291498303413,0.0026315221139462663,-0.004515997853409498
1782836443886383900,8.4363837890625,-0.07402502115368842,-0.0020973344659098074,-0.01277821476412937
1782836443896312800,8.446312744140625,-0.08614625158011913,-0.006108230914338491,0.0030287001714110373
1782836443906242600,8.45624267578125,-0.07013619702160358,-0.001527146491430176,0.009214412202173844
1782836443916171800,8.466171875,-0.0788145935177803,-0.012793537914135959,0.00015912695131264627
1782836443926100700,8.476100830078124,-0.08674538651704787,-0.008408012310534832,-0.007179865034110844
1782836443936029700,8.48602978515625,-0.07507482246756553,0.004167872827261453,-0.006827736261347308
1782836443945958700,8.495958740234375,-0.06684650782644748,0.0018625281983142485,-0.008021786617813631
1782836443955888600,8.505888671875,-0.06654664809703827,0.0009204119137022643,-0.006947051792079583
1782836443965817600,8.515817626953124,-0.07956511962413787,-0.0009044066312169888,0.0005502908265218138
1782836443975746600,8.52574658203125,-0.06744388919770718,-0.0072555092448310455,-0.005420810339180752
1782836443985675500,8.535675537109375,-0.07941548202037811,-0.006476081841796985,-0.006354255264392122
1782836443995605800,8.545605712890625,-0.08061141380667686,-0.001183582619734807,-0.0028318532919045535
1782836444005534700,8.55553466796875,-0.08031155407726764,-0.00024425337430875515,-0.0029188831213861704
1782836444015463700,8.565463623046876,-0.06340133580863476,-0.00035709492553723975,0.0016852405400481073
1782836444025393000,8.575392822265625,-0.07701835775077343,-0.0031096718653308925,0.005118128465022891
1782836444035321600,8.585321533203125,-0.07372691498994827,-0.005389400279120309,-0.0047772974044084544
1782836444045251600,8.59525146484375,-0.07672083610892295,-0.0006324680968391476,-0.002967325372993946
1782836444055180800,8.605180908203126,-0.08061199832856655,0.0008700933696614811,-0.00567992706624791
1782836444065109800,8.61510986328125,-0.077768883857131,-0.007377040136358118,0.001349880238994956
1782836444075038700,8.625038818359375,-0.0765706139832735,-0.004613767701791949,-0.0017158274745568633
1782836444084967700,8.6349677734375,-0.07417641232311725,0.004373308867777814,-0.0018675474375486373
1782836444094897700,8.644897705078124,-0.0816594615548849,0.004890846489701652,0.002652578601706773
1782836444104826600,8.65482666015625,-0.08180968368053436,-0.0019471471604119868,0.00007926664813421666
1782836444114755600,8.664755615234375,-0.08884265105724334,-0.0015920900699784397,-0.00009496654076501726
1782836444124684500,8.6746845703125,-0.08854337584972381,-0.0021102470339435966,-0.0006835070184431969
1782836444134613800,8.68461376953125,-0.07313128718435764,-0.0033359654620857327,-0.005408471447415649
1782836444144543700,8.694543701171876,-0.06983984442353249,-0.0016973961979005253,0.0018874120486434547
1782836444154472700,8.70447265625,-0.07971709531545638,-0.0013636678773968013,-0.00482060682317242
1782836444164401700,8.714401611328125,-0.09273556684255599,0.0023487736349532494,-0.0015376944286748767
1782836444174330600,8.72433056640625,-0.07388122876882552,0.0020695759551934314,-0.0057144503903575235
1782836444184259600,8.734259521484375,-0.06894260332286357,-0.00045604266544251,-0.002199829865526408
1782836444194189800,8.74418994140625,-0.08480360479950905,0.000012076598983549046,-0.005443634092342108
1782836444204118800,8.754118896484375,-0.07642389898896217,0.000970162775107019,-0.0060518291185609994
1782836444214047700,8.7640478515625,-0.07642389898896217,0.0021789723092879285,-0.005317596559878439
1782836444223976700,8.773976806640626,-0.07208499300181866,-0.007676051053218543,-0.004447672724397853
1782836444233906000,8.783906005859375,-0.0740302818506956,-0.0071870984924957155,-0.0054802671751473095
1782836444243835600,8.793835693359375,-0.07807166619598865,-0.004526469871307199,-0.010562666739663109
1782836444253764600,8.8037646484375,-0.08121405587494372,-0.002815107653080486,-0.01145193459643051
1782836444263693600,8.813693603515626,-0.07343231595754623,0.0041314072807595945,-0.004208192279562354
1782836444273622800,8.823622802734375,-0.06819499982595444,-0.001476592197838181,-0.003159998400881886
1782836444283551700,8.8335517578125,-0.0767237587183714,-0.0023921235820904257,-0.005682393017970026
1782836444293481500,8.8434814453125,-0.08166121512055396,0.00406203126815526,-0.001091996487788856
1782836444303410700,8.85341064453125,-0.07328150931000708,0.0006844308941057534,-0.0041069421284832056
1782836444313339600,8.863339599609375,-0.07522738268077372,-0.006775196648290148,-0.00295128755364567
1782836444323268600,8.8732685546875,-0.07522621363699436,-0.0038156527229526544,-0.004362058533867821
1782836444333197600,8.883197509765624,-0.07627426138520241,0.00012475175555300665,-0.017563375814585013
1782836444343127800,8.8931279296875,-0.0780699126303196,-0.00012036013528122565,0.0014073551804292947
1782836444353056800,8.903056884765626,-0.07642331446707248,0.0009318803016765741,-0.0063130647374782705
1782836444362985700,8.91298583984375,-0.0728325964987278,0.002432157337901299,-0.0010925262107513844
1782836444372914700,8.922914794921875,-0.07357961547374725,-0.0050372509567590895,-0.007420907248370349
1782836444382843600,8.93284375,-0.08150982395112515,-0.0015386374268797226,-0.006345478302892297
1782836444392773600,8.942773681640626,-0.07537468219697475,0.0030846924022902384,0.0002713825535960495
1782836444402702600,8.95270263671875,-0.07612287021577357,-0.006065681830688845,0.009370927071291953
1782836444412631800,8.9626318359375,-0.07747019317150115,-0.005175263196451124,0.00021306736194528638
1782836444422560800,8.972560791015624,-0.08869242893159389,-0.0007552650719124357,-0.00006950330594554543
1782836444432489700,8.98248974609375,-0.08540098617076873,-0.006671353822969831,-0.0005465553663205355
1782836444442419700,8.992419677734375,-0.08285539334118366,-0.002396863403878524,0.002557255867915228
1782836444452348700,9.0023486328125,-0.07791793693900108,0.0038534457163827028,0.0016445888692513107
1782836444462277600,9.012277587890624,-0.08180851463675498,-0.004008288076578174,-0.0024085589790716765
1782836444472206600,9.02220654296875,-0.07567395740449429,-0.00730885942535242,-0.005148240475496277
1782836444482135800,9.0321357421875,-0.08270750930309295,-0.006579019913997035,-0.0007307436936534941
1782836444492065800,9.042065673828125,-0.08420446986258029,-0.0056841688457032425,0.007766250087320804
1782836444501994500,9.051994384765624,-0.06519990966320037,0.0006558444058493478,0.0009314995632972567
1782836444511923700,9.061923828125,-0.08629822727143764,-0.005094341164059006,0.0032225057104602454
1782836444521852700,9.071852783203125,-0.084949150750041,-0.008066653810246498,-0.0036049382899422198
1782836444531781600,9.08178173828125,-0.08135667921602725,-0.006517976192431524,-0.002459704644419253
1782836444541711600,9.091711669921875,-0.08330196806490421,-0.0014867636778697487,-0.007958740452118217
1782836444551640800,9.101640869140626,-0.07911211515963078,-0.004417745089481468,-0.005438218131707981
1782836444561569800,9.11156982421875,-0.07327741765677928,-0.005020512738623074,-0.001209138327743858
1782836444571498800,9.121498779296875,-0.07148001284599304,-0.006088679684608359,-0.007490063494443893
1782836444581427500,9.131427490234374,-0.07581950335502624,-0.0029664745625676003,-0.008689840338798238
1782836444591357700,9.141357666015624,-0.07387421450614928,-0.007540155992910149,0.0015060480482410638
1782836444601286700,9.15128662109375,-0.07342588621675968,-0.004419957596165477,0.003990932799689472
1782836444611215600,9.161215576171875,-0.08494856622815132,-0.0015259925744379869,-0.005668894215580075
1782836444621144800,9.171144775390625,-0.07986205674409866,-0.005425330679849139,-0.008577876997459679
1782836444631073800,9.18107373046875,-0.07671966706514358,-0.0014611072197498287,0.0012567403291352092
1782836444641003500,9.19100341796875,-0.08495031979382038,-0.0016816917386924615,-0.0002642678262200206
1782836444650932700,9.2009326171875,-0.07896423112154007,-0.005293767588897026,-0.005322738525876775
1782836444660861700,9.21086181640625,-0.07552198171317577,-0.0046550233024318,-0.00449595971237868
1782836444670790700,9.220790771484374,-0.07597147904634476,-0.008608523297472857,-0.009315461423853411
1782836444680720600,9.230720703125,-0.08016074742972851,-0.005357453646231442,-0.00870283681768924
1782836444690649900,9.24064990234375,-0.07761749268770217,-0.0002673625385490595,0.0038322442397940902
1782836444700578800,9.250578857421875,-0.07612053212821483,-0.003971103294157364,0.0026840240527410057
1782836444710507500,9.260507568359374,-0.0713332978516817,-0.0058213984882168005,0.004678303142497316
1782836444720436500,9.2704365234375,-0.07776713029146194,-0.005973678998567629,-0.004716059603309258
1782836444730365700,9.28036572265625,-0.08016250099539757,-0.0031213217747514134,-0.005859019093355164
1782836444740295700,9.290295654296875,-0.06549801582694054,-0.005151382280653342,-0.01004356563584879
1782836444750224600,9.300224609375,-0.07118424476981162,0.0018050992080636205,-0.012420140307769178
1782836444760153900,9.31015380859375,-0.08420154725313186,0.0005350701390925678,0.0051833209220319984
1782836444770082800,9.320082763671875,-0.08105974209606646,0.0015215093372098634,-0.0008340031387284398
1782836444780009700,9.330009765625,-0.07357844642996787,0.0023168184397320147,-0.0051143199395854025
1782836444789938700,9.339938720703126,-0.07597323261201382,-0.006317500025645131,-0.00003956482540816069
1782836444799868700,9.34986865234375,-0.08480126671195029,-0.006405955768877174,-0.006737080569518729
1782836444809798000,9.3597978515625,-0.08210778984427451,-0.0012981668910113512,-0.004488580123521387
1782836444819726600,9.3697265625,-0.0699871439397335,-0.009831391039758455,-0.00914715565224178
1782836444829655600,9.379655517578126,-0.07746785508394241,0.0022524411167643846,-0.0028962876970879733
1782836444839584500,9.38958447265625,-0.08644611130952834,-0.0018587993025677859,-0.0019714462034404277
1782836444849514800,9.3995146484375,-0.08105915757417678,-0.011982431593805085,-0.004663425233773887
1782836444859443700,9.409443603515625,-0.0822562584042549,-0.0003609017385082552,0.0007016180638689547
1782836444869372700,9.41937255859375,-0.08614683610200881,0.0020061581842732265,0.0008682890008203685
1782836444879302000,9.429302001953126,-0.07253098320364952,-0.006348266198311466,-0.004950571612082421
1782836444889230800,9.43923095703125,-0.08001344791352748,0.007012164333986584,-0.0010942980427294969
1782836444899160600,9.44916064453125,-0.08285656238496303,-0.0013261229061943595,-0.004090584648726508
1782836444909089500,9.459089599609374,-0.08210720532238483,-0.0022830166348299825,-0.007912946815323084
1782836444919018800,9.469018798828126,-0.08599778302013873,0.00306442079499684,-0.0030967147731687872
1782836444928947700,9.47894775390625,-0.08914017269909381,-0.00646658564437821,-0.004591967432759702
1782836444938876700,9.488876708984375,-0.09048691113293171,-0.0033926398254436204,0.0012141432964242994
1782836444948806700,9.498806640625,-0.07253039868175983,-0.0027543975770662654,-0.0013094477639067918
1782836444958735600,9.508735595703126,-0.08120937969982624,-0.00841739377269987,-0.003987160806870088
1782836444968664600,9.51866455078125,-0.074775547260046,0.00030037232770700935,0.00103852186803706
1782836444978593500,9.528593505859375,-0.07612345473766327,-0.0025147832744347397,-0.0019047741753980517
1782836444988523800,9.538523681640624,-0.07956511962413787,-0.004497628225546214,-0.0016375654734205453
1782836444998452700,9.54845263671875,-0.08465221363008021,0.005530731278838357,-0.005923764025792479
1782836445008381700,9.558381591796875,-0.08121054874360562,-0.0006098070279927924,0.005471608944656327
1782836445018311000,9.568310791015625,-0.07238251464366913,0.0015530486884890705,0.0012347476930357514
1782836445028239600,9.578239501953124,-0.07462649417817592,-0.003679731404824997,-0.002472965984791517
1782836445038169600,9.588169677734374,-0.08405541678071021,-0.000592209151686984,0.0009720142367761581
1782836445048098600,9.5980986328125,-0.07328150931000708,-0.00569975286143599,0.002768268270092085
1782836445058027800,9.60802783203125,-0.07492693842947483,-0.003120831153106701,-0.0036385026328265664
1782836445067956700,9.617956787109375,-0.08180968368053436,-0.005340544752270216,-0.008203554659197107
1782836445077885700,9.6278857421875,-0.08465162910819053,-0.00817279704886314,-0.004057997553376481
1782836445087815700,9.637815673828126,-0.07432780349254607,-0.0029890348813030867,-0.0011977584172040224
1782836445097744600,9.64774462890625,-0.07672142063081264,0.007943622798088471,-0.0021577168900053945
1782836445107673600,9.657673583984375,-0.077768883857131,-0.0047836600735914545,-0.0025073979773558674
1782836445117602600,9.6676025390625,-0.07836626522839069,-0.0031336826431695953,-0.0025475655909627673
1782836445127531800,9.67753173828125,-0.08884206653535366,0.0010670341494129387,-0.00456282353666611
1782836445137461800,9.687461669921875,-0.08824234707653522,-0.0032055334552394924,-0.003414174091350287
1782836445147390700,9.697390625,-0.07926642893850804,-0.00811063451586815,0.0033974421522580084
1782836445157319700,9.707319580078124,-0.049643444091081616,-0.00470330429677997,0.005136860564956441
1782836445167248600,9.71724853515625,-0.09005085780322551,-0.01204121600126964,0.0003139339205343276
1782836445177177600,9.727177490234375,-0.09125146576464176,-0.019135820754588348,0.005961054695723578
1782836445187107600,9.737107666015625,-0.11429273413419723,-0.00502344276875956,0.010002466440480202
1782836445197036800,9.747036865234374,-0.1048608889222145,0.013197504188702441,0.006233761556725948
1782836445206965800,9.7569658203125,-0.06954232278168201,0.01895450366270961,-0.016868479752447454
1782836445216894700,9.766894775390625,-0.08884148201346397,-0.005505583137850044,-0.018751681416854262
1782836445226823700,9.77682373046875,-0.053225394231081004,-0.013965193775703664,-0.02554638305827975
1782836445236753700,9.786753662109374,-0.04619184233248234,-0.012361685835511888,-0.01426155779021792
1782836445246682600,9.7966826171875,-0.08794014925956725,-0.007720324019785039,-0.0031228264619596303
1782836445256611600,9.806611572265625,-0.07971008105278014,0.0030531182308594,0.020953484043758363
1782836445266540800,9.816540771484375,-0.08853753063082695,-0.008122948291458305,0.016684474088205024
