time,seconds_elapsed,z,y,x
1782836435535938600,0.0859384765625,-0.0012046247720718384,-0.002133263275027275,-0.00112196896225214
1782836435545867500,0.095867431640625,0.00016423966735601425,-0.0003790389746427536,-0.0030815228819847107
1782836435555796500,0.10579638671875,-0.00012413598597049713,-0.0017675478011369705,0.0008116234093904495
1782836435565725400,0.115725341796875,0.00014670751988887787,0.0013012122362852097,0.0009604943916201591
1782836435575655400,0.125655517578125,0.0013379398733377457,-0.00005540158599615097,0.00015195831656455994
1782836435585584400,0.13558447265625,0.0005278056487441063,-0.0023707542568445206,0.0009940499439835548
1782836435595513300,0.145513427734375,-0.0005475981160998344,-0.0030129263177514076,0.0021329978480935097
1782836435605442600,0.155442626953125,-0.0006759632378816605,-0.00233355350792408,0.001190238632261753
1782836435615371500,0.16537158203125,0.001828102394938469,-0.0009067095816135406,0.0013059629127383232
1782836435625300500,0.175300537109375,-0.0007082922384142876,0.0015966622158885002,-0.000995540525764227
1782836435635230500,0.18523046875,0.00002793874591588974,0.0006393315270543098,0.00010153558105230331
1782836435645159400,0.195159423828125,-0.0012237466871738434,-0.00028718169778585434,-0.00280663650482893
1782836435655088400,0.20508837890625,-0.0002883831039071083,0.002253744751214981,0.0011846283450722694
1782836435665017300,0.215017333984375,-0.00012965872883796692,-0.0002775900065898895,0.002018730156123638
1782836435674946300,0.2249462890625,0.001948608085513115,0.0006136195734143257,0.0002799946814775467
1782836435684875500,0.23487548828125,0.00014458317309617996,-0.0011469963937997818,0.0008123600855469704
1782836435694805500,0.244805419921875,-0.0004119081422686577,0.0005549788475036621,0.00240183062851429
1782836435704734200,0.254734130859375,0.0010230029001832008,0.00019598472863435745,-0.000026705674827098846
1782836435714663400,0.264663330078125,-0.0009986571967601776,-0.000012781471014022827,-0.0007165130227804184
1782836435724592400,0.27459228515625,0.00033984798938035965,-0.00028895121067762375,-0.0008853571489453316
1782836435734521300,0.284521240234375,-0.0023695630952715874,0.000986977480351925,0.00016976986080408096
1782836435744451600,0.29445166015625,0.001001998782157898,0.0007299827411770821,0.00042703188955783844
1782836435754380500,0.304380615234375,0.0004495866596698761,-0.0013508060947060585,0.0008058641105890274
1782836435764309500,0.3143095703125,-0.00025535188615322113,0.0002979561686515808,0.001133698970079422
1782836435774238500,0.324238525390625,-0.00007712282240390778,-0.0013762246817350388,0.0021925298497080803
1782836435784167400,0.33416748046875,-0.002058780752122402,0.0002413792535662651,0.001763494685292244
1782836435794096400,0.344096435546875,0.0009747808799147606,-0.0003160834312438965,0.0007170010358095169
1782836435804026400,0.3540263671875,0.000314849428832531,0.0014783544465899467,0.0007257899269461632
1782836435813955600,0.36395556640625,0.00006673205643892288,-0.0013553863391280174,0.001528209075331688
1782836435823884500,0.373884521484375,-0.0010669752955436707,0.002463053911924362,0.0003580152988433838
1782836435833813500,0.3838134765625,-0.0020703738555312157,-0.0009523546323180199,-0.0006645666435360909
1782836435843742500,0.393742431640625,-0.0014019208028912544,0.0005952082574367523,-0.0036851237528026104
1782836435853671400,0.40367138671875,-0.0008107703179121017,0.002877618186175823,-0.0035662418231368065
1782836435863601400,0.413601318359375,-0.0011311490088701248,0.0008781170472502708,-0.0006759129464626312
1782836435873530400,0.4235302734375,0.0011276109144091606,0.0016815215349197388,-0.0006517982110381126
1782836435883459300,0.433459228515625,0.0003680773079395294,-0.0022306619212031364,0.00234425812959671
1782836435893388500,0.443388427734375,-0.001545492559671402,-0.00185368862003088,0.002579938620328903
1782836435903317500,0.4533173828125,-0.0005385512486100197,-0.002032386139035225,0.0014544865116477013
1782836435913246500,0.46324658203125,-0.000010588206350803375,0.00024025049060583115,0.0010887784883379936
1782836435923176400,0.473176513671875,0.00028901733458042145,-0.0021531321108341217,0.0013843895867466927
1782836435933105400,0.48310546875,0.0004713814705610275,-0.005171443801373243,0.001091216690838337
1782836435943034400,0.493034423828125,-0.0010458221659064293,0.0007397085428237915,-0.0022039124742150307
1782836435952963300,0.50296337890625,0.00037534814327955246,-0.0010545141994953156,-0.0035638930276036263
1782836435962892500,0.512892578125,-0.0005812589079141617,0.0018214331939816475,-0.0013414854183793068
1782836435972821500,0.522821533203125,-0.0007126415148377419,0.000361626036465168,-0.0017132707871496677
1782836435982751500,0.53275146484375,0.0012013725936412811,0.0019587241113185883,0.0023595010861754417
1782836435992680200,0.54268017578125,0.0011504348367452621,-0.0012303302064538002,0.000430411659181118
1782836436002609400,0.552609375,-0.0001236218959093094,0.0011856891214847565,-0.0021259565837681293
1782836436012538400,0.562538330078125,0.0022346870973706245,0.00007977988570928574,0.0007002614438533783
1782836436022467300,0.57246728515625,-0.0010311473160982132,0.000059273093938827515,0.0012675151228904724
1782836436032396300,0.582396240234375,-0.0004058806225657463,0.0008787792176008224,0.0010436996817588806
1782836436042326500,0.592326416015625,0.003421880304813385,0.0003892900422215462,0.00038722995668649673
1782836436052255500,0.60225537109375,0.0015156418085098267,0.00023506861180067062,-0.0003400314599275589
1782836436062184400,0.612184326171875,-0.000013811513781547546,-0.001344185322523117,0.00011004321277141571
1782836436072113400,0.622113525390625,-0.002183816395699978,0.00028406549245119095,-0.0007565352134406567
1782836436082042400,0.63204248046875,0.0001373952254652977,-0.00005335640162229538,-0.0006516063585877419
1782836436091972400,0.641972412109375,-0.0004798024892807007,0.0006896806880831718,0.003233383409678936
1782836436101901600,0.651901611328125,0.0019284943118691444,-0.0030448706820607185,0.0009731585159897804
1782836436111830500,0.66183056640625,0.0014211712405085564,-0.002383965067565441,0.0005208635702729225
1782836436121759500,0.671759521484375,0.00046802591532468796,-0.0021663848310709,0.0023802826181054115
1782836436131688400,0.6816884765625,-0.0008923802524805069,-0.0020179282873868942,0.0009893551468849182
1782836436141617700,0.69161767578125,-0.0013166218996047974,-0.0024240603670477867,0.00022502802312374115
1782836436151547400,0.70154736328125,0.00003801286220550537,0.0006223432719707489,-0.0003228168934583664
1782836436161476400,0.711476318359375,0.00015359465032815933,0.0006191469728946686,0.0004846537485718727
1782836436171405300,0.7214052734375,0.00028773024678230286,0.0011729532852768898,0.000120590440928936
1782836436181334500,0.73133447265625,-0.0016627693548798561,0.000818752683699131,-0.00022215861827135086
1782836436191263500,0.741263427734375,-0.001709924079477787,-0.00040624476969242096,-0.00358078395947814
1782836436201192400,0.7511923828125,-0.0016904836520552635,0.0013652900233864784,-0.0022404147312045097
1782836436211122400,0.761122314453125,-0.0007623285055160522,-0.000053044408559799194,-0.0007574297487735748
1782836436221051400,0.771051513671875,-0.0016257250681519508,0.0011821296066045761,-0.0016730246134102345
1782836436230980400,0.78098046875,0.001310570165514946,-0.0010957391932606697,0.0005631083622574806
1782836436240909300,0.790909423828125,0.0011095022782683372,0.0014100288972258568,0.0014528706669807434
1782836436250838500,0.800838623046875,0.0003009047359228134,0.0002805730327963829,-0.00020852219313383102
1782836436260767500,0.810767578125,0.0015832167118787766,-0.000013972632586956024,0.0007422259077429771
1782836436270697500,0.820697509765625,-0.0002597253769636154,-0.0019922684878110886,0.0005491208285093307
1782836436280626400,0.83062646484375,0.0000193743035197258,-0.000779464840888977,-0.0007590241730213165
1782836436290555400,0.840555419921875,-0.0005082683637738228,-0.0011130794882774353,-0.002247893251478672
1782836436300484400,0.850484375,0.00017935968935489655,-0.0006547495722770691,-0.0016100662760436535
1782836436310413300,0.860413330078125,-0.0006168987601995468,-0.0007579587399959564,-0.0003812601789832115
1782836436320342500,0.870342529296875,-0.0009473972022533417,0.0007850769907236099,-0.0004004351794719696
1782836436330276600,0.880276611328125,0.002610151655972004,-0.0022199945524334908,0.0028187138959765434
1782836436340205600,0.89020556640625,0.00019173510372638702,-0.004541471600532532,0.002039206214249134
1782836436350134500,0.900134521484375,0.0012109111994504929,-0.0010380474850535393,0.0012691197916865349
1782836436360063700,0.910063720703125,-0.00034597329795360565,0.00028288085013628006,-0.00011625653132796288
1782836436369992700,0.91999267578125,-0.00012993812561035156,0.0010357266291975975,-0.0007571754977107048
1782836436379921700,0.929921630859375,0.0012977821752429008,-0.0013011973351240158,0.00017173495143651962
1782836436389851600,0.9398515625,0.0002193087711930275,-0.00009040720760822296,0.0003611687570810318
1782836436399780900,0.94978076171875,-0.0011420994997024536,-0.0032305410131812096,0.0011353502050042152
1782836436409709600,0.95970947265625,0.0021750284358859062,-0.0007349690422415733,0.0029480401426553726
1782836436419638500,0.969638427734375,0.000004285946488380432,0.0006575975567102432,-0.0016773375682532787
1782836436429567500,0.9795673828125,-0.00001072511076927185,0.0014956537634134293,0.0010921647772192955
1782836436439497700,0.989497802734375,0.001102476380765438,0.00003650784492492676,0.0003323648124933243
1782836436449426700,0.9994267578125,-0.0013280576094985008,-0.000029729679226875305,0.0002400726079940796
1782836436459355600,1.009355712890625,0.0008024713024497032,-0.001177019439637661,0.0027327919378876686
1782836436469284900,1.019284912109375,-0.0013508955016732216,-0.0003987671807408333,0.002689097076654434
1782836436479213800,1.0292138671875,0.00020758621394634247,0.0010611778125166893,-0.0007144231349229813
1782836436489142800,1.039142822265625,0.0015760306268930435,-0.0020298101007938385,0.000020110048353672028
1782836436499072800,1.04907275390625,0.0012266235426068306,-0.00031233765184879303,0.0009194593876600266
1782836436509001700,1.059001708984375,-0.0015077628195285797,0.00021645333617925644,-0.00009841844439506531
1782836436518930700,1.0689306640625,0.0006336858496069908,0.0015957038849592209,0.00005631148815155029
1782836436528859600,1.078859619140625,-0.0024942494928836823,0.000988527201116085,-0.00007289927452802658
1782836436538788900,1.088788818359375,0.0015705330297350883,-0.000016016885638237,0.0004331013187766075
1782836436548717800,1.0987177734375,0.0008252114057540894,-0.000802675262093544,0.00018348079174757004
1782836436558647600,1.1086474609375,-0.0024131927639245987,0.001659417524933815,-0.0006042821332812309
1782836436568576500,1.118576416015625,-0.0008484413847327232,-0.000854802317917347,-0.00005247723311185837
1782836436578505700,1.128505615234375,0.0005403971299529076,0.0013899756595492363,-0.0001598023809492588
1782836436588434700,1.1384345703125,0.0014521237462759018,0.0007370142266154289,0.0022262046113610268
1782836436598363600,1.14836376953125,0.001966114155948162,-0.0022683637216687202,0.0003193812444806099
1782836436608292600,1.158292724609375,0.0007207896560430527,0.000020937062799930573,0.00014432333409786224
1782836436618222600,1.16822265625,0.0001375572755932808,-0.001727161929011345,-0.003790230955928564
1782836436628151600,1.178151611328125,-0.00015810783952474594,-0.0012382753193378448,0.0008459137752652168
1782836436638080500,1.18808056640625,-0.0014532031491398811,-0.001964785158634186,-0.0016369512304663658
1782836436648009700,1.198009765625,0.0007862774655222893,-0.002294364385306835,-0.0012435782700777054
1782836436657938700,1.207938720703125,0.0002853367477655411,-0.0001910002902150154,0.0033051008358597755
1782836436667867600,1.21786767578125,0.00008373521268367767,-0.0011342912912368774,-0.00025661103427410126
1782836436677798000,1.2277978515625,0.002419860102236271,-0.0018754499033093452,-0.001608697697520256
1782836436687726800,1.237726806640625,-0.0002475269138813019,0.00036007165908813477,-0.0007064747624099255
1782836436697655600,1.247655517578125,-0.0014081327244639397,-0.0011731106787919998,0.0034666983410716057
1782836436707584500,1.25758447265625,-0.0015605147927999496,0.0008794711902737617,0.0008626030758023262
1782836436717513500,1.267513427734375,-0.0013029873371124268,-0.0004632947966456413,-0.0011749817058444023
1782836436727442700,1.277442626953125,-0.000043004751205444336,0.001364968717098236,-0.0008277320303022861
1782836436737372700,1.28737255859375,-0.001954355277121067,0.0025415532290935516,-0.0009805974550545216
1782836436747301600,1.297301513671875,0.0001653917133808136,0.0017374390736222267,-0.00044144969433546066
1782836436757230800,1.30723095703125,0.00010387226939201355,-0.0005062734708189964,0.0009926622733473778
1782836436767159800,1.317159912109375,-0.002137710340321064,-0.000642627477645874,0.00046775396913290024
1782836436777088800,1.3270888671875,0.0005416963249444962,-0.0007808459922671318,0.003378055989742279
1782836436787017500,1.337017578125,-0.0010338341817259789,0.0014524199068546295,0.0011752350255846977
1782836436796947700,1.34694775390625,-0.00002130027860403061,-0.0020568277686834335,-0.0005379761569201946
1782836436806876700,1.356876708984375,0.0005784761160612106,-0.0010212510824203491,0.0016857394948601723
1782836436816805600,1.3668056640625,0.0010839449241757393,-0.0029829349368810654,0.0003541586920619011
1782836436826734800,1.37673486328125,-0.0003554215654730797,0.00043642614036798477,-0.0008416976779699326
1782836436836663800,1.386663818359375,0.0004890672862529755,-0.0011625364422798157,-0.003067301120609045
1782836436846593500,1.396593505859375,-0.0009797988459467888,-0.0016256365925073624,-0.0019726846367120743
1782836436856522500,1.4065224609375,0.0004130341112613678,-0.0024088723585009575,-0.00005946960300207138
1782836436866451700,1.41645166015625,0.0010632118210196495,0.0010676011443138123,-0.00015465496107935905
1782836436876380700,1.426380615234375,-0.0023850491270422935,-0.00002988707274198532,0.00033510010689496994
1782836436886309600,1.4363095703125,0.0016094278544187546,0.0012557227164506912,-0.0019434639252722263
1782836436896238600,1.446238525390625,-0.0009336238726973534,0.0010442668572068214,-0.001751982606947422
1782836436906168600,1.45616845703125,0.001039433293044567,-0.00006572064012289047,0.00020836666226387024
1782836436916097500,1.46609765625,0.0009166616946458817,0.001730049028992653,-0.0016728905029594898
1782836436926026500,1.476026611328125,-0.0010551940649747849,0.0016341544687747955,-0.00038076238706707954
1782836436935955700,1.485955810546875,-0.00022215675562620163,0.003308749757707119,-0.0003272327594459057
1782836436945884700,1.495884765625,0.0015356652438640594,0.0012589897960424423,0.0007372526451945305
1782836436955813600,1.505813720703125,-0.002191429026424885,-0.0017208205536007881,0.0007388507947325706
1782836436965743900,1.515743896484375,-0.00026689562946558,0.0001935269683599472,0.0029459428042173386
1782836436975672800,1.5256728515625,0.0004566852003335953,0.0001903316006064415,-0.0005949963815510273
1782836436985601500,1.5356015625,0.00007089227437973022,0.00035241618752479553,-0.0017361720092594624
1782836436995530500,1.545530517578125,0.0008107181638479233,0.0004509538412094116,-0.0017090076580643654
1782836437005459700,1.555459716796875,-0.0017033517360687256,-0.0005817785859107971,-0.003009411972016096
1782836437015388700,1.565388671875,0.00032304786145687103,-0.0014020325616002083,-0.004069882445037365
1782836437025318700,1.575318603515625,0.00018602795898914337,0.0008762255311012268,0.00030996929854154587
1782836437035247600,1.58524755859375,-0.0011748475953936577,-0.0009227395057678223,-0.0008919150568544865
1782836437045176800,1.5951767578125,0.0000919075682759285,0.0009027719497680664,0.0011258451268076897
1782836437055105800,1.605105712890625,-0.001614646054804325,-0.0007153647020459175,0.00045978836715221405
1782836437065034800,1.61503466796875,0.00023937318474054337,-0.002039664424955845,0.0021546147763729095
1782836437074964700,1.62496484375,-0.00009032618254423141,0.0018163267523050308,0.000009172596037387848
1782836437084893700,1.634893798828125,0.00003424752503633499,0.0019286470487713814,-0.0011481097899377346
1782836437094822700,1.64482275390625,-0.0008685635402798653,0.0020080087706446648,-0.0003510257229208946
1782836437104751600,1.654751708984375,-0.001830204389989376,0.002122645266354084,-0.00003302004188299179
1782836437114680800,1.664680908203125,-0.0005697300657629967,-0.00001747068017721176,0.0020040320232510567
1782836437124609800,1.67460986328125,-0.0003452058881521225,0.0003207363188266754,0.002409805543720722
1782836437134539500,1.68453955078125,0.00034055765718221664,-0.0007943296805024147,-0.0008613555692136288
1782836437144468700,1.69446875,-0.00015993602573871613,-0.0012619541957974434,0.0008915076032280922
1782836437154397700,1.704397705078125,0.0023695342242717743,-0.0015618260949850082,-0.0002672332338988781
1782836437164326700,1.71432666015625,-0.0001721912994980812,0.00017505232244729996,-0.0026966934092342854
1782836437174255600,1.724255615234375,-0.0014172187075018883,-0.0006646430119872093,-0.000180006492882967
1782836437184184800,1.734184814453125,0.0004080897197127342,0.0003541950136423111,-0.0003159507177770138
1782836437194114600,1.744114501953125,-0.0000523710623383522,-0.0008452925831079483,-0.0009250156581401825
1782836437204043500,1.75404345703125,0.0013807015493512154,0.0009255586192011833,-0.0011549945920705795
1782836437213972500,1.763972412109375,0.0008792281150817871,0.00005097687244415283,-0.0004876065067946911
1782836437223901700,1.773901611328125,-0.001094631850719452,0.00008967425674200058,0.003056194633245468
1782836437233830700,1.78383056640625,-0.0000927504152059555,-0.0018198126927018166,0.00004149600863456726
1782836437243759600,1.793759521484375,0.0014718594029545784,0.0006457241252064705,0.00035802554339170456
1782836437253689900,1.80368994140625,0.0005136542022228241,0.00001189112663269043,0.001719699241220951
1782836437263618800,1.813618896484375,0.0003815675154328346,0.0011730827391147614,0.0008811624720692635
1782836437273547800,1.8235478515625,-0.001546294428408146,0.004240510985255241,0.0004731658846139908
1782836437283476500,1.8334765625,0.0013222284615039825,0.0003662770614027977,0.0020464733242988586
1782836437293405700,1.84340576171875,0.0004122266545891762,-0.0002435864880681038,0.0004792027175426483
1782836437303335700,1.853335693359375,-0.0025716759264469147,0.002700584940612316,0.0005087759345769882
1782836437313264600,1.8632646484375,-0.0011170580983161926,0.0018662167713046074,0.00023313798010349274
1782836437323190500,1.8731904296875,-0.0017396947368979454,-0.000008032657206058502,0.0016046827659010887
1782836437333119700,1.88311962890625,-0.000689077191054821,-0.00015716999769210815,0.000931967981159687
1782836437343048400,1.89304833984375,0.00255382526665926,-0.00023640226572752,0.0019511859863996506
1782836437352977400,1.902977294921875,0.0016840370371937752,-0.0004419982433319092,-0.0011034593917429447
1782836437362907600,1.91290771484375,-0.0005870768800377846,0.0014081066474318504,-0.003017811570316553
1782836437372836600,1.922836669921875,0.0012659505009651184,0.001717565581202507,-0.0015605301596224308
1782836437382765600,1.932765625,-0.0020572366192936897,0.000631486065685749,-0.0014521908015012741
1782836437392694500,1.942694580078125,0.0015920931473374367,-0.0012239385396242142,-0.0010676304809749126
1782836437402623700,1.952623779296875,-0.0035471459850668907,-0.0005390197038650513,-0.0008688471280038357
1782836437412552700,1.962552734375,-0.00034123286604881287,-0.0009637940675020218,0.0006105387583374977
1782836437422482400,1.972482421875,-0.0016186153516173363,-0.00016834773123264313,0.0007500359788537025
1782836437432411600,1.98241162109375,-0.0009509613737463951,0.000492381863296032,-0.00016209622845053673
1782836437442340600,1.992340576171875,0.000350169837474823,0.0005180463194847107,-0.00116450572386384
1782836437452269600,2.00226953125,0.0017954669892787933,0.0007851617410778999,-0.0014039240777492523
1782836437462198500,2.012198486328125,-0.001954709179699421,0.0011857878416776657,0.0002092607319355011
1782836437472127500,2.02212744140625,0.0014424193650484085,0.00015035085380077362,-0.00007809465751051903
1782836437482057500,2.032057373046875,0.0008181724697351456,-0.0000311974436044693,0.0007574129849672318
1782836437491986400,2.041986328125,0.0009643798694014549,0.001055372878909111,-0.0004772287793457508
1782836437501915400,2.051915283203125,0.00014551915228366852,0.00036473944783210754,0.0016196458600461483
1782836437511844600,2.0618447265625,-0.0004238644614815712,0.0006696712225675583,0.0013999356888234615
1782836437521773600,2.071773681640625,-0.0011700596660375595,0.0005271127447485924,-0.0006393161602318287
1782836437531703600,2.08170361328125,0.001809750683605671,-0.002082252874970436,-0.00039031077176332474
1782836437541632800,2.0916328125,-0.0025517744943499565,0.00034710485488176346,0.0013041640631854534
1782836437551561500,2.1015615234375,0.0003798333927989006,-0.00032401178032159805,0.00011106813326478004
1782836437561490400,2.111490478515625,0.0004025651142001152,-0.001713637262582779,0.0005481480620801449
1782836437571419400,2.12141943359375,-0.0024424903094768524,-0.00031707528978586197,-0.001659346278756857
1782836437581348600,2.1313486328125,0.0006910469383001328,-0.001005176454782486,0.00031500915065407753
1782836437591278600,2.141278564453125,0.0011025061830878258,0.0004917867481708527,0.00029796501621603966
1782836437601207600,2.15120751953125,-0.0009388430044054985,0.0020395349711179733,0.000581416767090559
1782836437611136500,2.161136474609375,-0.00015001464635133743,0.0005385773256421089,0.002374256495386362
1782836437621065700,2.171065673828125,-0.0007736468687653542,0.0019130920991301537,-0.0001920219510793686
1782836437630994400,2.180994384765625,-0.0004964116960763931,0.002469426952302456,0.0002793571911752224
1782836437640923400,2.19092333984375,-0.0029650405049324036,0.0026256395503878593,-0.0026235743425786495
1782836437650853600,2.200853515625,-0.0015426455065608025,0.001372089609503746,-0.0011276770383119583
1782836437660782600,2.210782470703125,0.0016473857685923576,0.0007156534120440483,0.0019866623915731907
1782836437670711600,2.220711669921875,0.0003285882994532585,-0.0000979425385594368,0.0004542791284620762
1782836437680640500,2.230640625,0.0000849766656756401,0.002125783823430538,0.0010380190797150135
1782836437690569700,2.24056982421875,0.0007968395948410034,-0.0005946354940533638,0.002190901432186365
1782836437700499500,2.25049951171875,-0.0018404927104711533,-0.0016308315098285675,0.0002662953920662403
1782836437710428400,2.260428466796875,0.0009686099365353584,0.0013484461233019829,-0.0006104172207415104
1782836437720357600,2.270357666015625,-0.000604662112891674,0.0007095383480191231,-0.000901657622307539
1782836437730286600,2.28028662109375,-0.0007378207519650459,-0.0021459031850099564,0.0010294010862708092
1782836437740215600,2.290215576171875,0.00013227574527263641,-0.00008632335811853409,0.003337719477713108
1782836437750144500,2.30014453125,-0.0023998580873012543,0.0021744342520833015,0.003077794797718525
1782836437760074500,2.310074462890625,0.0013472707942128181,0.0002984963357448578,0.00006163539364933968
1782836437770003500,2.32000341796875,0.0004191584885120392,0.0006686756387352943,0.00015085143968462944
1782836437779932400,2.329932373046875,-0.0020356588065624237,-0.0013536876067519188,-0.0005501359701156616
1782836437789861400,2.339861328125,-0.0012191329151391983,0.0008282409980893135,0.00120621919631958
1782836437799790600,2.34979052734375,-0.002123006619513035,-0.0006711939349770546,0.0010031946003437042
1782836437809719600,2.359719482421875,-0.0032343436032533646,-0.00009941402822732925,0.000550989992916584
1782836437819649500,2.3696494140625,-0.001544092781841755,0.0001558549702167511,-0.0003694347105920315
1782836437829578800,2.379578857421875,0.001306287944316864,0.001189427450299263,0.0004398999735713005
1782836437839507500,2.389507568359375,-0.0008250568062067032,-0.0003511635586619377,-0.0026199272833764553
1782836437849436400,2.3994365234375,-0.0008682003244757652,0.0006941277533769608,0.0008102245628833771
1782836437859365400,2.409365478515625,-0.0007322710007429123,0.0008636713027954102,0.00003896933048963547
1782836437869295600,2.419295654296875,-0.0004595629870891571,-0.0016865720972418785,0.0015314053744077682
1782836437879224600,2.429224609375,-0.0003429427742958069,-0.0005621779710054398,-0.0004108631983399391
1782836437889153500,2.439153564453125,0.00038143713027238846,-0.0020042797550559044,-0.0013136747293174267
1782836437899082800,2.449082763671875,-0.0011112429201602936,-0.0010360032320022583,0.0031504742801189423
1782836437909011700,2.45901171875,-0.002793296240270138,-0.0023068636655807495,0.003293486312031746
1782836437918940700,2.468940673828125,-0.00005209725350141525,-0.00037182774394750595,-0.0004783784970641136
1782836437928870400,2.478870361328125,-0.0007146913558244705,0.00008357223123311996,-0.0004988848231732845
1782836437938799600,2.488799560546875,0.0010601663962006569,0.0007284842431545258,-0.0008541271090507507
1782836437948728600,2.498728515625,0.000440448522567749,-0.00004463177174329758,-0.0003079129382967949
1782836437958657500,2.508657470703125,0.003549473360180855,-0.0009357687085866928,0.0018901042640209198
1782836437968586500,2.51858642578125,0.0013763345777988434,0.0008504129946231842,0.0014288444072008133
1782836437978515700,2.528515625,0.0012197820469737053,0.0023108655586838722,-0.00012885639443993568
1782836437988445400,2.538445556640625,0.00048128794878721237,0.004183599725365639,-0.0006380528211593628
1782836437998374400,2.54837451171875,-0.002519061788916588,-0.0005189962685108185,-0.00030863285064697266
1782836438008303600,2.5583037109375,0.002236544154584408,0.0020722588524222374,-0.0028764531016349792
1782836438018232600,2.568232666015625,-0.00008697248995304108,0.0005422979593276978,-0.0017318259924650192
1782836438028161500,2.57816162109375,0.00013114046305418015,0.00142753217369318,-0.00124073913320899
1782836438038091800,2.588091796875,0.0006843842566013336,0.0004655569791793823,0.0019566193222999573
1782836438048020500,2.5980205078125,0.0007597515359520912,0.00046981777995824814,-0.0006562084890902042
1782836438057949400,2.607949462890625,0.0008985903114080429,-0.001399034634232521,-0.00005015963688492775
1782836438067878400,2.61787841796875,0.0018298979848623276,-0.003004920668900013,0.0020236438140273094
1782836438077807600,2.6278076171875,-0.0022339830175042152,-0.0013553071767091751,0.00006503798067569733
1782836438087736600,2.637736572265625,0.0010267915204167366,-0.00207728985697031,-0.0009016892872750759
1782836438097666600,2.64766650390625,-0.001156151294708252,0.00021630898118019104,-0.0012081749737262726
1782836438107595500,2.657595458984375,-0.001379057765007019,-0.0019171489402651787,-0.00017007486894726753
1782836438117524700,2.667524658203125,0.003204227425158024,0.0005386238917708397,-0.000049097929149866104
1782836438127453400,2.677453369140625,0.0002824729308485985,-0.0006595328450202942,-0.001391064841300249
1782836438137382400,2.68738232421875,-0.0008161161094903946,0.00040222983807325363,0.0005372511222958565
1782836438147312600,2.697312744140625,0.0008321143686771393,-0.0008574454113841057,0.0018227584660053253
1782836438157241600,2.70724169921875,0.0004597678780555725,0.002087261527776718,0.0003440743312239647
1782836438167170600,2.717170654296875,0.0016222372651100159,0.0008009541779756546,-0.00032917270436882973
1782836438177099500,2.727099609375,-0.0010199109092354774,0.002046891488134861,-0.0014295512810349464
1782836438187028700,2.73702880859375,-0.0010609235614538193,0.0004268903285264969,-0.0002612224780023098
1782836438196957700,2.746957763671875,-0.0011472590267658234,-0.0006461078301072121,0.0008242009207606316
1782836438206887400,2.756887451171875,-0.0014785565435886383,-0.0010189507156610489,0.0010777339339256287
1782836438216816600,2.766816650390625,-0.00014881789684295654,0.0003037620335817337,-0.0010983957909047604
1782836438226745600,2.77674560546875,0.0013979459181427956,-0.0014813542366027832,-0.001950873527675867
1782836438236674600,2.786674560546875,0.00040919799357652664,0.0009761964902281761,0.002245149575173855
1782836438246603500,2.796603515625,-0.00023315567523241043,-0.0004536546766757965,-0.0005514356307685375
1782836438256532700,2.80653271484375,0.0012738881632685661,-0.0016662739217281342,0.0004230830818414688
1782836438266462500,2.81646240234375,-0.0005980478599667549,-0.0025357967242598534,0.00034744851291179657
1782836438276391400,2.826391357421875,0.001864713616669178,0.0019228765740990639,-0.0005706110969185829
1782836438286320400,2.8363203125,-0.002074633724987507,0.00046053435653448105,-0.0009514433331787586
1782836438296249600,2.84624951171875,-0.0032133888453245163,0.0006581097841262817,0.0012044962495565414
1782836438306178600,2.856178466796875,0.00003779865801334381,0.0014133825898170471,0.0005208635702729225
1782836438316108500,2.866108642578125,-0.0008099675178527832,0.0005308687686920166,-0.000512363389134407
1782836438326036500,2.876036376953125,0.0024356264621019363,0.002050735056400299,0.0011145612224936485
1782836438335965700,2.885965576171875,-0.003221132792532444,0.001415829174220562,0.0006573079153895378
1782836438345894700,2.895894775390625,-0.0014794254675507545,0.0030486127361655235,-0.0004404466599225998
1782836438355823600,2.90582373046875,0.0013948120176792145,0.0015647253021597862,-0.0008626384660601616
1782836438365752600,2.915752685546875,-0.0007418422028422356,0.0013498077169060707,0.0008985092863440514
1782836438375682600,2.9256826171875,0.0014837086200714111,-0.00025167595595121384,0.001267571933567524
1782836438385611500,2.935611572265625,0.0006000716239213943,0.0011656591668725014,0.00018339883536100388
1782836438395540500,2.94554052734375,0.0004574265331029892,0.0015921471640467644,-0.0013331244699656963
1782836438405469700,2.9554697265625,-0.00036389194428920746,0.0008568484336137772,0.0001028524711728096
1782836438415398700,2.965398681640625,-0.002813654951751232,-0.00318149384111166,-0.0007242187857627869
1782836438425328400,2.975328369140625,-0.0012381291016936302,-0.0029929419979453087,0.002097933553159237
1782836438435257300,2.98525732421875,-0.00020207930356264114,-0.0009650830179452896,0.000013940967619419098
1782836438445186600,2.9951865234375,-0.0007088789716362953,-0.0005006277933716774,0.0019790874794125557
1782836438455115500,3.005115478515625,0.0006530573591589928,0.00041967257857322693,-0.002362895291298628
1782836438465044500,3.01504443359375,0.0011974070221185684,-0.0009891390800476074,-0.001253955066204071
1782836438474973400,3.024973388671875,-0.0014203749597072601,-0.0011370759457349777,-0.0028819297440350056
1782836438484903700,3.034903564453125,0.0015836702659726143,-0.0006917957216501236,0.0023740846663713455
1782836438494832600,3.04483251953125,0.0019131526350975037,0.0006994009017944336,0.00036330055445432663
1782836438504761300,3.05476123046875,0.0003868956118822098,-0.000048947520554065704,0.0019249776378273964
1782836438514690600,3.064690673828125,0.0005486207082867622,0.0003257356584072113,0.0002840254455804825
1782836438524619500,3.07461962890625,-0.0007177125662565231,-0.00020822882652282715,-0.0005154553800821304
1782836438534549500,3.084549560546875,-0.000039966776967048645,0.0028710197657346725,-0.0018462929874658585
1782836438544478700,3.094478759765625,0.00009452365338802338,0.0005295686423778534,-0.000856129452586174
1782836438554407700,3.10440771484375,-0.00025318656116724014,-0.00015646684914827347,0.00015026889741420746
1782836438564336600,3.114336669921875,-0.00034826062619686127,0.00027443282306194305,0.001204879954457283
1782836438574265600,3.124265625,-0.0017958004027605057,-0.0018944786861538887,-0.0009416379034519196
1782836438584194600,3.134194580078125,-0.0004530344158411026,0.0006925156340003014,0.001330304890871048
1782836438594124500,3.14412451171875,0.0004992103204131126,-0.000293889082968235,-0.0016526230610907078
1782836438604053500,3.154053466796875,-0.0012334417551755905,-0.0010960334911942482,0.002325340174138546
1782836438613982500,3.163982421875,-0.0011058375239372253,-0.0010720891878008842,0.000046459026634693146
1782836438623911700,3.17391162109375,0.0012851478531956673,-0.0005961824208498001,-0.0008550211787223816
1782836438633840600,3.183840576171875,-0.001161954365670681,0.0008059116080403328,-0.0009173043072223663
1782836438643770400,3.193770263671875,0.001317715272307396,-0.001111564226448536,-0.00018919631838798523
1782836438653699600,3.203699462890625,-0.0031283413991332054,-0.0020486200228333473,-0.002452645916491747
1782836438663628500,3.213628662109375,-0.0006140507757663727,0.0006433026865124702,-0.001912290696054697
1782836438673557500,3.2235576171875,0.0014308234676718712,-0.0021447185426950455,0.0003224685788154602
1782836438683486500,3.233486572265625,0.00037328246980905533,0.0029749423265457153,-0.0013148426078259945
1782836438693415700,3.243415771484375,-0.0015196464955806732,0.0008653551340103149,0.0022372715175151825
1782836438703345700,3.253345703125,0.0011722762137651443,0.0007806671783328056,0.0006897086277604103
1782836438713274400,3.2632744140625,0.0006308909505605698,0.0019509075209498405,-0.0036169681698083878
1782836438723203600,3.27320361328125,0.0011044004932045937,0.0028129732236266136,0.0016664769500494003
1782836438733132500,3.283132568359375,0.002934025600552559,0.0016775857657194138,-0.000626846682280302
1782836438743061500,3.2930615234375,0.0006716707721352577,0.0014424286782741547,-0.0008071428164839745
1782836438752991500,3.302991455078125,0.0013916008174419403,-0.00011651962995529175,-0.0008742138743400574
1782836438762920700,3.312920654296875,0.0007260767742991447,-0.0014744652435183525,0.000028864480555057526
1782836438772849700,3.322849609375,-0.00014647841453552246,0.0007061045616865158,-0.0014983853325247765
1782836438782778600,3.332778564453125,0.0008117267861962318,-0.002072637900710106,-0.0009532365947961807
1782836438792707300,3.342707275390625,-0.0011974992230534554,0.000561949796974659,0.002271774224936962
1782836438802636500,3.352636474609375,-0.002631877548992634,0.0003393087536096573,0.0013985233381390572
1782836438812566500,3.36256640625,0.0013050632551312447,0.0019960878416895866,0.002074328251183033
1782836438822495500,3.37249560546875,0.0004033166915178299,-0.0003645382821559906,0.0011020079255104065
1782836438832424700,3.3824248046875,0.0014303456991910934,-0.0009605372324585915,0.001799500547349453
1782836438842353700,3.392353759765625,0.00041408371180295944,-0.0006417566910386086,-0.0012165289372205734
1782836438852282600,3.40228271484375,-0.0007522990927100182,-0.000311083160340786,-0.00165453739464283
1782836438862212600,3.412212646484375,0.001077292487025261,0.0010029207915067673,0.0006190035492181778
1782836438872141600,3.4221416015625,-0.0026451461017131805,0.00211250688880682,-0.0008160853758454323
1782836438882070500,3.432070556640625,0.00015223771333694458,0.00045096036046743393,0.0001775398850440979
1782836438891999500,3.44199951171875,-0.0005227476358413696,0.000007072463631629944,0.0011930717155337334
1782836438901928700,3.4519287109375,-0.0005922559648752213,0.0009788600727915764,0.0018572639673948288
1782836438911857700,3.461857666015625,-0.0004995241761207581,-0.0019002258777618408,0.0017114467918872833
1782836438921787400,3.471787353515625,0.0022789519280195236,0.00011685211211442947,-0.00011441623792052269
1782836438931716400,3.48171630859375,-0.0003373976796865463,0.0003016078844666481,0.0019067218527197838
1782836438941645600,3.4916455078125,0.0014735516160726547,-0.0008342303335666656,-0.0014235605485737324
1782836438951574500,3.501574462890625,0.00010966509580612183,0.0005060052499175072,0.0011122319847345352
1782836438961503500,3.51150341796875,-0.00006450526416301727,-0.0003531305119395256,-0.0013429359532892704
1782836438971433700,3.521433837890625,0.0010144654661417007,-0.002044270746409893,0.00171706173568964
1782836438981362700,3.53136279296875,-0.00048010051250457764,-0.0014330754056572914,-0.0016039004549384117
1782836438991291600,3.541291748046875,0.0008247783407568932,-0.0006888685747981071,-0.001137537881731987
1782836439001220400,3.551220458984375,0.00008441973477602005,-0.0005783475935459137,0.0019413428381085396
1782836439011149600,3.561149658203125,0.00031888578087091446,0.00010811537504196167,-0.0010815751738846302
1782836439021079600,3.57107958984375,-0.00026541203260421753,-0.0004639318212866783,-0.0008410913869738579
1782836439031008500,3.581008544921875,0.0003594057634472847,0.002832339145243168,-0.003946767654269934
1782836439040937700,3.590937744140625,-0.0016049416735768318,0.0009332383051514626,0.001253320835530758
1782836439050866700,3.60086669921875,0.0009663132950663567,0.0022547822445631027,0.0016156099736690521
1782836439060795600,3.610795654296875,-0.0017549050971865654,0.002472628839313984,0.002192983403801918
1782836439070724600,3.620724609375,0.0009333733469247818,-0.00036332663148641586,0.0024790726602077484
1782836439080654600,3.630654541015625,0.0009283125400543213,0.001199948601424694,-0.002824879251420498
1782836439090583600,3.64058349609375,-0.00006309803575277328,-0.00020141992717981339,0.0031519196927547455
1782836439100512500,3.650512451171875,0.0009033633396029472,0.000010301358997821808,-0.0007376270368695259
1782836439110441500,3.66044140625,0.0008752020075917244,0.0005628438666462898,-0.0022294819355010986
1782836439120370700,3.67037060546875,-0.0016263052821159363,-0.0010576890781521797,0.0011633848771452904
1782836439130300400,3.680300537109375,-0.001207609660923481,0.0014015743508934975,-0.002960213925689459
1782836439140229400,3.6902294921875,0.00021904520690441132,-0.0011542616412043571,0.002861456014215946
1782836439150158600,3.70015869140625,-0.0015444140881299973,-0.00025303568691015244,-0.0009170188568532467
1782836439160087600,3.710087646484375,0.0022700317203998566,0.0011544451117515564,0.00006622076034545898
1782836439170016500,3.7200166015625,-0.0001959400251507759,0.0004265541210770607,-0.0014764051884412766
1782836439179945500,3.729945556640625,0.0004232451319694519,-0.0008206041529774666,0.0003143046051263809
1782836439189875700,3.739875732421875,0.0015361011028289795,0.0003689546138048172,0.0004216628149151802
1782836439199804700,3.7498046875,0.0015661949291825294,-0.0031623970717191696,0.00008956622332334518
1782836439209733400,3.7597333984375,-0.0005726581439375877,-0.00022162031382322311,0.0007708324119448662
1782836439219662600,3.76966259765625,-0.0035844268277287483,0.0014987820759415627,-0.002316569909453392
1782836439229591600,3.779591552734375,0.000026681460440158844,0.0009028222411870956,-0.0014573372900485992
1782836439239521500,3.789521484375,-0.0005371104925870895,-0.0005342187359929085,0.001444176770746708
1782836439249450500,3.799450439453125,0.0003549410030245781,0.002967565320432186,0.00034081004559993744
1782836439259379700,3.809379638671875,0.001658557914197445,0.0015891129150986671,0.0007253708317875862
1782836439269308700,3.81930859375,-0.0021204454824328423,0.00014333240687847137,-0.0002463534474372864
1782836439279237600,3.829237548828125,-0.0025446871295571327,0.0018056780099868774,-0.0024128351360559464
1782836439289166300,3.839166259765625,0.001445956528186798,-0.0003356626257300377,-0.000418148934841156
1782836439299096600,3.8490966796875,-0.000003335997462272644,-0.001480022445321083,0.00268709659576416
1782836439309025500,3.859025634765625,0.0002839257940649986,-0.004267504438757896,0.001719556748867035
1782836439318954500,3.86895458984375,-0.0014460636302828789,0.00003403332084417343,-0.0014991401694715023
1782836439328884000,3.878884033203125,-0.0011538295075297356,-0.0011888733133673668,0.0008018845692276955
1782836439338813000,3.88881298828125,0.0010230382904410362,-0.001977435313165188,0.0019465107470750809
1782836439348742700,3.89874267578125,-0.0002396637573838234,0.0006062043830752373,0.0008279411122202873
1782836439358672000,3.908671875,-0.0012505995109677315,-0.0006619933992624283,-0.00043439725413918495
1782836439368600800,3.918600830078125,0.001569993793964386,-0.001017528586089611,-0.002523557748645544
1782836439378529800,3.92852978515625,-0.002238859422504902,0.0017002280801534653,-0.001765622291713953
1782836439388458800,3.938458740234375,0.00002107769250869751,-0.0013232212513685226,-0.00021780375391244888
1782836439398388700,3.948388671875,0.0004834020510315895,0.002863534726202488,-0.0008316622115671635
1782836439408317700,3.958317626953125,-0.00013185478746891022,0.0004570884630084038,-0.0002624429762363434
1782836439418246700,3.96824658203125,0.0008236868306994438,0.00020621810108423233,-0.001180967316031456
1782836439428175600,3.978175537109375,-0.00043255463242530823,0.0019421819597482681,-0.00011827144771814346
1782836439438104800,3.988104736328125,0.00011712219566106796,0.00039967894554138184,0.00044179148972034454
1782836439448033800,3.99803369140625,0.002970535308122635,0.0016153762117028236,0.001424817368388176
1782836439457963800,4.0079638671875,0.0014080582186579704,-0.0004224749282002449,0.00196037907153368
1782836439467893000,4.01789306640625,-0.00022717192769050598,0.00006266869604587555,0.0037332456558942795
1782836439477822000,4.027822021484375,-0.001027185469865799,0.0012155519798398018,-0.0019323634915053844
1782836439487750700,4.037750732421875,-0.0015617171302437782,-0.0006284210830926895,0.000756596215069294
1782836439497679600,4.0476796875,0.001520358957350254,0.00015002023428678513,0.0008950801566243172
1782836439507609900,4.05760986328125,0.0007667234167456627,-0.0004672091454267502,0.0002266187220811844
1782836439517538800,4.067538818359375,0.0008058724924921989,-0.001814502291381359,-0.000739043578505516
1782836439527467800,4.0774677734375,-0.0005759755149483681,-0.002193113788962364,0.0015077218413352966
1782836439537397000,4.08739697265625,0.00040886085480451584,0.0006737783551216125,0.0016760341823101044
1782836439547326000,4.097325927734375,0.00037427060306072235,0.002587924711406231,0.0014801546931266785
1782836439557255700,4.107255615234375,0.0001987675204873085,-0.0010765846818685532,-0.00029697269201278687
1782836439567184600,4.1171845703125,0.000028291717171669006,-0.0010647587478160858,-0.0019045285880565643
1782836439577113900,4.12711376953125,0.000563320703804493,-0.0007305322214961052,-0.000909571535885334
1782836439587042800,4.137042724609375,-0.0011554695665836334,0.0013609686866402626,-0.0013026180677115917
1782836439596971800,4.1469716796875,0.00029115937650203705,0.0015521841123700142,-0.001556950155645609
1782836439606900700,4.156900634765625,0.00028790533542633057,0.0022752806544303894,0.0010309591889381409
1782836439616830700,4.166830810546875,0.0033854274079203606,0.002622556872665882,0.0032648183405399323
1782836439626759700,4.176759765625,-0.0005694665014743805,0.0005102204158902168,0.0006053121760487556
1782836439636688600,4.186688720703125,-0.0016501769423484802,-0.0002149585634469986,0.004090591333806515
1782836439646617900,4.196617919921875,0.0014116857200860977,0.0016729002818465233,-0.00087777990847826
1782836439656546800,4.206546875,0.0011070193722844124,0.0018598539754748344,0.00046631786972284317
1782836439666476800,4.216476806640625,-0.0008074752986431122,0.0002288511022925377,-0.0021236524917185307
1782836439676406000,4.226406005859375,-0.0012018894776701927,-0.00020764116197824478,-0.002836048137396574
1782836439686335000,4.2363349609375,-0.0014626160264015198,-0.00009059160947799683,-0.001152345910668373
1782836439696263700,4.246263671875,0.000768580473959446,0.001169881783425808,0.000960073433816433
1782836439706192600,4.256192626953125,-0.00013302545994520187,0.001173418015241623,-0.0005567367188632488
1782836439716123000,4.266122802734375,0.0030643660575151443,0.0006482433527708054,0.0010917596518993378
1782836439726051800,4.2760517578125,-0.003255723975598812,0.0016184784471988678,0.0018637971952557564
1782836439735980800,4.285980712890625,-0.00013103708624839783,0.0006493544206023216,-0.0007194690406322479
1782836439745909800,4.29590966796875,0.001447487622499466,-0.00033116620033979416,0.00007188785821199417
1782836439755839000,4.3058388671875,-0.0012143421918153763,0.00042730290442705154,0.001986168324947357
1782836439765768700,4.315768798828125,-0.000827103853225708,0.0008516889065504074,0.00115900207310915
1782836439775697700,4.32569775390625,-0.00033362023532390594,0.0006223907694220543,0.0006013363599777222
1782836439785627000,4.335626953125,-0.0014658235013484955,0.000651804730296135,-0.0014393660239875317
1782836439795555800,4.345555908203125,0.0004013180732727051,0.0001615164801478386,-0.0017640055157244205
1782836439805484800,4.35548486328125,0.0013068215921521187,0.0003339797258377075,0.0008874684572219849
1782836439815413800,4.365413818359375,0.00044235959649086,-0.0008157072588801384,0.00377753097563982
1782836439825343700,4.37534375,0.0007675895467400551,0.001465916633605957,-0.0011521861888468266
1782836439835272700,4.385272705078125,-0.0002699783071875572,-0.00019562989473342896,-0.001823569182306528
1782836439845201700,4.39520166015625,-0.00014914479106664658,-0.0004918323829770088,0.0006017768755555153
1782836439855131000,4.405130859375,-0.00023729540407657623,-0.0006484268233180046,-0.0035120081156492233
1782836439865059800,4.415059814453125,-0.001446436159312725,0.0008856728672981262,0.0007483111694455147
1782836439874989800,4.42498974609375,-0.001241372898221016,-0.0023338226601481438,-0.00045463861897587776
1782836439884918800,4.434918701171875,-0.003586043603718281,0.00034039001911878586,0.0004255073145031929
1782836439894847700,4.44484765625,0.0002363910898566246,-0.0037933681160211563,-0.000663459300994873
1782836439904776700,4.454776611328125,0.0011129938066005707,0.0007521435618400574,-0.0018173996359109879
1782836439914705700,4.46470556640625,0.00031244754791259766,-0.0005304347723722458,0.0019333958625793457
1782836439924634600,4.474634521484375,-0.000003798864781856537,0.0010551465675234795,-0.0004418566823005676
1782836439934564900,4.48456494140625,0.0006710458546876907,0.00009880494326353073,0.0007331296801567078
1782836439944493800,4.494493896484375,-0.00011498108506202698,0.0005932748317718506,0.00039363838732242584
1782836439954422800,4.5044228515625,0.000931907445192337,-0.002262433059513569,-0.0019787056371569633
1782836439964352000,4.51435205078125,-0.0005834018811583519,-0.0009692702442407608,-0.0010767541825771332
1782836439974281000,4.524281005859375,0.0005529690533876419,0.001490425318479538,0.0011136960238218307
1782836439984210700,4.534210693359375,0.0008208481594920158,-0.000014176592230796814,0.0009438693523406982
1782836439994140000,4.544139892578125,-0.0008835755288600922,-0.0014858394861221313,-0.00022579124197363853
1782836440004068900,4.55406884765625,0.0005556810647249222,-0.0022092806175351143,-0.002515033818781376
1782836440013997800,4.563997802734375,0.00219751987606287,-0.0022460324689745903,-0.0010561542585492134
1782836440023926800,4.5739267578125,0.0010454608127474785,-0.0020969966426491737,0.0007511423900723457
1782836440033856800,4.583856689453125,0.002455604262650013,-0.0021683694794774055,-0.0010398337617516518
1782836440043785700,4.59378564453125,-0.0014115730300545692,-0.00037184078246355057,0.0007722442969679832
1782836440053714700,4.603714599609375,-0.0007284721359610558,-0.0005774367600679398,0.0012827720493078232
1782836440063643600,4.6136435546875,0.0014434251934289932,-0.0005087675526738167,0.0017862552776932716
1782836440073572900,4.62357275390625,-0.0014000320807099342,-0.001955662854015827,0.00004694424569606781
1782836440083502800,4.6335029296875,0.001047755591571331,0.0014652684330940247,0.002300218679010868
1782836440093431800,4.643431884765625,0.001132977195084095,0.0016130739822983742,0.0031931763514876366
1782836440103360800,4.65336083984375,0.001036340370774269,-0.000249628908932209,-0.0006971359252929688
1782836440113289700,4.663289794921875,-0.0019842172041535378,0.0015280311927199364,-0.000401258934289217
1782836440123218700,4.67321875,-0.0034949947148561478,0.0020637791603803635,-0.0013896715827286243
1782836440133147600,4.683147705078125,-0.0005772355943918228,0.0003862539306282997,0.0007677553221583366
1782836440143078000,4.693077880859375,0.0007552457973361015,0.0008972203359007835,-0.0008420636877417564
1782836440153006800,4.7030068359375,0.00017520878463983536,0.001253550872206688,0.002197934314608574
1782836440162935800,4.712935791015625,0.0002981489524245262,0.000730547122657299,0.00048762839287519455
1782836440172865000,4.722864990234375,0.0008957628160715103,-0.0005493685603141785,-0.0009310375899076462
1782836440182793700,4.732793701171875,-0.00023284181952476501,-0.00017074495553970337,-0.0006833383813500404
1782836440192723700,4.7427236328125,-0.0009114155545830727,-0.0009129680693149567,0.0014948612079024315
1782836440202652700,4.752652587890625,-0.000900820828974247,0.0021622255444526672,0.00026545487344264984
1782836440212582000,4.762581787109375,0.0011050719767808914,-0.00019813422113656998,-0.0037058512680232525
1782836440222510800,4.7725107421875,-0.0001979609951376915,-0.0010839998722076416,-0.0012922938913106918
1782836440232439800,4.782439697265625,-0.002644874155521393,-0.0006166147068142891,-0.0010688547044992447
1782836440242369800,4.792369873046875,0.00030287448316812515,-0.0016501592472195625,0.00044200941920280457
1782836440252298800,4.802298828125,-0.0010950183495879173,-0.0024222098290920258,-0.0005769156850874424
1782836440262227700,4.812227783203125,0.00009086728096008301,0.0015560518950223923,0.0006867013871669769
1782836440272156700,4.82215673828125,-0.0005325786769390106,0.0017352821305394173,0.0037408145144581795
1782836440282086000,4.8320859375,0.001587594859302044,0.00014144089072942734,0.00019201263785362244
1782836440292015900,4.842015869140625,0.00032312609255313873,0.0009084315970540047,0.001084703952074051
1782836440301944800,4.85194482421875,0.0005976250395178795,0.0000932738184928894,-0.0006352337077260017
1782836440311873800,4.861873779296875,-0.0006335536018013954,-0.002449512481689453,-0.0003313669003546238
1782836440321802800,4.871802734375,0.0008212979882955551,0.0038926564157009125,0.001770772971212864
1782836440331732000,4.88173193359375,0.002124648541212082,-0.0010981075465679169,-0.0022034626454114914
1782836440341661000,4.891660888671875,-0.0014096526429057121,0.0030763456597924232,-0.0007255757227540016
1782836440351591200,4.901591064453125,0.001357370987534523,0.0005870889872312546,0.00047444459050893784
1782836440361520000,4.91152001953125,-0.00011607818305492401,-0.0015787472948431969,-0.00007588323205709457
1782836440371449000,4.921448974609375,-0.0005264719948172569,-0.001765434630215168,-0.0011685783974826336
1782836440381378000,4.9313779296875,0.00029378198087215424,-0.0031713824719190598,0.0014577321708202362
1782836440391307000,4.94130712890625,-0.0006295358762145042,-0.0003268597647547722,-0.0007540229707956314
1782836440401237000,4.951237060546875,-0.00010775774717330933,-0.0016693808138370514,-0.0020152232609689236
1782836440411166000,4.961166015625,-0.00020416360348463058,0.0016577057540416718,0.00014673080295324326
1782836440421095200,4.97109521484375,-0.001279306598007679,-0.0021922560408711433,0.002217424102127552
1782836440431024000,4.981024169921875,-0.0014604013413190842,0.0008820965886116028,0.0007606754079461098
1782836440440953000,4.990953125,-0.003377526067197323,-0.0011004460975527763,-0.0015325513668358326
1782836440450883000,5.000883056640625,-0.001934358850121498,-0.00040003471076488495,0.0011545782908797264
1782836440460812000,5.01081201171875,-0.0003532683476805687,0.0017352951690554619,-0.0008731330744922161
1782836440470741000,5.020740966796875,-0.001250486820936203,-0.00012945011258125305,0.00022648554295301437
1782836440480670000,5.030669921875,-0.0011266367509961128,0.0025057094171643257,0.0007682833820581436
1782836440490599200,5.04059912109375,0.0011162767186760902,0.0011381767690181732,-0.0009145676158368587
1782836440500529200,5.050529052734375,-0.0027673551812767982,0.000005854293704032898,0.0010409597307443619
1782836440510458000,5.0604580078125,-0.0016610780730843544,-0.00016938243061304092,0.0005831625312566757
1782836440520386800,5.07038671875,0.00010416936129331589,0.0009656576439738274,0.0006016558036208153
1782836440530316000,5.08031591796875,0.00015796534717082977,0.0006290348246693611,0.0005001900717616081
1782836440540245000,5.090244873046875,0.0009292438626289368,-0.00017665233463048935,0.002206091769039631
1782836440550174000,5.100174072265625,-0.00023961812257766724,-0.002008906565606594,-0.0005907602608203888
1782836440560104200,5.110104248046875,0.00028339773416519165,-0.0014669280499219894,-0.0011150403879582882
1782836440570033200,5.120033203125,0.00046875420957803726,0.00135762058198452,0.0006815278902649879
1782836440579962000,5.129962158203125,-0.0014702724292874336,-0.001037110574543476,-0.000873845536261797
1782836440589891000,5.13989111328125,0.0033330051228404045,0.00038794707506895065,-0.0009950194507837296
1782836440599820000,5.149820068359375,-0.0004947911947965622,-0.0010891146957874298,-0.0008755531162023544
1782836440609750000,5.15975,-0.00010943226516246796,0.00003687012940645218,-0.0002747438848018646
1782836440619679000,5.169678955078125,-0.0007897978648543358,-0.001780354417860508,-0.000571761280298233
1782836440629608200,5.179608154296875,-0.0018484042957425117,0.0012340778484940529,0.0015023089945316315
1782836440639537200,5.189537109375,0.0001340918242931366,0.0015011057257652283,0.0027312664315104485
1782836440649466000,5.199466064453125,-0.0011263824999332428,0.004166130907833576,-0.0014440370723605156
1782836440659395800,5.209395751953125,-0.0015927338972687721,0.000005210749804973602,0.0010492876172065735
1782836440669325000,5.219324951171875,-0.001074482686817646,0.0007769949734210968,-0.000370176974684
1782836440679254000,5.22925390625,-0.0010557090863585472,0.0013188282027840614,-0.00005230214446783066
1782836440689183000,5.239182861328125,0.00015017017722129822,-0.0013214293867349625,0.00037833116948604584
1782836440699112000,5.24911181640625,-0.0007080873474478722,-0.0009227609261870384,0.0010725408792495728
1782836440709042200,5.259042236328125,-0.0020156987011432648,-0.0005179597064852715,0.0008823918178677559
1782836440718971100,5.26897119140625,-0.0011817123740911484,-0.0020637111738324165,0.0036005573347210884
1782836440728899800,5.27889990234375,0.001347757875919342,-0.0003773970529437065,-0.0013491935096681118
1782836440738829000,5.2888291015625,-0.0009490456432104111,-0.0008407020941376686,0.000290445052087307
1782836440748758000,5.298758056640625,-0.0019693030044436455,-0.0006401659920811653,-0.0010621747933328152
1782836440758687000,5.30868701171875,0.00037646759301424026,-0.000015103258192539215,0.0010122479870915413
1782836440768617200,5.3186171875,-0.0023846980184316635,0.00009248871356248856,-0.0011236066929996014
1782836440778543900,5.3285439453125,-0.00026374030858278275,-0.001059751957654953,0.0010386938229203224
1782836440788473000,5.33847314453125,-0.00022086314857006073,-0.0011708056554198265,0.0018144724890589714
1782836440798402000,5.348402099609375,0.00009027309715747833,0.001442721113562584,0.00033842772245407104
1782836440808331000,5.3583310546875,-0.00039016082882881165,0.0009439112618565559,0.0016002338379621506
1782836440818260000,5.368260009765625,-0.000844116322696209,0.0009030411019921303,-0.0007408689707517624
1782836440828190200,5.378190185546875,0.00025337282568216324,-0.0010253535583615303,0.001000571995973587
1782836440838119000,5.388118896484375,-0.001376437023282051,0.0017996197566390038,-0.0006821970455348492
1782836440848047900,5.3980478515625,0.00014742370694875717,0.0003114454448223114,-0.0011591692455112934
1782836440857977000,5.40797705078125,-0.0011896714568138123,0.00019365642219781876,0.004039417020976543
1782836440867906000,5.417906005859375,0.000629267655313015,0.001573973335325718,0.00019381288439035416
1782836440877835000,5.4278349609375,-0.0012056166306138039,0.0005671000108122826,-0.0007339823059737682
1782836440887765200,5.43776513671875,-0.0011377055197954178,-0.0005735326558351517,0.00007428694516420364
1782836440897694200,5.447694091796875,-0.0036203451454639435,-0.0007705194875597954,0.00020230934023857117
1782836440907623200,5.457623046875,-0.0012072548270225525,-0.001074652187526226,0.00008060317486524582
1782836440917551900,5.4675517578125,-0.0010243812575936317,-0.0010251086205244064,-0.0007349569350481033
1782836440927480800,5.477480712890625,-0.00239750649780035,-0.0013643959537148476,-0.002681461628526449
1782836440937411000,5.4874111328125,0.0021235626190900803,-0.0015894034877419472,-0.0016029532998800278
1782836440947340000,5.497340087890625,-0.0004724869504570961,-0.0012884661555290222,-0.001845301128923893
1782836440957269000,5.50726904296875,-0.00013371184468269348,-0.0019068419933319092,-0.0017827358096837997
1782836440967198200,5.5171982421875,0.0019313031807541847,0.0007528569549322128,0.0004580477252602577
1782836440977127200,5.527127197265625,-0.0024369526654481888,0.0009255204349756241,0.00037500448524951935
1782836440987057000,5.537056884765625,-0.00027206819504499435,-0.0013027461245656013,0.0014061806723475456
1782836440996986000,5.546986083984375,-0.0014990465715527534,-0.0008696466684341431,-0.00013687275350093842
1782836441006915000,5.5569150390625,-0.003734503872692585,-0.0003375466912984848,0.001370210200548172
1782836441016844000,5.566843994140625,-0.0008268924430012703,0.001586667262017727,-0.001283068209886551
1782836441026773000,5.57677294921875,-0.0014484738931059837,0.00045162811875343323,-0.0004755975678563118
1782836441036703200,5.586703125,0.0010727886110544205,0.003368510864675045,0.001133456826210022
1782836441046632000,5.5966318359375,0.00020699482411146164,0.0005825776606798172,-0.0018010805360972881
1782836441056561000,5.606560791015625,-0.0024795858189463615,0.0018997211009263992,-0.00048271892592310905
1782836441066489900,5.61648974609375,0.0010264664888381958,0.0018400661647319794,0.0009537898004055023
1782836441076419000,5.626419189453125,-0.001406792551279068,0.0019334927201271057,-0.0005012885667383671
1782836441086349000,5.63634912109375,-0.0005021169781684875,0.0006538443267345428,0.0019674617797136307
1782836441096278000,5.646278076171875,-0.00015330594033002853,0.0008430620655417442,0.002755037508904934
1782836441106207200,5.656207275390625,-0.0014441395178437233,-0.0008184844627976418,0.0004149181768298149
1782836441116136200,5.66613623046875,-0.0004154583439230919,0.0003103865310549736,0.0036700330674648285
1782836441126065000,5.67606494140625,0.0023739365860819817,0.000060848891735076904,-0.00029727770015597343
1782836441135993900,5.685993896484375,-0.000986664555966854,0.0008843205869197845,-0.000365422572940588
1782836441145924000,5.695924072265625,-0.00014404021203517914,-0.0005434006452560425,-0.0002280035987496376
1782836441155853000,5.70585302734375,0.0014714058488607407,0.0011722678318619728,-0.00145042035728693
1782836441165782000,5.715781982421875,-0.0002388758584856987,0.0004593394696712494,-0.0009670564904808998
1782836441175711200,5.725711181640625,0.00008242297917604446,0.0015593869611620903,0.00012412481009960175
1782836441185640200,5.73564013671875,-0.0009484868496656418,0.002821192145347595,-0.0008583148010075092
1782836441195570000,5.74556982421875,0.0008616987615823746,-0.0007606111466884613,0.002318081445991993
1782836441205499000,5.755498779296875,0.001905924640595913,0.00041730422526597977,0.0008315043523907661
1782836441215428000,5.765427978515625,-0.0013148942962288857,0.00378319900482893,-0.0032591205090284348
1782836441225357000,5.775357177734375,0.00014824606478214264,0.004115828312933445,-0.0017309985123574734
1782836441235286000,5.7852861328125,-0.0010922951623797417,0.0011377744376659393,-0.0015742122195661068
1782836441245216300,5.79521630859375,-0.0011381013318896294,0.0018323268741369247,-0.000718005932867527
1782836441255145000,5.80514501953125,0.0003054644912481308,0.0007937997579574585,-0.0010456056334078312
1782836441265074000,5.815073974609375,0.0009723203256726265,-0.00013138260692358017,0.000566139817237854
1782836441275003000,5.8250029296875,-0.001529015600681305,-0.0021687541157007217,-0.00006588548421859741
1782836441284932000,5.83493212890625,-0.001362035982310772,-0.0003884304314851761,0.0031458865851163864
1782836441294862000,5.844862060546875,0.0006732819601893425,0.0007401881739497185,-0.0028645251877605915
1782836441304791000,5.854791015625,-0.0011909306049346924,-0.0015772944316267967,-0.0007078973576426506
1782836441314720300,5.86472021484375,0.0002878997474908829,-0.0001551564782857895,-0.0023451363667845726
1782836441324649200,5.874649169921875,-0.0003704335540533066,0.0006786789745092392,-0.0018335431814193726
1782836441334577700,5.88457763671875,-0.0011824555695056915,-0.0011306339874863625,0.0026319175958633423
1782836441344506600,5.894506591796875,0.0015859007835388184,-0.002036907710134983,0.0009719692170619965
1782836441354436400,5.904436279296875,0.000346330925822258,0.0008775545284152031,-0.00015868153423070908
1782836441364365600,5.914365478515625,-0.00043690484017133713,0.0016040652990341187,0.0009292196482419968
1782836441374294500,5.92429443359375,-0.0011442825198173523,0.0007392382249236107,-0.001959945075213909
1782836441384223500,5.934223388671875,-0.0017221877351403236,0.001258554868400097,0.0005993526428937912
1782836441394152400,5.94415234375,0.00003634113818407059,-0.0005806814879179001,-0.0008933115750551224
1782836441404082400,5.95408251953125,-0.00024515483528375626,0.0012451820075511932,-0.0007111513987183571
1782836441414011400,5.964011474609375,-0.0015831105411052704,0.0013963235542178154,-0.002845614682883024
1782836441423942700,5.973942626953125,0.0008704597130417824,0.0015710275620222092,0.00013339705765247345
1782836441433872400,5.983872314453125,-0.0017730733379721642,0.0013111298903822899,-0.0017857099883258343
1782836441443801300,5.99380126953125,0.0013177907094359398,0.0019979598000645638,-0.00006797071546316147
1782836441453730600,6.00373046875,-0.001366540789604187,-0.0007727835327386856,0.00017567630857229233
1782836441463659500,6.013659423828125,-0.00020726677030324936,-0.0007759798318147659,-0.00004083849489688873
1782836441473588500,6.02358837890625,-0.00004731025546789169,-0.000975143164396286,-0.00104566290974617
1782836441483518500,6.0335185546875,0.00040915515273809433,-0.0008196141570806503,-0.002953818067908287
1782836441493447400,6.043447509765625,-0.00003950297832489014,-0.0010357098653912544,0.0028380360454320908
1782836441503376400,6.05337646484375,-0.0011226106435060501,-0.0008362382650375366,-0.0008736117742955685
1782836441513305300,6.063305419921875,-0.0021817097440361977,0.00018190965056419373,-0.0008820588700473309
1782836441523234300,6.073234375,0.000645236112177372,0.0007331846281886101,-0.0014612963423132896
1782836441533163500,6.08316357421875,0.0007845982909202576,-0.0010166224092245102,-0.0016904370859265327
1782836441543093500,6.093093505859375,-0.0012676334008574486,0.002754148095846176,-0.0014840420335531235
1782836441553022500,6.1030224609375,-0.00043921545147895813,0.0014211498200893402,-0.0004602004773914814
1782836441562951700,6.11295166015625,-0.00195375457406044,0.002665645442903042,-0.0003920239396393299
1782836441572880400,6.12288037109375,0.0011705365031957626,0.002305871807038784,0.0011217640712857246
1782836441582809300,6.132809326171875,0.0013007652014493942,0.0002315351739525795,-0.0019840141758322716
1782836441592739600,6.142739501953125,-0.0007257657125592232,0.0019549448043107986,-0.0008661183528602123
1782836441602668500,6.15266845703125,0.0003144647926092148,0.0017216512933373451,-0.001980917528271675
1782836441612597500,6.162597412109375,-0.0034604528918862343,0.00007180776447057724,0.0008897995576262474
1782836441622526500,6.1725263671875,-0.0010162042453885078,-0.0007204823195934296,0.001168099232017994
1782836441632455700,6.18245556640625,0.0002490999177098274,-0.0009424872696399689,-0.00024783750995993614
1782836441642385400,6.192385498046875,0.001277879811823368,-0.00022050458937883377,0.0029958924278616905
1782836441652314400,6.202314453125,0.000970558263361454,-0.000778520479798317,-0.00004756078124046326
1782836441662243300,6.212243408203125,-0.00005369354039430618,-0.002987080253660679,0.003148232586681843
1782836441672172500,6.222172607421875,-0.0012118369340896606,0.0014992915093898773,0.0003044726327061653
1782836441682101500,6.2321015625,-0.0008733496069908142,-0.0006392272189259529,0.0018981080502271652
1782836441692031500,6.242031494140625,-0.00008822139352560043,-0.00003066938370466232,0.0009584818035364151
1782836441701960400,6.25196044921875,-0.0007319068536162376,-0.00173083133995533,0.00028683245182037354
1782836441711889400,6.261889404296875,-0.0025359708815813065,-0.001157216727733612,-0.000035822391510009766
1782836441721818400,6.271818359375,-0.0011758944019675255,-0.0002908902242779732,-0.0024246778339147568
1782836441731747300,6.281747314453125,0.00035211537033319473,0.0001394404098391533,0.002648415043950081
1782836441741677600,6.291677490234375,0.00010470766574144363,-0.00007760711014270782,-0.0003428473137319088
1782836441751606500,6.3016064453125,0.00044716428965330124,0.00010449346154928207,-0.0010590367019176483
1782836441761535500,6.311535400390625,-0.000288400799036026,0.0008722823113203049,0.0014603137969970703
1782836441771464700,6.321464599609375,0.0013682879507541656,0.00013818498700857162,0.000947827473282814
1782836441781393400,6.331393310546875,0.0015408610925078392,0.002468717284500599,0.00006498955190181732
1782836441791323400,6.341323486328125,-0.0001650126650929451,0.0009188316762447357,0.001107996329665184
1782836441801252400,6.35125244140625,-0.0012790132313966751,0.0010240264236927032,0.000021959654986858368
1782836441811181600,6.361181640625,-0.00009219720959663391,0.0027906112372875214,0.00015475042164325714
1782836441821110500,6.371110595703125,0.002787211909890175,-0.0003066444769501686,0.0008200081065297127
1782836441831039500,6.38103955078125,-0.0014193644747138023,-0.000792255625128746,0.0010557109490036964
1782836441840968400,6.390968505859375,0.00034790951758623123,-0.0004883892834186554,0.000939331017434597
1782836441850898400,6.4008984375,0.00022313930094242096,-0.0025567710399627686,0.0029086479917168617
1782836441860827400,6.410827392578125,0.00008971523493528366,-0.0008169282227754593,-0.0017675962299108505
1782836441870756400,6.42075634765625,0.001293504610657692,-0.0008932985365390778,-0.0007486641407012939
1782836441880685600,6.430685546875,-0.0004276959225535393,0.0008124560117721558,-0.0006093811243772507
1782836441890614500,6.440614501953125,-0.0010916553437709808,-0.00173996202647686,0.0022497959434986115
1782836441900544500,6.45054443359375,-0.0007100244984030724,-0.0017064055427908897,0.0031278403475880623
1782836441910473500,6.460473388671875,-0.0013660937547683716,-0.00007554888725280762,0.00014462415128946304
1782836441920402400,6.47040234375,-0.0006518345326185226,-0.0017844997346401215,0.0006729951128363609
1782836441930331400,6.480331298828125,-0.0017758971080183983,0.002661631442606449,-0.0006520184688270092
1782836441940260400,6.49026025390625,0.0004824632778763771,-0.0009440220892429352,-0.0018046344630420208
1782836441950190600,6.500190673828125,0.0013488875702023506,-0.0003947848454117775,-0.0018250183202326298
1782836441960119600,6.51011962890625,-0.00043037068098783493,-0.0006507150828838348,-0.0005775936879217625
1782836441970048500,6.520048583984375,-0.0006189495325088501,-0.0007412508130073547,-0.0025138230994343758
1782836441979977500,6.5299775390625,0.0017778947949409485,0.0015330882743000984,0.0021919822320342064
1782836441989906400,6.539906494140625,0.0002962993457913399,0.000056449323892593384,0.0019691260531544685
1782836441999836400,6.54983642578125,-0.000010496936738491058,-0.0031433384865522385,0.002118263393640518
1782836442009765400,6.559765380859375,0.0007051834836602211,-0.00039972178637981415,-0.0029806196689605713
1782836442019694600,6.569694580078125,-0.0007989704608917236,-0.0008918736129999161,0.0028929822146892548
1782836442029623600,6.57962353515625,0.0009120432659983635,-0.00003425590693950653,-0.0008548167534172535
1782836442039552500,6.589552490234375,0.00004917941987514496,0.002689358778297901,-0.0014039603993296623
1782836442049482500,6.599482421875,0.001308453269302845,-0.00014353357255458832,-0.0007297256961464882
1782836442059411500,6.609411376953125,0.0003249486908316612,0.002600853331387043,-0.0028053936548531055
1782836442069340400,6.61934033203125,-0.0003927517682313919,0.0016300305724143982,0.0005174949765205383
1782836442079269400,6.629269287109375,-0.0007871659472584724,-0.0006794631481170654,0.0014037955552339554
1782836442089198300,6.6391982421875,0.0028054434806108475,0.000383986160159111,-0.0008556609973311424
1782836442099128600,6.649128662109375,-0.00010512489825487137,0.00002792198210954666,0.00006392877548933029
1782836442109057500,6.6590576171875,0.0013028765097260475,0.001273036003112793,-0.0011089621111750603
1782836442118986500,6.668986572265625,-0.0034980038180947304,0.0007715635001659393,0.0010532587766647339
1782836442128915500,6.67891552734375,-0.0014095725491642952,0.0015774304047226906,-0.0006725159473717213
1782836442138844400,6.688844482421875,-0.0002886485308408737,0.00047035422176122665,0.000031890347599983215
1782836442148774400,6.6987744140625,-0.0008980724960565567,0.00011740904301404953,-0.002672097645699978
1782836442158703600,6.70870361328125,0.00027132127434015274,0.0019134441390633583,0.0005758935585618019
1782836442168632600,6.718632568359375,0.0022416384890675545,0.0005764123052358627,0.0006282525137066841
1782836442178561500,6.7285615234375,0.0013936879113316536,-0.0002781962975859642,-0.001835438422858715
1782836442188490500,6.738490478515625,-0.0011489689350128174,-0.0000035446137189865112,0.002151203341782093
1782836442198420500,6.74842041015625,-0.0013537658378481865,0.0015083318576216698,0.00007074140012264252
1782836442208349400,6.758349365234375,-0.002581472508609295,0.001483299769461155,-0.001448395662009716
1782836442218278400,6.7682783203125,0.001774393953382969,-0.0028930725529789925,0.001247256062924862
1782836442228207400,6.778207275390625,-0.001508820801973343,-0.0010995371267199516,0.002773742191493511
1782836442238136600,6.788136474609375,0.00004513375461101532,0.0007739970460534096,-0.000374380499124527
1782836442248066300,6.79806640625,0.0016806069761514664,-0.0012887660413980484,0.001028907485306263
1782836442257995300,6.807995361328125,-0.0019996147602796555,-0.0016616079956293106,0.00020892079919576645
1782836442267924500,6.817924560546875,0.0000840192660689354,0.0020674243569374084,0.0006827507168054581
1782836442277853400,6.827853515625,-0.000530904158949852,0.0018948521465063095,0.0014540022239089012
1782836442287782400,6.837782470703125,-0.0009667202830314636,-0.00006108265370130539,0.0017958292737603188
1782836442297711400,6.84771142578125,0.0014109490439295769,0.0008228207007050514,0.0006522675976157188
1782836442307641600,6.8576416015625,-0.00008188281208276749,0.0014622379094362259,0.0016185911372303963
1782836442317570600,6.867570556640625,-0.0008368892595171928,-0.0010856082662940025,-0.0024214242585003376
1782836442327499300,6.877499267578125,-0.00182328000664711,0.0023173075169324875,-0.0016307588666677475
1782836442337429200,6.88742919921875,-0.0012645488604903221,-0.0029107434675097466,-0.0011753584258258343
1782836442347358200,6.897358154296875,0.0010930774733424187,-0.0017484771087765694,0.000756491906940937
1782836442357288200,6.9072880859375,0.00009172875434160233,0.001407635398209095,0.0016134968027472496
1782836442367217200,6.917217041015625,0.0013006003573536873,0.0009847301989793777,0.003359355963766575
1782836442377146400,6.927146484375,0.00024412386119365692,-0.000440327450633049,-0.00013231392949819565
1782836442387075000,6.937074951171875,-0.000911676324903965,-0.0014148205518722534,0.0010490482673048973
1782836442397004000,6.947004150390625,-0.00031246524304151535,-0.001194576732814312,-0.0010095746256411076
1782836442406934300,6.956934326171875,-0.00017228350043296814,-0.0021873340010643005,-0.0016744034364819527
1782836442416863200,6.96686328125,0.002380356192588806,0.00020924396812915802,0.0007448121905326843
1782836442426792200,6.976792236328125,0.0009366860613226891,0.0007528113201260567,-0.0007323287427425385
1782836442436721200,6.98672119140625,0.0017862338572740555,-0.0020597530528903008,-0.0004763989709317684
1782836442446650400,6.996650390625,0.0003707297146320343,-0.000897655263543129,0.0002949722111225128
1782836442456580000,7.006580078125,-0.0006479294970631599,0.0006586965173482895,0.0011921916157007217
1782836442466509000,7.016509033203125,0.0005656573921442032,0.0005692420527338982,0.00031697750091552734
1782836442476438300,7.026438232421875,-0.0012005511671304703,0.002750637009739876,0.000011513009667396545
1782836442486367200,7.0363671875,0.002949591726064682,0.0014522457495331764,0.0023285113275051117
1782836442496296200,7.046296142578125,0.0004856353625655174,0.0025494685396552086,-0.0021722312085330486
1782836442506226200,7.05622607421875,0.0011305734515190125,-0.0005779974162578583,0.0005679475143551826
1782836442516155100,7.066155029296875,0.0037141060456633568,0.0012790253385901451,-0.00002806819975376129
1782836442526084000,7.076083984375,0.0011243075132369995,-0.002291841432452202,0.0011057863011956215
1782836442536013000,7.086012939453125,-0.00031486526131629944,-0.0011240458115935326,0.0003257468342781067
1782836442545942000,7.09594189453125,0.0014818906784057617,0.000728558748960495,0.00042791012674570084
1782836442555872300,7.105872314453125,-0.0022760964930057526,-0.0002581421285867691,0.00039861444383859634
1782836442565801200,7.11580126953125,0.000022300519049167633,-0.00012409966439008713,0.003030819818377495
1782836442575730200,7.125730224609375,-0.0019111549481749535,-0.003340398892760277,-0.0009415512904524803
1782836442585659400,7.135659423828125,0.0010086270049214363,-0.0010271286591887474,-0.000608349684625864
1782836442595588000,7.145588134765625,0.0008168797940015793,-0.00024256110191345215,0.0005410704761743546
1782836442605518000,7.15551806640625,-0.0008704802021384239,-0.0005483785644173622,-0.001696308609098196
1782836442615447300,7.165447265625,0.00008879043161869049,0.0026514101773500443,0.0008161170408129692
1782836442625376300,7.175376220703125,0.0002652611583471298,0.0016655251383781433,-0.0002071545459330082
1782836442635305200,7.18530517578125,-0.0016950909048318863,-0.000826660543680191,0.00022054929286241531
1782836442645234200,7.195234130859375,-0.00047117751091718674,-0.0004261871799826622,0.0010562250390648842
1782836442655164200,7.2051640625,-0.0020397789776325226,0.003155231475830078,-0.0017946893349289894
1782836442665093000,7.215093017578125,-0.0014273924753069878,0.0011222492903470993,-0.0011973818764090538
1782836442675022000,7.22502197265625,0.00009433738887310028,0.000607992522418499,-0.0012434548698365688
1782836442684951000,7.234950927734375,-0.0021385643631219864,0.0007525281980633736,-0.0005362909287214279
1782836442694880300,7.24488037109375,0.00018025003373622894,-0.000006472691893577576,-0.0009141936898231506
1782836442704810200,7.254810302734375,-0.0006677526980638504,0.0019891345873475075,-0.0014198273420333862
1782836442714739200,7.2647392578125,-0.0013910671696066856,0.0015750126913189888,-0.0008674878627061844
1782836442724668200,7.274668212890625,-0.000350339338183403,0.00015397556126117706,-0.00010680966079235077
1782836442734597000,7.28459716796875,-0.00022783316671848297,0.0005356073379516602,0.0022759204730391502
1782836442744526000,7.294526123046875,-0.0013231830671429634,-0.0003397678956389427,0.00003356393426656723
1782836442754456300,7.304456298828125,0.0013466356322169304,-0.001581866294145584,0.0018154848366975784
1782836442764385300,7.31438525390625,-0.0020658541470766068,-0.00039786286652088165,-0.000817587599158287
1782836442774314200,7.324314208984375,0.0013437913730740547,0.00014169327914714813,0.0028029801324009895
1782836442784243200,7.3342431640625,0.000061017461121082306,-0.0020322445780038834,0.0003669392317533493
1782836442794172200,7.344172119140625,-0.0012449966743588448,0.0001382315531373024,-0.000688738189637661
1782836442804102100,7.35410205078125,-0.0002602469176054001,0.002682827413082123,0.001058771274983883
1782836442814031000,7.364031005859375,0.0026300810277462006,-0.00033773016184568405,0.0009711533784866333
1782836442823960000,7.3739599609375,-0.000041000545024871826,-0.00029310304671525955,0.00387562345713377
1782836442833889300,7.38388916015625,0.001041041687130928,0.001678435131907463,-0.00026266230270266533
1782836442843818200,7.393818359375,0.00015772506594657898,0.0007028486579656601,-0.0017402847297489643
1782836442853747200,7.403747314453125,0.0008109984919428825,-0.0005054278299212456,0.0011186189949512482
1782836442863677200,7.41367724609375,0.0011296877637505531,0.0013420330360531807,-0.0018700291402637959
1782836442873606100,7.423606201171875,-0.0011840667575597763,0.00009514112025499344,0.0005380008369684219
1782836442883535000,7.43353515625,-0.0006515393033623695,0.0004453742876648903,-0.002498522400856018
1782836442893464000,7.443464111328125,0.0015564877539873123,-0.00011868402361869812,0.0010663848370313644
1782836442903394300,7.453394287109375,-0.0012415209785103798,-0.0005211895331740379,0.00019111484289169312
1782836442913323300,7.4633232421875,0.0012024622410535812,0.0019206628203392029,0.0006795385852456093
1782836442923252200,7.473252197265625,0.0010050209239125252,0.001236884854733944,-0.0011237328872084618
1782836442933181200,7.48318115234375,-0.0009454777464270592,-0.0005455696955323219,-0.0005357065238058567
1782836442943110100,7.493110107421875,-0.00011285953223705292,0.0010266127064824104,0.001419086940586567
1782836442953039000,7.5030390625,-0.0005624014884233475,0.001064961776137352,-0.00011782348155975342
1782836442962969000,7.512968994140625,-0.00030510313808918,0.0014708945527672768,-0.00010694283992052078
1782836442972898300,7.522898193359375,-0.001259579323232174,-0.0004244772717356682,-0.0004939003847539425
1782836442982827300,7.5328271484375,-0.0012576719745993614,-0.0006764866411685944,-0.001772971823811531
1782836442992756200,7.542756103515625,0.0005452884361147881,-0.002120719291269779,0.001854519359767437
1782836443002685200,7.552685302734375,-0.000007929280400276184,0.00017306674271821976,0.0009222300723195076
1782836443012615200,7.562615234375,0.0006820959970355034,0.0018212972208857536,0.00352493766695261
1782836443022544100,7.572544189453125,0.0020218221470713615,-0.0019965777173638344,0.00006369873881340027
1782836443032473000,7.58247314453125,0.0006873123347759247,-0.0012221308425068855,0.0013896869495511055
1782836443042402300,7.59240234375,0.001656966283917427,-0.0018537798896431923,0.0017109410837292671
1782836443052331300,7.602331298828125,-0.0024501606822013855,0.0012541292235255241,-0.0026955250650644302
1782836443062261000,7.612260986328125,0.0007546450942754745,-0.0006698928773403168,-0.0015734112821519375
1782836443072190200,7.622190185546875,0.001135210506618023,-0.001990554854273796,0.0013930834829807281
1782836443082119200,7.632119140625,-0.0009257374331355095,-0.00043853092938661575,0.0015978459268808365
1782836443092048100,7.642048095703125,0.0004950584843754768,-0.001272633671760559,0.0032266350463032722
1782836443101977000,7.65197705078125,0.00011489912867546082,0.002697555348277092,-0.0020026694983243942
1782836443111907300,7.6619072265625,0.001829175278544426,-0.0007794676348567009,-0.00035736849531531334
1782836443121836300,7.671836181640625,0.0005019493401050568,0.0026912549510598183,0.002296341583132744
1782836443131765200,7.68176513671875,-0.0021513579413294792,0.0005372902378439903,-0.003102684859186411
1782836443141694000,7.69169384765625,0.00006593111902475357,-0.0008248742669820786,-0.0021336572244763374
1782836443151623200,7.701623046875,0.0019386662170290947,-0.0019298195838928223,0.0009247167035937309
1782836443161553200,7.71155322265625,-0.00019072089344263077,-0.0005462458357214928,-0.0018005156889557838
1782836443171482000,7.721482177734375,-0.0010469276458024979,0.0007552411407232285,0.001134287565946579
1782836443181411300,7.731411376953125,0.0013906927779316902,0.0017655948176980019,0.0013171844184398651
1782836443191340300,7.74134033203125,0.0010388894006609917,0.0035211509093642235,-0.0004066801629960537
1782836443201269200,7.751269287109375,0.0012915264815092087,0.0013072695583105087,-0.0003414694219827652
1782836443211199200,7.76119921875,0.002771178260445595,-0.0012227334082126617,0.0009879805147647858
1782836443221128200,7.771128173828125,-0.0012523047626018524,0.0012791743502020836,0.002366660162806511
1782836443231057200,7.78105712890625,-0.0009561618790030479,0.0015742527320981026,-0.0001385752111673355
1782836443240986000,7.790986083984375,-0.00017749518156051636,0.00035636406391859055,-0.0018785824067890644
1782836443250915300,7.800915283203125,-0.0003439430147409439,0.0017582522705197334,-0.00009905826300382614
1782836443260845300,7.81084521484375,0.002560880035161972,-0.000518464483320713,0.0017224792391061783
1782836443270774000,7.82077392578125,0.00014965422451496124,-0.0009368471801280975,0.0015187468379735947
1782836443280703000,7.830702880859375,0.001038217917084694,-0.0003276960924267769,0.001148885115981102
1782836443290632200,7.840632080078125,-0.0011056261137127876,-0.00022010412067174911,0.0001715049147605896
1782836443300561200,7.85056103515625,-0.00007516331970691681,0.0018400289118289948,0.002410599961876869
1782836443310491100,7.8604912109375,0.0009751869365572929,0.0017803739756345749,-0.0011633620597422123
1782836443320420400,7.87042041015625,0.0011991215869784355,0.0002764556556940079,-0.0012505524791777134
1782836443330348800,7.880348876953125,0.00026648305356502533,0.00007165875285863876,-0.0012915651313960552
1782836443340277800,7.89027783203125,-0.0020444197580218315,0.0025729965418577194,-0.00044262269511818886
1782836443350206700,7.900206787109375,-0.0012790272012352943,-0.001502971164882183,-0.0008586086332798004
1782836443360136700,7.91013671875,0.0005481718108057976,-0.0012078993022441864,-0.00007785391062498093
1782836443370065700,7.920065673828125,0.00043179187923669815,-0.0005327882245182991,-0.00044377194717526436
1782836443379994600,7.92999462890625,0.00014533568173646927,-0.0005375221371650696,0.0031589940190315247
1782836443389923600,7.939923583984375,0.0016486896201968193,-0.0012832079082727432,0.0015608305111527443
1782836443399852800,7.949852783203125,-0.002938035875558853,0.0010001352056860924,-0.002127296756953001
1782836443409782500,7.959782470703125,0.00004576984792947769,0.001839829608798027,-0.0002921121194958687
1782836443419711500,7.96971142578125,0.0015937983989715576,0.0024400744587183,-0.002064409200102091
1782836443429640700,7.979640625,0.0005232077091932297,0.001519419252872467,-0.0005195094272494316
1782836443439569700,7.989569580078125,0.0015831748023629189,-0.0004483060911297798,-0.000005836598575115204
1782836443449498600,7.99949853515625,0.00022922363132238388,-0.00017160363495349884,-0.00040238117799162865
1782836443459428900,8.009428955078125,-0.0018399422988295555,-0.0018971823155879974,-0.0006004208698868752
1782836443469357800,8.01935791015625,0.0005110958591103554,0.0002951323986053467,0.0026281289756298065
1782836443479286800,8.029286865234376,0.0012265881523489952,-0.0005515115335583687,0.0026485491544008255
1782836443489215500,8.039215576171875,-0.0012317756190896034,-0.0009459257125854492,0.00000616069883108139
1782836443499144700,8.049144775390625,-0.0008504269644618034,0.00028440915048122406,-0.0012498991563916206
1782836443509074700,8.05907470703125,-0.0011433744803071022,0.0008695051074028015,0.0007203072309494019
1782836443519003600,8.069003662109376,-0.001302802935242653,-0.001961088739335537,-0.0021170894615352154
1782836443528932600,8.0789326171875,-0.0004159705713391304,-0.0007410943508148193,-0.0005165296606719494
1782836443538861800,8.08886181640625,0.0016142940148711205,-0.00045308470726013184,0.0009575225412845612
1782836443548790800,8.098790771484374,0.0016164248809218407,0.0018042102456092834,0.0005929358303546906
1782836443558720500,8.108720458984376,0.0026256516575813293,0.0003604236990213394,0.0012301923707127571
1782836443568649700,8.118649658203125,-0.0002990318462252617,0.0017388761043548584,0.0029473984614014626
1782836443578578700,8.12857861328125,0.0004142625257372856,0.0003127576783299446,0.00308232381939888
1782836443588507600,8.138507568359374,0.0003388943150639534,-0.0008004428818821907,-0.0025297552347183228
1782836443598436600,8.1484365234375,-0.00037736445665359497,0.0049288589507341385,-0.0012105582281947136
1782836443608366800,8.158366943359376,0.0022511761635541916,0.0016965800896286964,-0.0025432039983570576
1782836443618295600,8.168295654296875,-0.0004237908869981766,-0.0005854861810803413,-0.001653613056987524
1782836443628224500,8.178224609375,0.0016058040782809258,0.0010968325659632683,0.002074013464152813
1782836443638153700,8.18815380859375,0.00028668809682130814,-0.00012713763862848282,0.0007641371339559555
1782836443648082700,8.198082763671875,-0.001790843904018402,-0.0030259881168603897,0.0000818353146314621
1782836443658012700,8.2080126953125,0.0009259721264243126,-0.001222033053636551,0.00024047493934631348
1782836443667941600,8.217941650390625,-0.001443709246814251,-0.001113908365368843,-0.0001462157815694809
1782836443677870800,8.227870849609374,-0.001003987155854702,-0.0007073087617754936,-0.0005437582731246948
1782836443687799800,8.2377998046875,-0.0030447673052549362,0.0009795380756258965,-0.0006236531771719456
1782836443697728500,8.247728515625,0.0002730516716837883,-0.0022394228726625443,0.0003626355901360512
1782836443707658800,8.25765869140625,0.0013119513168931007,0.000006687827408313751,-0.0006770621985197067
1782836443717587700,8.267587646484374,-0.0011025676503777504,0.0022498341277241707,0.0005056317895650864
1782836443727516700,8.2775166015625,-0.0023979293182492256,0.0000769617035984993,-0.0005521755665540695
1782836443737445600,8.287445556640625,0.002540512941777706,0.00366852805018425,-0.00006537418812513351
1782836443747374800,8.297374755859375,-0.00043556932359933853,0.002351861447095871,0.001916550099849701
1782836443757304600,8.3073046875,0.0014718454331159592,-0.00012190081179141998,-0.00019719824194908142
1782836443767233500,8.317233642578126,0.0021368367597460747,-0.0017014211043715477,-0.0031746122986078262
1782836443777162800,8.327162841796875,0.000024586915969848633,0.0004318719729781151,-0.0023515275679528713
1782836443787091700,8.337091796875,0.0014363285154104233,-0.0010736128315329552,-0.0009877230040729046
1782836443797020700,8.347020751953124,-0.0017175758257508278,0.0010775849223136902,-0.0014047552831470966
1782836443806950700,8.35695068359375,0.0002443743869662285,0.00161687470972538,-0.00026545487344264984
1782836443816879900,8.3668798828125,-0.0010715248063206673,-0.0030098259449005127,-0.0009154719300568104
1782836443826808600,8.37680859375,-0.0015431707724928856,-0.002925936132669449,0.0011074654757976532
1782836443836737500,8.386737548828124,0.0016396092250943184,0.0006914781406521797,0.000754314474761486
1782836443846666500,8.39666650390625,-0.0002941116690635681,0.0006067892536520958,-0.0017996570095419884
1782836443856596700,8.4065966796875,0.001482505351305008,0.00021401047706604004,-0.0028165425173938274
1782836443866525700,8.416525634765625,0.0008010026067495346,0.0005362527444958687,0.001280464231967926
1782836443876454700,8.42645458984375,0.0006812037900090218,0.00026311352849006653,-0.000659287441521883
1782836443886383900,8.4363837890625,-0.001538541167974472,0.0007398193702101707,-0.0032092640176415443
1782836443896312800,8.446312744140625,0.00015008077025413513,0.002815919928252697,0.000019563362002372742
1782836443906242600,8.45624267578125,0.001213747076690197,-0.0016246344894170761,0.002463012933731079
1782836443916171800,8.466171875,-0.0009497823193669319,0.000517088919878006,0.0023745382204651833
1782836443926100700,8.476100830078124,-0.0031074751168489456,0.00043213367462158203,0.0009625302627682686
1782836443936029700,8.48602978515625,0.0005190661177039146,0.001619892194867134,-0.0010687783360481262
1782836443945958700,8.495958740234375,-0.000040197744965553284,0.0015027131885290146,0.00098371971398592
1782836443955888600,8.505888671875,-0.00040375255048274994,0.0013033850118517876,-0.0007621217519044876
1782836443965817600,8.515817626953124,-0.0003158682957291603,0.0012296158820390701,-0.0005738362669944763
1782836443975746600,8.52574658203125,0.0010815588757395744,0.0006651189178228378,-0.003061522264033556
1782836443985675500,8.535675537109375,-0.0007102154195308685,-0.0011950992047786713,0.00198383629322052
1782836443995605800,8.545605712890625,-0.00035179033875465393,0.0005337139591574669,0.0003186892718076706
1782836444005534700,8.55553466796875,-0.0000026496127247810364,-0.0019917618483304977,0.0010329494252800941
1782836444015463700,8.565463623046876,0.0008534248918294907,0.00043013226240873337,0.0002962416037917137
1782836444025393000,8.575392822265625,-0.0007082531228661537,0.00019790418446063995,0.001735147088766098
1782836444035321600,8.585321533203125,0.00006798841059207916,0.0014499565586447716,0.0028774281963706017
1782836444045251600,8.59525146484375,0.0024999864399433136,-0.00016951188445091248,0.0007194681093096733
1782836444055180800,8.605180908203126,0.0011888528242707253,0.00036150403320789337,-0.0018323920667171478
1782836444065109800,8.61510986328125,-0.0008007949218153954,-0.0003612777218222618,0.0006347605958580971
1782836444075038700,8.625038818359375,-0.0009681703522801399,-0.0024941982701420784,0.0020743627101182938
1782836444084967700,8.6349677734375,0.0016180258244276047,0.001757805235683918,-0.003070598468184471
1782836444094897700,8.644897705078124,0.0007344000041484833,0.0019649965688586235,-0.0008155242539942265
1782836444104826600,8.65482666015625,0.0001602228730916977,-0.0014438498765230179,-0.0017132754437625408
1782836444114755600,8.664755615234375,-0.0000705355778336525,0.0014180243015289307,-0.000750265084207058
1782836444124684500,8.6746845703125,0.0011734263971447945,0.000781795009970665,-0.0006871484220027924
1782836444134613800,8.68461376953125,0.000746983103454113,0.0030327923595905304,0.0006988085806369781
1782836444144543700,8.694543701171876,0.0013230247423052788,0.002817608416080475,-0.0018474403768777847
1782836444154472700,8.70447265625,0.00010374095290899277,0.001094261184334755,-0.001072079874575138
1782836444164401700,8.714401611328125,0.000586572103202343,-0.000837329775094986,-0.0003596842288970947
1782836444174330600,8.72433056640625,0.0010819705203175545,-0.0006784508004784584,0.0018041850998997688
1782836444184259600,8.734259521484375,0.0012098019942641258,-0.0008907048031687737,-0.0011828159913420677
1782836444194189800,8.74418994140625,-0.0007037501782178879,-0.0005841618403792381,0.001107003539800644
1782836444204118800,8.754118896484375,-0.0009743273258209229,0.0005016094073653221,-0.0005771797150373459
1782836444214047700,8.7640478515625,0.0006799232214689255,-0.0015223976224660873,-0.0006672381423413754
1782836444223976700,8.773976806640626,0.0010607559233903885,-0.0007623312994837761,-0.00005577597767114639
1782836444233906000,8.783906005859375,-0.0008744494989514351,0.0007241470739245415,-0.00045170029625296593
1782836444243835600,8.793835693359375,-0.001317332498729229,0.000792856328189373,-0.0013515823520720005
1782836444253764600,8.8037646484375,-0.0005410108715295792,0.00034901220351457596,-0.00021112430840730667
1782836444263693600,8.813693603515626,0.0002161255106329918,-0.000011313706636428833,-0.0009296447969973087
1782836444273622800,8.823622802734375,0.0016123456880450249,0.00011901464313268661,-0.0012588961981236935
1782836444283551700,8.8335517578125,-0.000644151121377945,0.0004164893180131912,0.002048749476671219
1782836444293481500,8.8434814453125,0.0015074992552399635,-0.0007886160165071487,0.001359608955681324
1782836444303410700,8.85341064453125,-0.0012842928990721703,0.002451651729643345,-0.002929678186774254
1782836444313339600,8.863339599609375,-0.00045445747673511505,0.0008420888334512711,0.0019600093364715576
1782836444323268600,8.8732685546875,-0.0011306339874863625,0.00003541726619005203,0.0004928736016154289
1782836444333197600,8.883197509765624,0.002686823718249798,0.0012986790388822556,-0.002095933072268963
1782836444343127800,8.8931279296875,-0.0013691708445549011,-0.0009274566546082497,-0.0009358604438602924
1782836444353056800,8.903056884765626,0.000534985214471817,-0.0008890228345990181,0.00010418519377708435
1782836444362985700,8.91298583984375,-0.0008714301511645317,-0.0031732162460684776,0.0011228444054722786
1782836444372914700,8.922914794921875,0.0007332712411880493,-0.001689724624156952,-0.0008720462210476398
1782836444382843600,8.93284375,0.000022207386791706085,-0.0010678768157958984,0.0006097368896007538
1782836444392773600,8.942773681640626,-0.0016246205195784569,-0.00012727640569210052,0.00006879866123199463
1782836444402702600,8.95270263671875,-0.00032899249345064163,-0.0002460535615682602,-0.0006499886512756348
1782836444412631800,8.9626318359375,-0.00067118089646101,0.0005234098061919212,0.0026924042031168938
1782836444422560800,8.972560791015624,0.0004058005288243294,0.0003766696900129318,-0.0017231167294085026
1782836444432489700,8.98248974609375,-0.0008678361773490906,-0.00032022595405578613,-0.0016962387599050999
1782836444442419700,8.992419677734375,-0.0006502559408545494,-0.00036629848182201385,-0.0005388292483985424
1782836444452348700,9.0023486328125,-0.00022358354181051254,0.00024294666945934296,-0.0015017795376479626
1782836444462277600,9.012277587890624,-0.0007801847532391548,-0.0009892983362078667,0.0026359735056757927
1782836444472206600,9.02220654296875,0.00040386058390140533,0.0014390433207154274,-0.0012534609995782375
1782836444482135800,9.0321357421875,0.0015357043594121933,0.0017365189269185066,0.00041634123772382736
1782836444492065800,9.042065673828125,0.000029996968805789948,0.0013888292014598846,-0.00015932228416204453
1782836444501994500,9.051994384765624,-0.0012541795149445534,-0.000010661780834197998,-0.001874397974461317
1782836444511923700,9.061923828125,-0.0018713194876909256,-0.0023738089948892593,-0.0004905080422759056
1782836444521852700,9.071852783203125,0.0015694843605160713,-0.0015948349609971046,0.000061032362282276154
1782836444531781600,9.08178173828125,0.0005888231098651886,-0.0007542232051491737,-0.0018893498927354813
1782836444541711600,9.091711669921875,-0.0009430265054106712,-0.0018655601888895035,-0.0016065221279859543
1782836444551640800,9.101640869140626,0.0009451340883970261,0.001123960129916668,0.002349136397242546
1782836444561569800,9.11156982421875,0.0016026683151721954,-0.0022904779762029648,0.0011203540489077568
1782836444571498800,9.121498779296875,-0.002180526964366436,-0.0010245675221085548,-0.00085079250857234
1782836444581427500,9.131427490234374,-0.001422857865691185,0.001146974042057991,-0.0008726301603019238
1782836444591357700,9.141357666015624,0.0002161562442779541,-0.0020838212221860886,-0.0002005249261856079
1782836444601286700,9.15128662109375,-0.001052839681506157,0.00009171571582555771,-0.002558753825724125
1782836444611215600,9.161215576171875,0.0005426788702607155,0.002852815203368664,-0.0040914444252848625
1782836444621144800,9.171144775390625,0.00041697733104228973,0.00020137149840593338,-0.0004032324068248272
1782836444631073800,9.18107373046875,-0.0021175090223550797,0.0014171907678246498,0.0020781606435775757
1782836444641003500,9.19100341796875,0.002207730896770954,-0.000637703575193882,-0.0007692910730838776
1782836444650932700,9.2009326171875,-0.000291517935693264,0.0004226239398121834,0.0003378475084900856
1782836444660861700,9.21086181640625,-0.0014529228210449219,0.0008625779300928116,0.0027978094294667244
1782836444670790700,9.220790771484374,-0.0002740276977419853,0.0010539451614022255,-0.000007400289177894592
1782836444680720600,9.230720703125,0.0015824614092707634,0.0021687448024749756,-0.000080903060734272
1782836444690649900,9.24064990234375,0.0014143222942948341,0.0004041725769639015,-0.00046667689457535744
1782836444700578800,9.250578857421875,0.0015338985249400139,0.0007346700876951218,-0.0007316614501178265
1782836444710507500,9.260507568359374,0.0010789362713694572,0.0009693549945950508,-0.000053569674491882324
1782836444720436500,9.2704365234375,0.000632057897746563,-0.0020517343655228615,0.000387716107070446
1782836444730365700,9.28036572265625,-0.0009863432496786118,0.000596979632973671,0.0006718877702951431
1782836444740295700,9.290295654296875,0.000050691887736320496,-0.0024848300963640213,0.0008351393043994904
1782836444750224600,9.300224609375,-0.0008884500712156296,-0.00011755339801311493,0.002221536822617054
1782836444760153900,9.31015380859375,-0.000015465542674064636,-0.001121831126511097,0.00034054648131132126
1782836444770082800,9.320082763671875,0.0009974157437682152,-0.0008880635723471642,0.00011762697249650955
1782836444780009700,9.330009765625,-0.000623650848865509,0.0007271440699696541,0.00006489641964435577
1782836444789938700,9.339938720703126,-0.0009675966575741768,0.0006716642528772354,-0.00038478244096040726
1782836444799868700,9.34986865234375,0.001383441500365734,0.0006008241325616837,0.0000698193907737732
1782836444809798000,9.3597978515625,-0.00190784502774477,0.0013982467353343964,0.0004893364384770393
1782836444819726600,9.3697265625,0.00012281443923711777,0.0012560337781906128,0.0027809860184788704
1782836444829655600,9.379655517578126,0.0037568453699350357,0.0004487428814172745,0.0025745071470737457
1782836444839584500,9.38958447265625,-0.00023736339062452316,0.00013395771384239197,0.0002658134326338768
1782836444849514800,9.3995146484375,-0.0010196305811405182,0.0009446041658520699,-0.0008910861797630787
1782836444859443700,9.409443603515625,-0.0006848713383078575,-0.00011213868856430054,-0.0009787045419216156
1782836444869372700,9.41937255859375,-0.0010768743231892586,0.0024767760187387466,0.0005459608510136604
1782836444879302000,9.429302001953126,0.0012227660045027733,-0.00013898126780986786,0.0005361074581742287
1782836444889230800,9.43923095703125,-0.001726558431982994,0.0010833414271473885,-0.0012396383099257946
1782836444899160600,9.44916064453125,-0.0008775424212217331,-0.0008274763822555542,-0.0015762620605528355
1782836444909089500,9.459089599609374,0.0024839192628860474,-0.0004616882652044296,0.0002639126032590866
1782836444919018800,9.469018798828126,-0.0019481135532259941,-0.00043452437967061996,-0.0012090816162526608
1782836444928947700,9.47894775390625,-0.0008468553423881531,0.0011640982702374458,0.00007622130215167999
1782836444938876700,9.488876708984375,0.0007097627967596054,-0.0020538000389933586,0.0024083517491817474
1782836444948806700,9.498806640625,-0.0006798664107918739,-0.002019035629928112,-0.0005923998542129993
1782836444958735600,9.508735595703126,0.0013177702203392982,0.00169314444065094,0.0013101622462272644
1782836444968664600,9.51866455078125,0.001329619437456131,0.0006614848971366882,0.0008059004321694374
1782836444978593500,9.528593505859375,0.00031735189259052277,0.001316090114414692,0.00022879336029291153
1782836444988523800,9.538523681640624,-0.0005352087318897247,-0.000864940695464611,-0.002876006532460451
1782836444998452700,9.54845263671875,0.0014464491978287697,0.002110343426465988,-0.0009622592478990555
1782836445008381700,9.558381591796875,0.001166732981801033,0.00017590075731277466,0.00009115785360336304
1782836445018311000,9.568310791015625,-0.0002601882442831993,0.0009404942393302917,0.00029888469725847244
1782836445028239600,9.578239501953124,0.0004557669162750244,0.0012175152078270912,0.0014842469245195389
1782836445038169600,9.588169677734374,0.0027884291484951973,0.0027954382821917534,0.0019244672730565071
1782836445048098600,9.5980986328125,-0.000645873136818409,0.00024281255900859833,-0.0030394848436117172
1782836445058027800,9.60802783203125,-0.0013340339064598083,0.00016771070659160614,-0.0008453065529465675
1782836445067956700,9.617956787109375,0.0015012044459581375,-0.0003173965960741043,-0.00026745256036520004
1782836445077885700,9.6278857421875,-0.002582753077149391,0.00030205491930246353,0.00033229123800992966
1782836445087815700,9.637815673828126,0.0005278429016470909,0.0015609348192811012,0.00022896658629179
1782836445097744600,9.64774462890625,-0.000609859824180603,-0.0030708350241184235,-0.00018195901066064835
1782836445107673600,9.657673583984375,-0.0015371358022093773,-0.0005672741681337357,0.00031674280762672424
1782836445117602600,9.6676025390625,0.0008594421669840813,-0.0006735343486070633,-0.001718711107969284
1782836445127531800,9.67753173828125,0.0016433363780379295,-0.00038522109389305115,0.0008640242740511894
1782836445137461800,9.687461669921875,-0.00013325829058885574,0.0004805726930499077,-0.0015458702109754086
1782836445147390700,9.697390625,-0.00047950074076652527,0.0044813379645347595,-0.00012672413140535355
1782836445157319700,9.707319580078124,-0.0014781858772039413,0.005790282040834427,0.0009883418679237366
1782836445167248600,9.71724853515625,0.0029721222817897797,0.005814192816615105,0.0006107427179813385
1782836445177177600,9.727177490234375,0.000908438116312027,-0.003329770639538765,0.0008323173969984055
1782836445187107600,9.737107666015625,-0.0006481539458036423,-0.004455801099538803,0.0019198432564735413
1782836445197036800,9.747036865234374,0.001417127437889576,-0.0024879910051822662,0.0019062617793679237
1782836445206965800,9.7569658203125,-0.00013565551489591599,-0.004094679839909077,0.002346850000321865
1782836445216894700,9.766894775390625,0.000639590434730053,0.0004976745694875717,-0.0018660039640963078
1782836445226823700,9.77682373046875,0.00004147086292505264,-0.002751501277089119,-0.0018620309419929981
1782836445236753700,9.786753662109374,-0.0009063482284545898,-0.0008979411795735359,0.00032895151525735855
1782836445246682600,9.7966826171875,0.0006341570988297462,0.0007280334830284119,-0.000057291239500045776
1782836445256611600,9.806611572265625,-0.0007786499336361885,-0.0007926318794488907,-0.0016389423981308937
1782836445266540800,9.816540771484375,-0.0012073032557964325,-0.0011180322617292404,-0.0004567420110106468
