time,seconds_elapsed,z,y,x
1782835925438959400,0.08295947265625,-0.5040969383627176,-0.0828644534304738,0.04317377315293997
1782835925448889300,0.092889404296875,-0.5030693488806486,-0.006596475655585527,0.030807189663313327
1782835925458819300,0.1028193359375,-0.4091536323428154,0.06194894504323601,0.07828892567586153
1782835925468749300,0.112749267578125,-0.37366672389805317,0.13539002882912754,0.10339878048039972
1782835925478679300,0.12267919921875,-0.4942132577300071,0.17646584332212806,0.12429225969891994
1782835925488609300,0.132609375,-0.6695137105345725,0.15333309727683664,0.09687332423441111
1782835925498539300,0.142539306640625,-0.8518716806352138,0.043328123464435334,-0.11094897666424512
1782835925508469200,0.15246923828125,-0.8890016801118851,-0.08119630102254449,-0.34525088635068385
1782835925518399200,0.162399169921875,-0.6276496682733297,-0.021034458591789006,-0.38625370867270975
1782835925528329500,0.17232958984375,-0.45154842047989363,0.16172748919986188,-0.38440212598927315
1782835925538259200,0.18225927734375,-0.2011608702480793,0.24680194683000445,-0.337513387433812
1782835925548190500,0.1921904296875,-0.0867617531299591,0.1918742787256837,-0.3072012512784451
1782835925558120200,0.2021201171875,-0.23923837970793246,0.10050663923546671,-0.4343037460925057
1782835925568050400,0.212050537109375,-0.2818880193889141,0.007486994754523038,-0.49743419253788884
1782835925577980200,0.221980224609375,-0.19668635518252847,-0.062052697678655386,-0.4067497130062431
1782835925587910100,0.23191015625,-0.13853519498705863,-0.07992284702062606,-0.3403953726109117
1782835925597840400,0.24184033203125,0.024223756152391432,-0.07897504477649926,-0.36521830023285
1782835925607770000,0.25177001953125,0.05001169288158416,-0.12159253575354814,-0.3520884042205289
1782835925617700400,0.261700439453125,-0.013320669344067573,-0.19265534610077736,-0.3749676138961687
1782835925627630300,0.27163037109375,-0.005513210463523864,-0.20207389343976973,-0.4401243785373866
1782835925637560300,0.281560302734375,0.027828502646088597,-0.10897226976379752,-0.46411640829313544
1782835925647491300,0.2914912109375,0.18417407961189747,-0.03337269276976585,-0.4678387167518958
1782835925657421300,0.30142138671875,0.1560258434921503,-0.034374124897271395,-0.5282419301904737
1782835925667351300,0.311351318359375,0.05357376927733421,-0.09538988074362277,-0.5717757688274606
1782835925677281300,0.32128125,0.05831541084647178,-0.14566899238973854,-0.5575003195092082
1782835925687211300,0.331211181640625,0.06253039819300174,-0.10920184073597192,-0.4923208681121468
1782835925697141500,0.3411416015625,-0.05073474645912647,-0.011092325770109891,-0.39946046931352464
1782835925707071200,0.3510712890625,-0.12917583048939704,0.03721986971721053,-0.31584921610374
1782835925717001200,0.361001220703125,-0.13977087426185608,0.03071998630389571,-0.34846294373236597
1782835925726931500,0.370931396484375,-0.12972118941247462,0.04616992276161909,-0.4390371312899515
1782835925736861200,0.380861083984375,-0.059463411837816234,0.06633008273690938,-0.45108186241406945
1782835925746791400,0.39079150390625,-0.04812076456844806,0.09765461080521344,-0.39951230909861624
1782835925756722200,0.40072216796875,-0.0319762699753046,0.07306962012499571,-0.34223862585742026
1782835925766652400,0.41065234375,0.04579553649127483,0.034156682754307985,-0.3711921870106831
1782835925776582100,0.42058203125,0.12853870162963865,0.055058308746665716,-0.40762430388368665
1782835925786512400,0.430512451171875,0.2157218950420618,0.14888006339073181,-0.3987744232781231
1782835925796442400,0.4404423828125,0.23472119454443455,0.22199966013729572,-0.3925777605950832
1782835925806372400,0.450372314453125,0.24481530305743215,0.21790713012665508,-0.3568660304185003
1782835925816302300,0.46030224609375,0.16180676498115062,0.18920827438682317,-0.31307617119383063
1782835925826232300,0.470232421875,0.04492810600697994,0.159384360139817,-0.26462449417058376
1782835925836162300,0.480162353515625,-0.018549802169203756,0.18778642489016054,-0.23181937215570358
1782835925846092300,0.49009228515625,0.02593698981106281,0.17005524562746285,-0.14734602222386747
1782835925856023300,0.500023193359375,-0.02405307576060295,0.06976721757873892,-0.04012885249909013
1782835925865953300,0.509953369140625,-0.07817512657046317,0.015338731168210506,-0.04385506994798779
1782835925875883300,0.51988330078125,-0.09633329907357692,-0.0022559622332453725,-0.20125662224013358
1782835925885813200,0.529813232421875,-0.06018704993724823,-0.0505405390612781,-0.43363227657172826
1782835925895743500,0.539743408203125,-0.07418167302012443,-0.10391133311241865,-0.49508291670400645
1782835925905673200,0.549673095703125,-0.3377484382987022,-0.10634119060784578,-0.33660493081938475
1782835925915603500,0.559603515625,-0.3830173205673694,-0.11490326724797487,-0.208865051417239
1782835925925533200,0.569533203125,-0.1659124467343092,-0.09094079238027333,-0.1350583491893485
1782835925935463200,0.579463134765625,-0.16985446235835552,-0.04207593144625425,-0.11743958079256117
1782835925945393400,0.589393310546875,-0.25276304719150067,-0.04887786654606461,-0.16136742371581494
1782835925955323100,0.5993232421875,-0.31504794619083404,-0.1521373116210103,-0.16384627145212144
1782835925965254400,0.60925439453125,-0.34696284136772154,-0.22717355564385652,-0.047526817263290284
1782835925975184400,0.619184326171875,-0.31779695263803004,-0.23300503827631472,0.007965389388613402
1782835925985114400,0.6291142578125,-0.28550270275473594,-0.2186971114605665,-0.03972038129605353
1782835925995044400,0.63904443359375,-0.22034780127704143,-0.20787088928073644,-0.08644991070181131
1782835926004974300,0.648974365234375,-0.18989187273681163,-0.19489158072024582,-0.04207600451149046
1782835926014904300,0.658904296875,-0.19290157594680785,-0.22895561675503848,-0.03977386504895985
1782835926024834300,0.668834228515625,-0.16144494593143463,-0.29385303634032606,-0.09200403769761323
1782835926034764300,0.678764404296875,-0.15887129605114458,-0.2935010080322623,-0.049346689634211356
1782835926044694500,0.688694580078125,-0.23044132526814937,-0.25888489107266066,0.025228001291491088
1782835926054624300,0.698624267578125,-0.15593173546791075,-0.23412980452254414,0.058798298992589114
1782835926064555500,0.708555419921875,-0.15315701005756854,-0.2038296510659158,0.04747505054343491
1782835926074485200,0.7184853515625,-0.17205343370735643,-0.19678747746944425,0.04439162451010197
1782835926084415500,0.72841552734375,-0.09712941788733005,-0.2100358122296631,0.06708298346344381
1782835926094345200,0.73834521484375,-0.041219314616918565,-0.18619184917509554,0.09084916857406497
1782835926104275200,0.748275146484375,-0.06881225494146347,-0.1840533758416772,0.06398947442751378
1782835926114205400,0.758205322265625,-0.06639408788383007,-0.19284473119303583,-0.02229359180741012
1782835926124135200,0.76813525390625,-0.10357494076490402,-0.19308979199528692,-0.05127535614185035
1782835926134065400,0.7780654296875,-0.23591011206805704,-0.1736091387167573,-0.052946321561373764
1782835926143995400,0.787995361328125,-0.16529636066257952,-0.15755816762596367,0.017947854220680893
1782835926153925400,0.79792529296875,-0.12340835300385951,-0.13463994111418723,0.09727061645630747
1782835926163856400,0.8078564453125,-0.17160510541796684,-0.1441375450387597,0.10124631515424698
1782835926173786400,0.817786376953125,-0.09359422949850559,-0.13125702067762612,0.12094357032552361
1782835926183716400,0.82771630859375,-0.0659960284769535,-0.10854133100062609,0.10979341342095285
1782835926193646300,0.837646240234375,-0.0647018970131874,-0.1251931905940175,0.040454577322117984
1782835926203576300,0.847576416015625,-0.04703472289741039,-0.14293401446789503,-0.040011071338318285
1782835926213506300,0.85750634765625,-0.05333586886823177,-0.10973667826503515,-0.03686670889798552
1782835926223436300,0.867436279296875,-0.035060207465291024,-0.06845248171836138,0.018878741862624882
1782835926233366300,0.8773662109375,-0.13074410271942616,-0.08658756560683249,0.04609601727519184
1782835926243296500,0.887296630859375,-0.21708383104503154,-0.09500088142603635,-0.03797887139096856
1782835926253226200,0.897226318359375,-0.21753625098764895,-0.08522431442961097,-0.06926314051412046
1782835926263157200,0.9071572265625,-0.19429975230693816,-0.04522884251922369,-0.028158684448525307
1782835926273087200,0.917087158203125,-0.1899585082322359,-0.03227130739912391,0.0217790298813954
1782835926283017500,0.927017578125,-0.1598591380447149,-0.06143558869361877,0.0360612377339974
1782835926292947200,0.936947265625,-0.07768938888013363,-0.09115852678418158,-0.05967800443656742
1782835926302877400,0.94687744140625,-0.03868950387835502,-0.06804273187369107,-0.10312314187679439
1782835926312807400,0.956807373046875,-0.025980244430899618,-0.035723785940557716,-0.0659204424900934
1782835926322737200,0.966737060546875,0.022077391773462293,-0.061404755163937806,0.003373896879889071
1782835926332667400,0.97666748046875,0.04517945041954517,-0.12846242152303455,0.006355141180381179
1782835926342597000,0.98659716796875,0.0388169296503067,-0.1441997966200113,-0.0725004419349134
1782835926352527400,0.99652734375,0.039344168394804,-0.11709449368193744,-0.09573310469072312
1782835926362458000,1.0064580078125,0.09169745596647262,-0.07648220504745841,-0.07476732742097228
1782835926372388400,1.016388427734375,0.04989186589419842,-0.0894100756816566,-0.0753399031445384
1782835926382318300,1.026318359375,0.02361293077766895,-0.11479790717735885,-0.07195519260969012
1782835926392248300,1.036248291015625,0.0022878186762332916,-0.11152721494361757,-0.03470898287482559
1782835926402178300,1.04617822265625,-0.11064824015200138,-0.12539192803651095,0.004223499446548522
1782835926412108500,1.056108642578125,-0.16636837380826472,-0.15258198664858935,-0.07888718382995576
1782835926422038300,1.066038330078125,-0.1701169126868248,-0.14608020353913306,-0.15133359402269125
1782835926431968500,1.075968505859375,-0.22340485076010225,-0.12663959001004696,-0.1606372828103602
1782835926441898200,1.085898193359375,-0.19321604872345924,-0.15285408158823846,-0.13131547286659478
1782835926451828200,1.095828125,-0.078043024623394,-0.19395181565210223,-0.10275818102192133
1782835926461758500,1.105758544921875,-0.054714756006002424,-0.19596096351742742,-0.0617557970913127
1782835926471689200,1.115689208984375,-0.10387129336297511,-0.17744491748735308,0.001291391517408192
1782835926481619500,1.125619384765625,-0.10633213051855564,-0.16825521046817302,0.03673336484190076
1782835926491549200,1.135549072265625,-0.08358020048439502,-0.14820055669397114,-0.019924086197093127
1782835926501479400,1.1454794921875,-0.1138712938517332,-0.10642390045523643,-0.11063541720304637
1782835926511409400,1.155409423828125,-0.17837912959754465,-0.14050766410380602,-0.1469762025307864
1782835926521339400,1.16533935546875,-0.10361410373151302,-0.26501316469460723,-0.15297931540310383
1782835926531269400,1.175269287109375,-0.09397533777058124,-0.28847046651914715,-0.05347553306724876
1782835926541199400,1.185199462890625,-0.14123451707363127,-0.2248094568610191,0.026216793133132157
1782835926551129300,1.19512939453125,-0.0527291351467371,-0.16370383077412842,-0.020129362978227434
1782835926561059300,1.205059326171875,-0.05673661722242832,-0.07978373081088065,-0.0816789334403351
1782835926570990300,1.214990234375,-0.1156622689217329,-0.04407514243945479,-0.05633691384773701
1782835926580920300,1.22492041015625,-0.007111877831816673,-0.05264233364611864,-0.0908007993876934
1782835926590850300,1.234850341796875,0.012163316002488135,-0.061805444919317956,-0.058044850276783105
1782835926600780300,1.2447802734375,-0.1188210252135992,-0.07973521549403667,0.002766249842941761
1782835926610710300,1.254710205078125,-0.08442892626821995,-0.15603782619088888,-0.0032281682662665843
1782835926620640300,1.26464013671875,-0.012227028888463973,-0.19100904019847512,-0.052883047066815195
1782835926630570500,1.274570556640625,0.031684009030461306,-0.1572235288441181,-0.08960494066663086
1782835926640500200,1.284500244140625,0.12512801640331744,-0.15575053368210792,-0.09297332112118602
1782835926650430500,1.294430419921875,0.13153203822672366,-0.1775955780044198,-0.020038615954853595
1782835926660360400,1.3043603515625,0.11987608722448348,-0.22081191165745256,-0.05172697236686945
1782835926670291500,1.31429150390625,0.1015630164206028,-0.20435922789797187,-0.10110661442261189
1782835926680221400,1.324221435546875,0.054391515401005744,-0.16659619121477007,-0.09949307827875017
1782835926690151200,1.334151123046875,-0.013607669591903685,-0.1403760005481541,-0.10702022238057106
1782835926700081400,1.344081298828125,-0.08034720991253852,-0.13114216212630272,-0.04898903530295938
1782835926710011100,1.35401123046875,-0.12711363726258276,-0.15577639877572655,-0.026362594811990856
1782835926719941400,1.36394140625,-0.073542790594697,-0.19590046550184487,-0.09629139616061001
1782835926729871400,1.373871337890625,-0.041129298245906824,-0.16196487815231084,-0.1196101662972942
1782835926739801300,1.38380126953125,-0.13827274465858935,-0.10737740178778767,-0.10619250285215676
1782835926749731300,1.3937314453125,-0.19984744956195352,-0.17380889907255767,-0.0602766279168427
1782835926759661300,1.403661376953125,-0.11073358034789561,-0.25916210057884453,-0.05190857601147145
1782835926769592300,1.41359228515625,-0.10472469532191753,-0.26456016023010015,-0.01413344703167677
1782835926779522300,1.423522216796875,-0.1499398015767336,-0.22212504008263348,0.005805654071457684
1782835926789452300,1.433452392578125,-0.10418225900828838,-0.2259387531518936,-0.08282094308231025
1782835926799382500,1.443382568359375,-0.1201414601624012,-0.24716668848916887,-0.1384884332358837
1782835926809312300,1.453312255859375,-0.130436644205451,-0.23343685382232068,-0.1099361828925088
1782835926819242200,1.4632421875,-0.08567804954648017,-0.18241583776772022,-0.08111143575068563
1782835926829172500,1.47317236328125,-0.10626666406691074,-0.13413242998346686,-0.005138678062707186
1782835926839102200,1.483102294921875,-0.20487842946648596,-0.13692878270372746,0.05738382908478379
1782835926849032400,1.493032470703125,-0.31480303151905537,-0.19736074731275438,-0.023806992045044897
1782835926858962200,1.502962158203125,-0.29477672705650326,-0.20168723220974205,-0.07299381494242697
1782835926868893400,1.5128935546875,-0.2114864494293928,-0.12606982729807495,0.01052497421093285
1782835926878823200,1.5228232421875,-0.1174614272981882,-0.10356091223955154,0.06839446792080998
1782835926888753400,1.53275341796875,-0.09629998132586479,-0.1407188226364553,0.042778636355511844
1782835926898683400,1.542683349609375,-0.10993629249036312,-0.1850546618387103,0.016349332982860506
1782835926908613400,1.55261328125,-0.06390928533077239,-0.21583850715905425,0.04585910324677825
1782835926918543400,1.56254345703125,-0.028140637335181233,-0.2150279214285314,0.056696248679421836
1782835926928473300,1.572473388671875,-0.06997194637060165,-0.1699246049851179,0.08722136999834329
1782835926938403300,1.5824033203125,-0.012616904988884925,-0.14187339949905872,0.08412398850489407
1782835926948333300,1.592333251953125,0.05197685547471046,-0.09533858894780278,0.04296042266320437
1782835926958264300,1.602264404296875,-0.03963993647098541,-0.07191095160916447,-0.003803593534044921
1782835926968194300,1.6121943359375,-0.09267769917547702,-0.13513532341569662,-0.013278437637537718
1782835926978124300,1.622124267578125,-0.03245966957807541,-0.15852087517827748,-0.013718436489999293
1782835926988054300,1.63205419921875,0.018296704190969466,-0.09739932086989284,-0.007851736413687468
1782835926997984500,1.641984619140625,-0.04487257642745971,-0.06903335034623742,0.02466802932117134
1782835927007914200,1.651914306640625,-0.015688567519187926,-0.07451105110496282,0.007523088981211185
1782835927017844200,1.66184423828125,-0.03666588909626007,-0.08108326910212635,0.010283237876929342
1782835927027774200,1.671774169921875,-0.044747488743066784,-0.07608370724916458,0.037739144350960846
1782835927037704200,1.6817041015625,-0.08871171815395355,-0.07641615407392383,0.020498707747273148
1782835927047634400,1.691634521484375,-0.1839893706947565,-0.05865180319398641,0.017183884110860526
1782835927057565200,1.701565185546875,-0.13817746759057045,-0.07373495216593146,-0.04162212326414883
1782835927067495400,1.711495361328125,-0.14152794706225394,-0.08059227071478962,-0.06828676976263523
1782835927077425200,1.721425048828125,-0.20813713900148867,-0.1214282851025462,-0.11439469667132943
1782835927087355400,1.73135546875,-0.20929799947440622,-0.18008520286306737,-0.14402907969560474
1782835927097285400,1.741285400390625,-0.14503858553171156,-0.1821909429706633,-0.11025387053955346
1782835927107215400,1.75121533203125,0.001169043779373169,-0.10840192252993583,-0.07259385583940893
1782835927117145300,1.761145263671875,-0.010509703576564788,-0.064047086366266,-0.06113890730198472
1782835927127075000,1.771074951171875,-0.05607376939952373,-0.11119988268539309,-0.05840020305309444
1782835927137005300,1.78100537109375,-0.12507716299891472,-0.2134159561872482,-0.0912409809032455
1782835927146935300,1.790935302734375,-0.09526596210300922,-0.2387221007488668,-0.09258121653106063
1782835927156866300,1.8008662109375,-0.11619535288512706,-0.1767781241416931,-0.1177584374833852
1782835927166796300,1.81079638671875,-0.10951134507656096,-0.15371668976694344,-0.11356131458710879
1782835927176726300,1.820726318359375,-0.04084989678263664,-0.16606354564279316,-0.12351188644357025
1782835927186656300,1.83065625,0.016588731229305265,-0.17163637733906506,-0.14512279321644456
1782835927196586500,1.84058642578125,0.11648352217674254,-0.16637509580999613,-0.11048121302202343
1782835927206516200,1.85051611328125,0.05726794762015342,-0.16961393160074947,-0.08866470067445188
1782835927216446500,1.860446533203125,-0.028041268613934515,-0.19585092727169393,-0.0713771369934082
1782835927226376200,1.870376220703125,0.027562545186281203,-0.21158742558583615,-0.08504234545882791
1782835927236306200,1.88030615234375,-0.03513327270150184,-0.1748741902165115,-0.09406272379308939
1782835927246237200,1.8902373046875,-0.12474457004368304,-0.16250526863932607,-0.08044095261059701
1782835927256167200,1.900167236328125,-0.07346972535848617,-0.20711817121729253,-0.08456201459597795
1782835927266097400,1.910097412109375,-0.1594499727219343,-0.22091420298814773,-0.0887167961878702
1782835927276027100,1.920027099609375,-0.10411737707853316,-0.22582404073104262,-0.1664580248530954
1782835927285957400,1.929957275390625,-0.045940497919917105,-0.17748729532435537,-0.17276695227157324
1782835927295887000,1.93988720703125,-0.03637947337031364,-0.1642174793846905,-0.12462434119749813
1782835927305817300,1.9498173828125,0.008944353955984115,-0.1412359783783555,-0.05915419975817203
1782835927315747300,1.959747314453125,-0.03466214805841446,-0.1729537435479462,-0.02917023611124605
1782835927325677300,1.96967724609375,0.0330003523260355,-0.2441512861907482,-0.001565970675088465
1782835927335607300,1.979607177734375,0.055793783414363855,-0.2278350882925093,0.0003768339557573199
1782835927345538300,1.989538330078125,0.02543897716104984,-0.16021964192017912,0.031005232986062763
1782835927355468300,1.99946826171875,-0.006475333493947982,-0.1347971775025129,0.006948503963649272
1782835927365398500,2.0093984375,-0.09649170450568198,-0.11151187124401331,0.013280300801061093
1782835927375328300,2.019328369140625,-0.20031331350803375,-0.1597800814591348,0.023724428328126667
1782835927385258200,2.02925830078125,-0.17508184161782264,-0.20089315922260284,-0.012809578016772865
1782835927395188200,2.039188232421875,-0.13850947602391242,-0.14318462822809813,-0.061859586259350174
1782835927405118200,2.0491181640625,-0.11481880383491515,-0.08741597925499081,-0.0409860173176974
1782835927415048400,2.05904833984375,-0.04062719394266605,-0.11877294828817248,0.0004103708991780877
1782835927424978200,2.068978271484375,0.005267126747965812,-0.18878873380050062,0.006472849275916815
1782835927434909400,2.078909423828125,-0.061821957662701606,-0.2037067553386092,0.00011854834575206041
1782835927444839200,2.088839111328125,-0.09836392811834811,-0.17983663492947816,-0.005582585905306041
1782835927454769400,2.098769287109375,-0.05241875402331352,-0.15426146416813133,-0.02450863750837743
1782835927464699400,2.108699462890625,-0.07469839037060737,-0.11260507330819963,-0.019259119482338428
1782835927474629400,2.11862939453125,-0.16270400608181954,-0.07861717124953865,0.012509206830710173
1782835927484559400,2.128559326171875,-0.16304770495295523,-0.14676219445392488,0.014577975928783416
1782835927494489000,2.138489013671875,-0.16705635607242583,-0.20621976107284426,0.003475567156076431
1782835927504419300,2.14841943359375,-0.1388806474238634,-0.18640505353435874,0.004677563356980681
1782835927514349300,2.158349365234375,-0.07320201433300971,-0.14651771817356346,0.026950952626578508
1782835927524279300,2.168279296875,0.0049789574563503265,-0.13619754581972957,0.005461261080577969
1782835927534210300,2.178210205078125,0.13023849128484724,-0.17848580484241247,-0.0033214360402896996
1782835927544140300,2.188140380859375,0.19952362443506716,-0.1734397734992206,0.0015627558046951888
1782835927554070300,2.1980703125,0.17271043631136415,-0.15579071956202387,0.019316475692763922
1782835927564000300,2.208000244140625,0.011816694521903991,-0.2273781383052468,0.022020072095654902
1782835927573930200,2.21793017578125,-0.003933247795701027,-0.31476679116189477,-0.04351305157728493
1782835927583860500,2.227860595703125,0.043591888967156406,-0.24221461903974412,-0.07308131056278944
1782835927593790200,2.237790283203125,0.07185293781161307,-0.08012742968201637,-0.02239566394239664
1782835927603720200,2.24772021484375,0.05279693968594074,-0.04840630351155996,-0.016193265638314188
1782835927613650400,2.257650390625,-0.07966916452050209,-0.1450663503214717,-0.046547268174029884
1782835927623581400,2.26758154296875,-0.16841595398783682,-0.2174231460019946,-0.07362075120173395
1782835927633511400,2.277511474609375,-0.18758067318499086,-0.2077053234554827,-0.05018328658882528
1782835927643441200,2.287441162109375,-0.22416414469480514,-0.14318755083754658,-0.023680260392837226
1782835927653371400,2.297371337890625,-0.23608371506929396,-0.14979849340990184,-0.03693728991616517
1782835927663301000,2.307301025390625,-0.17740648517310617,-0.19722718406096099,-0.06296594006605447
1782835927673231400,2.3172314453125,-0.11389467472732066,-0.1967668730728328,-0.05288728485051542
1782835927683161300,2.327161376953125,-0.14014672183692453,-0.14360402268394826,-0.010624306399561464
1782835927693091300,2.33709130859375,-0.21340251218378542,-0.15907237158119678,0.0028507863212376833
1782835927703021300,2.347021240234375,-0.08770984763503074,-0.21939429994449017,-0.06367686481438577
1782835927712952300,2.356952392578125,-0.11080547654032706,-0.19793343263417482,-0.0588684050867334
1782835927722882300,2.36688232421875,-0.17599194220006464,-0.17135259196162222,-0.039925658077187835
1782835927732812300,2.376812255859375,-0.09053893358111381,-0.1984929662130773,-0.022480675344727932
1782835927742742300,2.3867421875,-0.08023556623160838,-0.21791078338846562,-0.028493104034662244
1782835927752672300,2.39667236328125,-0.06466448761224747,-0.2027574917897582,-0.007131422782503068
1782835927762602200,2.406602294921875,-0.04705342759788036,-0.16575491808503864,0.0071545479297637935
1782835927772532200,2.4165322265625,-0.02442600072622299,-0.15738851014748215,-0.01824515666682273
1782835927782462500,2.42646240234375,-0.051606268596649164,-0.16892039637863634,-0.07984989138226956
1782835927792392200,2.43639208984375,-0.032926118046045304,-0.1984760150782764,-0.03405987131632864
1782835927802323500,2.446323486328125,0.028111995762586592,-0.2177101462498307,0.027358839307725428
1782835927812253200,2.456253173828125,0.08807049764096736,-0.19925679019242523,0.03206044112741947
1782835927822183400,2.466183349609375,0.05456394935846329,-0.15116466719657182,0.011943864565528928
1782835927832113200,2.476113037109375,0.006481178712844848,-0.17422756287604568,-0.05850479593873024
1782835927842043400,2.48604345703125,-0.014820552513003349,-0.20292334987595675,-0.07067118068113923
1782835927851973400,2.495973388671875,-0.06024608664810657,-0.2017962455421686,-0.0015113178784027694
1782835927861903000,2.505903076171875,-0.018068156132102012,-0.2088650148846209,0.02346373156532645
1782835927871833300,2.515833251953125,0.10792261458039283,-0.18480974716693163,0.0275726647214964
1782835927881763300,2.525763427734375,0.05243102898299694,-0.1276020053014159,-0.03585205196272582
1782835927891694300,2.5356943359375,-0.07270224811732769,-0.08125614145100116,-0.10417034937478602
1782835927901624300,2.545624267578125,-0.14131810370385647,-0.11476868108287452,-0.0757119147947058
1782835927911554300,2.55555419921875,-0.08340309035181999,-0.21778291922509668,-0.01258263739310205
1782835927921484300,2.565484375,-0.04011632181107998,-0.25344723006337877,0.05893058360274881
1782835927931414300,2.575414306640625,-0.045373511686921116,-0.21512407527938485,0.062317011170648036
1782835927941344300,2.58534423828125,0.03108136696219444,-0.1753233952887356,0.0129657549591735
1782835927951274800,2.595274658203125,0.09395020332932472,-0.1345066701233387,-0.024873744493722913
1782835927961204700,2.605204833984375,0.11894962002933025,-0.13701426903009414,-0.006235131529904902
1782835927971134700,2.615134765625,0.1425707341134548,-0.1381914961159229,0.007450790929980576
1782835927981065700,2.625065673828125,0.20616788475513456,-0.13044775012135504,-0.07017872098907828
1782835927990995700,2.63499560546875,0.20446575701236724,-0.051869741838425396,-0.0866557720048353
1782835928000925700,2.64492578125,0.2138046632438898,-0.07377279995828867,-0.09326572819650172
1782835928010855700,2.654855712890625,0.31732524347305296,-0.17093027489632368,-0.08476645112689583
1782835928020785700,2.66478564453125,0.2961222964465618,-0.1981906222656369,-0.06224650321770459
1782835928030715600,2.674715576171875,0.31458442033231254,-0.18415610556378958,-0.04773877951353788
1782835928040645600,2.684645751953125,0.2671288416743278,-0.11825316219776869,-0.04388360192272812
1782835928050575600,2.69457568359375,0.1497784735351801,-0.03198459941223263,-0.0428195528877899
1782835928060505600,2.704505615234375,0.07120762564539909,-0.045907764694094653,-0.11000873667206615
1782835928070436600,2.7144365234375,0.07963467772901058,-0.06274667129218578,-0.13330993461944163
1782835928080366600,2.72436669921875,0.025250761112570762,-0.04561155822649598,-0.1034891621775925
1782835928090296800,2.734296875,-0.011481178957223892,-0.019435645093023778,-0.09503935027290135
1782835928100226600,2.7442265625,-0.04887947398126125,-0.04000862365290522,-0.06565386397577821
1782835928110156800,2.75415673828125,-0.015881459742784498,-0.07160305470377207,-0.052273244605399664
1782835928120086800,2.764086669921875,-0.03810030581355095,-0.06058832421451807,-0.07050513993185013
1782835928130016500,2.7740166015625,-0.1082072767406702,-0.03115954676494002,-0.08029737942144274
1782835928139946800,2.78394677734375,-0.14193769690692423,-0.11070391586199402,-0.08537954152394085
1782835928149876500,2.79387646484375,-0.21378245141208171,-0.19305881233513353,-0.06583762304484844
1782835928159807700,2.803807861328125,-0.17744097196459768,-0.17937617781087756,-0.047694575045630336
1782835928169737500,2.813737548828125,-0.056498716813325876,-0.05881663836687803,0.00787814949657768
1782835928179667700,2.823667724609375,-0.16203648208379745,0.03332899975851178,0.028009485236182807
1782835928189597700,2.83359765625,-0.20327508592307567,-0.041593116365373134,0.012134162973240017
1782835928199527700,2.843527587890625,-0.36484044336378574,-0.13547054671943187,-0.04295682420032099
1782835928209457700,2.853457763671875,-0.32977848233282564,-0.15217019097730516,-0.04366853439994156
1782835928219387600,2.8633876953125,-0.22586685695946215,-0.10662336855009198,0.0029614984204061326
1782835928229317600,2.873317626953125,-0.3323503786474466,-0.07591390364021063,0.0268509993834421
1782835928239247600,2.88324755859375,-0.2740057417064905,-0.1006388873130083,0.06390249026380479
1782835928249178600,2.8931787109375,-0.23946926585435865,-0.15326777695566415,0.04441018308009952
1782835928259108900,2.90310888671875,-0.16282850924432277,-0.17331643938049673,0.020132504783384502
1782835928269038600,2.91303857421875,-0.11612696382403373,-0.1604099037952721,-0.010167593874316662
1782835928278968600,2.922968505859375,-0.022429858472943303,-0.1408390880152583,-0.002989555471111089
1782835928288898800,2.93289892578125,0.03444645948112011,-0.11917962939292191,-0.01220890870988369
1782835928298828500,2.94282861328125,-0.08338380112946032,-0.13278919868096709,-0.016045600795932112
1782835928308758800,2.9527587890625,-0.1056798040896654,-0.22459552184939383,-0.0351204680188559
1782835928318688500,2.9626884765625,0.00018587796092033385,-0.26845672927722336,0.005173329250980168
1782835928328619800,2.972619873046875,-0.039862639310956,-0.21010157094225287,0.06582231587786228
1782835928338549500,2.982549560546875,-0.03590717968344688,-0.11834317856878042,0.08273074404820799
1782835928348479700,2.992479736328125,-0.12195523158609867,-0.09767696876749396,0.03645845689065754
1782835928358409700,3.00240966796875,-0.34850422559082506,-0.1480212546043098,-0.03906867592167109
1782835928368339700,3.012339599609375,-0.40927872002720833,-0.1635848805695772,-0.1285746497258544
1782835928378269700,3.022269775390625,-0.25681319936513897,-0.16681275657489894,-0.0803929122177884
1782835928388199700,3.03219970703125,-0.1451771172195673,-0.1299162005279213,0.017404687254689633
1782835928398129700,3.042129638671875,-0.05731120223999023,-0.15153021257333457,0.04764574920153245
1782835928408059600,3.0520595703125,-0.021512159106135367,-0.21908837580047547,-0.005639394126459956
1782835928417990700,3.06199072265625,-0.06605506518781185,-0.24806692526452243,-0.0787930758057162
1782835928427920600,3.071920654296875,-0.14827508323490618,-0.22270488579720257,-0.1036230724892579
1782835928437850600,3.0818505859375,-0.16062895337343214,-0.18965053826160727,-0.08907435918757692
1782835928447780600,3.091780517578125,-0.19291969612538815,-0.1426011292517185,-0.03413774059182033
1782835928457710800,3.1017109375,-0.17698913654386997,-0.09906140886321663,0.002775309932231903
1782835928467640600,3.111640625,-0.16493395709097383,-0.08044723622091114,-0.030280005717743187
1782835928477570800,3.12157080078125,-0.16953940505981444,-0.09944938526749611,-0.05997411957262083
1782835928487500500,3.13150048828125,-0.18669687608778476,-0.13854717768579722,-0.05940190917523577
1782835928497431800,3.141431884765625,-0.252381938919425,-0.19328926009014247,-0.007637984065152704
1782835928507361500,3.151361572265625,-0.24234920520484446,-0.22497093103304505,-0.05142643678402528
1782835928517291800,3.161291748046875,-0.14804945778548717,-0.20856617806851863,-0.09828594924500211
1782835928527221800,3.1712216796875,-0.07668634931743144,-0.14227891156002878,-0.011476064390689133
1782835928537151500,3.1811513671875,-0.1104687919318676,-0.11480550596192478,0.06680694300103933
1782835928547081700,3.191081787109375,-0.11478431704342365,-0.13326003106310963,0.05032404676638543
1782835928557011700,3.20101171875,-0.153014386716485,-0.15996252535395322,0.011542590288259089
1782835928566941700,3.210941650390625,-0.19444003756046294,-0.17432715079300104,0.005623648568056524
1782835928576871700,3.22087158203125,-0.13799042058587074,-0.18721731976531444,0.02036346399504691
1782835928586802700,3.230802734375,0.002494739425182342,-0.2072279152020812,0.025234029173478483
1782835928596732700,3.240732666015625,0.05645546219348907,-0.1964250738978386,0.0026658216757699848
1782835928606662700,3.25066259765625,-0.00041851767301559446,-0.17740261271558702,0.06842387667838484
1782835928616592600,3.260592529296875,-0.144689041441679,-0.23268610852025448,0.12874463599789887
1782835928626523000,3.27052294921875,-0.170866269749403,-0.32235059735439714,0.06758077691774815
1782835928636452600,3.28045263671875,-0.11623334680795669,-0.2894571394689381,-0.0024229162979871035
1782835928646382600,3.290382568359375,-0.03362637526988983,-0.17094481487832963,-0.01100778929181397
1782835928656312800,3.300312744140625,0.029559856483340263,-0.1316072223547846,0.0042320480791851875
1782835928666242600,3.31024267578125,-0.048369186371564864,-0.1826858138155192,0.016144092734344303
1782835928676173600,3.320173583984375,-0.16159516805708407,-0.3035692514516413,-0.002015358410403132
1782835928686103600,3.330103515625,-0.16205518678426742,-0.34853571670763195,-0.06685706575307995
1782835928696033800,3.34003369140625,-0.0851671774148941,-0.2673125276781618,-0.05027976923324167
1782835928705963500,3.349963623046875,-0.053121349334716794,-0.18444865876957772,-0.005942541791498661
1782835928715893800,3.359893798828125,-0.0034007483541965483,-0.18917378759533165,0.013055588667094708
1782835928725823700,3.36982373046875,-0.07021043130159378,-0.23139051575176417,-0.022138620441406964
1782835928735753700,3.379753662109375,-0.14866963551044463,-0.2660410464376211,-0.03553684853371233
1782835928745683700,3.38968359375,-0.13700374763607978,-0.28457871977761384,-0.02132624461259693
1782835928755614700,3.39961474609375,-0.17240706945061682,-0.2648556360453367,-0.0276070784477517
1782835928765544700,3.409544677734375,-0.0543149430334568,-0.22934936531297861,-0.07411171305645257
1782835928775474400,3.419474365234375,0.10368073922693728,-0.1996366563554853,-0.05850921638552099
1782835928785404700,3.42940478515625,0.03968669822216034,-0.1866282678309828,-0.024306064140982925
1782835928795334700,3.439334716796875,-0.06839432179033755,-0.25774127399548885,0.018347484530135988
1782835928805264600,3.4492646484375,-0.05045242238640785,-0.3254825387045741,-0.04236691374946385
1782835928815194600,3.459194580078125,-0.014162380865216255,-0.23544790138378738,-0.08385496230516583
1782835928825124900,3.469124755859375,-0.016449615019559858,-0.12649221742860972,-0.05183200364392251
1782835928835055600,3.4790556640625,0.05805179147422313,-0.11954985094480215,0.015910649304650724
1782835928844985600,3.488985595703125,0.028967735809087753,-0.17860796991735695,0.05747187269441783
1782835928854915600,3.49891552734375,-0.10209668490588665,-0.22840806587487458,0.017866532612778246
1782835928864845800,3.508845703125,-0.177645554625988,-0.21052030781097708,-0.11443338471390306
1782835928874775600,3.518775634765625,-0.09683131172358989,-0.09679192956127226,-0.15404292604662478
1782835928884705800,3.528705810546875,-0.048669630622863766,0.0068010583169758314,-0.1124306665893644
1782835928894635800,3.5386357421875,-0.05449205316603183,0.017323621375113726,-0.0261084008552134
1782835928904565500,3.5485654296875,-0.07078735440671444,-0.07272570205815136,-0.008590645147487521
1782835928914496800,3.558496826171875,-0.16893793203532695,-0.18011048343479633,-0.04565189023688435
1782835928924426500,3.568426513671875,-0.26973580930233,-0.2065907863423228,-0.11028751708082854
1782835928934356700,3.578356689453125,-0.16133797842562198,-0.144884856274724,-0.1428628489278257
1782835928944286500,3.588286376953125,-0.06540975302159786,-0.06113178344145417,-0.12186375391036271
1782835928954216000,3.5982158203125,-0.08798515744507313,-0.047633492508158085,-0.08600424929354339
1782835928964146000,3.60814599609375,0.016277181062102318,-0.09643734396994114,-0.09555511777531354
1782835928974076200,3.618076171875,0.067194298350811,-0.11009257903061806,-0.08416863136421888
1782835928984006000,3.628005859375,0.05218085361421108,-0.09153225546739995,-0.05750226783268153
1782835928993936100,3.63793603515625,-0.02486263857781887,-0.1119324347436428,-0.07194481734614819
1782835929003867000,3.647866943359375,-0.0897989288687706,-0.15660539694577455,-0.1521589023983106
1782835929013797000,3.657797119140625,-0.05767126772403717,-0.16502280441820621,-0.10062811019066721
1782835929023726800,3.667726806640625,-0.0871411078363657,-0.12765285870581863,-0.026192352811619638
1782835929033657000,3.677656982421875,-0.1083031383305788,-0.13086268759779632,-0.017124591671675442
1782835929043587000,3.687587158203125,-0.11751286522448062,-0.12854220876097677,-0.08822514021340758
1782835929053516800,3.697516845703125,-0.14688158304989338,-0.1011526820540428,-0.11474592126179486
1782835929063447000,3.707447021484375,-0.16513035644590854,-0.13573043976463375,-0.0783461357558146
1782835929073376800,3.717376708984375,-0.11364683744609355,-0.1859254533238709,-0.04175663636401295
1782835929083308000,3.72730810546875,-0.21141864489018916,-0.17318236467204987,0.040731238839030265
1782835929093237800,3.73723779296875,-0.2243909391880035,-0.1668548421509564,-0.019804843731597063
1782835929103168000,3.74716796875,-0.08577975635528563,-0.11765797278359531,-0.08180040439553558
1782835929113098000,3.757097900390625,-0.16391455091536045,-0.03117985890060663,-0.021933672453835606
1782835929123028000,3.767028076171875,-0.14946633884608745,-0.09089490741193294,0.025126038754358888
1782835929132958000,3.7769580078125,-0.09428396532833576,-0.18737389856651424,0.028787849197536707
1782835929142888200,3.78688818359375,-0.19584289009571074,-0.2131269831780344,0.033674232999607916
1782835929152818000,3.79681787109375,-0.3004442512989044,-0.18519333965703844,0.004632372508384287
1782835929162749000,3.8067490234375,-0.196036366841197,-0.16751337912492453,-0.08930515400245785
1782835929172679000,3.816678955078125,-0.11191373004317283,-0.12297668358832597,-0.053873190615326166
1782835929182609000,3.82660888671875,-0.09834522341787814,-0.11575557322837411,-0.02235003470238298
1782835929192539000,3.836538818359375,0.007594692912697792,-0.1511597718257457,-0.015388744322396813
1782835929202468900,3.84646875,-0.004690203642845153,-0.17970577509142457,-0.00014803016856312752
1782835929212399000,3.856399169921875,-0.02700315773785114,-0.1616499669842422,-0.013381751881539821
1782835929222328800,3.866328857421875,0.019497896674275397,-0.12100874451622366,-0.047763585161231456
1782835929232259000,3.876259033203125,0.04926818103790283,-0.07468414264954626,-0.05660579391699284
1782835929242189800,3.88618994140625,0.0018991116195917128,-0.058698711075633764,-0.007063983569480479
1782835929252120000,3.8961201171875,0.07329495331346988,-0.07657280594035983,0.002198204164020717
1782835929262049800,3.9060498046875,0.07921382196843624,-0.043726694327965374,-0.0008291077679023146
1782835929271980000,3.91597998046875,0.03237842103540897,-0.023500556444376704,0.004513203108124435
1782835929281910000,3.925909912109375,0.06194704534709453,-0.06871208250261843,-0.04368106508795172
1782835929291840000,3.935840087890625,0.040002340042591095,-0.08376081774830818,-0.03138725457359105
1782835929301770000,3.94577001953125,0.002683539995551109,-0.09964885336235164,0.008443053370341657
1782835929311700000,3.955699951171875,0.06242927590608596,-0.10065620377399027,-0.025242285545170304
1782835929321630000,3.9656298828125,0.06697393359839916,-0.02799268023185432,-0.03638984863385558
1782835929331561000,3.97556103515625,0.012425181809067725,-0.000926174934208393,-0.040980610490217804
1782835929341491000,3.985490966796875,-0.0011064999371767042,-0.07278393505141138,-0.05331358397118747
1782835929351421000,3.9954208984375,-0.039894203492999075,-0.10963402160815894,0.017275032993033526
1782835929361351000,4.005350830078125,-0.025658172869682312,-0.15270488237589597,0.012966777872480451
1782835929371281000,4.015281005859375,0.06253507436811924,-0.14382694471962748,-0.05609532364420593
1782835929381211100,4.025211181640625,-0.051831309524178505,-0.08992430881410837,-0.04654964279420674
1782835929391140900,4.035140869140625,-0.1792138268560171,-0.12885595088526605,-0.054830674003250895
1782835929401071000,4.045071044921875,-0.16571838546693324,-0.17232538251653312,-0.006475296961329877
1782835929411001900,4.055001953125,-0.24791034646332263,-0.18046433837376533,0.03144124978315085
1782835929420932000,4.06493212890625,-0.26295126372873784,-0.18145627202056347,-0.019491832259669897
1782835929430861800,4.07486181640625,-0.2557756730109453,-0.1574982541322708,-0.04507931451331824
1782835929440791800,4.084791748046875,-0.2607300805479288,-0.13907609693072737,-0.04576313205901533
1782835929450722000,4.09472216796875,-0.20397709671258926,-0.15655995036885142,-0.024666933342628178
1782835929460651800,4.10465185546875,-0.146126965290308,-0.20714812796413898,0.007878478290140628
1782835929470582000,4.11458203125,-0.14726678297519682,-0.2124060484923422,0.017269224306754767
1782835929480512800,4.1245126953125,-0.1543272228807211,-0.1783100098840892,0.031674510549753905
1782835929490443000,4.134443115234375,-0.11132628554403781,-0.17472331050373613,-0.006130319448560476
1782835929500373000,4.144373046875,-0.18074176707565784,-0.18967720707282423,-0.01790774140600115
1782835929510303000,4.154302978515625,-0.17464461924433708,-0.21739896140880882,-0.0032156741108745335
1782835929520233000,4.16423291015625,-0.006908464214205741,-0.1757257655445486,0.01572816887721419
1782835929530163000,4.174162841796875,-0.1026736080110073,-0.05471278324462473,0.06640541299544274
1782835929540093000,4.184093017578125,-0.21819091550409792,-0.0798872642505914,0.08591525583583862
1782835929550023000,4.19402294921875,-0.15709902568161488,-0.18660715197771788,0.00502988392598927
1782835929559953000,4.203952880859375,-0.13828209700882435,-0.17160101376473902,-0.021544600071012974
1782835929569884200,4.21388427734375,-0.1569634166032076,-0.109194241951406,0.03590301496498287
1782835929579814000,4.22381396484375,-0.08144026584625244,-0.10013101085610687,0.07042517003081739
1782835929589743900,4.233743896484375,-0.05332008677721023,-0.138869760703668,0.07669394810199737
1782835929599674000,4.243674072265625,-0.09982231023311615,-0.1318497258737683,-0.0010662775246426462
1782835929609603800,4.253603759765625,-0.09436521387100219,-0.1311244803391397,-0.04349255677852779
1782835929619534000,4.2635341796875,-0.07625731025040149,-0.11742730583287775,-0.014686368206702173
1782835929629463800,4.2734638671875,-0.07878361385762692,-0.08618833715617656,0.017562069773487746
1782835929639394000,4.28339404296875,-0.01343406659066677,-0.12054134620018303,0.010197093963436783
1782835929649324800,4.29332470703125,0.0003144727766513824,-0.11004055658243596,-0.036201157661341125
1782835929659255000,4.303255126953125,-0.04097673803269863,-0.07277845515869558,-0.033264300491847094
1782835929669185000,4.31318505859375,-0.08024141145050526,-0.08667641293406486,-0.0021868790524080394
1782835929679115000,4.323114990234375,-0.055391047832369804,-0.11676847659796476,-0.026075265770591795
1782835929689045000,4.333044921875,-0.11894085220098495,-0.07185812544338405,-0.061520746226422486
1782835929698974700,4.342974609375,-0.0854851573228836,-0.06624211219251155,-0.08710797275174409
1782835929708905000,4.352905029296875,0.015002338820695876,-0.09815328104235231,-0.09836688726041465
1782835929718835000,4.3628349609375,0.0341851781964302,-0.09735233992300928,-0.07748411209899932
1782835929728766000,4.372765869140625,0.05788111108243465,-0.1445372849460691,-0.053949726450257
1782835929738696000,4.382696044921875,0.09850713598132133,-0.1522568463474512,-0.09362900855094194
1782835929748626000,4.3926259765625,0.12705869220495222,-0.1051572415202856,-0.09547832621205597
1782835929758556000,4.402555908203125,0.08938274928331374,-0.07944295454919338,-0.06132226451225578
1782835929768486100,4.412486083984375,0.025662264522910115,-0.09299728651866317,-0.0694706823175773
1782835929778415900,4.422415771484375,-0.06289689341783523,-0.1095851409651339,-0.09729407039713114
1782835929788346000,4.43234619140625,-0.1636544386744499,-0.12763539611436425,-0.07848554422650486
1782835929798275800,4.44227587890625,-0.2441547933220863,-0.1306478758033365,-0.12911796282231808
1782835929808207000,4.45220703125,-0.15178046100735665,-0.10145042289160192,-0.1555621715031564
1782835929818136800,4.46213671875,-0.12595686844289303,-0.07342208682447672,-0.10676116958558558
1782835929828067000,4.472067138671875,-0.1775748274773359,-0.08738719155192375,-0.04894833796638995
1782835929837997000,4.4819970703125,-0.14933248333334923,-0.17778211355246604,-0.07391827284358442
1782835929847926800,4.4919267578125,-0.12660042704343796,-0.23110673037432133,-0.11987736586611718
1782835929857857000,4.50185693359375,-0.14932722263634204,-0.2172814725089818,-0.09102251584697514
1782835929867787000,4.511787109375,-0.0867833804398775,-0.1951939246676862,-0.08167301515620201
1782835929877718000,4.521718017578125,-0.04898585696518421,-0.17688626069128513,-0.11321761571597307
1782835929887647700,4.531647705078125,-0.05279343255460262,-0.19585655329488216,-0.1257405588110909
1782835929897578000,4.541577880859375,-0.10652443822026252,-0.22820253336541355,-0.13382672503516077
1782835929907508000,4.551508056640625,-0.026938860329985617,-0.2259043394256383,-0.13108780159056185
1782835929917438000,4.56143798828125,-0.030130934369564055,-0.18097674487531185,-0.04528444516398012
1782835929927368000,4.571367919921875,-0.0945125133872032,-0.16165113602802156,-0.038971754885837435
1782835929937298200,4.581298095703125,-0.08314005550146103,-0.15584931788146494,-0.08073204451166092
1782835929947228000,4.591227783203125,-0.1521264979660511,-0.17284991784729062,-0.11825904394928365
1782835929957162800,4.601162841796875,-0.09131108699738978,-0.25693894463665784,-0.0921166312266141
1782835929967092700,4.6110927734375,0.02112637465894222,-0.27794410406872627,-0.039482225158624346
1782835929977023000,4.62102294921875,0.042756607186794277,-0.20874540709294379,-0.022012107984907926
1782835929986952700,4.63095263671875,0.04044131598174572,-0.14463760351538657,-0.024990685404278335
1782835929996882700,4.640882568359375,0.01229775603711605,-0.14157324750870465,-0.029874183129519224
1782835930006813000,4.65081298828125,-0.10228840808570384,-0.16218173577338457,-0.046202509856969116
1782835930016742700,4.66074267578125,-0.18774726192355154,-0.17053177709802983,-0.01980224991571158
1782835930026673000,4.6706728515625,-0.1562473772883415,-0.1280548636354506,-0.013000570544227957
1782835930036603600,4.680603759765625,-0.10588555579483508,-0.05202405561730265,-0.00789415078330785
1782835930046534000,4.690533935546875,-0.08721300402879714,-0.021736615511775016,0.0003219619633629918
1782835930056463600,4.700463623046875,-0.11133096171915531,-0.07442293443009257,0.014883169420436024
1782835930066393900,4.710393798828125,-0.15394202295541762,-0.15464681022390722,0.02910181051753461
1782835930076323800,4.72032373046875,-0.11133388432860374,-0.1964887137185782,0.03249364491291344
1782835930086253800,4.73025390625,-0.014065934753417967,-0.14421061027497054,0.0315037205601111
1782835930096183800,4.740183837890625,0.03290799786746502,-0.07661189584173261,-0.004781462122872472
1782835930106113800,4.75011376953125,0.07716507274508476,-0.07256364336423575,0.0018705796448513865
1782835930116044800,4.760044921875,0.0633645109295845,-0.13028349947035311,0.033090551360137756
1782835930125974800,4.769974853515625,0.008346972584724426,-0.14553952079117297,0.030308300230465827
1782835930135904800,4.77990478515625,-0.05311316602826118,-0.10228234367109834,0.03571655248217284
1782835930145834800,4.789834716796875,-0.13705167843103408,-0.06358772522620856,0.031075339080207046
1782835930155764700,4.7997646484375,-0.032387188863754274,-0.06904547917544841,-0.02266096381507814
1782835930165694700,4.80969482421875,-0.09453355617523193,-0.039549993165209886,-0.10116926786266267
1782835930175625000,4.819625,-0.15996610555052757,-0.023605916514992713,0.007352152861095964
1782835930185554700,4.8295546875,-0.08147825976908206,-0.07974990160651504,0.1003371644200757
1782835930195486000,4.83948583984375,-0.19828209994137286,-0.15401450366973876,0.035796668513678014
1782835930205415700,4.849415771484375,-0.15807108558416366,-0.1828651889704168,-0.07196757716722786
1782835930215346000,4.859345947265625,-0.08877776912748814,-0.16571707029268146,-0.08494396311827003
1782835930225275600,4.869275634765625,-0.06598492256104946,-0.1411401898536831,0.01970463476013392
1782835930235206000,4.879205810546875,0.04454173703789711,-0.09274681888893246,0.029095417309366167
1782835930245136000,4.889135986328125,0.03774199389517307,-0.07314188164360821,-0.0419817138241604
1782835930255065600,4.899065673828125,-0.07012976728081703,-0.09405432129092514,-0.08484777273479849
1782835930264996900,4.908996826171875,-0.07099485967755317,-0.1567042542103678,-0.09814363643117248
1782835930274926800,4.9189267578125,0.002499415600299835,-0.16126235590614377,-0.03420216586384922
1782835930284856800,4.92885693359375,0.05896539918780327,-0.13776011896133422,0.016653467028588057
1782835930294786800,4.938786865234375,0.08707271877527237,-0.16371953979991374,-0.007748166441358626
1782835930304716800,4.948716796875,0.0035579847425222396,-0.21022563571333883,-0.06437978891935199
1782835930314646800,4.958646728515625,-0.03923486280143261,-0.23483861037902531,-0.11369411065392196
1782835930324576800,4.96857666015625,-0.08174772436022758,-0.22089622894003985,-0.1149163459252566
1782835930334506800,4.9785068359375,-0.07039981639385223,-0.21210772313289344,-0.06048610594905913
1782835930344437800,4.988437744140625,-0.1262801090478897,-0.20801431633941828,-0.05266487427148968
1782835930354367700,4.99836767578125,-0.14195172543227672,-0.20958646102696657,-0.02068370892535895
1782835930364298000,5.008298095703125,-0.13228139528930186,-0.22424933876022696,-0.04192523439656943
1782835930374227700,5.018227783203125,-0.15122691877782343,-0.18528028728812931,-0.07751147502996027
1782835930384158000,5.028157958984375,-0.1497726283162832,-0.1553479442305863,-0.08425082975495606
1782835930394087700,5.038087646484375,-0.10836217504143714,-0.18386632883697748,-0.07361936296224594
1782835930404017700,5.048017578125,-0.17610124779343603,-0.21290610696896908,-0.051380022092722355
1782835930413948000,5.057947998046875,-0.239655143815279,-0.24548012364171443,-0.04623206474501639
1782835930423879000,5.06787890625,-0.13058394372165202,-0.28086159895062446,-0.016100838114507496
1782835930433809000,5.077808837890625,-0.09861001183390616,-0.1970712628468871,-0.00617949235253036
1782835930443738600,5.087738525390625,-0.13591244526803492,-0.09625453474894165,0.0013545564141124486
1782835930453668900,5.0976689453125,-0.03848024504184722,-0.12659355891123414,-0.04752740178517997
1782835930463598800,5.107598876953125,0.001945288848876953,-0.12800108762159942,-0.07933624277170748
1782835930473528800,5.11752880859375,-0.08989946663379669,-0.07271861473023891,-0.012438333551585674
1782835930483458800,5.127458740234375,-0.10844809975922107,-0.13447897839881479,0.033076888160966336
1782835930493389800,5.137389892578125,-0.013357494223117827,-0.19582294328622518,0.014156316450610756
1782835930503319800,5.14731982421875,-0.020536592072248457,-0.14797763465829192,-0.007325922441296279
1782835930513249800,5.157249755859375,-0.01629880837202072,-0.09585874036438763,-0.030553397565335035
1782835930523179800,5.1671796875,0.02140226899087429,-0.08531959149762988,-0.02778159476444125
1782835930533110000,5.177110107421875,-0.009546996024250983,-0.09045527388565242,0.030956644603982567
1782835930543039700,5.187039794921875,-0.06259528012275696,-0.10305953858867287,0.05517218091730028
1782835930552969700,5.1969697265625,-0.018670213678479194,-0.11587130856253205,-0.01909819329958409
1782835930562899700,5.206899658203125,0.049724692633748055,-0.09837781051322818,-0.07844418930280952
1782835930572830700,5.216830810546875,0.038034254840016365,-0.08890665620416402,-0.05771908892113715
1782835930582760700,5.2267607421875,0.04311433458328247,-0.13752543342262505,-0.04056421170905232
1782835930592690700,5.236690673828125,-0.01696457880437374,-0.1799125497099012,-0.004135346239060163
1782835930602621000,5.246620849609375,-0.13640753530859948,-0.15885113004595042,-0.0025724808365106583
1782835930612550700,5.256550537109375,-0.08095219006836414,-0.1256259559880942,-0.009166435741446911
1782835930622481000,5.26648095703125,-0.06258651229441166,-0.07780081336535513,-0.006844787860848009
1782835930632411000,5.276410888671875,-0.12856968128979204,-0.027486776536330578,-0.005114091610722244
1782835930642340900,5.2863408203125,-0.24827917977571487,-0.07131671204306185,-0.030336174618080258
1782835930652271900,5.29627197265625,-0.20263854158520697,-0.17326448999755084,-0.07429580091908573
1782835930662201900,5.306201904296875,-0.19457097046375274,-0.17833375608585775,-0.07817585722282529
1782835930672127700,5.316127685546875,-0.19245441670119762,-0.13526231079623102,-0.003541435466520488
1782835930682058000,5.32605810546875,-0.06717910078167914,-0.14909714020751416,0.006782024822942912
1782835930691987700,5.33598779296875,0.017839608073234557,-0.18188450736999512,-0.0132614499701187
1782835930701918000,5.34591796875,-0.026738953843712804,-0.2002118989601731,-0.029440869746170936
1782835930711848700,5.3558486328125,-0.0608592501103878,-0.22554610057249663,-0.038202377948537466
1782835930721779000,5.365779052734375,-0.033657939451932906,-0.24669183751903473,-0.04504132059048861
1782835930731708700,5.375708740234375,-0.08524667239189147,-0.2304733278416097,-0.039238479530625044
1782835930741639000,5.385638916015625,-0.13134089956879616,-0.21871990781426429,-0.03050630702059716
1782835930751569000,5.39556884765625,-0.046987376624345774,-0.20535503400228916,-0.06359484908673912
1782835930761498600,5.40549853515625,-0.06203472363054752,-0.17495901895575225,-0.060418995529599485
1782835930771428900,5.415428955078125,-0.21790683786571025,-0.15768069802708923,-0.010901004449091851
1782835930781358600,5.425358642578125,-0.26648762116134167,-0.1906133188791573,-0.062311458212696014
1782835930791289900,5.435289794921875,-0.18078794430494308,-0.1967396928049624,-0.13936317024379968
1782835930801219600,5.445219482421875,-0.1003209074050188,-0.12072400929071009,-0.08639609815534204
1782835930811149800,5.45514990234375,-0.08122925344407558,-0.09446268289610743,-0.0052433440135791895
1782835930821079800,5.465079833984375,0.002066284880042076,-0.17774105088971554,0.008670578515902161
1782835930831009800,5.475009765625,0.005468786799907684,-0.2199136476434767,-0.053001266619004304
1782835930840939800,5.484939697265625,-0.013829203388094902,-0.15864698577597736,-0.06077672292608768
1782835930850870000,5.4948701171875,-0.025188801792263984,-0.10800956221148371,-0.013543518314510583
1782835930860799700,5.5047998046875,-0.055095864278078076,-0.1083808066766709,-0.028838812199793753
1782835930870730800,5.514730712890625,-0.04131634525060653,-0.10274301998540758,-0.02962024490106851
1782835930880660700,5.52466064453125,-0.06122749890089035,-0.09117723148465157,-0.013816051645576952
1782835930890591000,5.534591064453125,-0.10786007073819637,-0.11195077411793172,0.005144231020659208
1782835930900520700,5.544520751953125,-0.14107494259774683,-0.1659510982442647,-0.03834485515914857
1782835930910450700,5.55445068359375,-0.04865969375073909,-0.17862258296459912,-0.10407043266426771
1782835930920381000,5.564380859375,0.04289747696220875,-0.10325308839939534,-0.049813686091452834
1782835930930310700,5.574310546875,0.023860183537006377,-0.06506430058479308,0.017175445076078176
1782835930940242000,5.584241943359375,-0.021107669958472252,-0.11432597881667315,0.013444186125881968
1782835930950171600,5.594171630859375,-0.021394670206308364,-0.14460560094192623,-0.027382841237820685
1782835930960098000,5.60409814453125,-0.1156312892615795,-0.11300291351936757,-0.05389876344799995
1782835930970028000,5.614028076171875,-0.12762509391605853,-0.06980681893676519,-0.006248137141950428
1782835930979957800,5.623957763671875,-0.07583762353360653,-0.05498166331388056,0.0085830828955397
1782835930989888000,5.633887939453125,-0.08877309295237064,-0.05528086545616388,-0.03879583206335083
1782835930999817700,5.643817626953125,-0.19148001871109008,-0.03927862887792289,-0.037400852307304736
1782835931009748000,5.653748046875,-0.18562603198587893,-0.10400945972464978,-0.04242467181868851
1782835931019678700,5.6636787109375,-0.15339666403234004,-0.14951280833631753,-0.020757395216077563
1782835931029609000,5.67360888671875,-0.13973697199225424,-0.1412090173061937,-0.010440912656672298
1782835931039539000,5.6835390625,-0.09133563691675663,-0.1394192112799734,-0.02569828568436205
1782835931049469000,5.693468994140625,-0.0647761312931776,-0.13478431802093982,-0.02151873497739434
1782835931059399000,5.70339892578125,-0.055849897515773766,-0.11484905284270644,-0.006319996801763772
1782835931069329000,5.713328857421875,-0.041786885371804236,-0.09525222583860159,-0.025881569829396902
1782835931079259000,5.7232587890625,-0.07733575313687324,-0.09148549371622502,-0.05447678253166377
1782835931089188900,5.73318896484375,-0.05203472314178943,-0.12124766783863306,-0.0697191771859303
1782835931099119900,5.743119873046875,-0.055712534871697424,-0.11717968774735926,-0.11917502628304064
1782835931109049900,5.7530498046875,-0.12566811462938784,-0.12226064427345991,-0.06603139205127954
1782835931118979800,5.762979736328125,-0.04033142586648464,-0.2025072433557361,-0.023987024787068364
1782835931128909800,5.772909912109375,-0.04601765480935573,-0.2012156691752374,-0.07292674105558544
1782835931138840000,5.782840087890625,-0.10273089115619659,-0.14191300085708497,-0.0994155925957486
1782835931148769800,5.792769775390625,-0.0289525382399559,-0.1430168704457581,-0.1000657270675525
1782835931158700000,5.802699951171875,-0.0025438392639160153,-0.12776092219017446,-0.031914749046415086
1782835931168630800,5.812630859375,-0.02683423091173172,-0.11764357893206179,-0.0031429011356085535
1782835931178561000,5.82256103515625,0.028909868142008778,-0.1540584889419377,-0.04222228111438453
1782835931188490800,5.83249072265625,0.046205286335945124,-0.15524777179174123,-0.05779913188740611
1782835931198421000,5.8424208984375,-0.03750233992040157,-0.14253792782239616,-0.030865020797774194
1782835931208351000,5.85235107421875,-0.032630934491753576,-0.16829663845710455,-0.03308602131549269
1782835931218281000,5.862281005859375,-0.021727847683429717,-0.15156725664809345,-0.06800780669078231
1782835931228211000,5.8722109375,-0.07109481292068957,-0.08287365965023637,-0.06924472807459532
1782835931238142000,5.882141845703125,-0.19398294144272804,-0.08308532963953912,-0.043796983085200185
1782835931248072000,5.892072021484375,-0.16301789433658123,-0.13621230499744413,-0.07114168426971883
1782835931258002000,5.902001953125,-0.1189122106283903,-0.10234203796908259,-0.043216224055178463
1782835931267932000,5.911931884765625,-0.09900924028456211,-0.04002703609243035,0.0011810995433479546
1782835931277862000,5.92186181640625,-0.08395254092812537,-0.03564619065970182,-0.0044568698110058905
1782835931287791900,5.9317919921875,-0.07464753696620464,-0.10869330669194459,0.020359628070145845
1782835931297721900,5.941721923828125,-0.11254326011836528,-0.16219116118885576,0.06573646422531455
1782835931307652000,5.951652099609375,-0.11170856285989283,-0.14566300104036925,0.053038164563290774
1782835931317585000,5.9615849609375,-0.05265431634485721,-0.06828837719783186,0.018187800456397233
1782835931327515000,5.971514892578125,-0.04027881889641285,-0.005101487857475877,-0.030059111242368815
1782835931337445000,5.981445068359375,-0.06600888795852661,-0.03628784956410527,0.006286715586669742
1782835931347375900,5.9913759765625,-0.05918050324320793,-0.12295249899514019,0.03238189163412899
1782835931357306000,6.00130615234375,-0.10046820692121981,-0.1454438053317368,0.021252631387114522
1782835931367235800,6.01123583984375,-0.0750806676864624,-0.12829298324026167,-0.010793598551861941
1782835931377166000,6.021166015625,-0.020376433074474332,-0.07711728808060288,0.006183620538376271
1782835931387095800,6.031095703125,-0.05318564674258232,-0.047172596998140214,0.045482525019347665
1782835931397025800,6.04102587890625,-0.1379921741515398,-0.06582812456414103,0.050171778814122076
1782835931406956000,6.0509560546875,-0.1361532682865858,-0.1320380149874836,0.004013108098879456
1782835931416885800,6.0608857421875,-0.07650280944406986,-0.13901413761042059,-0.01205357201769948
1782835931426817000,6.070817138671875,-0.08811959747970104,-0.1271908672172576,0.007099109681788831
1782835931436746800,6.080746826171875,-0.06880348711311816,-0.16707820257805286,0.036880901820119466
1782835931446677000,6.090677001953125,-0.02417991701066494,-0.19518267262130976,0.061835219003073864
1782835931456607000,6.10060693359375,-0.07374211255908011,-0.1622178300000727,-0.010214812283217906
1782835931466537000,6.110536865234375,-0.07102642385959625,-0.1316410515591502,-0.022706264261528847
1782835931476467000,6.120467041015625,-0.06779460233151913,-0.11787132327333091,-0.041332090809009965
1782835931486397000,6.13039697265625,-0.061036360242962835,-0.12248634278811514,-0.04720722992010414
1782835931496327000,6.140326904296875,-0.05824234561026096,-0.12504289540313185,-0.017099749491363763
1782835931506258000,6.1502578125,-0.048857262149453164,-0.17605792010836302,-0.016626414624880997
1782835931516188000,6.16018798828125,-0.16952537653446195,-0.1967682613123208,0.011262220710609108
1782835931526118000,6.170117919921875,-0.22700492107868192,-0.1687931898023933,-0.009295067089796065
1782835931536047900,6.1800478515625,-0.12045593293905257,-0.13500029885917902,-0.07582982381964103
1782835931545977900,6.189977783203125,-0.021605098086595532,-0.0610834142550826,-0.07199567075055092
1782835931555907800,6.199907958984375,-0.0082435122102499,-0.05438333209455013,-0.014751999055128544
1782835931565837800,6.209837890625,-0.10895312667191027,-0.12570106705091894,0.01698032436277717
1782835931575768800,6.219768798828125,-0.11475216833949088,-0.23066351665146648,-0.09205291834063828
1782835931585698800,6.22969873046875,-0.017997428983449935,-0.1992943457238376,-0.13314338241349905
1782835931595629000,6.239629150390625,-0.07605974185168743,-0.06825440186299384,-0.04543375397417694
1782835931605558800,6.249558837890625,-0.12271978621780871,-0.04772855038046837,0.01981236945092678
1782835931615489000,6.259489013671875,-0.238500713083148,-0.12419029716178774,-0.040520591763034464
1782835931625419000,6.2694189453125,-0.22223463793694972,-0.13084230239689348,-0.12497523699440061
1782835931635348700,6.2793486328125,-0.1269125617325306,-0.05401493717357516,-0.08283312671044842
1782835931645279000,6.289279052734375,-0.0010597381860017775,0.004095233424380422,-0.03163847112199292
1782835931655210000,6.2992099609375,0.04984919579625129,-0.03193937203101813,-0.020547478792443872
1782835931665140000,6.309139892578125,0.006779284876585006,-0.12311981838606298,-0.057999695960804815
1782835931675069700,6.319069580078125,-0.06793196497559548,-0.18690386990197003,-0.06561546819414943
1782835931685000000,6.329,-0.004372223734855652,-0.165210582075268,-0.09188349832417443
1782835931694930000,6.338929931640625,0.03930968160331249,-0.07210910452976822,-0.06812991696679964
1782835931704860000,6.34885986328125,0.016323942813277245,-0.03739749130643904,-0.024088603731710463
1782835931714790000,6.358789794921875,0.014099252501130104,-0.08330547519624233,-0.05088964475989342
1782835931724721000,6.368720947265625,-0.0011976853519678114,-0.11915836740918456,-0.13651117834616452
1782835931734651000,6.37865087890625,-0.07264671853780746,-0.10604352283552289,-0.0891738923056051
1782835931744580900,6.388580810546875,-0.11840952180325984,-0.13356464003287255,-0.02671487884838134
1782835931754510800,6.3985107421875,0.007058101817965507,-0.13461714476048944,-0.04815530615886673
1782835931764441000,6.408441162109375,-0.018072247785329818,-0.052854515092074866,-0.06407454062877223
1782835931774370800,6.418370849609375,-0.11161679292321204,-0.04496602686457336,-0.06836361612481996
1782835931784300800,6.42830078125,-0.07436872002482414,-0.1314702250368893,-0.11239932160302996
1782835931794231800,6.438231689453125,-0.0839163005709648,-0.11923252862393856,-0.0792304443096742
1782835931804162000,6.448162109375,-0.09811258370578288,-0.09660787823125719,-0.00285582782253623
1782835931814092000,6.458092041015625,-0.09326455915272236,-0.11015702256895601,-0.009878675664030015
1782835931824021800,6.468021728515625,-0.1297352179378271,-0.09836962720677256,-0.05263172092055902
1782835931833952000,6.477951904296875,-0.18251871362030506,-0.09051920596733688,-0.047773028843011704
1782835931843881700,6.4878818359375,-0.21766659936904906,-0.09990955012515186,-0.05238742730328813
1782835931853812000,6.49781201171875,-0.13782909254431724,-0.0920470000565052,-0.0764267850657925
1782835931863742000,6.507741943359375,-0.08157529040277003,-0.08567381176277995,-0.07067582032363862
1782835931873673000,6.5176728515625,-0.13144085281193255,-0.1236627661563456,-0.056912393914442506
1782835931883603000,6.52760302734375,-0.07001227838099003,-0.17479995593652128,-0.053161590013559905
1782835931893533000,6.537532958984375,0.003736848440766334,-0.1882444708559662,-0.03309086188739165
1782835931903463000,6.547462890625,-0.0025496844828128812,-0.14676752821616829,0.013068795208539813
1782835931913393000,6.557392822265625,0.02893324901759624,-0.11635858062282203,0.02845039740409702
1782835931923323000,6.567322998046875,-0.0031669395983219143,-0.1067180610962212,-0.001323430623486638
1782835931933252900,6.5772529296875,-0.10636077209115027,-0.11339870790392159,-0.022720566781517116
1782835931943184000,6.587183837890625,-0.1776461391478777,-0.15988449168168006,-0.059071800438035275
1782835931953113900,6.59711376953125,-0.2222697092503309,-0.14580065594539046,-0.049277040197793394
1782835931963043800,6.6070439453125,-0.21554186230003833,-0.08653919642046093,-0.025122111497912554
1782835931972973800,6.616973876953125,-0.14422551558315752,-0.06603533757403493,-0.027049718559626488
1782835931982903800,6.62690380859375,-0.17143968572318552,-0.07525295551344752,-0.03518969733016565
1782835931992833800,6.636833740234375,-0.21128362033367157,-0.10678476965688169,-0.014940032440517097
1782835932002763800,6.646763671875,-0.15241875891089438,-0.14394574879370628,-0.033692554107587785
1782835932012693800,6.65669384765625,-0.06470248153507709,-0.15790354699753223,-0.054062648772820826
1782835932022624800,6.666624755859375,0.0012099603116512297,-0.11738748527914285,-0.038769729507714505
1782835932032554800,6.6765546875,0.018305472019314765,-0.10604271911792457,-0.04359274748368189
1782835932042484700,6.686484619140625,0.018644494715332985,-0.10457067380398512,-0.06693161056032404
1782835932052415000,6.6964150390625,-0.065883215752244,-0.08276033546887337,-0.05119131285389885
1782835932062344700,6.7063447265625,-0.07986848648488522,-0.07935140380822121,-0.04723587149269878
1782835932072275000,6.71627490234375,-0.08095452815592288,-0.0738911656409502,-0.04009610100695863
1782835932082205000,6.726204833984375,-0.07056114443540573,-0.08628916718214749,-0.051792895476240663
1782835932092136000,6.736135986328125,-0.016556582525372503,-0.12019194824062288,-0.04984388030031696
1782835932102066000,6.74606591796875,0.01635024629831314,-0.15948584775291383,-0.06518558887690305
1782835932111996000,6.755995849609375,0.01124678567945957,-0.16311265994794666,-0.009405724390037357
1782835932121926000,6.76592578125,0.007392448338866233,-0.13698920765407382,0.019270371528714893
1782835932131855600,6.775855712890625,-0.011924831071496009,-0.08240195048525929,-0.011896938417572528
1782835932141785900,6.785785888671875,-0.0743967770755291,-0.027396467904374004,-0.07159804973509162
1782835932151715800,6.7957158203125,-0.052695232877135276,-0.024949147817492485,-0.0850794260662049
1782835932161645800,6.805645751953125,-0.06694996820092201,-0.05247026501484215,-0.042473369798623026
1782835932171576800,6.815576904296875,-0.09026245472729205,-0.0999300083912909,-0.01740850491328165
1782835932181506800,6.8255068359375,-0.08100771964788436,-0.11009396727010608,-0.020371647301502524
1782835932191436800,6.835436767578125,-0.10800386312305926,-0.10956731304749846,-0.02584733876623213
1782835932201366800,6.84536669921875,-0.12362462610304355,-0.12536489389911293,-0.056862015434075146
1782835932211296800,6.855296875,-0.1017588312536478,-0.1332334353171289,-0.10304035896416754
1782835932221227000,6.86522705078125,-0.09532207620441913,-0.07986665985397993,-0.043186815297603605
1782835932231156700,6.87515673828125,-0.19666706596016884,-0.045778000834584234,0.028156455958820877
1782835932241088000,6.885087890625,-0.3232487883031368,-0.09277648337483406,-0.007181837795488536
1782835932251017700,6.895017822265625,-0.28959727859199047,-0.1399363670218736,-0.0763019165771082
1782835932260948000,6.904947998046875,-0.2937865469753742,-0.0647592532236129,-0.07606730410363524
1782835932270878000,6.9148779296875,-0.23065467575788495,-0.005570420543476939,-0.04584633509675041
1782835932280807700,6.9248076171875,-0.10753683013319969,-0.011821882153674959,-0.04487310615042224
1782835932290738000,6.934738037109375,-0.08990648089647292,-0.04615216790921986,-0.06296570260403678
1782835932300667600,6.944667724609375,-0.12464052514731883,-0.08109715149700641,-0.043639929359965024
1782835932310599000,6.954598876953125,-0.10416706143915652,-0.08744703198038041,-0.05178847502944991
1782835932320528600,6.964528564453125,-0.039893034449219704,-0.12553740092180668,-0.052112446286808695
1782835932330459000,6.974458984375,-0.0067132339030504225,-0.12464235177822411,-0.029662823667470365
1782835932340388900,6.984388916015625,0.0668938540995121,-0.07858867580741644,-0.035601639131922276
1782835932350318800,6.99431884765625,0.12286182503700256,-0.048722237592935556,-0.05200604503657669
1782835932360248800,7.004248779296875,0.07590484355092048,-0.0629972850523889,-0.053363396195974196
1782835932370178800,7.0141787109375,-0.07821662762463093,-0.11316606819182634,-0.04714596471954137
1782835932380108800,7.02410888671875,-0.10667524486780167,-0.175303083153069,-0.07867107512755318
1782835932390039800,7.034039794921875,-0.08970014466941356,-0.11275288428105414,-0.11189993897983803
1782835932399969800,7.0439697265625,-0.08407236791551112,-0.010322218180447816,-0.05970763238985091
1782835932409900000,7.053900146484375,-0.13284955056607722,-0.007625380311906337,-0.040164362203888596
1782835932419829800,7.063829833984375,-0.19508476520478724,-0.06787994252741336,-0.10008907141052185
1782835932429759700,7.073759765625,-0.16761165186762808,-0.0925054844137281,-0.1386889973092824
1782835932439690000,7.08368994140625,-0.17788228599131106,-0.06904321415312588,-0.13020595898842438
1782835932449619700,7.09361962890625,-0.21325170553624628,-0.05693930018767714,-0.09194269943181425
1782835932459551000,7.103551025390625,-0.18809154531657696,-0.09508037640303373,-0.0600144150503911
1782835932469480700,7.113480712890625,-0.1794365296959877,-0.09764810799919069,-0.057922721734456714
1782835932479411000,7.123410888671875,-0.12302023046910762,-0.027524624328687786,-0.0666265449328348
1782835932489340700,7.133340576171875,0.018390812215209006,0.02676781461201608,-0.06376499975556507
1782835932499271000,7.14327099609375,0.08223638466000556,0.012774579768627881,-0.05861645788596943
1782835932509201000,7.153200927734375,0.05568389329910278,-0.014653452317789197,-0.05063395296577364
1782835932519131000,7.163130859375,0.08197451885342598,-0.0442905387558043,-0.061743704794719814
1782835932529060900,7.173060791015625,0.05082885448336601,-0.012488164042681455,-0.03623498686570674
1782835932538991900,7.182991943359375,0.08949205487668514,0.023297873479127883,-0.0020841493302956224
1782835932548921900,7.192921875,0.10326105251014232,0.040952261178568004,0.0081996365359053
1782835932558851800,7.202851806640625,0.03436228832900524,0.014739815426990389,0.022285919957607984
1782835932568781800,7.21278173828125,0.01695288836658001,-0.035257921994477505,0.0022406550662592054
1782835932578711800,7.2227119140625,0.016485855376720426,-0.07261274320296943,-0.02019165109209716
1782835932588641800,7.232641845703125,-0.05600479581654071,-0.10016111373342573,-0.014467135965451598
1782835932598571800,7.24257177734375,-0.006845920372009277,-0.12168386729881167,-0.01872070175670087
1782835932608502800,7.252502685546875,0.00066401686668396,-0.12334376333504915,-0.00950761386193335
1782835932618432800,7.262432861328125,0.0038987610042095183,-0.11652575388327241,-0.0444458389153704
1782835932628363000,7.272363037109375,0.07178688683807849,-0.0869798528600484,-0.04042725092377513
1782835932638292700,7.282292724609375,0.05398118103444576,-0.09135931005328893,0.007140592469647526
1782835932648223000,7.292222900390625,0.0408516503483057,-0.1412771871715784,0.0044009018400684
1782835932658152700,7.302152587890625,-0.04577040205001831,-0.16684724336639045,0.02223864674977958
1782835932668082700,7.312082763671875,-0.18241057707071304,-0.24050540396906434,0.03830799374748021
1782835932678013700,7.322013671875,-0.16999299404621124,-0.32020160262696445,-0.009276618117652832
1782835932687944000,7.33194384765625,-0.06294774682223797,-0.25956819716170426,0.018224734933301807
1782835932697874000,7.3418740234375,-0.07601824079751968,-0.10228906567282973,-0.0033245047802105544
1782835932707803600,7.3518037109375,-0.17137714188098907,-0.12038834759555757,-0.03538443445097655
1782835932717734000,7.36173388671875,-0.21590543491542338,-0.2613202284608036,-0.02424520079921931
1782835932727663900,7.371663818359375,-0.26488836927115916,-0.33873628029227254,-0.01078055640719831
1782835932737593900,7.38159375,-0.17881459840536115,-0.275308348737657,0.036912118942290545
1782835932747524900,7.39152490234375,-0.1265063190191984,-0.13064005782306193,0.022762524493411183
1782835932757454800,7.401454833984375,-0.05975275017321109,-0.08274499176926911,-0.03948200596291571
1782835932767384800,7.411384765625,-0.0602928483992815,-0.12857348068207503,-0.011685359759815037
1782835932777314800,7.421314697265625,-0.10299334148466587,-0.17159231900162994,0.03276851633153856
1782835932787244800,7.431244873046875,-0.09514438154995442,-0.19174195758290588,-0.0017472820587456225
1782835932797175000,7.441175048828125,-0.11263327648937702,-0.12723814042508602,-0.0611751841917634
1782835932807104800,7.451104736328125,-0.16400515180826186,-0.03103350923247635,-0.05365790389683097
1782835932817036000,7.4610361328125,-0.12469780829250812,-0.028844620886072515,-0.03799721076525748
1782835932826965800,7.4709658203125,-0.12630991966426372,-0.07998422181904316,-0.019749716010876
1782835932836896000,7.48089599609375,-0.13711597583889962,-0.10160166793055832,-0.023997948039881884
1782835932846825700,7.49082568359375,-0.032338673546910286,-0.10257606592066586,-0.03898487009573728
1782835932856755700,7.500755615234375,-0.00713116705417633,-0.07056340945772827,-0.0781706330584362
1782835932866686000,7.51068603515625,0.0044172319203615185,-0.05073408887200057,-0.07481003405153751
1782835932876615700,7.52061572265625,-0.010041501542925834,-0.07304835814125836,-0.0668061027508229
1782835932886546000,7.5305458984375,-0.03315525062680244,-0.09392528808377683,-0.03744776018895209
1782835932896476700,7.5404765625,0.03509703234434128,-0.09704568512663245,-0.04982804341036826
1782835932906407000,7.550406982421875,0.07800210809111595,-0.096405414461717,-0.08166044793557375
1782835932916337000,7.5603369140625,0.09140344145596027,-0.10015570690594613,-0.0755491254484281
1782835932926267000,7.570266845703125,0.10105389785468578,-0.11643690655604004,-0.11473507107421756
1782835932936196900,7.58019677734375,0.004029109385609626,-0.13981405581645667,-0.0855829916741699
1782835932946126800,7.590126953125,-0.07248831310570239,-0.18558270430080592,-0.07691248622350394
1782835932956057600,7.6000576171875,-0.06187924080789089,-0.17244769372195004,-0.07864972181227058
1782835932965988600,7.609988525390625,-0.08585808228850364,-0.12544212385378778,-0.028167233081161973
1782835932975918600,7.619918701171875,-0.130104635772109,-0.12509104539379476,-0.037086562193743886
1782835932985848300,7.629848388671875,-0.2496054599434137,-0.13958996473699808,-0.05252217786516994
1782835932995778600,7.639778564453125,-0.3143254771351814,-0.1810486410677433,-0.04722834577336907
1782835933005708500,7.64970849609375,-0.25359423731863495,-0.19187625148706136,-0.05327902411445975
1782835933015638500,7.659638427734375,-0.3154541889041662,-0.154802000785619,-0.002898863246664405
1782835933025568500,7.669568603515625,-0.32955110331773757,-0.14926424040272832,-0.08092062588632107
1782835933035499500,7.67949951171875,-0.10035773228406905,-0.16192644583806395,-0.1356124394081533
1782835933045429500,7.689429443359375,-0.037385435542464256,-0.15689320091120898,-0.0025364596750587225
1782835933055359500,7.699359375,-0.0035386955201625824,-0.23640089125968514,0.13533866396807134
1782835933065289500,7.70928955078125,0.06060732117593288,-0.25488961089141665,0.09343195160888135
1782835933075219700,7.7192197265625,-0.12499532993435859,-0.15837832490243017,0.037819443045556546
1782835933085149400,7.7291494140625,-0.2351233456045389,-0.13868044867664575,-0.023042437413334844
1782835933095079400,7.739079345703125,-0.21123978119194506,-0.15661650286167858,-0.06439191774856298
1782835933105009700,7.749009765625,-0.23796762911975383,-0.09924838280268013,0.010647139285877346
1782835933114940700,7.758940673828125,-0.15437340011000633,-0.11720935223326086,0.06962704192306846
1782835933124870700,7.76887060546875,-0.0904389803379774,-0.16627894195914267,0.06400478159449995
1782835933134800400,7.77880029296875,-0.1277788231730461,-0.16639219307526945,0.061300673734955485
1782835933144730600,7.788730712890625,-0.16557108595073222,-0.14764175376743077,0.04024224974568933
1782835933154660400,7.798660400390625,-0.11379062983095645,-0.13380546305142343,-0.011116254634968936
1782835933164590600,7.808590576171875,0.006908464214205741,-0.0652210255164653,-0.021545476853847504
1782835933174520600,7.8185205078125,-0.059947395962476724,0.012674261199310421,0.044184886424243446
1782835933184451600,7.82845166015625,-0.1137356847733259,-0.01636975471638143,0.03646254854388535
1782835933194381600,7.838381591796875,-0.10079787726700305,-0.048103813433647155,-0.0042583515642210835
1782835933204311600,7.8483115234375,-0.19361118552088735,-0.043230508308857676,0.00032733225822448726
1782835933214241500,7.858241455078125,-0.13848141897320745,-0.04991700033545494,0.0233965480806306
1782835933224171500,7.868171630859375,-0.05038987854421138,-0.033239860170334576,0.04519804552216083
1782835933234101500,7.8781015625,-0.04814589900970459,-0.027319530210644004,0.007463686944171786
1782835933244031500,7.888031494140625,0.003967150065302848,-0.06017798984795809,-0.02774831354934722
1782835933253962500,7.89796240234375,0.027967618855834004,-0.09155519795157015,-0.046602907351404425
1782835933263892700,7.907892822265625,0.02994505640864372,-0.10958367966040969,-0.005899433302134275
1782835933273822500,7.917822509765625,0.025662849044799804,-0.11320939587689935,-0.013879947194643317
1782835933283752400,7.92775244140625,0.048448681348562235,-0.11828750285878777,-0.00959996832050383
1782835933293682700,7.9376826171875,-0.015080080232024192,-0.09694164023026823,0.03342624958790839
1782835933303612400,7.9476123046875,-0.0367693494707346,-0.030372341910004614,-0.03247526900600642
1782835933313542700,7.957542724609375,-0.022936638951301574,0.015412307861074804,-0.05755363269373774
1782835933323473400,7.967473388671875,-0.011199439406394958,-0.020575535843148827,-0.047565359175391494
1782835933333403600,7.977403564453125,-0.010975567522644995,-0.09297076383791864,0.028377259102649984
1782835933343333400,7.98733349609375,-0.12401508672535419,-0.1295014822471887,0.03258205384872854
1782835933353263600,7.997263671875,-0.10553425813913345,-0.15401530738733707,-0.06324968891087919
1782835933363193600,8.007193603515624,-0.06898527342081069,-0.10698489533886313,-0.07542637585159391
1782835933373123600,8.01712353515625,-0.07172726560533046,-0.005338219222798943,-0.0015329086557030677
1782835933383053600,8.027053466796875,-0.04349719642102718,-0.010133344544842838,0.01750051231198013
1782835933392983600,8.036983642578125,-0.12013152329027652,-0.07764072743281722,-0.029931868133507667
1782835933402914600,8.04691455078125,-0.1288642803221941,-0.11520363843403755,-0.03428067446015775
1782835933412844500,8.056844482421875,-0.1496428644567728,-0.09409640686698258,-0.03280669291745871
1782835933422774500,8.0667744140625,-0.12920564110577107,-0.06284786664433777,-0.026400552202202377
1782835933432704500,8.07670458984375,-0.05939326921105385,-0.06544365529119968,-0.0126923448452726
1782835933442634500,8.086634521484376,-0.08798691101074219,-0.10117876634337007,-0.009133739048242568
1782835933452564500,8.096564453125,-0.049316696354746815,-0.1475945536248386,-0.016190343028865753
1782835933462494700,8.10649462890625,0.004748655831813812,-0.15288564577028155,-0.05933299039117992
1782835933472425500,8.116425537109375,0.03662789517343044,-0.13643909949064253,-0.041142924912460146
1782835933482355700,8.126355712890625,0.05931961945295334,-0.12494981029219925,-0.028413572525046765
1782835933492285400,8.136285400390625,-0.0005517886638641358,-0.12337963836602867,-0.029025822671875357
1782835933502215700,8.146215576171874,-0.11033668998479843,-0.12946334219388664,-0.049863005125895137
1782835933512145400,8.1561455078125,-0.1109042607396841,-0.15795352361910045,-0.08319152996037155
1782835933522075600,8.16607568359375,-0.03492927456200123,-0.1665085859965533,-0.1336676985485479
1782835933532005600,8.176005615234375,-0.05515197837948799,-0.11230755166634916,-0.11273154923208058
1782835933541936600,8.1859365234375,-0.08105623496472836,-0.13387392517775296,-0.05569715463947504
1782835933551866600,8.19586669921875,-0.03636778293251991,-0.19663689001761375,-0.03654967883806676
1782835933561796400,8.20579638671875,-0.04238894291818142,-0.18418986170291898,-0.07570771354362368
1782835933571726600,8.2157265625,-0.17000643804967402,-0.10055544681325554,-0.06749638656992465
1782835933581656600,8.225656494140624,-0.16059738919138908,-0.0785702633678913,-0.053995465288124975
1782835933591586600,8.235586669921876,-0.1528501360654831,-0.07257781802006065,-0.06029303106237203
1782835933601516500,8.2455166015625,-0.23475977298915385,-0.05743102922737598,-0.05981682838536798
1782835933611447600,8.255447509765625,-0.238002700433135,-0.0818686473261565,-0.045673554079420864
1782835933621377500,8.26537744140625,-0.10665303303599356,-0.1489711757402867,-0.0528851294260472
1782835933631307500,8.2753076171875,-0.11313012009561062,-0.15988785268254577,-0.043816126177087425
1782835933641237500,8.285237548828125,-0.20065408976972102,-0.16736279167309404,-0.050375338562205434
1782835933651167700,8.295167724609374,-0.07385258719623089,-0.2307838550955057,-0.08548102913703769
1782835933661097500,8.305097412109374,0.024026187753677368,-0.19077508531212806,-0.08319777703806758
1782835933671027500,8.31502734375,0.0005289923101663589,-0.10989676419757306,-0.023563282949663696
1782835933680958500,8.32495849609375,0.05670505304038524,-0.1295345807991922,-0.029676322469860312
1782835933690888700,8.334888671875,0.05581541072428226,-0.1308721130132675,-0.08582326670344918
1782835933700818400,8.344818359375,-0.024741642546653748,-0.10431479934677482,-0.05935425237491727
1782835933710748400,8.35474853515625,-0.11369067658782005,-0.10328830584324895,-0.05162592314518988
1782835933720678700,8.3646787109375,-0.15777005681097506,-0.0805671362735331,-0.0943896176598966
1782835933730608400,8.3746083984375,-0.14851298364400864,-0.08520853233858942,-0.05982643646392971
1782835933740538600,8.38453857421875,-0.13009177629053592,-0.07621449402198195,-0.06963986487202346
1782835933750469400,8.394469482421876,-0.13499240781366825,-0.0318297741767019,-0.057604668761231
1782835933760399600,8.404399658203126,-0.16920213592946529,-0.044200887710973615,-0.026502733935043214
1782835933770329600,8.41432958984375,-0.16202362260222433,-0.11056092719472944,-0.06645480509512126
1782835933780259600,8.424259521484375,-0.12328852601647376,-0.1425631353288889,-0.11808186075147241
1782835933790189600,8.434189453125,-0.029452888977527618,-0.11895590363964438,-0.06879380596932023
1782835933800119600,8.44411962890625,0.08604746738076209,-0.10167867868952453,-0.002947378563508391
1782835933810049500,8.454049560546874,0.11599953805208206,-0.08225530855618417,-0.0011374795973300934
1782835933819980500,8.46398046875,0.012849544700980186,-0.0860906489353627,0.015397877476923167
1782835933829910500,8.47391064453125,-0.032632688057422636,-0.10794299978129565,-0.020270305818878114
1782835933839840800,8.4838408203125,-0.01106207676231861,-0.11241853776015341,-0.07525511093791573
1782835933849770500,8.4937705078125,-0.09363456150889396,-0.08353709199503064,-0.045024259857833385
1782835933859700500,8.503700439453125,-0.10248831457197666,-0.1250257250726223,0.005900565813295543
1782835933869630500,8.51363037109375,0.02829202850461006,-0.16438918268978595,-0.013563465123996138
1782835933879560400,8.523560546875,0.027409984973073002,-0.11117189869992435,-0.03755012458488345
1782835933889491500,8.533491455078124,-0.1399918235361576,-0.07185776011720299,0.002582673436962068
1782835933899421400,8.54342138671875,-0.21800796015262602,-0.16309490509554742,-0.045496407414227724
1782835933909351700,8.5533515625,-0.07453238615393638,-0.17158545086942611,-0.10038721410688012
1782835933919281400,8.563281494140625,-0.09836042098700999,-0.04930018361136317,-0.04241751142553985
1782835933929211600,8.573211669921875,-0.17906944994926452,-0.006116071727499365,0.016750095803476868
1782835933939141600,8.5831416015625,-0.1488753872156143,-0.12138897600546479,-0.008638868203386664
1782835933949071600,8.593071533203124,-0.17466273942291735,-0.1571587199795991,-0.031415311624296005
1782835933959001300,8.60300146484375,-0.20789573146104812,-0.10370974612571299,0.012298523222096264
1782835933968932400,8.612932373046876,-0.18162439512908457,-0.08335450196973979,0.02878437859881669
1782835933978862600,8.622862548828126,-0.10772679974734782,-0.09852591374702752,-0.01991155550908297
1782835933988792300,8.632792236328125,-0.09946107570528984,-0.07816518969833851,-0.03068191931582987
1782835933998722300,8.642722412109375,-0.13998013309836388,-0.09619790919087827,-0.019893325732648372
1782835934008652500,8.652652587890625,-0.10783201368749142,-0.15165983030237257,-0.0867974820304662
1782835934018582300,8.662582275390625,0.050751113072037696,-0.12225677181594073,-0.053245304507948454
1782835934028512500,8.672512451171874,0.043402503874897955,-0.061034022155404086,0.05375522679146379
1782835934038443300,8.682443359375,0.05134381826817989,-0.0722952747516334,0.007516257381625473
1782835934048373500,8.69237353515625,0.04590659565031528,-0.07307824182286858,-0.03852561855353415
1782835934058303200,8.70230322265625,-0.03927987098693848,-0.05811258175075054,-0.026349479602091015
1782835934068233500,8.7122333984375,-0.052585342761874196,-0.12154241300150752,-0.02820055082887411
1782835934078163500,8.72216357421875,-0.049077626901865005,-0.1462843478091061,-0.07470142257791013
1782835934088093400,8.732093505859375,-0.06443009433448314,-0.1176092382710427,-0.05029960644487291
1782835934098023400,8.7420234375,-0.06254793384969234,-0.11510412358231842,-0.06285396759156138
1782835934107954400,8.751954345703124,-0.026292379119992253,-0.11577135531939566,-0.07180394757073372
1782835934117884400,8.761884521484374,-0.05384031125903129,-0.08878858278244733,-0.0653431905914098
1782835934127814700,8.771814697265626,-0.13773381547629832,-0.06631356999352574,-0.05032499661445618
1782835934137744400,8.781744384765625,-0.17729893314540385,-0.09414638348855078,-0.026048998818174005
1782835934147674400,8.79167431640625,-0.22635317917168138,-0.08161766823977232,0.005908164597861468
1782835934157604400,8.801604248046875,-0.20181261215507984,-0.046397886298596855,0.00733666303101927
1782835934167534300,8.811534423828125,-0.13475333836078643,-0.013872750268876553,-0.033514658523723484
1782835934177465300,8.82146533203125,-0.10315057787299156,-0.016939517428353427,-0.04508062968757003
1782835934187395300,8.831395263671874,-0.1194265898913145,-0.07414514040201901,-0.03455382884573191
1782835934197325600,8.84132568359375,-0.13770283581614493,-0.13204254503212867,-0.055458523578010496
1782835934207255300,8.85125537109375,-0.0734773241430521,-0.1683065753292292,-0.022389745658263564
1782835934217185500,8.861185546875,-0.04037584953010082,-0.15973573086075485,0.052277043997682626
1782835934227115500,8.871115478515625,-0.0012269114464521407,-0.09364924762137233,0.013231018299236893
1782835934237045500,8.88104541015625,0.014093407282233237,-0.013659253648668527,-0.04384279498830437
1782835934246976300,8.890976318359375,-0.05766951415836811,-0.02547521751821041,-0.01854936377778649
1782835934256906500,8.900906494140624,-0.13111819672882555,-0.10048406207747757,-0.02405347761940211
1782835934266836500,8.91083642578125,-0.14125731342732906,-0.12255436652302741,-0.08154993676580488
1782835934276766200,8.92076611328125,-0.016948212191462517,-0.08444558514207601,-0.04791406301520765
1782835934286696400,8.930696533203125,-0.04087561574578285,-0.04545571007765829,0.06029975306410342
1782835934296626400,8.94062646484375,-0.05159107102751732,-0.04665383382104337,0.039130817905068394
1782835934306556400,8.950556396484375,-0.09329670785665511,-0.05759169968180358,-0.030509594956226644
1782835934316487400,8.9604873046875,-0.12344517788290976,-0.0873855841167271,-0.08354016073495149
1782835934326417400,8.97041748046875,-0.0866834271967411,-0.09923245458118617,-0.05382573474440723
1782835934336347400,8.980347412109374,-0.07120470303595065,-0.09829137433879077,0.008802899658679962
1782835934346277400,8.99027734375,-0.055443654802441594,-0.13495960152260958,0.013266053079999982
1782835934356207400,9.000207275390625,-0.056337973293662066,-0.14557320386506617,-0.02131857276279479
1782835934366137600,9.0101376953125,-0.14930150367319583,-0.10103906561173498,-0.03827124193366617
1782835934376067300,9.0200673828125,-0.1290337916702032,-0.03748984576500952,-0.08655501504410058
1782835934385998600,9.02999853515625,-0.05067921687960624,-0.0390795261092484,-0.09116565064471215
1782835934395928300,9.03992822265625,-0.03910100728869438,-0.06439378091208636,-0.03862480461169034
1782835934405858600,9.049858642578124,-0.11324760899543762,-0.09503412610851228,-0.011107413741387425
1782835934415788300,9.059788330078124,-0.09538345100283623,-0.1662372947745025,-0.010018887852318584
1782835934425718300,9.06971826171875,-0.0814724145501852,-0.17824921960756182,0.007633380955271422
1782835934435648500,9.0796484375,-0.12603402533233166,-0.14548537945114076,-0.029440394822135566
1782835934445578200,9.089578125,-0.08036474556922912,-0.10796689211353659,-0.023332908259890973
1782835934455509500,9.099509521484375,-0.04034662343561649,-0.08651596167534589,0.013025924181193112
1782835934465439200,9.109439208984375,-0.0811503429889679,-0.0789793556254357,-0.01816361586321145
1782835934475369500,9.119369384765625,-0.16676467964947222,-0.07624912694394588,-0.09135806794427334
1782835934485299500,9.129299560546874,-0.16039280652999877,-0.12632584788575768,-0.04083426082208753
1782835934495229400,9.1392294921875,-0.12387363242805004,-0.15264190014228224,-0.01049337349627167
1782835934505159400,9.149159423828126,-0.09871054959893226,-0.1145349453922361,-0.024282573667541146
1782835934515089400,9.15908935546875,-0.08262801432609558,-0.07472074833288789,-0.04145871286336332
1782835934525020400,9.1690205078125,-0.0734814157962799,-0.04982924898676574,0.006302680340781808
1782835934534950400,9.178950439453125,-0.15307342342734337,-0.05151851724795997,0.03069203885104507
1782835934544880400,9.18888037109375,-0.15410335099697112,-0.08928637623675167,-0.008369915068894625
1782835934554810600,9.198810546875,-0.11082476576268672,-0.08751001421399414,-0.05081858881767839
1782835934564740400,9.208740234375,-0.13506722661554812,-0.08222586326599121,-0.08267470301203429
1782835934574670300,9.21867041015625,-0.08760638726055621,-0.09330262614078819,-0.11542393012121319
1782835934584600600,9.2286005859375,-0.058143561410903925,-0.08912534045614301,-0.08597834766730665
1782835934594531300,9.23853125,-0.052961190336942666,-0.05045592951774597,-0.025792211045511066
1782835934604461300,9.24846142578125,-0.040972061857581135,-0.0452241663441062,0.00004117226060479879
1782835934614391300,9.258391357421875,-0.04479366597235203,-0.04409085146524012,-0.03417852925993502
1782835934624321500,9.268321533203125,-0.08978256225585937,-0.052256841459870335,-0.05765358593687415
1782835934634251300,9.278251220703124,-0.07719371431767941,-0.06613616760000586,-0.04884370854813605
1782835934644181500,9.288181396484376,-0.013730419188737868,-0.057364759058132764,-0.07658782084640114
1782835934654111500,9.298111572265626,-0.022251579296588896,-0.030468861087039112,-0.12212185685727744
1782835934664041500,9.30804150390625,0.018359832555055616,-0.042174569515138864,-0.06267156022936106
1782835934673969400,9.317969482421875,0.05183306308984756,-0.06066584643013775,-0.027682262575812636
1782835934683899400,9.3278994140625,0.03928337811827659,-0.06851999399662018,-0.03445077033005654
1782835934693829400,9.337829345703126,-0.019342413851618764,-0.07386464296020567,-0.04359594408776611
1782835934703760400,9.347760498046876,-0.057734980610013004,-0.0905624605871737,-0.08607574362717568
1782835934713690600,9.357690673828126,-0.054469256812334055,-0.08206877300813793,-0.11040113352313637
1782835934723620400,9.367620361328125,-0.08068564808666706,-0.05695953925810754,-0.0879998800901696
1782835934733550300,9.37755029296875,-0.03793196350932121,-0.04786050619706511,-0.04006546840667724
1782835934743480300,9.387480224609375,0.00230009363591671,-0.053504284237697715,-0.0335404505521059
1782835934753410300,9.397410400390624,-0.09943886387348175,-0.06448299356549977,-0.055037521686963735
1782835934763340500,9.407340576171874,-0.11782266182601452,-0.10679477959424256,-0.10682952211406081
1782835934773271300,9.417271240234374,-0.16611469130814074,-0.10346285869255661,-0.10977814278658479
1782835934783201500,9.427201416015626,-0.11760638872683048,-0.09044292586073278,-0.05688318608626723
1782835934793131300,9.43713134765625,-0.05010521638393402,-0.0591425093203783,0.016095358221791683
1782835934803061500,9.4470615234375,-0.12308160526752471,-0.07141403493769466,0.05328180059343576
1782835934812991500,9.456991455078125,-0.10657119997143745,-0.10220219110697508,0.04545176455490291
1782835934822921500,9.46692138671875,-0.09278642024695873,-0.09752185127101838,0.01542962432205677
1782835934832851500,9.4768515625,-0.14967793577015398,-0.06613200288154185,-0.031416772929020224
1782835934842782500,9.486782470703124,-0.13609481609761714,-0.08766425492763519,-0.05317099716272205
1782835934852712400,9.49671240234375,-0.04822597850859165,-0.0948377998188138,-0.014164901615865528
1782835934862642400,9.506642333984376,-0.021199439895153046,-0.0899104264192283,0.03968552917838097
1782835934872572400,9.516572509765625,-0.07563128730654715,-0.08052651200219989,0.05303684938903898
1782835934882502400,9.52650244140625,-0.2242787109851837,-0.11794891855418681,-0.001651712729781866
1782835934892432400,9.536432373046875,-0.1337999831587076,-0.13996033241935074,-0.079024509941414
1782835934902362400,9.5463623046875,-0.037030630755424496,-0.07610226581916213,0.004206365648657083
1782835934912293400,9.55629345703125,-0.07414660170674324,-0.05048625159077346,0.09425437390767037
1782835934922223400,9.566223388671874,-0.04033785560727119,-0.11303856935463845,0.06057539166770875
1782835934932153300,9.5761533203125,-0.04819850597977638,-0.13609328172765672,-0.019654986932128665
1782835934942083300,9.586083251953125,-0.11301964545845984,-0.0986750398941338,-0.037200215168669816
1782835934952013600,9.596013671875,-0.08399404198229313,-0.13495010304190216,0.021886143517680465
1782835934961943600,9.605943603515625,-0.027799861073493956,-0.16209749155603348,-0.0006065145257860421
1782835934971873500,9.61587353515625,-0.05583060829341411,-0.1211358780272305,0.009622253217548131
1782835934981804500,9.625804443359375,-0.07333470080196856,-0.11925620176047086,0.005213350734114647
1782835934991734500,9.635734619140624,-0.10554770214259623,-0.1233704321462661,-0.04298738373536616
1782835935001664500,9.64566455078125,-0.09788052851557731,-0.11090740254484116,-0.022585743154399096
1782835935011594500,9.655594482421876,-0.08219897525906562,-0.08074863032028079,0.013215382338687777
1782835935021524500,9.6655244140625,-0.13897943162322043,-0.10087357285171747,0.01258406216520816
1782835935031454500,9.675454345703125,-0.15617255848646164,-0.13371734637655316,-0.021286460591480136
1782835935041384400,9.685384521484375,-0.15453297458589077,-0.13270064361467956,-0.03834792389906943
1782835935051315500,9.6953154296875,-0.12576280717551708,-0.09288096666261553,-0.025191505206003783
1782835935061245400,9.705245361328124,-0.08162263667583465,-0.06761778445988893,-0.07593878235314042
1782835935071175700,9.71517578125,-0.03812602477669716,-0.0772071583211422,-0.09768054896406829
1782835935081105400,9.72510546875,-0.06796236011385917,-0.08515548697710036,-0.08600753722917288
1782835935091035600,9.73503564453125,-0.05169511592388153,-0.07126359361633658,0.010451908974722026
1782835935100965400,9.74496533203125,-0.1008960769444704,-0.08038498463965951,0.0668594769058749
1782835935110895600,9.7548955078125,-0.07408814951777458,-0.07109780859537422,0.035306656507030125
1782835935120825600,9.76482568359375,-0.12600479923784733,-0.04863426704853773,-0.024231939458847045
1782835935130756600,9.774756591796875,-0.239880769264698,-0.060440147915482516,-0.058975262994691725
1782835935140686600,9.7846865234375,-0.20505086342394352,-0.10655234914049505,-0.089405362973921
1782835935150616600,9.794616455078126,-0.04735036471784115,-0.09392324225716292,-0.011249525625817478
1782835935160546600,9.804546630859376,-0.0011374795973300934,-0.07065788280814886,0.011576346427388489
1782835935170476500,9.8144765625,-0.019900632256269455,-0.08345124034248291,-0.029027576237544414
1782835935180406500,9.824406494140625,-0.017731471523642538,-0.12009053369276225,-0.061596076484955846
1782835935190336500,9.83433642578125,0.03454875081181526,-0.11144129022583364,-0.048792416752316055
1782835935200267500,9.844267578125,0.04071428770422935,-0.04103774750493466,-0.02290145804006606
1782835935210197500,9.854197509765624,0.0038970074385404584,-0.01797024871557951,0.016466200828179716
1782835935220127500,9.86412744140625,-0.1006523313164711,-0.05729878114983439,-0.014955467471666633
1782835935230057500,9.874057373046876,-0.18191724059581754,-0.15446999235227704,-0.08230901150479912
1782835935239987700,9.88398779296875,-0.11201602137386799,-0.17187259724773465,-0.13403770090471953
1782835935249917400,9.89391748046875,0.019212649992108345,-0.11148739438988267,-0.0703685079401359
1782835935259847700,9.90384765625,0.9323387175351381,0.06631174336262047,0.08129135889485478
1782835935269778400,9.9137783203125,0.5385755465477705,0.15619820438437163,0.2745404696376994
1782835935279708700,9.923708740234375,-0.22502105378508566,-0.07711750727631152,-0.0027455358484759925
1782835935289639400,9.933639404296875,-0.29396891780495643,-0.31765637512356043,-0.17359876345321534
1782835935299569700,9.943569580078124,-0.5374392359942197,-0.2071632524680346,-0.06629428077116609
1782835935309499400,9.95349951171875,-0.8088011851936578,-0.16669183360897002,0.05731551308892667
1782835935319430700,9.9634306640625,-0.5143681570082903,-0.13257782095260917,0.05607775145489722
1782835935329360400,9.9733603515625,0.057931964486837385,0.05369198882952332,0.002237805522046983
1782835935339290600,9.98329052734375,0.2866425204396248,0.3143468852493912,0.0595806450093165
1782835935349220600,9.993220703125,-0.09960253000259399,0.266149840574339,0.09525251809954642
