time,seconds_elapsed,z,y,x
1782835925438959400,0.08295947265625,0.04334961622953415,-0.15361182391643524,0.08035054057836533
1782835925448889300,0.092889404296875,0.13896623253822327,-0.13233688473701477,-0.007623004727065563
1782835925458819300,0.1028193359375,0.21225829422473907,-0.08275681734085083,-0.0855012908577919
1782835925468749300,0.112749267578125,0.2504865825176239,-0.057032834738492966,-0.1424969732761383
1782835925478679300,0.12267919921875,0.2638383209705353,-0.04913576319813728,-0.20439256727695465
1782835925488609300,0.132609375,0.2678834795951843,-0.060710400342941284,-0.2655963897705078
1782835925498539300,0.142539306640625,0.2945481240749359,-0.055853329598903656,-0.2973220944404602
1782835925508469200,0.15246923828125,0.3234376609325409,-0.0016335062682628632,-0.258147656917572
1782835925518399200,0.162399169921875,0.3119048476219177,0.07891327142715454,-0.15719813108444214
1782835925528329500,0.17232958984375,0.2534306049346924,0.1413566768169403,-0.018598919734358788
1782835925538259200,0.18225927734375,0.17941710352897644,0.19681593775749207,0.10911190509796143
1782835925548190500,0.1921904296875,0.15040753781795502,0.18720513582229614,0.1945408433675766
1782835925558120200,0.2021201171875,0.18011324107646942,0.1444006860256195,0.2100476324558258
1782835925568050400,0.212050537109375,0.24887819588184357,0.1005762368440628,0.17842525243759155
1782835925577980200,0.221980224609375,0.2939399480819702,0.06538762897253036,0.12425203621387482
1782835925587910100,0.23191015625,0.3128202557563782,0.05599306896328926,0.051145039498806
1782835925597840400,0.24184033203125,0.30860257148742676,0.0701536312699318,-0.02148575149476528
1782835925607770000,0.25177001953125,0.3004148602485657,0.042034316807985306,-0.07744687795639038
1782835925617700400,0.261700439453125,0.2982637882232666,0.0003292141482234001,-0.10166352987289429
1782835925627630300,0.27163037109375,0.2932851016521454,-0.04854002967476845,-0.09749698638916016
1782835925637560300,0.281560302734375,0.26479166746139526,-0.06606230139732361,-0.06565143167972565
1782835925647491300,0.2914912109375,0.2193067967891693,-0.07236383110284805,-0.02088254690170288
1782835925657421300,0.30142138671875,0.15694141387939453,-0.09242382645606995,0.01583392173051834
1782835925667351300,0.311351318359375,0.10857947170734406,-0.10560113936662674,0.051567740738391876
1782835925677281300,0.32128125,0.08398784697055817,-0.09422384947538376,0.07419954985380173
1782835925687211300,0.331211181640625,0.07041141390800476,-0.08933404088020325,0.07569606602191925
1782835925697141500,0.3411416015625,0.06344565004110336,-0.09216338396072388,0.05247596651315689
1782835925707071200,0.3510712890625,0.06672053784132004,-0.08529801666736603,0.008943935856223106
1782835925717001200,0.361001220703125,0.08600661903619766,-0.04048340395092964,-0.04368758201599121
1782835925726931500,0.370931396484375,0.10397060960531235,0.02075759507715702,-0.09641293436288834
1782835925736861200,0.380861083984375,0.11443176865577698,0.05602610856294632,-0.12973707914352417
1782835925746791400,0.39079150390625,0.10684570670127869,0.05387236550450325,-0.14168575406074524
1782835925756722200,0.40072216796875,0.09922054409980774,0.025260958820581436,-0.10239986330270767
1782835925766652400,0.41065234375,0.09085725247859955,0.006051653064787388,-0.018582455813884735
1782835925776582100,0.42058203125,0.07422581315040588,0.014882695861160755,0.08974988013505936
1782835925786512400,0.430512451171875,0.03832165524363518,0.04862223565578461,0.1906660497188568
1782835925796442400,0.4404423828125,0.0006579020991921425,0.07849837094545364,0.2676074504852295
1782835925806372400,0.450372314453125,-0.019071517512202263,0.0789596438407898,0.2962518632411957
1782835925816302300,0.46030224609375,-0.020366612821817398,0.04885074496269226,0.2692982852458954
1782835925826232300,0.470232421875,-0.004348943941295147,0.0014251777902245522,0.2103523164987564
1782835925836162300,0.480162353515625,0.006095707882195711,-0.031066983938217163,0.1375388354063034
1782835925846092300,0.49009228515625,0.01908050663769245,-0.058356426656246185,0.060686513781547546
1782835925856023300,0.500023193359375,0.025887280702590942,-0.09842448681592941,-0.0034647793509066105
1782835925865953300,0.509953369140625,0.038766928017139435,-0.12132338434457779,-0.06191527098417282
1782835925875883300,0.51988330078125,0.04309216886758804,-0.08284204453229904,-0.108543761074543
1782835925885813200,0.529813232421875,0.049477096647024155,0.002599624916911125,-0.1260247528553009
1782835925895743500,0.539743408203125,0.02982696332037449,0.033198282122612,-0.12479916214942932
1782835925905673200,0.549673095703125,0.00897870771586895,-0.03374138101935387,-0.09385930001735687
1782835925915603500,0.559603515625,-0.005101158283650875,-0.07682972401380539,-0.037970736622810364
1782835925925533200,0.569533203125,-0.021683242172002792,-0.08854834735393524,0.02340191788971424
1782835925935463200,0.579463134765625,-0.032401666045188904,-0.08784793317317963,0.05630766600370407
1782835925945393400,0.589393310546875,-0.02674756944179535,-0.07005777209997177,0.05921123921871185
1782835925955323100,0.5993232421875,-0.015270412899553776,-0.05634968355298042,0.048562321811914444
1782835925965254400,0.60925439453125,-0.01189881656318903,-0.03362363204360008,0.026746828109025955
1782835925975184400,0.619184326171875,-0.009711029939353466,-0.015660077333450317,0.010824055410921574
1782835925985114400,0.6291142578125,0.007832543924450874,-0.009348386898636818,0.005067898891866207
1782835925995044400,0.63904443359375,0.023557711392641068,-0.010028824210166931,0.011617678217589855
1782835926004974300,0.648974365234375,0.020614204928278923,-0.009398983791470528,0.0021388838067650795
1782835926014904300,0.658904296875,0.013165077194571495,-0.002204720862209797,-0.020320352166891098
1782835926024834300,0.668834228515625,0.000328640453517437,0.04353533685207367,-0.04378892853856087
1782835926034764300,0.678764404296875,-0.016009053215384483,0.07767973095178604,-0.06251440942287445
1782835926044694500,0.688694580078125,-0.025535956025123596,0.08358738571405411,-0.07008007913827896
1782835926054624300,0.698624267578125,-0.013592475093901157,0.07963977754116058,-0.0656600296497345
1782835926064555500,0.708555419921875,0.0015509817749261856,0.057897280901670456,-0.05549081414937973
1782835926074485200,0.7184853515625,0.013966105878353119,0.024074599146842957,-0.030247777700424194
1782835926084415500,0.72841552734375,0.022476553916931152,-0.004515012726187706,0.005526957102119923
1782835926094345200,0.73834521484375,0.008305074647068977,-0.03354133665561676,0.034627050161361694
1782835926104275200,0.748275146484375,-0.00506127905100584,-0.060257866978645325,0.04945966601371765
1782835926114205400,0.758205322265625,0.0036802804097533226,-0.06149783730506897,0.05090096592903137
1782835926124135200,0.76813525390625,0.025826219469308853,-0.053055599331855774,0.03598722070455551
1782835926134065400,0.7780654296875,0.04583241790533066,-0.029156390577554703,0.01847000978887081
1782835926143995400,0.787995361328125,0.047714713960886,0.016417963430285454,0.005413045175373554
1782835926153925400,0.79792529296875,0.044301073998212814,0.030620865523815155,0.003543771803379059
1782835926163856400,0.8078564453125,0.027179241180419922,0.02774839848279953,0.007037482224404812
1782835926173786400,0.817786376953125,0.007576511241495609,0.02141779661178589,0.01752341352403164
1782835926183716400,0.82771630859375,-0.009239736013114452,0.0010571135208010674,0.03548979014158249
1782835926193646300,0.837646240234375,-0.009510579518973827,-0.01349013764411211,0.04465506225824356
1782835926203576300,0.847576416015625,-0.0041845496743917465,-0.04045888036489487,0.05688764527440071
1782835926213506300,0.85750634765625,-0.003915570676326752,-0.0448208712041378,0.058542270213365555
1782835926223436300,0.867436279296875,-0.014301984570920467,-0.0350223034620285,0.04585184529423714
1782835926233366300,0.8773662109375,-0.011843620799481869,-0.01568802073597908,0.021349167451262474
1782835926243296500,0.887296630859375,-0.0006833439692854881,0.028904974460601807,-0.0032203011214733124
1782835926253226200,0.897226318359375,-0.000325947068631649,0.06913148611783981,-0.02348322793841362
1782835926263157200,0.9071572265625,-0.01148669607937336,0.08966691792011261,-0.02950088307261467
1782835926273087200,0.917087158203125,-0.031614601612091064,0.091812364757061,-0.02275216579437256
1782835926283017500,0.927017578125,-0.04291318356990814,0.09965212643146515,-0.015563927590847015
1782835926292947200,0.936947265625,-0.03778766095638275,0.10539203137159348,-0.005242315120995045
1782835926302877400,0.94687744140625,-0.031184405088424683,0.09127865731716156,-0.0026392964646220207
1782835926312807400,0.956807373046875,-0.01913679763674736,0.06709183007478714,-0.0012035863474011421
1782835926322737200,0.966737060546875,-0.00952360313385725,0.058026086539030075,0.0014746738597750664
1782835926332667400,0.97666748046875,0.0037969956174492836,0.05613071843981743,-0.004348860587924719
1782835926342597000,0.98659716796875,0.014548107981681824,0.04602968692779541,-0.017482619732618332
1782835926352527400,0.99652734375,0.018150566145777702,0.02702484093606472,-0.016960106790065765
1782835926362458000,1.0064580078125,0.012147835455834866,-0.0007719369605183601,-0.008660572580993176
1782835926372388400,1.016388427734375,0.013866373337805271,-0.021960845217108727,0.0041015613824129105
1782835926382318300,1.026318359375,0.015356145799160004,-0.01533090602606535,0.01854841224849224
1782835926392248300,1.036248291015625,0.0076462943106889725,-0.0025581195950508118,0.014805339276790619
1782835926402178300,1.04617822265625,-0.00010594353079795837,0.011487164534628391,-0.003269811160862446
1782835926412108500,1.056108642578125,0.008961054496467113,0.03726736456155777,-0.027622021734714508
1782835926422038300,1.066038330078125,0.016798779368400574,0.048192672431468964,-0.04958510398864746
1782835926431968500,1.075968505859375,0.026072174310684204,0.040266573429107666,-0.06634890288114548
1782835926441898200,1.085898193359375,0.0377449132502079,0.04012175649404526,-0.06724213063716888
1782835926451828200,1.095828125,0.04413676634430885,0.03656963258981705,-0.04292241111397743
1782835926461758500,1.105758544921875,0.0476435124874115,0.003607364371418953,-0.01525003183633089
1782835926471689200,1.115689208984375,0.05089123547077179,-0.035369329154491425,0.014605868607759476
1782835926481619500,1.125619384765625,0.059713155031204224,-0.04929928109049797,0.049176327884197235
1782835926491549200,1.135549072265625,0.0690496638417244,-0.03865090012550354,0.07077988982200623
1782835926501479400,1.1454794921875,0.07508884370326996,-0.028427571058273315,0.07027976959943771
1782835926511409400,1.155409423828125,0.07224378734827042,-0.016567980870604515,0.0606287345290184
1782835926521339400,1.16533935546875,0.0632048025727272,-0.009328133426606655,0.04819377884268761
1782835926531269400,1.175269287109375,0.03652738407254219,-0.04267410561442375,0.04892508313059807
1782835926541199400,1.185199462890625,0.008639386855065823,-0.06517409533262253,0.07305879145860672
1782835926551129300,1.19512939453125,0.0017607081681489944,-0.061074428260326385,0.08932138234376907
1782835926561059300,1.205059326171875,0.009473651647567749,-0.06541243195533752,0.09873530268669128
1782835926570990300,1.214990234375,0.024236086755990982,-0.03546492010354996,0.09905887395143509
1782835926580920300,1.22492041015625,0.03759583458304405,0.02209024876356125,0.08649461716413498
1782835926590850300,1.234850341796875,0.03638649359345436,0.03887908533215523,0.04405447840690613
1782835926600780300,1.2447802734375,0.030571840703487396,0.023011699318885803,-0.012972177937626839
1782835926610710300,1.254710205078125,0.03919009864330292,0.023433011025190353,-0.059358321130275726
1782835926620640300,1.26464013671875,0.044552743434906006,0.02524447813630104,-0.09422353655099869
1782835926630570500,1.274570556640625,0.053996045142412186,0.013072233647108078,-0.09767552465200424
1782835926640500200,1.284500244140625,0.04137382656335831,-0.021449008956551552,-0.08580359071493149
1782835926650430500,1.294430419921875,0.01793108694255352,-0.05957615375518799,-0.060103289783000946
1782835926660360400,1.3043603515625,0.0028695212677121162,-0.0713142454624176,-0.033744025975465775
1782835926670291500,1.31429150390625,-0.012828747741878033,-0.053151484578847885,-0.007122801151126623
1782835926680221400,1.324221435546875,-0.028577446937561035,-0.021862532943487167,0.011109056882560253
1782835926690151200,1.334151123046875,-0.03389658033847809,0.0003639431670308113,0.02423710748553276
1782835926700081400,1.344081298828125,-0.030085386708378792,0.008412257768213749,0.014655771665275097
1782835926710011100,1.35401123046875,-0.007539866492152214,0.006825280375778675,-0.005970942787826061
1782835926719941400,1.36394140625,0.03184208273887634,0.006934991106390953,-0.02091791480779648
1782835926729871400,1.373871337890625,0.058036401867866516,-0.0018124263733625412,-0.03871848061680794
1782835926739801300,1.38380126953125,0.06476736068725586,-0.02219332940876484,-0.06070374697446823
1782835926749731300,1.3937314453125,0.05954783037304878,-0.016021452844142914,-0.0709044560790062
1782835926759661300,1.403661376953125,0.04234907776117325,-0.009813657961785793,-0.06771913170814514
1782835926769592300,1.41359228515625,-0.005033351480960846,-0.022327851504087448,-0.061305440962314606
1782835926779522300,1.423522216796875,-0.043624334037303925,-0.019576536491513252,-0.05526546388864517
1782835926789452300,1.433452392578125,-0.0618898943066597,-0.007253557909280062,-0.046063974499702454
1782835926799382500,1.443382568359375,-0.07038069516420364,0.009969821199774742,-0.030816499143838882
1782835926809312300,1.453312255859375,-0.06962595880031586,0.022990815341472626,-0.006829672958701849
1782835926819242200,1.4632421875,-0.05424939841032028,0.013234973885118961,0.017694510519504547
1782835926829172500,1.47317236328125,-0.036592379212379456,-0.017805499956011772,0.04032525420188904
1782835926839102200,1.483102294921875,-0.008161583915352821,-0.041799478232860565,0.04281987249851227
1782835926849032400,1.493032470703125,0.027366049587726593,-0.03677675500512123,0.03996523097157478
1782835926858962200,1.502962158203125,0.03823244944214821,-0.006991769187152386,0.043105848133563995
1782835926868893400,1.5128935546875,0.02368812821805477,0.034207865595817566,0.04871286824345589
1782835926878823200,1.5228232421875,0.0050008040852844715,0.057327575981616974,0.050988517701625824
1782835926888753400,1.53275341796875,0.0006763627752661705,0.05122894048690796,0.04023760184645653
1782835926898683400,1.542683349609375,0.0007737763226032257,0.039182983338832855,0.022758571431040764
1782835926908613400,1.55261328125,0.0061403121799230576,0.021908387541770935,0.01298956386744976
1782835926918543400,1.56254345703125,0.007938416674733162,-0.01376653928309679,0.004915312863886356
1782835926928473300,1.572473388671875,0.0035079820081591606,-0.04665284976363182,0.005937167443335056
1782835926938403300,1.5824033203125,-0.007175013422966003,-0.026963576674461365,0.011060238815844059
1782835926948333300,1.592333251953125,-0.011416895315051079,-0.003255849704146385,0.00116712786257267
1782835926958264300,1.602264404296875,-0.0068173762410879135,0.0005125449970364571,-0.0163137074559927
1782835926968194300,1.6121943359375,0.00244190264493227,0.007459401153028011,-0.018621869385242462
1782835926978124300,1.622124267578125,0.001282842829823494,0.02751190774142742,-0.0015748422592878342
1782835926988054300,1.63205419921875,-0.016814667731523514,0.011351045221090317,0.023268457502126694
1782835926997984500,1.641984619140625,-0.02949339523911476,-0.017404764890670776,0.04405464231967926
1782835927007914200,1.651914306640625,-0.032637521624565125,-0.04657170549035072,0.053040146827697754
1782835927017844200,1.66184423828125,-0.030316267162561417,-0.060351379215717316,0.044456176459789276
1782835927027774200,1.671774169921875,-0.01823723502457142,-0.05966188758611679,0.025786615908145905
1782835927037704200,1.6817041015625,-0.002848859876394272,-0.053740549832582474,0.0011502895504236221
1782835927047634400,1.691634521484375,0.01630299724638462,-0.043462615460157394,-0.022957177832722664
1782835927057565200,1.701565185546875,0.023418784141540527,-0.0024728355929255486,-0.036792635917663574
1782835927067495400,1.711495361328125,0.021638993173837662,0.032536014914512634,-0.054252054542303085
1782835927077425200,1.721425048828125,0.02287648245692253,0.06367228180170059,-0.05943950638175011
1782835927087355400,1.73135546875,0.023267701268196106,0.06012362241744995,-0.044662956148386
1782835927097285400,1.741285400390625,0.02132308855652809,0.05278773978352547,0.004850555211305618
1782835927107215400,1.75121533203125,0.0058226920664310455,0.04163069278001785,0.05100660026073456
1782835927117145300,1.761145263671875,0.00049605593085289,0.01868891343474388,0.08301568776369095
1782835927127075000,1.771074951171875,0.0038859928026795387,-0.01712261512875557,0.0792076364159584
1782835927137005300,1.78100537109375,0.011036816984415054,-0.038827139884233475,0.049534689635038376
1782835927146935300,1.790935302734375,0.015787629410624504,-0.04843902215361595,0.01150048989802599
1782835927156866300,1.8008662109375,0.01087768841534853,-0.051149629056453705,-0.028414499014616013
1782835927166796300,1.81079638671875,0.004710073582828045,-0.029401186853647232,-0.04853734374046326
1782835927176726300,1.820726318359375,-0.001418950967490673,0.01887103170156479,-0.05152125656604767
1782835927186656300,1.83065625,-0.011209797114133835,0.06353703141212463,-0.03101225569844246
1782835927196586500,1.84058642578125,-0.023349981755018234,0.06527286767959595,0.005113082006573677
1782835927206516200,1.85051611328125,-0.03404789790511131,0.009634374640882015,0.03460626304149628
1782835927216446500,1.860446533203125,-0.028031285852193832,-0.0312933512032032,0.06517162173986435
1782835927226376200,1.870376220703125,-0.011481069959700108,-0.05542292073369026,0.0782109946012497
1782835927236306200,1.88030615234375,-0.0048686303198337555,-0.08105210959911346,0.06624779105186462
1782835927246237200,1.8902373046875,-0.0068276505917310715,-0.0771883949637413,0.03994001820683479
1782835927256167200,1.900167236328125,-0.019479844719171524,-0.04639981687068939,0.0008278042078018188
1782835927266097400,1.910097412109375,-0.03198658302426338,0.001432684250175953,-0.0352226085960865
1782835927276027100,1.920027099609375,-0.03515251725912094,0.07107565551996231,-0.04478142410516739
1782835927285957400,1.929957275390625,-0.045286111533641815,0.10993783175945282,-0.04089933633804321
1782835927295887000,1.93988720703125,-0.04915751516819,0.11005204916000366,-0.020881623029708862
1782835927305817300,1.9498173828125,-0.05277115851640701,0.07557929307222366,0.007469857111573219
1782835927315747300,1.959747314453125,-0.04144686460494995,0.026630129665136337,0.03619098290801048
1782835927325677300,1.96967724609375,-0.025724094361066818,-0.013652577996253967,0.0654817670583725
1782835927335607300,1.979607177734375,-0.016667280346155167,-0.06865452229976654,0.08290856331586838
1782835927345538300,1.989538330078125,-0.022319842129945755,-0.10438162833452225,0.09087514132261276
1782835927355468300,1.99946826171875,-0.029926620423793793,-0.10160794854164124,0.0764937549829483
1782835927365398500,2.0093984375,-0.0417633056640625,-0.07612708956003189,0.02417781949043274
1782835927375328300,2.019328369140625,-0.038445375859737396,-0.02744263783097267,-0.04247959703207016
1782835927385258200,2.02925830078125,-0.025543691590428352,0.024766769260168076,-0.09280189871788025
1782835927395188200,2.039188232421875,-0.017291400581598282,0.05096904933452606,-0.1267147660255432
1782835927405118200,2.0491181640625,-0.016726810485124588,0.04217502474784851,-0.1217690110206604
1782835927415048400,2.05904833984375,-0.023829709738492966,0.02100740745663643,-0.08798637986183167
1782835927424978200,2.068978271484375,-0.030983492732048035,-0.010824289172887802,-0.04040927067399025
1782835927434909400,2.078909423828125,-0.03930508345365524,-0.031472302973270416,0.018593912944197655
1782835927444839200,2.088839111328125,-0.04411235451698303,-0.031170032918453217,0.06797850131988525
1782835927454769400,2.098769287109375,-0.04151828587055206,-0.0210886113345623,0.0984051302075386
1782835927464699400,2.108699462890625,-0.03573336452245712,-0.023339249193668365,0.10276738554239273
1782835927474629400,2.11862939453125,-0.03205544129014015,-0.011456768028438091,0.07918598502874374
1782835927484559400,2.128559326171875,-0.014359532855451107,0.003766125999391079,0.03713307902216911
1782835927494489000,2.138489013671875,0.002483448013663292,0.010828298516571522,-0.0028202696703374386
1782835927504419300,2.14841943359375,0.014560616575181484,0.013652314431965351,-0.028381023555994034
1782835927514349300,2.158349365234375,0.02037767507135868,0.01704384759068489,-0.0437452606856823
1782835927524279300,2.168279296875,0.02260380983352661,0.02282051369547844,-0.04329731687903404
1782835927534210300,2.178210205078125,0.023524489253759384,0.02774813398718834,-0.03952883183956146
1782835927544140300,2.188140380859375,0.024602271616458893,0.006430064328014851,-0.04137307032942772
1782835927554070300,2.1980703125,0.013217106461524963,-0.045321233570575714,-0.05422474443912506
1782835927564000300,2.208000244140625,0.01608799397945404,-0.07701684534549713,-0.05440717190504074
1782835927573930200,2.21793017578125,0.02307971753180027,-0.07647252082824707,-0.023899119347333908
1782835927583860500,2.227860595703125,0.00992822926491499,-0.05360555276274681,0.025054577738046646
1782835927593790200,2.237790283203125,-0.02539835125207901,-0.0216209776699543,0.05936071276664734
1782835927603720200,2.24772021484375,-0.051712777465581894,-0.01111880224198103,0.05947656184434891
1782835927613650400,2.257650390625,-0.046696074306964874,-0.019626552239060402,0.036651186645030975
1782835927623581400,2.26758154296875,-0.02163972333073616,-0.025288432836532593,-0.004387057386338711
1782835927633511400,2.277511474609375,-0.0016955621540546417,-0.03161446750164032,-0.04552054405212402
1782835927643441200,2.287441162109375,0.0065434593707323074,-0.033758580684661865,-0.0799618810415268
1782835927653371400,2.297371337890625,0.0043628946878015995,-0.014294343069195747,-0.08693049103021622
1782835927663301000,2.307301025390625,-0.0006169499829411507,0.01837225630879402,-0.07196672260761261
1782835927673231400,2.3172314453125,-0.011727429926395416,0.029935933649539948,-0.03728407248854637
1782835927683161300,2.327161376953125,-0.023929500952363014,0.0075661800801754,-0.006578890141099691
1782835927693091300,2.33709130859375,-0.01919345185160637,0.009842406027019024,0.01791953481733799
1782835927703021300,2.347021240234375,-0.0026389779523015022,0.027796372771263123,0.03874572366476059
1782835927712952300,2.356952392578125,0.00024037528783082962,0.011446982622146606,0.047133419662714005
1782835927722882300,2.36688232421875,-0.006486769765615463,0.0048111844807863235,0.05175799876451492
1782835927732812300,2.376812255859375,-0.006152890622615814,0.009972336702048779,0.048553820699453354
1782835927742742300,2.3867421875,-0.006682062521576881,0.011499661020934582,0.0355975404381752
1782835927752672300,2.39667236328125,0.0015760930255055428,0.005151517689228058,0.020459052175283432
1782835927762602200,2.406602294921875,0.012144048698246479,-0.0013098446652293205,0.005424709990620613
1782835927772532200,2.4165322265625,0.025878572836518288,-0.007465732283890247,-0.01224480476230383
1782835927782462500,2.42646240234375,0.03143099695444107,-0.009166959673166275,-0.014160150662064552
1782835927792392200,2.43639208984375,0.02367420494556427,0.002679837867617607,-0.004098753444850445
1782835927802323500,2.446323486328125,0.008111756294965744,0.01714080199599266,0.020670507103204727
1782835927812253200,2.456253173828125,-0.005338952876627445,0.01548748929053545,0.037505142390728
1782835927822183400,2.466183349609375,-0.010496695525944233,0.006080138497054577,0.037862006574869156
1782835927832113200,2.476113037109375,-0.0037201708182692528,0.007095048204064369,0.028824876993894577
1782835927842043400,2.48604345703125,0.005193695425987244,0.0027399808168411255,0.015553810633718967
1782835927851973400,2.495973388671875,-0.0007413579151034355,-0.00843995064496994,-0.0036997469142079353
1782835927861903000,2.505903076171875,0.0008709197863936424,0.0016736695542931557,-0.015020578168332577
1782835927871833300,2.515833251953125,0.01636730507016182,0.016348764300346375,-0.015927283093333244
1782835927881763300,2.525763427734375,0.03466375172138214,0.019244953989982605,-0.022677864879369736
1782835927891694300,2.5356943359375,0.04768206179141998,0.016946393996477127,-0.03057744912803173
1782835927901624300,2.545624267578125,0.03653699904680252,0.015620673075318336,-0.03219106048345566
1782835927911554300,2.55555419921875,0.016273561865091324,0.015279506333172321,-0.02533756196498871
1782835927921484300,2.565484375,-0.0037970859557390213,0.002101919613778591,-0.01554272323846817
1782835927931414300,2.575414306640625,-0.018390879034996033,-0.004793786443769932,-0.005393073428422213
1782835927941344300,2.58534423828125,-0.006534219719469547,0.006970727816224098,0.004700306802988052
1782835927951274800,2.595274658203125,0.01743897795677185,0.030690673738718033,0.02152065560221672
1782835927961204700,2.605204833984375,0.037429727613925934,0.05853775143623352,0.03786127641797066
1782835927971134700,2.615134765625,0.055650804191827774,0.07144317030906677,0.05810215324163437
1782835927981065700,2.625065673828125,0.06862811744213104,0.05597473680973053,0.07174792885780334
1782835927990995700,2.63499560546875,0.06109192222356796,0.016709867864847183,0.05701947584748268
1782835928000925700,2.64492578125,0.05161985754966736,-0.010459700599312782,0.031064573675394058
1782835928010855700,2.654855712890625,0.04886089637875557,-0.0372963547706604,0.003092358820140362
1782835928020785700,2.66478564453125,0.04526882246136665,-0.06728408485651016,-0.021757064387202263
1782835928030715600,2.674715576171875,0.044687144458293915,-0.07620085775852203,-0.02925228327512741
1782835928040645600,2.684645751953125,0.03504783660173416,-0.0840798169374466,-0.030430201441049576
1782835928050575600,2.69457568359375,0.02129414491355419,-0.08231575042009354,-0.02877245843410492
1782835928060505600,2.704505615234375,0.02056923136115074,-0.0704369843006134,-0.020074840635061264
1782835928070436600,2.7144365234375,0.023310940712690353,-0.06714371591806412,-0.01865767315030098
1782835928080366600,2.72436669921875,0.027589309960603714,-0.062013670802116394,-0.027008015662431717
1782835928090296800,2.734296875,0.025555506348609924,-0.05010506138205528,-0.045900627970695496
1782835928100226600,2.7442265625,0.03041444532573223,-0.026432756334543228,-0.06559816002845764
1782835928110156800,2.75415673828125,0.03084685653448105,-0.01303119957447052,-0.0910419374704361
1782835928120086800,2.764086669921875,0.014474008232355118,-0.029306575655937195,-0.13152384757995605
1782835928130016500,2.7740166015625,0.004830357618629932,-0.04012992978096008,-0.17330455780029297
1782835928139946800,2.78394677734375,0.006031443364918232,-0.04831063002347946,-0.19401170313358307
1782835928149876500,2.79387646484375,0.010062051005661488,-0.04817667603492737,-0.1812841147184372
1782835928159807700,2.803807861328125,-0.001242535188794136,-0.012055953033268452,-0.11888252198696136
1782835928169737500,2.813737548828125,-0.020448599010705948,-0.006164257414638996,-0.043906547129154205
1782835928179667700,2.823667724609375,-0.03478759154677391,-0.012355574406683445,0.004483620636165142
1782835928189597700,2.83359765625,-0.024637477472424507,-0.025446079671382904,0.014303711242973804
1782835928199527700,2.843527587890625,0.0071462830528616905,-0.0674009919166565,0.0037408163771033287
1782835928209457700,2.853457763671875,0.02746548131108284,-0.033971384167671204,-0.009513226337730885
1782835928219387600,2.8633876953125,0.0384020172059536,-0.023928869515657425,-0.035238295793533325
1782835928229317600,2.873317626953125,0.03359437733888626,-0.035827867686748505,-0.05411035194993019
1782835928239247600,2.88324755859375,0.026319686323404312,-0.04144607111811638,-0.06467031687498093
1782835928249178600,2.8931787109375,0.02842702902853489,-0.029422957450151443,-0.0776776373386383
1782835928259108900,2.90310888671875,0.02980707958340645,0.004988810978829861,-0.08773346245288849
1782835928269038600,2.91303857421875,0.041823215782642365,0.03721703216433525,-0.08940157294273376
1782835928278968600,2.922968505859375,0.052726197987794876,0.050346679985523224,-0.08009994775056839
1782835928288898800,2.93289892578125,0.049362145364284515,0.03064809739589691,-0.06376026570796967
1782835928298828500,2.94282861328125,0.03228462487459183,-0.014482628554105759,-0.044017188251018524
1782835928308758800,2.9527587890625,0.013376151211559772,-0.016223527491092682,-0.01837262138724327
1782835928318688500,2.9626884765625,-0.002303210087120533,-0.02252403274178505,0.015656184405088425
1782835928328619800,2.972619873046875,-0.02347976341843605,-0.04544379562139511,0.03794007748365402
1782835928338549500,2.982549560546875,-0.03844273090362549,-0.046187616884708405,0.039045024663209915
1782835928348479700,2.992479736328125,-0.030878230929374695,-0.04588634520769119,0.0028316332027316093
1782835928358409700,3.00240966796875,-0.0025464575737714767,-0.03636794164776802,-0.054999977350234985
1782835928368339700,3.012339599609375,0.02706102468073368,0.0034292563796043396,-0.10139895975589752
1782835928378269700,3.022269775390625,0.03868039697408676,0.03448517620563507,-0.1238669902086258
1782835928388199700,3.03219970703125,0.023297155275940895,0.04642760008573532,-0.11569520086050034
1782835928398129700,3.042129638671875,0.0007412461563944817,0.05061168968677521,-0.10699145495891571
1782835928408059600,3.0520595703125,-0.017915725708007812,0.04029540717601776,-0.10068773478269577
1782835928417990700,3.06199072265625,-0.03535889834165573,0.014260346069931984,-0.09742696583271027
1782835928427920600,3.071920654296875,-0.044871628284454346,-0.0026555191725492477,-0.09297045320272446
1782835928437850600,3.0818505859375,-0.046205341815948486,-0.011340353637933731,-0.06803154945373535
1782835928447780600,3.091780517578125,-0.03656737506389618,-0.003436093218624592,-0.03474487364292145
1782835928457710800,3.1017109375,-0.024407917633652687,0.020471369847655296,-0.009980670176446438
1782835928467640600,3.111640625,-0.012155910022556782,0.040620576590299606,0.0012013250961899757
1782835928477570800,3.12157080078125,-0.005128360353410244,0.04058702290058136,-0.005001709796488285
1782835928487500500,3.13150048828125,-0.008202094584703445,0.00974148977547884,-0.018199609592556953
1782835928497431800,3.141431884765625,-0.013318825513124466,-0.022675039246678352,-0.030857881531119347
1782835928507361500,3.151361572265625,-0.016572481021285057,-0.011445826850831509,-0.037938717752695084
1782835928517291800,3.161291748046875,-0.02303224615752697,0.041498348116874695,-0.02594730257987976
1782835928527221800,3.1712216796875,-0.038638994097709656,0.0841403529047966,-0.005340971052646637
1782835928537151500,3.1811513671875,-0.047300394624471664,0.10155343264341354,-0.00018136296421289444
1782835928547081700,3.191081787109375,-0.03272661566734314,0.10841480642557144,-0.010669788345694542
1782835928557011700,3.20101171875,-0.008791718631982803,0.08526074886322021,-0.0353277325630188
1782835928566941700,3.210941650390625,0.01756548509001732,0.04572559520602226,-0.06190963834524155
1782835928576871700,3.22087158203125,0.03003467060625553,0.02319738268852234,-0.06988953799009323
1782835928586802700,3.230802734375,0.03240349143743515,0.02583896368741989,-0.0740521252155304
1782835928596732700,3.240732666015625,0.01897316798567772,0.016768235713243484,-0.06804776191711426
1782835928606662700,3.25066259765625,-0.010823570191860199,0.0006672749295830727,-0.07412747293710709
1782835928616592600,3.260592529296875,-0.022034678608179092,-0.02123189903795719,-0.07690781354904175
1782835928626523000,3.27052294921875,-0.008515063673257828,-0.010501747950911522,-0.07722581923007965
1782835928636452600,3.28045263671875,0.006807434372603893,0.022411726415157318,-0.06482374668121338
1782835928646382600,3.290382568359375,0.013653120025992393,0.05352333188056946,-0.04597735032439232
1782835928656312800,3.300312744140625,0.01970941387116909,0.059261105954647064,-0.03052489086985588
1782835928666242600,3.31024267578125,0.02347104251384735,0.031104307621717453,-0.03880272060632706
1782835928676173600,3.320173583984375,0.04001113772392273,0.0021107392385601997,-0.035717982798814774
1782835928686103600,3.330103515625,0.04078216478228569,-0.0005958452820777893,-0.015444908291101456
1782835928696033800,3.34003369140625,0.02777715027332306,0.003905428573489189,0.018206262961030006
1782835928705963500,3.349963623046875,0.0004777815192937851,0.024425093084573746,0.04976648837327957
1782835928715893800,3.359893798828125,-0.014332589693367481,0.035546451807022095,0.056702956557273865
1782835928725823700,3.36982373046875,-0.019687596708536148,0.03414936363697052,0.03872739523649216
1782835928735753700,3.379753662109375,-0.013219843618571758,0.03156902641057968,0.004378742538392544
1782835928745683700,3.38968359375,-0.00004463735967874527,0.03332457318902016,-0.02834547683596611
1782835928755614700,3.39961474609375,0.00958162546157837,0.04129701480269432,-0.06142779812216759
1782835928765544700,3.409544677734375,0.01337004266679287,0.08341038227081299,-0.07100743055343628
1782835928775474400,3.419474365234375,0.0016891518607735634,0.0865798145532608,-0.07221464067697525
1782835928785404700,3.42940478515625,-0.015031215734779835,0.0527118518948555,-0.07780955731868744
1782835928795334700,3.439334716796875,-0.01941531151533127,0.010037625208497047,-0.07896749675273895
1782835928805264600,3.4492646484375,-0.01208440214395523,0.002604994922876358,-0.06174098700284958
1782835928815194600,3.459194580078125,-0.006086431443691254,0.012973746284842491,-0.045647770166397095
1782835928825124900,3.469124755859375,-0.004091411828994751,0.036164842545986176,-0.023068789392709732
1782835928835055600,3.4790556640625,-0.005489572882652283,0.04338973015546799,-0.01054127886891365
1782835928844985600,3.488985595703125,-0.005447071045637131,0.012929031625390053,-0.0077980076894164085
1782835928854915600,3.49891552734375,0.012413417920470238,-0.04120451211929321,-0.013663353398442268
1782835928864845800,3.508845703125,0.0427187979221344,-0.06534048169851303,-0.0022017108276486397
1782835928874775600,3.518775634765625,0.05522553622722626,-0.06175879389047623,0.021943572908639908
1782835928884705800,3.528705810546875,0.04962847754359245,-0.04184155538678169,0.049114786088466644
1782835928894635800,3.5386357421875,0.033747248351573944,-0.01842651143670082,0.055321283638477325
1782835928904565500,3.5485654296875,0.021445319056510925,-0.006534703075885773,0.029667003080248833
1782835928914496800,3.558496826171875,0.017584534361958504,-0.019053423777222633,-0.027586430311203003
1782835928924426500,3.568426513671875,0.028841175138950348,-0.025385882705450058,-0.0727783590555191
1782835928934356700,3.578356689453125,0.02969498559832573,-0.015974804759025574,-0.09523147344589233
1782835928944286500,3.588286376953125,0.029178574681282043,-0.01754419505596161,-0.09458445012569427
1782835928954216000,3.5982158203125,0.03128007426857948,-0.009745393879711628,-0.07393163442611694
1782835928964146000,3.60814599609375,0.041788071393966675,0.009472782723605633,-0.037964072078466415
1782835928974076200,3.618076171875,0.043655212968587875,0.004937685094773769,-0.004622361622750759
1782835928984006000,3.628005859375,0.034422606229782104,-0.030271973460912704,0.02322341501712799
1782835928993936100,3.63793603515625,0.032505929470062256,-0.06453061103820801,0.035838011652231216
1782835929003867000,3.647866943359375,0.029003307223320007,-0.06406667828559875,0.03826673701405525
1782835929013797000,3.657797119140625,0.019076906144618988,-0.06198941543698311,0.047003235667943954
1782835929023726800,3.667726806640625,-0.00016492605209350586,-0.05300205573439598,0.05131092667579651
1782835929033657000,3.677656982421875,-0.0093938447535038,-0.025604788213968277,0.04776199907064438
1782835929043587000,3.687587158203125,-0.0024564648047089577,0.005857273004949093,0.02999228425323963
1782835929053516800,3.697516845703125,0.003979596309363842,0.014831325970590115,-0.0036213360726833344
1782835929063447000,3.707447021484375,0.012736782431602478,0.007753423415124416,-0.03160860389471054
1782835929073376800,3.717376708984375,0.011701079085469246,-0.019847312942147255,-0.052439846098423004
1782835929083308000,3.72730810546875,0.010542728006839752,-0.05154529958963394,-0.052834652364254
1782835929093237800,3.73723779296875,0.01733778417110443,-0.018519438803195953,-0.015482218936085701
1782835929103168000,3.74716796875,0.02154061198234558,0.015356235206127167,0.033654313534498215
1782835929113098000,3.757097900390625,0.00856888759881258,0.01573147438466549,0.07358574867248535
1782835929123028000,3.767028076171875,-0.0013973424211144447,0.007695375941693783,0.09886793792247772
1782835929132958000,3.7769580078125,0.0020096395164728165,-0.016808101907372475,0.1059815064072609
1782835929142888200,3.78688818359375,-0.00019073393195867538,-0.056137409061193466,0.07180114090442657
1782835929152818000,3.79681787109375,0.01677653193473816,-0.06151885911822319,0.022825077176094055
1782835929162749000,3.8067490234375,0.035745732486248016,-0.019293352961540222,-0.016455799341201782
1782835929172679000,3.816678955078125,0.03588128834962845,0.012794009409844875,-0.04209112003445625
1782835929182609000,3.82660888671875,0.020300142467021942,0.03575471043586731,-0.04730277881026268
1782835929192539000,3.836538818359375,-0.0011657336726784706,0.044859521090984344,-0.03460456058382988
1782835929202468900,3.84646875,-0.02521779015660286,0.034665752202272415,-0.016557034105062485
1782835929212399000,3.856399169921875,-0.02569209784269333,0.014872339554131031,0.0044936565682291985
1782835929222328800,3.866328857421875,-0.010859396308660507,0.009412323124706745,0.020692128688097
1782835929232259000,3.876259033203125,0.002137628383934498,-0.00737358070909977,0.0359342023730278
1782835929242189800,3.88618994140625,0.009019760414958,-0.010605856776237488,0.04300307482481003
1782835929252120000,3.8961201171875,0.01473916508257389,-0.009044178761541843,0.04209626838564873
1782835929262049800,3.9060498046875,0.008666781708598137,-0.011813064105808735,0.030929312109947205
1782835929271980000,3.91597998046875,0.005819063633680344,-0.006772499065846205,0.00476162601262331
1782835929281910000,3.925909912109375,0.001547282561659813,0.008977432735264301,-0.023553121834993362
1782835929291840000,3.935840087890625,-0.006843806244432926,0.018636982887983322,-0.053305692970752716
1782835929301770000,3.94577001953125,-0.007156264036893845,0.02035205438733101,-0.060382530093193054
1782835929311700000,3.955699951171875,-0.005449710413813591,0.010725793428719044,-0.044208887964487076
1782835929321630000,3.9656298828125,-0.007065693847835064,-0.012155018746852875,-0.026117470115423203
1782835929331561000,3.97556103515625,0.004328375216573477,-0.02760135382413864,-0.005547748412936926
1782835929341491000,3.985490966796875,0.008800770156085491,-0.0296943336725235,0.0018913503736257553
1782835929351421000,3.9954208984375,-0.0012265639379620552,-0.04516596719622612,-0.004513552412390709
1782835929361351000,4.005350830078125,-0.014053632505238056,-0.046575840562582016,-0.003918708302080631
1782835929371281000,4.015281005859375,-0.03214075788855553,-0.040070004761219025,-0.017441973090171814
1782835929381211100,4.025211181640625,-0.04000680148601532,-0.05468490347266197,-0.03964509814977646
1782835929391140900,4.035140869140625,-0.026434000581502914,-0.04488473758101463,-0.06986958533525467
1782835929401071000,4.045071044921875,-0.01431027427315712,-0.02511688694357872,-0.08966271579265594
1782835929411001900,4.055001953125,0.0029350249096751213,-0.009588527493178844,-0.09768708795309067
1782835929420932000,4.06493212890625,0.015162123367190361,0.006323304958641529,-0.09520968794822693
1782835929430861800,4.07486181640625,0.017111556604504585,0.011345493607223034,-0.08876083791255951
1782835929440791800,4.084791748046875,0.01336345449090004,0.005127567797899246,-0.0634581446647644
1782835929450722000,4.09472216796875,0.008744201622903347,0.022815220057964325,-0.04167402163147926
1782835929460651800,4.10465185546875,0.009072459302842617,0.01651737466454506,-0.01712053082883358
1782835929470582000,4.11458203125,0.0038950080052018166,-0.0050699422135949135,-0.000831039622426033
1782835929480512800,4.1245126953125,-0.0019467845559120178,-0.011982443742454052,0.010830683633685112
1782835929490443000,4.134443115234375,-0.0017553037032485008,-0.006550926715135574,0.013090908527374268
1782835929500373000,4.144373046875,-0.00042922142893075943,-0.014123626053333282,0.023008931428194046
1782835929510303000,4.154302978515625,-0.003889733925461769,0.013666726648807526,0.0518360510468483
1782835929520233000,4.16423291015625,0.0007814597338438034,0.023997392505407333,0.08147992193698883
1782835929530163000,4.174162841796875,0.0003508264198899269,-0.015381173230707645,0.08828216791152954
1782835929540093000,4.184093017578125,0.02086251601576805,-0.03648487105965614,0.07354169338941574
1782835929550023000,4.19402294921875,0.05900484323501587,-0.027543574571609497,0.05368436127901077
1782835929559953000,4.203952880859375,0.07313411682844162,-0.011450077407062054,0.024017859250307083
1782835929569884200,4.21388427734375,0.07063287496566772,0.007308430038392544,0.004615665413439274
1782835929579814000,4.22381396484375,0.06073487922549248,0.02861691452562809,-0.005095964297652245
1782835929589743900,4.233743896484375,0.05137014016509056,0.030136248096823692,-0.011366909369826317
1782835929599674000,4.243674072265625,0.04976213723421097,0.018354419618844986,-0.01402190886437893
1782835929609603800,4.253603759765625,0.04876504838466644,0.005161385051906109,-0.007961353287100792
1782835929619534000,4.2635341796875,0.03767650946974754,-0.021183662116527557,0.00912182591855526
1782835929629463800,4.2734638671875,0.0264092069119215,-0.018302656710147858,0.026536770164966583
1782835929639394000,4.28339404296875,0.027421090751886368,-0.0056198881939053535,0.04351334646344185
1782835929649324800,4.29332470703125,0.02995562180876732,0.0021309759467840195,0.04575439542531967
1782835929659255000,4.303255126953125,0.024700932204723358,0.010261328890919685,0.03584597259759903
1782835929669185000,4.31318505859375,0.01947021670639515,0.020957117900252342,0.025009574368596077
1782835929679115000,4.323114990234375,0.016308041289448738,0.03437599539756775,0.010322045534849167
1782835929689045000,4.333044921875,0.025190748274326324,0.04731949046254158,-0.016330337151885033
1782835929698974700,4.342974609375,0.035131391137838364,0.07045384496450424,-0.03452492505311966
1782835929708905000,4.352905029296875,0.039707500487565994,0.07209781557321548,-0.050067394971847534
1782835929718835000,4.3628349609375,0.036395370960235596,0.03717924281954765,-0.0468796044588089
1782835929728766000,4.372765869140625,0.027725184336304665,-0.007128566969186068,-0.029523249715566635
1782835929738696000,4.382696044921875,0.027642782777547836,-0.03709658235311508,0.002007991075515747
1782835929748626000,4.3926259765625,0.022530045360326767,-0.05194983258843422,0.03167374059557915
1782835929758556000,4.402555908203125,0.021881479769945145,-0.05789507180452347,0.05271491780877113
1782835929768486100,4.412486083984375,0.02643522061407566,-0.05600342899560928,0.060126759111881256
1782835929778415900,4.422415771484375,0.020163826644420624,-0.04978281632065773,0.05130922794342041
1782835929788346000,4.43234619140625,0.022274382412433624,-0.04760648310184479,0.04138549044728279
1782835929798275800,4.44227587890625,0.025247881188988686,-0.02421913482248783,0.03795477747917175
1782835929808207000,4.45220703125,0.029469523578882217,0.009177970699965954,0.04330799728631973
1782835929818136800,4.46213671875,0.027883024886250496,0.015639327466487885,0.0460999459028244
1782835929828067000,4.472067138671875,0.01941896602511406,0.014306681230664253,0.026009589433670044
1782835929837997000,4.4819970703125,0.027361977845430374,0.017938947305083275,-0.0015558232553303242
1782835929847926800,4.4919267578125,0.03817734122276306,0.007706284523010254,-0.03321148455142975
1782835929857857000,4.50185693359375,0.03638813644647598,-0.004555420950055122,-0.05239579826593399
1782835929867787000,4.511787109375,0.023575935512781143,-0.007085956167429686,-0.053637631237506866
1782835929877718000,4.521718017578125,0.012611025013029575,0.0034681521356105804,-0.045291319489479065
1782835929887647700,4.531647705078125,0.0024084551259875298,0.00013067945837974548,-0.027199402451515198
1782835929897578000,4.541577880859375,-0.0065142931416630745,0.00912497192621231,-0.002182612195611
1782835929907508000,4.551508056640625,-0.014939204789698124,0.04246801882982254,0.015336459502577782
1782835929917438000,4.56143798828125,-0.028092026710510254,0.058269351720809937,0.017167650163173676
1782835929927368000,4.571367919921875,-0.02962653711438179,0.075524240732193,0.003208424896001816
1782835929937298200,4.581298095703125,-0.02097117155790329,0.07828380167484283,-0.02449735999107361
1782835929947228000,4.591227783203125,-0.006679847836494446,0.05177070200443268,-0.043722186237573624
1782835929957162800,4.601162841796875,0.004658638034015894,0.03835289925336838,-0.051509030163288116
1782835929967092700,4.6110927734375,0.0003123590722680092,0.021910279989242554,-0.03370127081871033
1782835929977023000,4.62102294921875,-0.015220213681459427,-0.003205474466085434,-0.014601362869143486
1782835929986952700,4.63095263671875,-0.03132754564285278,-0.021800730377435684,0.004635181277990341
1782835929996882700,4.640882568359375,-0.045611362904310226,-0.0305851548910141,0.013213388621807098
1782835930006813000,4.65081298828125,-0.046019624918699265,-0.04118587076663971,0.004081408493220806
1782835930016742700,4.66074267578125,-0.03292353078722954,-0.039168257266283035,-0.001682736910879612
1782835930026673000,4.6706728515625,-0.01620260626077652,-0.020881395787000656,0.006000216118991375
1782835930036603600,4.680603759765625,0.005307752639055252,0.0012231077998876572,0.00968199037015438
1782835930046534000,4.690533935546875,0.018850725144147873,0.01922714337706566,0.014708440750837326
1782835930056463600,4.700463623046875,0.023701902478933334,0.019552044570446014,0.00017180480062961578
1782835930066393900,4.710393798828125,0.021191339939832687,0.010448296554386616,-0.0167752206325531
1782835930076323800,4.72032373046875,0.008673151023685932,0.01622788980603218,-0.013329356908798218
1782835930086253800,4.73025390625,-0.004230928607285023,0.031664103269577026,-0.007038437761366367
1782835930096183800,4.740183837890625,-0.014995294623076916,0.04480280727148056,0.009963099844753742
1782835930106113800,4.75011376953125,-0.016716495156288147,0.038997918367385864,0.021797653287649155
1782835930116044800,4.760044921875,-0.013520137406885624,0.005961664021015167,0.02748481184244156
1782835930125974800,4.769974853515625,-0.008912070654332638,-0.028654636815190315,0.028260592371225357
1782835930135904800,4.77990478515625,0.003619324415922165,-0.055954430252313614,0.018426651135087013
1782835930145834800,4.789834716796875,0.02296585775911808,-0.040931541472673416,0.013285685330629349
1782835930155764700,4.7997646484375,0.056085940450429916,0.005179231055080891,0.0116934385150671
1782835930165694700,4.80969482421875,0.07837899774312973,0.0381169393658638,-0.015891052782535553
1782835930175625000,4.819625,0.06705909222364426,0.04763747751712799,-0.03226744383573532
1782835930185554700,4.8295546875,0.04170287027955055,0.024254122748970985,-0.04133257642388344
1782835930195486000,4.83948583984375,0.007116188295185566,0.010240305215120316,-0.038283683359622955
1782835930205415700,4.849415771484375,-0.016983289271593094,0.0329594686627388,-0.026548195630311966
1782835930215346000,4.859345947265625,-0.0438687764108181,0.037252750247716904,-0.0006025857292115688
1782835930225275600,4.869275634765625,-0.058193389326334,0.03945225477218628,0.024611424654722214
1782835930235206000,4.879205810546875,-0.04957251250743866,0.036672964692115784,0.04145219177007675
1782835930245136000,4.889135986328125,-0.018239624798297882,0.020852988585829735,0.03247520700097084
1782835930255065600,4.899065673828125,0.020309951156377792,0.002214602194726467,0.015108420513570309
1782835930264996900,4.908996826171875,0.05085081607103348,-0.0054675517603755,0.007253426127135754
1782835930274926800,4.9189267578125,0.052221670746803284,-0.006598071660846472,-0.006216885056346655
1782835930284856800,4.92885693359375,0.03834127262234688,0.0059241121634840965,-0.009065401740372181
1782835930294786800,4.938786865234375,0.020863424986600876,0.013588164001703262,-0.023344412446022034
1782835930304716800,4.948716796875,0.008450165390968323,0.010483451187610626,-0.038274094462394714
1782835930314646800,4.958646728515625,-0.00014117732644081116,0.006905495189130306,-0.05380227789282799
1782835930324576800,4.96857666015625,-0.0033188611268997192,-0.010351521894335747,-0.05490695685148239
1782835930334506800,4.9785068359375,-0.0013435157015919685,-0.02137381210923195,-0.04864136502146721
1782835930344437800,4.988437744140625,-0.006582220084965229,-0.017489859834313393,-0.03908514603972435
1782835930354367700,4.99836767578125,-0.009256700053811073,-0.00016254093497991562,-0.02275499515235424
1782835930364298000,5.008298095703125,-0.014963587746024132,0.0027464302256703377,0.0009348876774311066
1782835930374227700,5.018227783203125,-0.009446268901228905,0.005130232311785221,0.013551508076488972
1782835930384158000,5.028157958984375,-0.009231885895133018,0.01384356152266264,0.01803573966026306
1782835930394087700,5.038087646484375,-0.005052915774285793,0.011497048661112785,0.005207492969930172
1782835930404017700,5.048017578125,-0.006640692241489887,-0.012798170559108257,-0.01973807066679001
1782835930413948000,5.057947998046875,-0.010638942942023277,-0.01050625555217266,-0.038172461092472076
1782835930423879000,5.06787890625,-0.011840561404824257,-0.0019090399146080017,-0.04258665069937706
1782835930433809000,5.077808837890625,-0.0192854180932045,-0.01419712882488966,-0.03259851038455963
1782835930443738600,5.087738525390625,-0.021730199456214905,0.0018878309056162834,-0.012907098047435284
1782835930453668900,5.0976689453125,-0.006725153885781765,0.03455496206879616,0.024715378880500793
1782835930463598800,5.107598876953125,-0.008142220787703991,0.039402980357408524,0.05485490709543228
1782835930473528800,5.11752880859375,-0.023937853053212166,0.006855160929262638,0.059999123215675354
1782835930483458800,5.127458740234375,-0.02413865365087986,-0.01796310395002365,0.05306797847151756
1782835930493389800,5.137389892578125,-0.012734286487102509,-0.0284184068441391,0.03561636060476303
1782835930503319800,5.14731982421875,-0.0003708275035023689,-0.03604969382286072,0.01373156625777483
1782835930513249800,5.157249755859375,0.015203988179564476,-0.0253126323223114,-0.0032394235022366047
1782835930523179800,5.1671796875,0.022424351423978806,-0.013364894315600395,-0.012142371386289597
1782835930533110000,5.177110107421875,0.01629682444036007,-0.01602964848279953,-0.011713027954101562
1782835930543039700,5.187039794921875,0.0035080593079328537,-0.01645814999938011,-0.019782938063144684
1782835930552969700,5.1969697265625,0.0011780289933085442,0.009127888828516006,-0.022728120908141136
1782835930562899700,5.206899658203125,0.003569280728697777,0.024995001032948494,-0.019423138350248337
1782835930572830700,5.216830810546875,-0.0041603632271289825,0.023453306406736374,-0.02387276664376259
1782835930582760700,5.2267607421875,-0.0027110716328024864,0.0014974093064665794,-0.016912061721086502
1782835930592690700,5.236690673828125,-0.0037346985191106796,-0.039414335042238235,-0.014101481065154076
1782835930602621000,5.246620849609375,-0.005231926217675209,-0.06638336926698685,-0.0007481249049305916
1782835930612550700,5.256550537109375,-0.0009347992017865181,-0.05617387220263481,0.02405257150530815
1782835930622481000,5.26648095703125,0.0015496639534831047,-0.042598675936460495,0.04096657410264015
1782835930632411000,5.276410888671875,-0.008282381109893322,-0.03340677544474602,0.03443647548556328
1782835930642340900,5.2863408203125,0.0015345625579357147,-0.009938200004398823,0.00975296925753355
1782835930652271900,5.29627197265625,0.018480107188224792,0.011310627683997154,-0.009440958499908447
1782835930662201900,5.306201904296875,0.025783028453588486,0.01224672794342041,-0.021957017481327057
1782835930672127700,5.316127685546875,0.02339351549744606,0.016914984211325645,-0.01977904513478279
1782835930682058000,5.32605810546875,0.023710697889328003,0.03557868301868439,-0.005887731444090605
1782835930691987700,5.33598779296875,0.028732331469655037,0.03040868416428566,0.003474479541182518
1782835930701918000,5.34591796875,0.03547625243663788,0.0015543978661298752,0.0067056929692626
1782835930711848700,5.3558486328125,0.04209253191947937,-0.03589896485209465,0.006482549011707306
1782835930721779000,5.365779052734375,0.04155350849032402,-0.06710934638977051,0.006203450262546539
1782835930731708700,5.375708740234375,0.023458365350961685,-0.10457151383161545,0.012140343897044659
1782835930741639000,5.385638916015625,0.0010707676410675049,-0.08581806719303131,0.021308008581399918
1782835930751569000,5.39556884765625,-0.013201270252466202,-0.03132765367627144,0.020467044785618782
1782835930761498600,5.40549853515625,-0.02890220284461975,0.004241260699927807,0.0014992132782936096
1782835930771428900,5.415428955078125,-0.02304122783243656,0.025150537490844727,-0.023207418620586395
1782835930781358600,5.425358642578125,0.0022558728232979774,0.05678223818540573,-0.04347913712263107
1782835930791289900,5.435289794921875,0.025685368105769157,0.0852716714143753,-0.05172612518072128
1782835930801219600,5.445219482421875,0.024516507983207703,0.06472484767436981,-0.047944702208042145
1782835930811149800,5.45514990234375,0.010709559544920921,0.02070678398013115,-0.026563096791505814
1782835930821079800,5.465079833984375,-0.0013311244547367096,-0.023318730294704437,0.010774953290820122
1782835930831009800,5.475009765625,-0.004440270364284515,-0.052601248025894165,0.047267504036426544
1782835930840939800,5.484939697265625,-0.012420166283845901,-0.06308931112289429,0.07451030611991882
1782835930850870000,5.4948701171875,-0.011946327984333038,-0.05239085480570793,0.07343828678131104
1782835930860799700,5.5047998046875,0.0006725285202264786,-0.016466675326228142,0.05675384774804115
1782835930870730800,5.514730712890625,0.015691213309764862,0.01309281587600708,0.027422169223427773
1782835930880660700,5.52466064453125,0.026048246771097183,0.013705076649785042,-0.005393833387643099
1782835930890591000,5.534591064453125,0.025712814182043076,-0.013734273612499237,-0.03371818736195564
1782835930900520700,5.544520751953125,0.022879477590322495,-0.016799040138721466,-0.04259929805994034
1782835930910450700,5.55445068359375,0.007066057063639164,0.01645665615797043,-0.02889823168516159
1782835930920381000,5.564380859375,-0.01940656453371048,0.04168318212032318,-0.016576051712036133
1782835930930310700,5.574310546875,-0.042039912194013596,0.028958331793546677,-0.000010280869901180267
1782835930940242000,5.584241943359375,-0.036202531307935715,0.013892029412090778,-0.0010659582912921906
1782835930950171600,5.594171630859375,-0.009795080870389938,-0.015637369826436043,-0.00324445404112339
1782835930960098000,5.60409814453125,0.02232184261083603,-0.056022342294454575,-0.0073862019926309586
1782835930970028000,5.614028076171875,0.045273277908563614,-0.0739147812128067,-0.0036905407905578613
1782835930979957800,5.623957763671875,0.05738560110330582,-0.05568491667509079,0.010862037539482117
1782835930989888000,5.633887939453125,0.04852071404457092,-0.014606720767915249,0.019605066627264023
1782835930999817700,5.643817626953125,0.028421305119991302,0.025657344609498978,0.01647026091814041
1782835931009748000,5.653748046875,0.009956253692507744,0.06278766691684723,0.009410355240106583
1782835931019678700,5.6636787109375,-0.0123293437063694,0.0774315893650055,-0.0073885987512767315
1782835931029609000,5.67360888671875,-0.019637590274214745,0.05678596347570419,-0.01606757566332817
1782835931039539000,5.6835390625,-0.009945549070835114,0.02373560145497322,-0.02292707934975624
1782835931049469000,5.693468994140625,0.004122389480471611,-0.022314198315143585,-0.020431863144040108
1782835931059399000,5.70339892578125,0.026338744908571243,-0.04995035380125046,-0.007894233800470829
1782835931069329000,5.713328857421875,0.04216655343770981,-0.06275828182697296,0.013025492429733276
1782835931079259000,5.7232587890625,0.050141122192144394,-0.04369537532329559,0.037086084485054016
1782835931089188900,5.73318896484375,0.045544981956481934,0.006027715280652046,0.058301255106925964
1782835931099119900,5.743119873046875,0.02241196669638157,0.03950365260243416,0.05739524960517883
1782835931109049900,5.7530498046875,-0.006813381798565388,0.05063379928469658,0.04443744570016861
1782835931118979800,5.762979736328125,-0.018131550401449203,0.05667677894234657,0.027035817503929138
1782835931128909800,5.772909912109375,-0.02513888292014599,0.04739432781934738,-0.002283319365233183
1782835931138840000,5.782840087890625,-0.011595377698540688,0.03439224138855934,-0.02172918990254402
1782835931148769800,5.792769775390625,0.004789634607732296,0.030093368142843246,-0.02755904197692871
1782835931158700000,5.802699951171875,0.010763105005025864,0.010737513191998005,-0.02670949324965477
1782835931168630800,5.812630859375,0.022707240656018257,-0.005967959761619568,-0.01775864139199257
1782835931178561000,5.82256103515625,0.0238135177642107,-0.0050576915964484215,0.005236688069999218
1782835931188490800,5.83249072265625,0.011244080029428005,-0.02585218846797943,0.014177976176142693
1782835931198421000,5.8424208984375,-0.012015702202916145,-0.05051891505718231,0.02235148288309574
1782835931208351000,5.85235107421875,-0.02214512974023819,-0.04974553734064102,0.019846633076667786
1782835931218281000,5.862281005859375,-0.024821341037750244,-0.02946823090314865,0.006998477503657341
1782835931228211000,5.8722109375,-0.027905326336622238,-0.023814335465431213,-0.023221898823976517
1782835931238142000,5.882141845703125,-0.018978677690029144,0.0036002453416585922,-0.045645445585250854
1782835931248072000,5.892072021484375,-0.00385480560362339,0.04206693917512894,-0.05027386546134949
1782835931258002000,5.902001953125,0.0038121677935123444,0.058490920811891556,-0.03204639256000519
1782835931267932000,5.911931884765625,0.00009595602750778198,0.043029654771089554,-0.0019481941126286983
1782835931277862000,5.92186181640625,-0.0046375468373298645,0.016036653891205788,0.019303031265735626
1782835931287791900,5.9317919921875,0.005084117874503136,-0.026949940249323845,0.030690088868141174
1782835931297721900,5.941721923828125,0.015862995758652687,-0.06981112062931061,0.032077331095933914
1782835931307652000,5.951652099609375,0.03275071084499359,-0.07292062789201736,0.02614937163889408
1782835931317585000,5.9615849609375,0.039456285536289215,-0.036823078989982605,0.01651165634393692
1782835931327515000,5.971514892578125,0.03419388085603714,-0.012046892195940018,0.0042275600135326385
1782835931337445000,5.981445068359375,0.02298128977417946,-0.0025758910924196243,-0.003147255629301071
1782835931347375900,5.9913759765625,0.0113366162404418,-0.0019527114927768707,-0.01346514094620943
1782835931357306000,6.00130615234375,0.00570827629417181,-0.012428520247340202,-0.01181601919233799
1782835931367235800,6.01123583984375,0.0008328268304467201,-0.0051972391083836555,-0.004876354243606329
1782835931377166000,6.021166015625,0.003422877751290798,0.0007463879883289337,0.010345862247049809
1782835931387095800,6.031095703125,0.009992362931370735,-0.005777557846158743,0.020526327192783356
1782835931397025800,6.04102587890625,0.0217839777469635,-0.01420085970312357,0.005893798545002937
1782835931406956000,6.0509560546875,0.035341329872608185,-0.0026587191969156265,-0.012724626809358597
1782835931416885800,6.0608857421875,0.03147006779909134,0.0017416095361113548,-0.03715119510889053
1782835931426817000,6.070817138671875,0.011137099005281925,-0.01010945811867714,-0.0592288002371788
1782835931436746800,6.080746826171875,-0.009568789973855019,-0.005626543890684843,-0.05751857906579971
1782835931446677000,6.090677001953125,-0.014286579564213753,-0.004247026517987251,-0.038135826587677
1782835931456607000,6.10060693359375,-0.0020912745967507362,-0.007710740901529789,-0.01348460465669632
1782835931466537000,6.110536865234375,0.012434404343366623,0.0018883571028709412,0.00739511102437973
1782835931476467000,6.120467041015625,0.024385793134570122,0.004819435998797417,0.027549412101507187
1782835931486397000,6.13039697265625,0.022116780281066895,0.005268977954983711,0.0408598892390728
1782835931496327000,6.140326904296875,0.012834268622100353,0.011526345275342464,0.033575285226106644
1782835931506258000,6.1502578125,0.011119192466139793,-0.001009153202176094,0.016427457332611084
1782835931516188000,6.16018798828125,0.01000695489346981,-0.0355687290430069,-0.0016879993490874767
1782835931526118000,6.170117919921875,0.02191421389579773,-0.033383339643478394,-0.005163424648344517
1782835931536047900,6.1800478515625,0.034679997712373734,0.005696420557796955,0.007841085083782673
1782835931545977900,6.189977783203125,0.03401021286845207,0.028476569801568985,0.0174148827791214
1782835931555907800,6.199907958984375,0.015597188845276833,0.0039230166003108025,0.014881967566907406
1782835931565837800,6.209837890625,0.008302257396280766,-0.029441598802804947,-0.006785511039197445
1782835931575768800,6.219768798828125,0.01110862661153078,-0.008940579369664192,-0.01945631578564644
1782835931585698800,6.22969873046875,0.010614343918859959,0.005470584146678448,-0.02830679714679718
1782835931595629000,6.239629150390625,-0.002531975507736206,-0.0026914728805422783,-0.031744085252285004
1782835931605558800,6.249558837890625,-0.003264877013862133,-0.008787182159721851,-0.029953110963106155
1782835931615489000,6.259489013671875,0.021244853734970093,0.0008318815380334854,-0.03127657622098923
1782835931625419000,6.2694189453125,0.04058792442083359,0.021427705883979797,-0.02106228843331337
1782835931635348700,6.2793486328125,0.03918053209781647,0.037415191531181335,0.003205958753824234
1782835931645279000,6.289279052734375,0.017613187432289124,0.04200781509280205,0.02508595772087574
1782835931655210000,6.2992099609375,-0.00148116797208786,0.02230946347117424,0.030684053897857666
1782835931665140000,6.309139892578125,-0.0010923463851213455,-0.021043870598077774,0.018217794597148895
1782835931675069700,6.319069580078125,0.014492924325168133,-0.037189532071352005,0.008970104157924652
1782835931685000000,6.329,0.025914689525961876,-0.033994536846876144,0.018025651574134827
1782835931694930000,6.338929931640625,0.026079492643475533,-0.028033848851919174,0.028635697439312935
1782835931704860000,6.34885986328125,0.025873098522424698,-0.021602047607302666,0.031153718009591103
1782835931714790000,6.358789794921875,0.027904361486434937,-0.0020400676876306534,0.028926797211170197
1782835931724721000,6.368720947265625,0.022729840129613876,0.015661165118217468,0.002841135486960411
1782835931734651000,6.37865087890625,-0.001872129738330841,0.0014233775436878204,-0.024298613891005516
1782835931744580900,6.388580810546875,-0.01787453144788742,-0.0015511075034737587,-0.036941707134246826
1782835931754510800,6.3985107421875,-0.019413359463214874,0.010109535418450832,-0.039504408836364746
1782835931764441000,6.408441162109375,-0.01457812450826168,0.0007237577810883522,-0.05146040767431259
1782835931774370800,6.418370849609375,0.008945584297180176,-0.007093948777765036,-0.05823686718940735
1782835931784300800,6.42830078125,0.03315505012869835,-0.010885224677622318,-0.0492287240922451
1782835931794231800,6.438231689453125,0.03186792880296707,-0.02429690957069397,-0.03649899363517761
1782835931804162000,6.448162109375,0.016671132296323776,-0.034801483154296875,-0.008206102065742016
1782835931814092000,6.458092041015625,0.004077254794538021,-0.03999356925487518,0.014593647792935371
1782835931824021800,6.468021728515625,-0.00007274933159351349,-0.03325551003217697,0.022138383239507675
1782835931833952000,6.477951904296875,-0.00025581009685993195,-0.02813505008816719,0.010124762542545795
1782835931843881700,6.4878818359375,0.014127922244369984,-0.016805164515972137,-0.0008131060749292374
1782835931853812000,6.49781201171875,0.02137836441397667,0.013841954991221428,-0.013440662063658237
1782835931863742000,6.507741943359375,0.016590001061558723,0.029816392809152603,-0.029212169349193573
1782835931873673000,6.5176728515625,0.006748915184289217,0.028676295652985573,-0.035365521907806396
1782835931883603000,6.52760302734375,0.00458456389605999,0.035422615706920624,-0.027703072875738144
1782835931893533000,6.537532958984375,0.0006316574290394783,0.02837376855313778,-0.014137597754597664
1782835931903463000,6.547462890625,0.0053342669270932674,0.004106245934963226,0.0036800140514969826
1782835931913393000,6.557392822265625,0.01272048894315958,-0.028712688013911247,0.018326755613088608
1782835931923323000,6.567322998046875,0.021612783893942833,-0.05941121280193329,0.017426341772079468
1782835931933252900,6.5772529296875,0.030489929020404816,-0.0802358090877533,0.00628765020519495
1782835931943184000,6.587183837890625,0.03437894582748413,-0.07017172127962112,-0.008836175315082073
1782835931953113900,6.59711376953125,0.01936633139848709,-0.04138748720288277,-0.01453886367380619
1782835931963043800,6.6070439453125,0.006059847306460142,0.02225007861852646,-0.007867910899221897
1782835931972973800,6.616973876953125,-0.008156639523804188,0.07031134516000748,-0.006498247385025024
1782835931982903800,6.62690380859375,-0.00979075487703085,0.0735556110739708,-0.01038513146340847
1782835931992833800,6.636833740234375,0.004248127806931734,0.044135682284832,-0.015662893652915955
1782835932002763800,6.646763671875,0.02010378986597061,0.013193215243518353,-0.009740022011101246
1782835932012693800,6.65669384765625,0.02343101054430008,-0.011975785717368126,0.0023924577981233597
1782835932022624800,6.666624755859375,0.007114354521036148,-0.021306170150637627,0.020723529160022736
1782835932032554800,6.6765546875,-0.005137806758284569,-0.013018944300711155,0.035978253930807114
1782835932042484700,6.686484619140625,-0.021379094570875168,0.0077718207612633705,0.041224680840969086
1782835932052415000,6.6964150390625,-0.02033453993499279,0.025451477617025375,0.0320269837975502
1782835932062344700,6.7063447265625,-0.008891202509403229,0.04611547663807869,0.01895512454211712
1782835932072275000,6.71627490234375,-0.0012067388743162155,0.05765495449304581,-0.009149141609668732
1782835932082205000,6.726204833984375,0.0016263322904706001,0.05834737420082092,-0.035094454884529114
1782835932092136000,6.736135986328125,-0.0065912045538425446,0.046512819826602936,-0.050681330263614655
1782835932102066000,6.74606591796875,-0.023158196359872818,0.028565779328346252,-0.05189892649650574
1782835932111996000,6.755995849609375,-0.037562884390354156,-0.002632620744407177,-0.040623441338539124
1782835932121926000,6.76592578125,-0.03569414094090462,-0.02332724630832672,-0.015194516628980637
1782835932131855600,6.775855712890625,-0.020298322662711143,-0.03807742893695831,0.006650255061686039
1782835932141785900,6.785785888671875,-0.003388579934835434,-0.012527596205472946,0.02268434874713421
1782835932151715800,6.7957158203125,0.009226704016327858,0.029085883870720863,0.023956745862960815
1782835932161645800,6.805645751953125,0.015771156176924706,0.04245787858963013,0.017999522387981415
1782835932171576800,6.815576904296875,0.015722287818789482,0.03832414001226425,0.0013522934168577194
1782835932181506800,6.8255068359375,0.009858272969722748,0.011865898035466671,-0.019721832126379013
1782835932191436800,6.835436767578125,0.005712184589356184,-0.024440709501504898,-0.03082771971821785
1782835932201366800,6.84536669921875,0.011117336340248585,-0.04678729176521301,-0.028263628482818604
1782835932211296800,6.855296875,0.011906110681593418,-0.02648203819990158,-0.012895011343061924
1782835932221227000,6.86522705078125,-0.0034107938408851624,-0.015967877581715584,-0.004007244016975164
1782835932231156700,6.87515673828125,-0.02053934335708618,-0.016440847888588905,-0.009624810889363289
1782835932241088000,6.885087890625,-0.018109209835529327,-0.008421537466347218,-0.014935419894754887
1782835932251017700,6.895017822265625,0.006591624580323696,0.0007104473188519478,-0.010363394394516945
1782835932260948000,6.904947998046875,0.02877682074904442,-0.0030888179317116737,0.01144549809396267
1782835932270878000,6.9148779296875,0.037606678903102875,0.019536586478352547,0.04686233028769493
1782835932280807700,6.9248076171875,0.04154389724135399,0.044439010322093964,0.08294310420751572
1782835932290738000,6.934738037109375,0.03302004188299179,0.02921479567885399,0.10250025987625122
1782835932300667600,6.944667724609375,0.01481014583259821,0.0033818650990724564,0.09436989575624466
1782835932310599000,6.954598876953125,0.0038351351395249367,-0.0047602299600839615,0.0573091134428978
1782835932320528600,6.964528564453125,0.012301590293645859,-0.013876230455935001,0.020216338336467743
1782835932330459000,6.974458984375,0.02034417912364006,-0.008536849170923233,-0.0052647278644144535
1782835932340388900,6.984388916015625,0.026409262791275978,0.013751678168773651,-0.02046125754714012
1782835932350318800,6.99431884765625,0.020144939422607422,0.020503569394350052,-0.01961974799633026
1782835932360248800,7.004248779296875,0.010664084926247597,0.004431126639246941,-0.02551545575261116
1782835932370178800,7.0141787109375,-0.00043153204023838043,-0.021099509671330452,-0.0272710882127285
1782835932380108800,7.02410888671875,0.005791476462036371,-0.02825861983001232,-0.009691561572253704
1782835932390039800,7.034039794921875,0.008684875443577766,-0.03481425344944,0.014985059387981892
1782835932399969800,7.0439697265625,0.00877169519662857,-0.041577886790037155,0.040795620530843735
1782835932409900000,7.053900146484375,0.011769835837185383,-0.05243508145213127,0.06541360914707184
1782835932419829800,7.063829833984375,0.006606765557080507,-0.04218830168247223,0.07280068844556808
1782835932429759700,7.073759765625,-0.004597976803779602,-0.019538361579179764,0.06555847078561783
1782835932439690000,7.08368994140625,-0.025011906400322914,-0.015110857784748077,0.04331335425376892
1782835932449619700,7.09361962890625,-0.03898116201162338,-0.00296950526535511,0.029131412506103516
1782835932459551000,7.103551025390625,-0.03468415141105652,0.01846095360815525,0.018886499106884003
1782835932469480700,7.113480712890625,-0.02221175655722618,0.04568964242935181,0.02314959466457367
1782835932479411000,7.123410888671875,-0.01697704568505287,0.07289569824934006,0.0289976317435503
1782835932489340700,7.133340576171875,-0.0223843976855278,0.09312798082828522,0.035026367753744125
1782835932499271000,7.14327099609375,-0.03739983215928078,0.07942468672990799,0.03415152058005333
1782835932509201000,7.153200927734375,-0.050994064658880234,0.05754896253347397,0.023090757429599762
1782835932519131000,7.163130859375,-0.05795397236943245,0.022620011121034622,0.018466979265213013
1782835932529060900,7.173060791015625,-0.056691817939281464,0.005116648972034454,0.008682763203978539
1782835932538991900,7.182991943359375,-0.04740031808614731,0.019150441512465477,-0.00040234532207250595
1782835932548921900,7.192921875,-0.035374708473682404,0.033661969006061554,-0.018315589055418968
1782835932558851800,7.202851806640625,-0.020040757954120636,0.03640928491950035,-0.04685908555984497
1782835932568781800,7.21278173828125,-0.013125497847795486,0.03771187365055084,-0.07790705561637878
1782835932578711800,7.2227119140625,-0.014118855819106102,0.014521336182951927,-0.1009623110294342
1782835932588641800,7.232641845703125,-0.01817292347550392,-0.006562644150108099,-0.10829126089811325
1782835932598571800,7.24257177734375,-0.018742572516202927,-0.005117879249155521,-0.0984245166182518
1782835932608502800,7.252502685546875,-0.010209044441580772,-0.0064007374458014965,-0.07257458567619324
1782835932618432800,7.262432861328125,0.0009184405207633972,0.016084864735603333,-0.03466262295842171
1782835932628363000,7.272363037109375,0.012431489303708076,0.025207266211509705,0.0023326193913817406
1782835932638292700,7.282292724609375,0.01853731833398342,0.01528193149715662,0.04279615730047226
1782835932648223000,7.292222900390625,0.019438158720731735,-0.005395924206823111,0.055909767746925354
1782835932658152700,7.302152587890625,0.008952493779361248,-0.03608858957886696,0.035263076424598694
1782835932668082700,7.312082763671875,0.017836477607488632,-0.052949585020542145,-0.002001573331654072
1782835932678013700,7.322013671875,0.02943987026810646,-0.008643371984362602,-0.032675594091415405
1782835932687944000,7.33194384765625,0.018826067447662354,0.07417906075716019,-0.05546244606375694
1782835932697874000,7.3418740234375,-0.0014861272647976875,0.10031532496213913,-0.07551471889019012
1782835932707803600,7.3518037109375,-0.022877685725688934,0.10174544900655746,-0.10012746602296829
1782835932717734000,7.36173388671875,-0.0307483933866024,0.07589520514011383,-0.11893604695796967
1782835932727663900,7.371663818359375,-0.032011255621910095,0.05057041347026825,-0.1202346533536911
1782835932737593900,7.38159375,-0.03686486929655075,0.05558248609304428,-0.1019885390996933
1782835932747524900,7.39152490234375,-0.034109171479940414,0.06256663054227829,-0.0745934247970581
1782835932757454800,7.401454833984375,-0.027379363775253296,0.06028829514980316,-0.03961760550737381
1782835932767384800,7.411384765625,-0.028805069625377655,0.03342125564813614,-0.011230711825191975
1782835932777314800,7.421314697265625,-0.02600928023457527,0.0031459080055356026,0.005983695387840271
1782835932787244800,7.431244873046875,-0.01519594807177782,-0.012945707887411118,0.015368777327239513
1782835932797175000,7.441175048828125,-0.008107678033411503,-0.014139070175588131,0.022265564650297165
1782835932807104800,7.451104736328125,0.00003086309880018234,0.0029818592593073845,0.025457657873630524
1782835932817036000,7.4610361328125,-0.007379915565252304,0.03510544076561928,0.027381788939237595
1782835932826965800,7.4709658203125,-0.02087177149951458,0.03431607782840729,0.028539026156067848
1782835932836896000,7.48089599609375,-0.03592955321073532,0.04151380807161331,0.03861349821090698
1782835932846825700,7.49082568359375,-0.03856416046619415,0.03712250664830208,0.04283737391233444
1782835932856755700,7.500755615234375,-0.03017493523657322,0.027003027498722076,0.03736324608325958
1782835932866686000,7.51068603515625,-0.013410032726824284,0.012724501080811024,0.029173802584409714
1782835932876615700,7.52061572265625,0.0072084274142980576,-0.01311322022229433,0.018589604645967484
1782835932886546000,7.5305458984375,0.0173422172665596,-0.01626533828675747,0.007737735286355019
1782835932896476700,7.5404765625,0.020187271758913994,-0.005473144352436066,-0.0005516200326383114
1782835932906407000,7.550406982421875,0.005230106879025698,-0.0014342050999403,-0.017900198698043823
1782835932916337000,7.5603369140625,-0.011332890950143337,0.004903053864836693,-0.030499082058668137
1782835932926267000,7.570266845703125,-0.028649814426898956,0.012603591196238995,-0.05090537667274475
1782835932936196900,7.58019677734375,-0.034054700285196304,0.005761130712926388,-0.06653094291687012
1782835932946126800,7.590126953125,-0.0221568550914526,-0.005573551170527935,-0.07240042835474014
1782835932956057600,7.6000576171875,-0.016433456912636757,-0.02193441614508629,-0.06711165606975555
1782835932965988600,7.609988525390625,-0.01707560569047928,-0.04173767566680908,-0.05483774468302727
1782835932975918600,7.619918701171875,-0.02322164922952652,-0.05256901681423187,-0.04316191375255585
1782835932985848300,7.629848388671875,-0.032159239053726196,-0.050239287316799164,-0.05094512924551964
1782835932995778600,7.639778564453125,-0.029449740424752235,-0.016445638611912727,-0.05954767391085625
1782835933005708500,7.64970849609375,-0.021304534748196602,0.018301693722605705,-0.0644359216094017
1782835933015638500,7.659638427734375,-0.014218395575881004,0.010675199329853058,-0.05844967067241669
1782835933025568500,7.669568603515625,-0.0037058722227811813,0.025897281244397163,-0.008911721408367157
1782835933035499500,7.67949951171875,-0.006507784128189087,0.03718535602092743,0.05790006369352341
1782835933045429500,7.689429443359375,-0.03153839707374573,-0.004285391420125961,0.12172896414995193
1782835933055359500,7.699359375,-0.048612985759973526,-0.04170253872871399,0.1671350598335266
1782835933065289500,7.70928955078125,-0.050632964819669724,-0.07073577493429184,0.15564627945423126
1782835933075219700,7.7192197265625,-0.036192506551742554,-0.08652058988809586,0.0940428301692009
1782835933085149400,7.7291494140625,-0.0017317850142717361,-0.05816728249192238,0.022272808477282524
1782835933095079400,7.739079345703125,0.016273047775030136,-0.015181997790932655,-0.04299887269735336
1782835933105009700,7.749009765625,0.009292750619351864,0.012658707797527313,-0.08698281645774841
1782835933114940700,7.758940673828125,-0.007383164018392563,0.03620477765798569,-0.09736142307519913
1782835933124870700,7.76887060546875,-0.02391231805086136,0.03673556074500084,-0.09020990878343582
1782835933134800400,7.77880029296875,-0.03582863137125969,0.016171693801879883,-0.06750193238258362
1782835933144730600,7.788730712890625,-0.03140317648649216,-0.003004934638738632,-0.0400325208902359
1782835933154660400,7.798660400390625,-0.015520351007580757,0.001293940469622612,0.009666861966252327
1782835933164590600,7.808590576171875,-0.012012888677418232,-0.005967705510556698,0.06124347448348999
1782835933174520600,7.8185205078125,-0.019280124455690384,-0.03740845248103142,0.101282499730587
1782835933184451600,7.82845166015625,-0.011879809200763702,-0.04130252078175545,0.12816473841667175
1782835933194381600,7.838381591796875,-0.004933487623929977,-0.0360688790678978,0.12645979225635529
1782835933204311600,7.8483115234375,0.00845370627939701,-0.02294454723596573,0.1101590245962143
1782835933214241500,7.858241455078125,0.01125055830925703,0.01462146919220686,0.08566699922084808
1782835933224171500,7.868171630859375,0.012982899323105812,0.038941700011491776,0.04737339913845062
1782835933234101500,7.8781015625,0.01995638757944107,0.056926555931568146,0.00565950945019722
1782835933244031500,7.888031494140625,0.02310561202466488,0.05786774307489395,-0.02605362981557846
1782835933253962500,7.89796240234375,0.014020504429936409,0.02319098636507988,-0.041900504380464554
1782835933263892700,7.907892822265625,-0.004164265468716621,-0.019191622734069824,-0.05385635048151016
1782835933273822500,7.917822509765625,-0.01522224210202694,-0.035017725080251694,-0.05365155264735222
1782835933283752400,7.92775244140625,-0.02104327641427517,-0.034586288034915924,-0.04402811825275421
1782835933293682700,7.9376826171875,-0.010564005002379417,-0.023217786103487015,-0.033403702080249786
1782835933303612400,7.9476123046875,0.008251744322478771,0.010909820906817913,-0.02334645390510559
1782835933313542700,7.957542724609375,0.02643847092986107,0.03695553541183472,-0.008604791015386581
1782835933323473400,7.967473388671875,0.03449060767889023,0.03063051775097847,-0.0002677515149116516
1782835933333403600,7.977403564453125,0.029548048973083496,-0.01707175374031067,0.008157424628734589
1782835933343333400,7.98733349609375,0.02832740731537342,-0.060059718787670135,0.00832704920321703
1782835933353263600,7.997263671875,0.031488846987485886,-0.06645449995994568,0.023305732756853104
1782835933363193600,8.007193603515624,0.02648448944091797,-0.06417560577392578,0.04595847800374031
1782835933373123600,8.01712353515625,0.01583051308989525,-0.04333584010601044,0.06025379151105881
1782835933383053600,8.027053466796875,0.010719508863985538,-0.024921949952840805,0.060147613286972046
1782835933392983600,8.036983642578125,0.013334466144442558,-0.007087293546646833,0.04566960036754608
1782835933402914600,8.04691455078125,0.023172378540039062,0.004219694994390011,0.025283092632889748
1782835933412844500,8.056844482421875,0.03309424966573715,0.0003977930173277855,-0.0009141582995653152
1782835933422774500,8.0667744140625,0.040259476751089096,-0.0022432664409279823,-0.017349546775221825
1782835933432704500,8.07670458984375,0.044335443526506424,-0.0035426225513219833,-0.025940369814634323
1782835933442634500,8.086634521484376,0.048004768788814545,-0.016232848167419434,-0.023103661835193634
1782835933452564500,8.096564453125,0.05465520918369293,-0.02168247476220131,-0.008536970242857933
1782835933462494700,8.10649462890625,0.04149286448955536,-0.01982892118394375,0.01112520880997181
1782835933472425500,8.116425537109375,0.02332238480448723,-0.015367328189313412,0.026507360860705376
1782835933482355700,8.126355712890625,0.009346687234938145,-0.019590293988585472,0.022042609751224518
1782835933492285400,8.136285400390625,0.0066603561863303185,-0.04027506709098816,-0.0019199792295694351
1782835933502215700,8.146215576171874,0.01695333421230316,-0.0436817966401577,-0.03942595422267914
1782835933512145400,8.1561455078125,0.03570891171693802,-0.016473878175020218,-0.06237654387950897
1782835933522075600,8.16607568359375,0.04561223089694977,0.0158156156539917,-0.07505699247121811
1782835933532005600,8.176005615234375,0.02167680487036705,0.013074691407382488,-0.07977291941642761
1782835933541936600,8.1859365234375,-0.002366781234741211,0.002390105277299881,-0.06781556457281113
1782835933551866600,8.19586669921875,-0.020386526361107826,-0.00850701704621315,-0.036629147827625275
1782835933561796400,8.20579638671875,-0.03514781966805458,-0.033870428800582886,-0.0021779928356409073
1782835933571726600,8.2157265625,-0.035535842180252075,-0.0588572733104229,0.032300353050231934
1782835933581656600,8.225656494140624,-0.014279006980359554,-0.051998570561409,0.065868079662323
1782835933591586600,8.235586669921876,0.010196775197982788,-0.026305722072720528,0.08386412262916565
1782835933601516500,8.2455166015625,0.021489331498742104,0.004900126717984676,0.07634495943784714
1782835933611447600,8.255447509765625,0.02621457725763321,0.043077342212200165,0.04875221103429794
1782835933621377500,8.26537744140625,0.027733849361538887,0.05641072988510132,0.01134352758526802
1782835933631307500,8.2753076171875,0.009249113500118256,0.01815175637602806,-0.027745818719267845
1782835933641237500,8.285237548828125,-0.0022260956466197968,-0.005906174890697002,-0.06193874776363373
1782835933651167700,8.295167724609374,-0.0018625734373927116,0.003501707687973976,-0.06504292786121368
1782835933661097500,8.305097412109374,-0.014263920485973358,0.005297479219734669,-0.05611896142363548
1782835933671027500,8.31502734375,-0.02528887428343296,0.008461846970021725,-0.03493617847561836
1782835933680958500,8.32495849609375,-0.024371376261115074,0.008417625911533833,-0.012930283322930336
1782835933690888700,8.334888671875,-0.01658349297940731,-0.013610177673399448,0.009894605726003647
1782835933700818400,8.344818359375,-0.014982234686613083,-0.04628930240869522,0.021131176501512527
1782835933710748400,8.35474853515625,-0.013671159744262695,-0.06683053076267242,0.028047673404216766
1782835933720678700,8.3646787109375,-0.017038023099303246,-0.0426037572324276,0.02311854436993599
1782835933730608400,8.3746083984375,-0.019254306331276894,0.0016081789508461952,0.024346794933080673
1782835933740538600,8.38453857421875,-0.02235889807343483,0.04359453171491623,0.019164789468050003
1782835933750469400,8.394469482421876,-0.025891579687595367,0.041764140129089355,0.005581867881119251
1782835933760399600,8.404399658203126,-0.0225478857755661,0.02513216808438301,-0.012575948610901833
1782835933770329600,8.41432958984375,-0.008663495071232319,0.01131222490221262,-0.029398605227470398
1782835933780259600,8.424259521484375,-0.004894934594631195,0.007337724789977074,-0.028285108506679535
1782835933790189600,8.434189453125,-0.02339405007660389,0.017113657668232918,-0.010148981586098671
1782835933800119600,8.44411962890625,-0.04231178015470505,0.022950217127799988,0.026772785931825638
1782835933810049500,8.454049560546874,-0.047716666013002396,-0.0026584751904010773,0.04972603917121887
1782835933819980500,8.46398046875,-0.03792848810553551,-0.037136029452085495,0.06107034534215927
1782835933829910500,8.47391064453125,-0.007345282472670078,-0.046823013573884964,0.053816430270671844
1782835933839840800,8.4838408203125,0.01722247153520584,-0.05082094669342041,0.030135218054056168
1782835933849770500,8.4937705078125,0.019120506942272186,-0.049033164978027344,-0.003998784348368645
1782835933859700500,8.503700439453125,0.007117819972336292,-0.015647510066628456,-0.028355181217193604
1782835933869630500,8.51363037109375,-0.007602803409099579,0.025012832134962082,-0.03496195375919342
1782835933879560400,8.523560546875,-0.03389469534158707,0.019576549530029297,-0.0452641099691391
1782835933889491500,8.533491455078124,-0.047666437923908234,-0.019027836620807648,-0.05217554420232773
1782835933899421400,8.54342138671875,-0.02406195178627968,-0.023432474583387375,-0.03816112130880356
1782835933909351700,8.5533515625,-0.004035246558487415,-0.00889933854341507,-0.006663384847342968
1782835933919281400,8.563281494140625,-0.011007876135408878,-0.01995168812572956,0.018327105790376663
1782835933929211600,8.573211669921875,-0.01735978201031685,-0.016622737050056458,0.03303228318691254
1782835933939141600,8.5831416015625,-0.008586214855313301,-0.0033104130998253822,0.033681172877550125
1782835933949071600,8.593071533203124,-0.009221911430358887,0.005440201610326767,0.032291535288095474
1782835933959001300,8.60300146484375,-0.016876332461833954,0.008571031503379345,0.019617069512605667
1782835933968932400,8.612932373046876,-0.019007394090294838,0.013462460599839687,0.01334026362746954
1782835933978862600,8.622862548828126,-0.012311674654483795,0.028657391667366028,0.006489547900855541
1782835933988792300,8.632792236328125,-0.008241565898060799,0.022608287632465363,-0.0033724037930369377
1782835933998722300,8.642722412109375,0.0013224733993411064,0.0053603267297148705,-0.006931304465979338
1782835934008652500,8.652652587890625,0.009927946142852306,0.022626135498285294,0.007863620296120644
1782835934018582300,8.662582275390625,-0.0032624611631035805,0.0228535495698452,0.04238240420818329
1782835934028512500,8.672512451171874,-0.018346073105931282,0.004125669598579407,0.06733275949954987
1782835934038443300,8.682443359375,-0.01975911855697632,-0.007277705706655979,0.07542192935943604
1782835934048373500,8.69237353515625,-0.016795553267002106,-0.01725097745656967,0.04946490377187729
1782835934058303200,8.70230322265625,-0.00956604816019535,-0.024179724976420403,-0.0004665106534957886
1782835934068233500,8.7122333984375,0.0016248207539319992,-0.010164041072130203,-0.048589300364255905
1782835934078163500,8.72216357421875,0.0013435203582048416,0.019093984737992287,-0.08063992112874985
1782835934088093400,8.732093505859375,-0.014543300494551659,0.03218155354261398,-0.08977856487035751
1782835934098023400,8.7420234375,-0.019014691933989525,0.03225557878613472,-0.06378201395273209
1782835934107954400,8.751954345703124,-0.025415601208806038,0.015798576176166534,-0.018333837389945984
1782835934117884400,8.761884521484374,-0.03360915929079056,-0.016793716698884964,0.018333926796913147
1782835934127814700,8.771814697265626,-0.036964744329452515,-0.042736899107694626,0.04597913473844528
1782835934137744400,8.781744384765625,-0.029837332665920258,-0.0520332008600235,0.055811308324337006
1782835934147674400,8.79167431640625,-0.0139340003952384,-0.04034591466188431,0.05403897166252136
1782835934157604400,8.801604248046875,0.003026498481631279,-0.003096827305853367,0.04617379605770111
1782835934167534300,8.811534423828125,0.01657852530479431,0.02928028628230095,0.02800171449780464
1782835934177465300,8.82146533203125,0.021728921681642532,0.035236191004514694,0.0024988148361444473
1782835934187395300,8.831395263671874,0.014299501664936543,0.012249117717146873,-0.021168164908885956
1782835934197325600,8.84132568359375,-0.0011703986674547195,0.0038287052884697914,-0.0342884287238121
1782835934207255300,8.85125537109375,-0.017992787063121796,0.001146368682384491,-0.026775654405355453
1782835934217185500,8.861185546875,-0.028428789228200912,-0.0012634964659810066,-0.008623611181974411
1782835934227115500,8.871115478515625,-0.024466004222631454,0.004337664693593979,0.016732346266508102
1782835934237045500,8.88104541015625,-0.012405354529619217,0.006120113655924797,0.025178872048854828
1782835934246976300,8.890976318359375,0.009382233023643494,-0.020807906985282898,0.025363963097333908
1782835934256906500,8.900906494140624,0.030253592878580093,-0.04205940663814545,0.020866572856903076
1782835934266836500,8.91083642578125,0.034775905311107635,-0.018887775018811226,0.024770770221948624
1782835934276766200,8.92076611328125,0.009022925049066544,0.013791630044579506,0.039112113416194916
1782835934286696400,8.930696533203125,-0.01657990738749504,0.03301778808236122,0.054815180599689484
1782835934296626400,8.94062646484375,-0.021666839718818665,0.04097770154476166,0.048553466796875
1782835934306556400,8.950556396484375,-0.0011072373017668724,0.03817366063594818,0.02785777486860752
1782835934316487400,8.9604873046875,0.027633510529994965,0.011875211261212826,0.0009490037336945534
1782835934326417400,8.97041748046875,0.0339374765753746,-0.02242923155426979,-0.01709657534956932
1782835934336347400,8.980347412109374,0.01758366823196411,-0.04389141499996185,-0.032922305166721344
1782835934346277400,8.99027734375,0.0030233683064579964,-0.034870222210884094,-0.03754768148064613
1782835934356207400,9.000207275390625,-0.011691106483340263,-0.021061448380351067,-0.032747458666563034
1782835934366137600,9.0101376953125,-0.02100231871008873,0.008712958544492722,-0.01509176753461361
1782835934376067300,9.0200673828125,-0.020352773368358612,0.05132007598876953,0.01248926017433405
1782835934385998600,9.02999853515625,-0.014768922701478004,0.07988966256380081,0.03947214409708977
1782835934395928300,9.03992822265625,-0.01186438836157322,0.04511359706521034,0.04740462824702263
1782835934405858600,9.049858642578124,0.004380095284432173,-0.007568789646029472,0.03772403672337532
1782835934415788300,9.059788330078124,0.015311346389353275,-0.043311603367328644,0.02546224556863308
1782835934425718300,9.06971826171875,0.020199844613671303,-0.0548313744366169,0.006729039363563061
1782835934435648500,9.0796484375,0.01722649671137333,-0.03989823907613754,-0.009049376472830772
1782835934445578200,9.089578125,0.001285080797970295,-0.0017354059964418411,-0.010978037491440773
1782835934455509500,9.099509521484375,-0.010825268924236298,0.030641183257102966,-0.008955306373536587
1782835934465439200,9.109439208984375,-0.018560154363512993,0.04803961515426636,0.0012981295585632324
1782835934475369500,9.119369384765625,-0.0190451480448246,0.033497944474220276,0.004707152023911476
1782835934485299500,9.129299560546874,-0.01103196106851101,0.015601234510540962,0.0174916572868824
1782835934495229400,9.1392294921875,-0.001185951754450798,-0.007858332246541977,0.03396139666438103
1782835934505159400,9.149159423828126,0.003353140316903591,-0.01281474158167839,0.047854308038949966
1782835934515089400,9.15908935546875,0.005265987943857908,-0.017866967245936394,0.0576467402279377
1782835934525020400,9.1690205078125,-0.0020843371748924255,-0.015467192977666855,0.05578386411070824
1782835934534950400,9.178950439453125,-0.00805743783712387,-0.009882540442049503,0.028743291273713112
1782835934544880400,9.18888037109375,-0.0007875412702560425,0.01471654511988163,-0.007146534509956837
1782835934554810600,9.198810546875,0.006089007016271353,0.0254360344260931,-0.039118580520153046
1782835934564740400,9.208740234375,0.0002263244241476059,0.03206517547369003,-0.06225452572107315
1782835934574670300,9.21867041015625,-0.003194565884768963,0.03023448958992958,-0.050453975796699524
1782835934584600600,9.2286005859375,-0.016823558136820793,0.02789117395877838,-0.023845002055168152
1782835934594531300,9.23853125,-0.02228477969765663,0.018342167139053345,0.019463300704956055
1782835934604461300,9.24846142578125,-0.019471950829029083,0.014331978745758533,0.04975888878107071
1782835934614391300,9.258391357421875,-0.002739856019616127,0.0020049968734383583,0.0661025270819664
1782835934624321500,9.268321533203125,0.007473633158951998,-0.01569889858365059,0.06261831521987915
1782835934634251300,9.278251220703124,0.01191183365881443,-0.013955634087324142,0.04766617342829704
1782835934644181500,9.288181396484376,0.0003941953182220459,-0.008039421401917934,0.034191641956567764
1782835934654111500,9.298111572265626,-0.02281927689909935,0.011886929161846638,0.01852613314986229
1782835934664041500,9.30804150390625,-0.04302680864930153,0.03818218410015106,0.0092623271048069
1782835934673969400,9.317969482421875,-0.05178266763687134,0.05850210413336754,-0.008571072481572628
1782835934683899400,9.3278994140625,-0.04068396985530853,0.04640920087695122,-0.03178194537758827
1782835934693829400,9.337829345703126,-0.016733363270759583,0.004319005645811558,-0.048534292727708817
1782835934703760400,9.347760498046876,0.012408632785081863,-0.03855147212743759,-0.062498584389686584
1782835934713690600,9.357690673828126,0.02376009151339531,-0.06288237869739532,-0.06574684381484985
1782835934723620400,9.367620361328125,0.014739149250090122,-0.06359663605690002,-0.05187247693538666
1782835934733550300,9.37755029296875,-0.010597899556159973,-0.027506807819008827,-0.024296242743730545
1782835934743480300,9.387480224609375,-0.032831430435180664,0.007861561141908169,0.0018938938155770302
1782835934753410300,9.397410400390624,-0.04229790344834328,0.026092763990163803,0.01293242909014225
1782835934763340500,9.407340576171874,-0.027702800929546356,0.024371029809117317,0.017716605216264725
1782835934773271300,9.417271240234374,-0.013483385555446148,0.003444977104663849,0.018864162266254425
1782835934783201500,9.427201416015626,0.0023909900337457657,-0.0037772590294480324,0.031130164861679077
1782835934793131300,9.43713134765625,0.010894197039306164,-0.029831230640411377,0.02802491933107376
1782835934803061500,9.4470615234375,0.01768587715923786,-0.05113651975989342,0.01693304255604744
1782835934812991500,9.456991455078125,0.024875080212950706,-0.04765363782644272,0.004015645943582058
1782835934822921500,9.46692138671875,0.02270299755036831,-0.022248685359954834,-0.015735112130641937
1782835934832851500,9.4768515625,0.011062586680054665,-0.001725032925605774,-0.027041830122470856
1782835934842782500,9.486782470703124,-0.017945362254977226,0.027628593146800995,-0.030483700335025787
1782835934852712400,9.49671240234375,-0.040862396359443665,0.04042375087738037,-0.02609613910317421
1782835934862642400,9.506642333984376,-0.055328916758298874,0.04348747059702873,-0.022211072966456413
1782835934872572400,9.516572509765625,-0.045460306107997894,0.019988268613815308,-0.03607708588242531
1782835934882502400,9.52650244140625,-0.015356521122157574,0.009753478690981865,-0.04610878974199295
1782835934892432400,9.536432373046875,0.013628524728119373,0.018734721466898918,-0.03881732374429703
1782835934902362400,9.5463623046875,0.015265854075551033,0.015708284452557564,-0.02549879252910614
1782835934912293400,9.55629345703125,0.01199336163699627,0.009845336899161339,-0.012189379893243313
1782835934922223400,9.566223388671874,0.015679387375712395,0.021473780274391174,-0.0004119160585105419
1782835934932153300,9.5761533203125,0.019830988720059395,0.021657273173332214,-0.0015237857587635517
1782835934942083300,9.586083251953125,0.009951992891728878,0.017440423369407654,-0.007492195814847946
1782835934952013600,9.596013671875,0.005421956069767475,0.017430568113923073,-0.003572821617126465
1782835934961943600,9.605943603515625,0.0053575001657009125,0.0073758019134402275,0.004528026096522808
1782835934971873500,9.61587353515625,0.007021975703537464,-0.009727285243570805,0.004284880124032497
1782835934981804500,9.625804443359375,0.008343443274497986,-0.023185301572084427,0.002303709276020527
1782835934991734500,9.635734619140624,0.005832348950207233,-0.0239216648042202,-0.008252528496086597
1782835935001664500,9.64566455078125,-0.01109018363058567,-0.010682295076549053,-0.02027532458305359
1782835935011594500,9.655594482421876,-0.021510332822799683,0.006165928207337856,-0.03404945880174637
1782835935021524500,9.6655244140625,-0.018466629087924957,0.019025519490242004,-0.047547295689582825
1782835935031454500,9.675454345703125,0.0019249282777309418,0.018370650708675385,-0.05623292922973633
1782835935041384400,9.685384521484375,0.017653148621320724,0.008235740475356579,-0.04613078385591507
1782835935051315500,9.6953154296875,0.02918783202767372,-0.0005217986181378365,-0.024130411446094513
1782835935061245400,9.705245361328124,0.025896064937114716,0.01952540874481201,0.007867364212870598
1782835935071175700,9.71517578125,0.016615213826298714,0.01939944177865982,0.04195156693458557
1782835935081105400,9.72510546875,-0.0001432020217180252,0.008406958542764187,0.06845757365226746
1782835935091035600,9.73503564453125,-0.021789375692605972,-0.02018500491976738,0.07828463613986969
1782835935100965400,9.74496533203125,-0.021940700709819794,-0.033821702003479004,0.0719829648733139
1782835935110895600,9.7548955078125,-0.007503703236579895,-0.011637570336461067,0.0457359179854393
1782835935120825600,9.76482568359375,0.015038874931633472,0.019763223826885223,0.0005123326554894447
1782835935130756600,9.774756591796875,0.03895805776119232,0.04551226273179054,-0.04739180952310562
1782835935140686600,9.7846865234375,0.046552874147892,0.07565685361623764,-0.07042664289474487
1782835935150616600,9.794616455078126,0.028554432094097137,0.09083633869886398,-0.06583801656961441
1782835935160546600,9.804546630859376,0.004420285113155842,0.08388176560401917,-0.04592864215373993
1782835935170476500,9.8144765625,-0.01793934963643551,0.0608142651617527,-0.02414398454129696
1782835935180406500,9.824406494140625,-0.027135886251926422,0.042298637330532074,0.000829220749437809
1782835935190336500,9.83433642578125,-0.02153072878718376,0.019674550741910934,0.02138403058052063
1782835935200267500,9.844267578125,-0.0043947938829660416,-0.0027133114635944366,0.023475555703043938
1782835935210197500,9.854197509765624,0.01762981526553631,-0.007667323108762503,0.008777039125561714
1782835935220127500,9.86412744140625,0.03845081105828285,0.006707071326673031,-0.018773555755615234
1782835935230057500,9.874057373046876,0.04190706089138985,0.04958955943584442,-0.05742694064974785
1782835935239987700,9.88398779296875,0.02682691067457199,0.07081841677427292,-0.07666827738285065
1782835935249917400,9.89391748046875,0.002409718930721283,0.09277883917093277,-0.045548178255558014
1782835935259847700,9.90384765625,-0.06578990817070007,0.06743087619543076,0.09101924300193787
1782835935269778400,9.9137783203125,-0.08619186282157898,-0.14572906494140625,0.14051061868667603
1782835935279708700,9.923708740234375,-0.030617695301771164,-0.2719098925590515,0.10342958569526672
1782835935289639400,9.933639404296875,0.04313615337014198,-0.26177895069122314,0.020342955365777016
1782835935299569700,9.943569580078124,0.07248232513666153,-0.22731660306453705,-0.11454641819000244
1782835935309499400,9.95349951171875,0.06897018849849701,-0.08597518503665924,-0.25452879071235657
1782835935319430700,9.9634306640625,0.0497078076004982,0.12814642488956451,-0.3174702227115631
1782835935329360400,9.9733603515625,0.008993646129965782,0.3096565902233124,-0.2634081542491913
1782835935339290600,9.98329052734375,-0.02892124466598034,0.27229562401771545,-0.15873154997825623
1782835935349220600,9.993220703125,-0.010921275243163109,0.05178426206111908,-0.028421081602573395
