time,seconds_elapsed,z,y,x
1782836320956954000,0.0529541015625,1.0371323864400386,0.09026302098287269,-0.08323445578664541
1782836320966883800,0.0628837890625,-0.5201444023221731,-0.06770110622863285,0.07469738572360947
1782836320976812800,0.072812744140625,0.04221007921993732,-0.04208932521736715,0.018416933037154377
1782836320986743000,0.082742919921875,-0.048610009390115734,-0.018491361396678258,0.0022602548158727584
1782836320996672000,0.092672119140625,-0.203626968100667,-0.00444926417657407,0.018509744153451173
1782836321006601700,0.102601806640625,0.07770926262438296,0.03895804602089338,-0.01596802378138527
1782836321016532000,0.112531982421875,-0.19657120437026024,-0.010974054843926568,-0.00842221151171252
1782836321026461000,0.1224609375,0.005896656823158264,-0.05001189381098375,-0.005659194805473089
1782836321036391000,0.132390869140625,-0.11276070226132869,-0.05817070971273351,0.009512929357867687
1782836321046319900,0.14231982421875,-0.0762479579001665,0.004099660721037071,0.013494473274704068
1782836321056249900,0.152249755859375,-0.03493395073711872,0.03675403088730527,0.004480342018138617
1782836321066179000,0.162178955078125,-0.17244857050478457,-0.005808520169512485,0.030088940125051884
1782836321076109000,0.172109130859375,0.0379933383077383,0.0015563808628357946,0.011927443153690546
1782836321086037800,0.182037841796875,-0.18154782276153564,-0.035537611152115275,0.022234134971443564
1782836321095968000,0.191968017578125,0.017014847686886787,-0.01593161902744323,0.005655340614262968
1782836321105897000,0.20189697265625,-0.09926935252547263,-0.018909872219827956,0.0017044475640170275
1782836321115827000,0.211826904296875,-0.13712649723291395,0.009848121837206417,-0.0016146321224048733
1782836321125756000,0.221755859375,0.022256839993596074,0.0507515834294958,-0.014211042312532663
1782836321135686000,0.231685791015625,-0.2135696854442358,-0.030509754786430858,-0.004906239280011504
1782836321145616000,0.241615966796875,0.052960021293163295,-0.03274322206007782,-0.007772259702999144
1782836321155545000,0.251545166015625,-0.12914426630735396,-0.03244180741111049,0.007711688622180372
1782836321165474800,0.261474853515625,-0.09770283386111259,0.01322054713757243,0.011223002945072948
1782836321175403800,0.27140380859375,-0.0010299275696277618,0.03876651463732123,0.017040365720633416
1782836321185334000,0.281333984375,-0.20603753637373445,-0.017513305578182915,0.012887118498701602
1782836321195263000,0.291262939453125,0.029046061742305753,-0.003644743431478855,0.01620382356494665
1782836321205193000,0.30119287109375,-0.13901391841471195,-0.033572439425834454,0.015928879081085322
1782836321215122000,0.311121826171875,-0.06345218921303748,-0.020121558697684668,-0.006389701037108898
1782836321225052000,0.321052001953125,-0.030395138263702392,0.010976315299671842,-0.0051496195818297565
1782836321234980900,0.33098095703125,-0.14605565361976622,0.029645641920517662,-0.009640026336256415
1782836321244910800,0.340910888671875,-0.01075929442346096,0.02342276023412123,-0.022909129889868197
1782836321254839800,0.35083984375,-0.11413432870209217,-0.041285589352739044,-0.0008131978127174079
1782836321264770000,0.36077001953125,-0.06473579928278923,-0.036132709234743376,0.005960716769006103
1782836321274699000,0.370698974609375,-0.05140227045714855,-0.00181894820984744,0.007128609770908951
1782836321284629000,0.38062890625,-0.1256049862653017,0.018154983890539732,0.022282084032706914
1782836321294559000,0.39055908203125,-0.036734862679243085,0.012963590401550755,0.0159580869092606
1782836321304488000,0.400488037109375,-0.1130652381658554,-0.01133926800219342,0.006388002270366996
1782836321314418000,0.41041796875,-0.05726444048881531,-0.015142761071538552,0.012463924650568513
1782836321324347100,0.42034716796875,-0.07615911057293415,-0.030052841331786474,0.004535469738859683
1782836321334276900,0.43027685546875,-0.08379004384279251,-0.01780967301763012,-0.005649166601803153
1782836321344206000,0.4402060546875,-0.07285071667730808,0.01355692578535527,-0.015553287234343587
1782836321354136000,0.450135986328125,-0.08734627501964569,0.03458863758092048,-0.019173724487517026
1782836321364065000,0.46006494140625,-0.05795826797187328,-0.008079988215854973,-0.005030651110969483
1782836321373995000,0.4699951171875,-0.08276946862339973,-0.04495066946523729,0.00029558541309088464
1782836321383924000,0.479924072265625,-0.06001578502357006,-0.029462889781733972,0.0028409590469673273
1782836321393854000,0.48985400390625,-0.07855915745198726,0.01241743346909643,0.006434654423687606
1782836321403783200,0.499783203125,-0.09726911861896514,0.022564417238580062,0.0074264054073952136
1782836321413713000,0.509712890625,-0.06317454131543636,0.006979190221213502,0.010028696860279887
1782836321423641900,0.519641845703125,-0.09343582406640052,-0.007533822721068281,0.009541077740117906
1782836321433572000,0.529572021484375,-0.05157178180515766,-0.008653606831503565,0.0019866072399541733
1782836321443501800,0.539501708984375,-0.09063304160535335,-0.019185335010208655,0.0051037346134893595
1782836321453431000,0.54943115234375,-0.08149287281632422,0.006635491920899949,-0.0009821429051458835
1782836321463361000,0.559361083984375,-0.05364683451354503,0.03134766234871931,-0.011158248879481107
1782836321473290000,0.5692900390625,-0.1184200431972742,0.020804150117386597,-0.018378665119688956
1782836321483220200,0.57922021484375,-0.05569967539012432,-0.017679117998608853,-0.0018956227545626461
1782836321493149000,0.58914892578125,-0.10012743065953254,-0.024352067840332163,-0.0014141045816242694
1782836321503079000,0.599078857421875,-0.07886895405352115,-0.0018142663265083682,0.008088814838882536
1782836321513008000,0.609008056640625,-0.06375438703000545,0.0229605449832743,0.016128931697830556
1782836321522938000,0.618938232421875,-0.12106558926999568,0.010868643399316352,0.009657196666765958
1782836321532867000,0.6288671875,-0.048940848779678345,0.0073974607282347275,0.0077644782553426914
1782836321542797000,0.638797119140625,-0.09264555047154426,-0.007340243798415759,0.0050101745785214
1782836321552726000,0.64872607421875,-0.07560030764639378,-0.007445400085521396,0.0007548186889849603
1782836321562656000,0.658656005859375,-0.06063946987986564,-0.008059944937424735,-0.017363186200521886
1782836321572585200,0.668585205078125,-0.11121756447255611,0.005866860477338196,-0.010770820464473217
1782836321582515000,0.678514892578125,-0.058688335812091826,0.026322294767643323,-0.01946673435103148
1782836321592445000,0.68844482421875,-0.07483750658035278,0.005794914623379008,-0.011664554433804005
1782836321602374100,0.6983740234375,-0.07842354837357997,-0.022643332260265013,-0.011904482403211295
1782836321612304000,0.708303955078125,-0.07033785707354545,-0.01314637336473097,0.0021964140657335517
1782836321622232800,0.71823291015625,-0.08993862960040569,0.0015448148642724846,0.004647423947043716
1782836321632163000,0.7281630859375,-0.07392682147622108,0.01810438278953079,0.0037126090486533938
1782836321642092000,0.738092041015625,-0.0767886406481266,0.014170463706972076,0.006418324343394488
1782836321652022000,0.74802197265625,-0.08787234472036361,-0.0031011083913181207,0.005456457041297108
1782836321661951000,0.757950927734375,-0.07247720718979835,-0.008681051960855257,0.0008252901093102991
1782836321671881000,0.767880859375,-0.07189034721255302,-0.003996547977256705,-0.007719944993872195
1782836321681810000,0.777809814453125,-0.08118950595557689,-0.0007266417656268459,-0.0077743055296130474
1782836321691740200,0.787740234375,-0.07713409308493137,0.018974107978900426,-0.007371387284528463
1782836321701668900,0.7976689453125,-0.08519581898748874,0.028048401607619598,-0.008122680575866252
1782836321711599000,0.80759912109375,-0.0841349117577076,-0.003957796002601389,-0.0063413501170463855
1782836321721528000,0.817528076171875,-0.0736468354910612,-0.019191458790318573,0.007376885443553328
1782836321731458000,0.8274580078125,-0.08830079926550388,-0.009480455285304924,0.019577592580672352
1782836321741387000,0.837386962890625,-0.08231529511511325,0.01923068797229789,0.0057737062969245015
1782836321751317000,0.84731689453125,-0.08038228122591971,0.020097504251950886,0.009980145010817796
1782836321761247000,0.8572470703125,-0.09535597847402096,0.0005455804020748473,0.006307429581135511
1782836321771176200,0.86717626953125,-0.07082184119820595,-0.0008933563704733387,-0.0021907880425453183
1782836321781106000,0.87710595703125,-0.07546703665554523,-0.017656636738742234,0.0021872261122800407
1782836321791035000,0.887034912109375,-0.08070844444036483,-0.0075066024956468025,-0.00673455068571493
1782836321800965000,0.896965087890625,-0.08458908526599407,-0.00019328980122954817,-0.019085461682174353
1782836321810894000,0.90689404296875,-0.0793289727807045,0.016989063650014576,-0.017086250688973813
1782836321820823800,0.91682373046875,-0.05597556972205638,0.008153115671681007,-0.008582936765067278
1782836321830753000,0.9267529296875,-0.08020634013712406,-0.019318391371925828,-0.007896269675157963
1782836321840683000,0.93668310546875,-0.07406827577352523,-0.021337501225550656,-0.0020486944244243206
1782836321850612000,0.946612060546875,-0.06673895579874516,-0.001024269580398686,0.008553327078092842
1782836321860542000,0.9565419921875,-0.08858546142578125,0.015291341512661892,0.01300659842621535
1782836321870471000,0.966470947265625,-0.07332768653929234,0.01616112835082458,0.0059208048837259405
1782836321880401000,0.97640087890625,-0.09832885680496692,-0.0027235934447264296,-0.001713544185925275
1782836321890330000,0.986330078125,-0.07694178538322448,-0.008988850684836507,-0.004000193818379193
1782836321900260000,0.996260009765625,-0.0751502257913351,-0.012403520249819848,-0.005411887247208505
1782836321910190000,1.006190185546875,-0.0914671543419361,-0.005649071845324942,-0.00990828535100445
1782836321920119000,1.016119140625,-0.08099076851308346,0.011118305028160101,-0.014635551334917545
1782836321930049000,1.026049072265625,-0.08367606207430363,0.016042221528757363,-0.014295889318082481
1782836321939978200,1.035978271484375,-0.08306406765580177,-0.0056369841153093144,-0.0012038776307366787
1782836321949908000,1.045907958984375,-0.06315934374630451,-0.024063524089381096,0.008085435571707785
1782836321959837000,1.0558369140625,-0.07423252642452717,-0.008078393909567966,0.010631539857946336
1782836321969767200,1.06576708984375,-0.08231704868078231,0.007381780814379453,0.008301562540419399
1782836321979696000,1.075696044921875,-0.08591010473668574,0.016622338954673615,0.003887910816632211
1782836321989625900,1.0856259765625,-0.07604045262932776,0.002619387576513691,0.009897088103555142
1782836321999555000,1.09555517578125,-0.06826748054027557,0.00021699005181435494,0.00343465062379837
1782836322009485000,1.105485107421875,-0.061840662363171574,-0.0017799416485097025,-0.0011368037438951432
1782836322019414000,1.1154140625,-0.07904781775176524,0.0018363802623163792,-0.010025445457268505
1782836322029344000,1.125343994140625,-0.07485445771515369,0.0024095356557838387,-0.00989484134754166
1782836322039273000,1.13527294921875,-0.07889116588532924,0.02243795958100818,-0.012193327548261731
1782836322049203000,1.145202880859375,-0.08532149119377136,0.012131872834742534,-0.0016022658311761915
1782836322059133000,1.1551328125,-0.07648761187493801,-0.011145558361266739,-0.006334317588061094
1782836322069062000,1.165061767578125,-0.07528700391352176,-0.010442925375601044,0.00021216317964717745
1782836322078992100,1.1749921875,-0.057926703789830204,0.0027255165445763847,0.015349142964370548
1782836322088921000,1.184921142578125,-0.08740648077428341,0.008438743663049536,0.01720300893643871
1782836322098851000,1.19485107421875,-0.09234802882969378,0.005777795666863676,0.0016753128010779618
1782836322108780000,1.204780029296875,-0.07139934882521629,0.005062445905164349,-0.006075045597366989
1782836322118710000,1.2147099609375,-0.08053250335156917,-0.005099145774162025,-0.009847367210313677
1782836322128639000,1.224638916015625,-0.07140577856600284,-0.010671796519809868,-0.00604298822497949
1782836322138569200,1.2345693359375,-0.07379939570426941,-0.007674498416949063,-0.011018493348918855
1782836322148498200,1.244498291015625,-0.08786357689201832,0.007796187426213873,-0.010209679450374097
1782836322158428000,1.254427978515625,-0.08246785532832145,0.015076905319181969,-0.008547554924432188
1782836322168356900,1.26435693359375,-0.08545183957517147,0.0034843718024509143,-0.004494480141345411
1782836322178287000,1.274287109375,-0.07871522479653358,-0.015044738348940153,-0.0022475414647720755
1782836322188216000,1.284216064453125,-0.08260872510373592,-0.006885067926420015,0.008374244184140116
1782836322198146000,1.29414599609375,-0.07842121028602123,0.001414323206510744,0.014049038417544214
1782836322208075000,1.304074951171875,-0.07647825952470302,0.007826847425958839,0.0032155827793292698
1782836322218005000,1.3140048828125,-0.07588380076289176,0.006393076879350701,0.008821604359149932
1782836322227934200,1.323934326171875,-0.07244447396397591,-0.0003982597654539859,-0.0012343275679275393
1782836322237864000,1.333864013671875,-0.07603753001987934,-0.0035985676292490097,-0.006685578711144626
1782836322247794000,1.3437939453125,-0.07379588857293129,-0.004153448722153553,-0.01236344168446958
1782836322257723100,1.35372314453125,-0.06436871953606606,0.0004532547700233408,-0.005943509905878454
1782836322267652900,1.36365283203125,-0.08636369372308254,0.008727316525930656,-0.013524831880349666
1782836322277581800,1.373581787109375,-0.07872691523432732,0.005504893584683305,-0.010632672369107603
1782836322287512000,1.383511962890625,-0.07857669310867786,-0.008674679302284494,0.002363276798930019
1782836322297441000,1.39344091796875,-0.07183949380815029,-0.015628632334253052,0.004581117245182394
1782836322307371000,1.40337109375,-0.08216390394568443,-0.00961480284674326,0.007534121831879019
1782836322317300000,1.413300048828125,-0.0745318016320467,0.005828524632035987,0.013180804215651005
1782836322327230500,1.42323046875,-0.0812672473669052,0.005613009584677638,0.005938797198142856
1782836322337159400,1.433159423828125,-0.08770166432857512,-0.005542531314486405,-0.003934672567807137
1782836322347089400,1.44308935546875,-0.07813011838495731,0.007188445632788352,-0.013843469375465064
1782836322357018400,1.453018310546875,-0.07499298940300941,-0.008906082613585749,-0.014789152727741747
1782836322366948400,1.4629482421875,-0.06616203269362449,-0.0073145562304882325,-0.006962550755310803
1782836322376877300,1.472877197265625,-0.08321838143467902,0.006081237305313698,-0.009327197527419775
1782836322386807600,1.4828076171875,-0.0794768568187952,0.01722282331518363,-0.010566511797718703
1782836322396737300,1.4927373046875,-0.07588146267533302,0.013157327441941015,0.0004519815512001514
1782836322406666200,1.502666259765625,-0.07901976070106029,-0.01650583871882409,0.0096922497138381
1782836322416596500,1.512596435546875,-0.0863525878071785,-0.015334876977000384,0.011188150827400385
1782836322426525400,1.522525390625,-0.08231412607133388,0.000789664527613786,0.005013590378314257
1782836322436455400,1.532455322265625,-0.08201894251704216,0.014376803358964388,0.0014777261360548436
1782836322446384400,1.54238427734375,-0.07079553771317004,0.0034808583920690576,-0.0035016697117127476
1782836322456314400,1.552314453125,-0.0773807613223791,0.0029253456844468015,-0.007786653554532677
1782836322466243600,1.56224365234375,-0.06795476132929325,0.0045749811923960805,-0.007727105387020856
1782836322476173300,1.57217333984375,-0.07304127081334591,-0.004338885152134753,-0.010467234408017247
1782836322486102300,1.582102294921875,-0.08964929126501082,-0.0015128996266023022,-0.009820698399096727
1782836322496032500,1.592032470703125,-0.07797638912796974,0.010565527700318489,-0.001048230411298573
1782836322505961500,1.60196142578125,-0.08471008129715919,0.010499631990410853,-0.003880713890865445
1782836322515891200,1.61189111328125,-0.08052081291377544,0.00545364973792457,0.0022870697575621307
1782836322525820400,1.6218203125,-0.07857552406489848,-0.00919006207056227,0.0015276662250049411
1782836322535750400,1.63175048828125,-0.07842764002680779,-0.0052550401595945,0.006865702784713357
1782836322545679400,1.641679443359375,-0.08022329127192497,0.008049683838314376,0.007465312645677477
1782836322555609300,1.651609375,-0.08067629573643208,0.01357166213018354,0.0004904503980651498
1782836322565539300,1.661539306640625,-0.08262450719475746,0.004803854334482457,-0.004897507984284311
1782836322575468300,1.67146826171875,-0.08112696211338043,-0.004239588354479929,-0.01707211256576702
1782836322585398500,1.6813984375,-0.07663666495680808,0.00016783084757626056,-0.018332634020876138
1782836322595327500,1.691327392578125,-0.06945464449822902,-0.0007790700683632167,-0.014275723312888294
1782836322605257200,1.70125732421875,-0.07977905463576317,-0.0020705891645236988,-0.0009628171501681208
1782836322615186400,1.7111865234375,-0.08576163617670536,0.008711450524051907,-0.0018620310122147202
1782836322625116400,1.721116455078125,-0.08396189327836036,0.005120527059730375,0.005115260654501617
1782836322635045400,1.73104541015625,-0.07677811925411224,-0.005389919727283995,0.005656527924351394
1782836322644975400,1.740975341796875,-0.0745358932852745,-0.0044410574664099835,0.0033777693374082442
1782836322654904300,1.750904296875,-0.07079904484450816,-0.0018926496273532392,0.009418821333628147
1782836322664834600,1.76083447265625,-0.08785890071690082,0.003992940666629874,0.009305570217501372
1782836322674763500,1.770763427734375,-0.08411854514479637,0.0055395481978892346,-0.00021972543159499763
1782836322684693200,1.780693359375,-0.07918108874261379,0.016139789876918074,-0.009319781405944376
1782836322694622200,1.790622314453125,-0.07499065131545066,-0.001835671301196271,-0.014591803524736314
1782836322704552400,1.800552490234375,-0.07887947544753551,-0.009990327336470362,-0.00855115338731557
1782836322714481400,1.8104814453125,-0.07468903802037238,0.0007369790694952826,-0.012762670135125517
1782836322724411400,1.820411376953125,-0.06601122604608535,0.006983802464249311,-0.010465352978184819
1782836322734341400,1.83034130859375,-0.07932721921503544,0.0038295981936811584,0.005622844850458205
1782836322744270300,1.840270263671875,-0.08665478562414645,-0.002297381089022383,0.005230703727714717
1782836322754200600,1.85020068359375,-0.07962240276932715,-0.0055099031199410085,0.008553217480238526
1782836322764129300,1.86012939453125,-0.09354045348465442,-0.005088135185558349,0.0006982661961577833
1782836322774059300,1.870059326171875,-0.07828034051060676,0.0031806872791727073,-0.008567410402372478
1782836322783988500,1.879988525390625,-0.07813362551629544,0.0009763416395551758,-0.0031861192228272556
1782836322793918500,1.88991845703125,-0.07978256176710129,-0.001313006554650201,-0.007692965655401349
1782836322803847400,1.899847412109375,-0.07484335179924964,0.0030458790642529493,-0.004303725075908005
1782836322813777400,1.90977734375,-0.08456687343418598,-0.004310913724753482,-0.007885419487580656
1782836322823706400,1.919706298828125,-0.07962824798822403,0.000025784893105446825,-0.002076587078347802
1782836322833636400,1.92963623046875,-0.08127309258580208,0.008772432596824364,-0.011131854062899946
1782836322843565600,1.939565673828125,-0.07618599857985973,0.004278479609741771,0.0017746449897065757
1782836322853495300,1.949495361328125,-0.0734948597997427,0.004743164522654842,-0.0009501951306127011
1782836322863424300,1.95942431640625,-0.07304653151035309,-0.0022022290310560492,0.0011780856023542582
1782836322873354500,1.9693544921875,-0.08666238440871238,-0.0074029794368572766,0.0062123169098980725
1782836322883283500,1.979283447265625,-0.06810556797683238,-0.0002942548266408266,0.0025305048583075403
1782836322893213200,1.989213134765625,-0.08292436692416667,0.0032001911306637335,-0.003970985990203917
1782836322903143400,1.999143310546875,-0.07694003181755542,-0.0017829378940165041,-0.010488058000337332
1782836322913072400,2.009072265625,-0.08038228122591971,0.004453372954466613,-0.00943747123517096
1782836322923002400,2.01900244140625,-0.0723012661010027,-0.002503689916618168,-0.0031659714839421212
1782836322932931300,2.028931396484375,-0.06886018573641776,-0.004819652979346574,-0.0031486732892692087
1782836322942861300,2.038861328125,-0.07065408341586589,-0.00854405578460428,-0.011165938995592295
1782836322952790500,2.04879052734375,-0.07783318126499653,0.007854597945165005,-0.004312182376999408
1782836322962720500,2.058720458984375,-0.07888064449131488,0.010397725393850123,0.0001781513121910393
1782836322972649200,2.068649169921875,-0.07828443216383457,0.005792355627645156,-0.0004517075565643608
1782836322982579500,2.078579345703125,-0.07993219937086105,-0.004341840869268344,0.005029865659680217
1782836322992508400,2.08850830078125,-0.07424655494987964,-0.007823137081932508,0.008492536801565437
1782836323002438400,2.0984384765625,-0.07768880435824393,-0.003106391635800537,0.008088796572573482
1782836323012367400,2.108367431640625,-0.07768646627068519,-0.0017331382273172494,-0.0010200089638121425
1782836323022297300,2.11829736328125,-0.07663958756625652,0.006295531364076305,-0.010848616674728691
1782836323032226300,2.128226318359375,-0.07783785744011401,0.0013555453635010052,-0.011556399617902934
1782836323042156500,2.138156494140625,-0.06841127292513847,-0.0014593801973111112,-0.006441230294946581
1782836323052086300,2.148086181640625,-0.08202829486727714,-0.0045913001416571205,-0.012272055340278892
1782836323062015200,2.15801513671875,-0.084870824816823,0.004021472070548043,0.001474474733043462
1782836323071945500,2.167945556640625,-0.08307400452792645,0.0066538147413462865,0.0012775091225281357
1782836323081874400,2.17787451171875,-0.07978022367954253,0.011766810373525368,0.0020820304384455085
1782836323091804400,2.187804443359375,-0.08307283548414707,0.0006899287677195388,0.01211825301805511
1782836323101733400,2.1977333984375,-0.08247779220044613,-0.0017156436698220203,0.0019702588933520017
1782836323111663400,2.207663330078125,-0.07739245176017284,-0.004519045187499432,0.00509807205768302
1782836323121592300,2.21759228515625,-0.0787403592377901,0.005460541844659019,-0.0023271277733147144
1782836323131522300,2.227522216796875,-0.07963701581656932,0.010088512172561605,-0.0014999562341719865
1782836323141451300,2.237451171875,-0.07469663680493831,0.0028492961899944927,-0.0204646593471989
1782836323151381500,2.247381591796875,-0.06781447607576847,0.003859211020177463,-0.0166753865994513
1782836323161310500,2.257310546875,-0.07335048289299011,0.0008483110815272084,-0.001121423511672765
1782836323171240400,2.267240478515625,-0.07948445560336112,-0.00022459597165725426,-0.007759893411770463
1782836323181169200,2.277169189453125,-0.06601707126498221,0.0028783484691317423,0.006599471330270171
1782836323191099400,2.287099365234375,-0.08367430850863457,0.008441811261326074,0.003600344313215464
1782836323201028400,2.2970283203125,-0.075294018176198,0.006382924236450344,0.0031102409750223157
1782836323210958600,2.30695849609375,-0.07798924860954284,-0.002795618642965564,0.0025997341696172953
1782836323220887300,2.31688720703125,-0.08203121747672558,-0.004563785372002167,-0.003002889876719564
1782836323230817300,2.3268173828125,-0.0853238292813301,0.004076946280318953,0.009021510845422744
1782836323240747500,2.33674755859375,-0.07903963444530963,0.012773641337000298,-0.003222012520115822
1782836323250676500,2.346676513671875,-0.07679507038891314,0.001775353950826684,-0.008177771763969213
1782836323260606200,2.356606201171875,-0.07783902648389339,-0.0038492219178253434,-0.009848134395293891
1782836323270535400,2.366535400390625,-0.07634206592440605,-0.005597933029843261,-0.009275467340182513
1782836323280465400,2.37646533203125,-0.08038169670403003,-0.0038194210054280117,-0.01512611133083701
1782836323290394400,2.386394287109375,-0.07275134795606136,0.003175902362434135,-0.001469816824235022
1782836323300324400,2.396324462890625,-0.08472410982251166,0.008588332176103722,0.0035649076736532148
1782836323310253300,2.40625341796875,-0.08532441380321978,0.0024671701420113093,-0.0012818017051555216
1782836323320183300,2.416183349609375,-0.07305354577302932,-0.003916842652294144,0.009748199418466538
1782836323330112000,2.426112060546875,-0.08442658818066119,-0.0019195344947569536,0.00274423894053325
1782836323340042000,2.4360419921875,-0.07290566173493862,-0.0015734658554327325,-0.003182356363162398
1782836323349971000,2.445970947265625,-0.0744055449038744,0.008301569390285294,-0.004945676241256297
1782836323359901000,2.45590087890625,-0.08593173204660415,0.007500439328807988,-0.0017529080819338558
1782836323369830000,2.465829833984375,-0.07755202623605728,0.0036448618770766185,-0.0059318194680847225
1782836323379759900,2.475759765625,-0.07725450459420681,0.0009022443568828748,-0.010055968459695577
1782836323389689900,2.48568994140625,-0.07381576231718064,-0.004941182729229331,-0.00915271774334833
1782836323399618800,2.495618896484375,-0.06962474036812782,0.0003973347481471137,0.0038243623274378477
1782836323409549000,2.505549072265625,-0.07919979344308375,0.00435510991573974,-0.004045220270194113
1782836323419478000,2.51547802734375,-0.07336451141834259,0.004987431882106466,0.0043431072382256386
1782836323429407700,2.52540771484375,-0.06902385186553,0.0023725509465293724,0.010144340862892568
1782836323439336700,2.535336669921875,-0.07620821041166782,0.0021266410463184,-0.0019064729421399533
1782836323449267000,2.545266845703125,-0.07695698295235634,-0.007265495207661296,0.004708013294171542
1782836323459196000,2.55519580078125,-0.0814461110651493,-0.006732569932827027,0.0021603746379725633
1782836323469126000,2.5651259765625,-0.07516133170723914,0.0041845154326860205,-0.0077135335193946955
1782836323479054800,2.575054931640625,-0.07695347582101822,0.008937089673202716,-0.010716240733023732
1782836323488984800,2.58498486328125,-0.08204232339262962,-0.0012372381901106563,-0.00484281865498051
1782836323498914000,2.5949140625,-0.06872457665801047,-0.004914271318595274,-0.005877732926979661
1782836323508843800,2.60484375,-0.08503390642404555,0.0037932074248819845,-0.005489829587936401
1782836323518772700,2.614772705078125,-0.07650397848784923,-0.0010271231203660136,0.0061652263651601966
1782836323528703000,2.624702880859375,-0.0779997700035572,-0.0003599453259826987,0.005075440100766718
1782836323538633000,2.634633056640625,-0.07665361609160899,0.0057951155527785885,-0.0008920717352069913
1782836323548562000,2.64456201171875,-0.06857493905425072,0.012835975116642657,0.0032531017781235274
1782836323558492000,2.654491943359375,-0.0775549488455057,0.00319232320345036,0.0012291034035384655
1782836323568420900,2.6644208984375,-0.08174480175077915,0.004533678784339281,-0.0013062785592861473
1782836323578350800,2.674350830078125,-0.0795031603038311,0.005694107430294389,-0.001145187979750335
1782836323588280000,2.684280029296875,-0.0874368759125471,0.006644200954562984,-0.004307853261753917
1782836323598209800,2.694209716796875,-0.07995382668077945,0.004034988568424888,-0.0094458372047171
1782836323608138800,2.704138671875,-0.07576572734117508,0.0062889726174820675,-0.005325085746590048
1782836323618069000,2.714069091796875,-0.0763654467999935,0.00015367617052688729,-0.004652246252633631
1782836323627998000,2.723998046875,-0.07861234894394874,0.009167561402742285,-0.009033749272488057
1782836323637927700,2.733927734375,-0.08145838602483273,0.006079202324320795,-0.0008281396535225212
1782836323647857000,2.74385693359375,-0.08040858471095562,0.00589930429632659,0.0019169395372271537
1782836323657787000,2.753786865234375,-0.0778647454470396,0.005550835064417333,0.0021969437886960805
1782836323667715800,2.7637158203125,-0.07562135043442249,-0.0015435656199799268,0.0055599539483897386
1782836323677645800,2.773645751953125,-0.08175473862290382,-0.002363242549600545,0.006086133246961981
1782836323687574800,2.78357470703125,-0.08130816389918327,0.002480863309346023,-0.001743464400153607
1782836323697505000,2.793505126953125,-0.07712123360335826,-0.006059882277564611,-0.003849989959038794
1782836323707435000,2.80343505859375,-0.069189856082201,0.008181200692671699,-0.015543624356854706
1782836323717363700,2.81336376953125,-0.07592296372950076,0.0022937772033284998,-0.0068846449472010135
1782836323727294000,2.8232939453125,-0.07652092962265014,0.0025713357672619164,-0.004220248043537139
1782836323737223000,2.833222900390625,-0.08056289848983288,0.004274181604303885,-0.0008445610653609037
1782836323747153000,2.84315283203125,-0.07472586289942264,-0.00623988476601371,-0.0015126147863455115
1782836323757082000,2.85308203125,-0.07786649901270866,0.000513332945908769,0.0120209666560404
1782836323767011800,2.86301171875,-0.07681845126450061,0.0076139090698212385,0.017094634924829006
1782836323776940800,2.87294091796875,-0.06873626709580422,0.0040066483899296144,0.0017341668488457798
1782836323786871000,2.88287109375,-0.07502046193182468,-0.00316246749212587,0.003655837360117584
1782836323796800000,2.892800048828125,-0.07846388038396834,-0.006027170742984162,0.0006027699324302375
1782836323806729700,2.902729736328125,-0.07083411615788936,-0.0007098955559806199,-0.0088834906142205
1782836323816659000,2.912658935546875,-0.0759217946857214,0.0005083802074557752,-0.00696313527720049
1782836323826589000,2.9225888671875,-0.07951251265406609,0.0052933052229491295,-0.0011536635471507907
1782836323836518000,2.932517822265625,-0.07412380535304545,0.005036464363825507,0.0010195705723948776
1782836323846447900,2.94244775390625,-0.090730656760931,-0.0037372694221077833,0.010290471335314213
1782836323856376800,2.952376953125,-0.08115092751085758,0.0028397003841091643,-0.005847812712751328
1782836323866306800,2.962306884765625,-0.07546703665554523,-0.0013121115055066183,0.005016713917162269
1782836323876236800,2.97223681640625,-0.0883347015351057,-0.001333693720474548,0.010961137138493358
1782836323886165800,2.982165771484375,-0.08204992217719555,0.005121789718343643,0.008274437071476131
1782836323896096000,2.992095947265625,-0.07337152568101883,0.0005389112013930571,0.0025992227129638195
1782836323906025000,3.00202490234375,-0.08175415410101414,0.0020892285058565904,0.0005038213362917304
1782836323915955000,3.011954833984375,-0.06948503963649273,0.0013173624985371134,0.008046747529134153
1782836323925883600,3.021883544921875,-0.08265256424546241,-0.0034902215879250432,0.0071231481445021925
1782836323935814000,3.03181396484375,-0.07531856809556484,0.003435911284534086,-0.006885923588834703
1782836323945742800,3.041742919921875,-0.0736684628009796,-0.0024482836346840483,-0.003354187532421201
1782836323955673000,3.051673095703125,-0.07336918759346008,-0.0058817937558109405,-0.004834397886507213
1782836323965602000,3.06160205078125,-0.07860650372505187,-0.00582560031012108,0.002949186928104609
1782836323975531800,3.07153173828125,-0.07531564548611641,-0.002067848361932556,0.005689224617555737
1782836323985461000,3.0814609375,-0.07217559389472007,0.0016429874276873305,-0.00003287935629487037
1782836323995391000,3.091390869140625,-0.07352291685044765,0.006273678008583374,0.002401526450086385
1782836324005320000,3.10131982421875,-0.08310030801296234,0.0027810700986272423,0.001212115736119449
1782836324015250000,3.11125,-0.08878829052150249,0.00425814635365532,0.0026504779761657117
1782836324025180000,3.121179931640625,-0.07891396223902702,0.0033876830912355216,-0.0012976933940313756
1782836324035108900,3.13110888671875,-0.08415244741439819,-0.0007526001886682934,-0.0036469051349908113
1782836324045038800,3.141038818359375,-0.08459902213811873,0.0073436156449024565,-0.005704385654069483
1782836324054967800,3.1509677734375,-0.08010930950343609,0.005963893965136958,-0.005738214858435094
1782836324064897800,3.160897705078125,-0.07801204496324061,-0.001969932383077685,-0.005401566782593727
1782836324074827000,3.170826904296875,-0.0738210230141878,0.0018989535018539754,0.001132785155903548
1782836324084756700,3.1807568359375,-0.07711246577501296,-0.009850739627622533,-0.0008368344166316092
1782836324094685700,3.190685791015625,-0.07456921103298664,0.004129042364559427,0.003075900314003229
1782836324104616000,3.200615966796875,-0.0838473269879818,0.007728573541610967,0.009099654115550219
1782836324114545000,3.210544921875,-0.0784615422964096,0.00890908171320334,-0.002817377241980284
1782836324124475000,3.220474853515625,-0.0807055218309164,0.004023122602817602,-0.0017926738367415964
1782836324134403800,3.23040380859375,-0.08893559003770352,-0.004246451063873246,0.0035929281917400657
1782836324144333800,3.240333740234375,-0.08654431098699569,-0.007291045207448769,0.005089121566247194
1782836324154262800,3.2502626953125,-0.08160627006292343,0.0006995748059547622,-0.004479154708050191
1782836324164193000,3.260193115234375,-0.08489829734563827,0.009085425802442478,-0.005987933569494635
1782836324174122800,3.270122802734375,-0.0699351214915514,0.006172832570414175,-0.003581621346436441
1782836324184052000,3.280052001953125,-0.06783785695135593,-0.0010602827503404114,-0.00953373468387872
1782836324193982000,3.28998193359375,-0.0784615422964096,0.002986178201813891,0.0030316045145504173
1782836324203911000,3.299910888671875,-0.08085632847845554,0.001504849607120559,0.008727678998000919
1782836324213841000,3.3098408203125,-0.07337620185613632,0.0023122872534426277,-0.00030460896976292133
1782836324223769900,3.319769775390625,-0.08100655060410498,0.005453601788863307,0.0035133601495064793
1782836324233699800,3.329699951171875,-0.07621814728379249,0.007062202604347839,0.005305175469722598
1782836324243629000,3.339629150390625,-0.08175415410101414,-0.0014704087668127612,0.003925557679589837
1782836324253558800,3.349558837890625,-0.08265022615790367,-0.003874709127175447,0.0038395416302606463
1782836324263487700,3.35948779296875,-0.07113046875596046,-0.0016378471741554676,0.0017069500483572482
1782836324273418000,3.36941796875,-0.07307692664861679,0.004132582032760547,-0.014836005810461938
1782836324283347000,3.379346923828125,-0.07996025642156601,0.0035104215570376253,-0.011543174810148774
1782836324293276700,3.389276611328125,-0.06978431484401226,0.0027939324343111364,-0.009629961599968373
1782836324303206000,3.399205810546875,-0.07277940500676632,0.003623712059893296,-0.005761723598185926
1782836324313135900,3.409135986328125,-0.07562427304387093,0.0016793119811161887,0.005074873845186084
1782836324323066000,3.419066162109375,-0.08250584925115108,0.00034983749262173657,0.0027601854283362624
1782836324332994800,3.428994873046875,-0.08579670749008655,0.00458986966132943,0.0023894341534934937
1782836324342924500,3.438924560546875,-0.06978548388779163,0.009318336655062738,0.009728526603616774
1782836324352853500,3.448853515625,-0.07143325109481811,0.005081792209739797,0.0020375702422112227
1782836324362783700,3.45878369140625,-0.0739782594025135,0.0032593625555513424,0.00029326559184119104
1782836324372712700,3.468712646484375,-0.08565116153955459,-0.00002595870845252648,-0.0020432875969447193
1782836324382642700,3.478642578125,-0.07353285372257232,0.003342083819385152,-0.013154902589414269
1782836324392571600,3.488571533203125,-0.07832125704288483,0.002227093473431887,-0.009724014825280755
1782836324402501600,3.498501708984375,-0.07413140413761138,-0.0002580470063432585,0.004497128756158053
1782836324412430600,3.5084306640625,-0.0739823510557413,-0.000047719590755878015,0.0004993460905738174
1782836324422360600,3.518360595703125,-0.08116378699243068,0.0018412679270433726,-0.001524451354611665
1782836324432289500,3.52828955078125,-0.09058569533228873,0.003061640034854645,0.0049762357763014735
1782836324442219800,3.5382197265625,-0.07232640054225921,-0.0006704574530915124,0.010470595408882946
1782836324452148700,3.548148681640625,-0.07217384032905101,0.001982807276849053,0.006141334032919258
1782836324462078500,3.558078369140625,-0.0769628281712532,-0.0009836356050887843,0.007666369909420609
1782836324472008700,3.5680087890625,-0.07471826411485671,-0.003726574212746345,0.003041998044401407
1782836324481937700,3.577937744140625,-0.07741349454820155,0.0018765002122730946,-0.0052644963994622224
1782836324491867600,3.58786767578125,-0.06783727242946624,0.0017034292172873392,0.0013370207574218511
1782836324501796600,3.597796630859375,-0.07786182283759116,-0.006355894665629603,0.0008327427634038031
1782836324511726600,3.6077265625,-0.0850455968618393,0.003631234354290063,-0.0036041254391893742
1782836324521655600,3.617655517578125,-0.07038052717149257,0.00014666647442791145,-0.0037778197719715535
1782836324531585800,3.627585693359375,-0.0884872617483139,0.004263501521729631,-0.0019590981785207987
1782836324541514800,3.6375146484375,-0.08579144679307937,0.0033695238113374214,-0.0013223529112525285
1782836324551444500,3.647444580078125,-0.08189970005154609,-0.006896726398172904,0.002064312118664384
1782836324561373700,3.657373779296875,-0.07037585099637508,0.0037596145408897424,0.006327924379892647
1782836324571303700,3.6673037109375,-0.07381751588284968,0.004324623445930774,0.007683777701947838
1782836324581232600,3.677232666015625,-0.07890227180123328,0.002145337469867081,-0.0022121230915188787
1782836324591162600,3.68716259765625,-0.08787760541737079,-0.000031179447908652944,-0.005030541513115167
1782836324601091600,3.697091552734375,-0.08174363270699977,-0.0010271351076313294,-0.01501545403059572
1782836324611021600,3.707021484375,-0.06947042658925057,-0.0013397561372024938,-0.0066112165669910605
1782836324620951600,3.71695166015625,-0.08293781092762946,0.00964132210255484,-0.006628807022608816
1782836324630880500,3.726880615234375,-0.08742693904042244,0.0061871801853529175,-0.003029102030210197
1782836324640810800,3.736810791015625,-0.07770166383981704,0.0029736095541302346,-0.004624152669310569
1782836324650739700,3.74673974609375,-0.07545826882719993,0.003905604591060546,0.01024770990582183
1782836324660669400,3.75666943359375,-0.08413315819203854,0.0045741440817015245,0.0013651326070539653
1782836324670598700,3.7665986328125,-0.07949614604115486,-0.0009465561393561074,0.0035595191124826665
1782836324680528600,3.776528564453125,-0.07680500726103782,0.007689862095328862,0.0014108166459947825
1782836324690457600,3.78645751953125,-0.08024608762562274,0.007495113558074808,0.0029017675898037848
1782836324700387800,3.796387939453125,-0.07875146515369415,-0.00030054528682085216,-0.003438943206425756
1782836324710316500,3.806316650390625,-0.07082184119820595,0.008997303990172803,0.0003433518112637102
1782836324720246500,3.81624658203125,-0.07695464486479758,0.006021818143609562,-0.0048507097004912795
1782836324730175700,3.82617578125,-0.07859773589670657,0.004668891997580067,-0.009202402103971689
1782836324740105700,3.836105712890625,-0.0797948367267847,0.003934428255923558,0.0023242599627934396
1782836324750035500,3.846035400390625,-0.07171440612375736,0.002824032457519206,-0.001726896857842803
1782836324759964700,3.855964599609375,-0.07815174569487571,-0.0006724878675071522,-0.00859327549599111
1782836324769894700,3.865894775390625,-0.09072305797636508,0.004525984387061908,0.0031426271409727632
1782836324779823600,3.87582373046875,-0.07875263419747353,0.00579963189769187,0.00542312102727592
1782836324789753600,3.885753662109375,-0.07770634001493454,-0.0009056607274978887,0.009666768212709575
1782836324799682600,3.8956826171875,-0.07845686612129212,0.0031990511988144133,0.00396344200456515
1782836324809612800,3.90561279296875,-0.08444470835924148,0.004566847262057127,0.0016787651334889233
1782836324819541800,3.915541748046875,-0.07097966210842133,0.003914280517038423,0.0047812977260909975
1782836324829471500,3.925471435546875,-0.07890870154201984,0.007270298676120001,-0.005315587265882641
1782836324839400400,3.935400390625,-0.07831248921453952,0.01145158182833693,-0.0074685092497617
1782836324849330700,3.94533056640625,-0.07367255445420742,0.0038046735295676625,-0.011556052558030933
1782836324859259600,3.955259765625,-0.08010287976264953,-0.005257625983969774,-0.005753942150529474
1782836324869189600,3.965189697265625,-0.08952595714628696,0.002050210528075695,0.004061641682032495
1782836324879118600,3.97511865234375,-0.09236965613961219,0.00633555912625452,-0.0007086049270816146
1782836324889048600,3.985048583984375,-0.08234452120959758,-0.007905922277848003,0.002016436122637242
1782836324898978800,3.994978759765625,-0.0808487296938896,0.005771061107044806,0.006687405342049897
1782836324908907800,4.00490771484375,-0.07441255916655064,0.0034487162525911113,0.002572298173420131
1782836324918837500,4.01483740234375,-0.07710720507800578,-0.0028200663851661372,0.0017153160179033875
1782836324928766700,4.0247666015625,-0.07726034981310367,-0.0004661362282495247,0.00234782350147143
1782836324938696700,4.03469677734375,-0.0705278266876936,0.00159000799615751,-0.001050586765166372
1782836324948625700,4.044625732421875,-0.07920622318387031,-0.008322485455794958,-0.0012176686940714716
1782836324958555600,4.0545556640625,-0.0802525173664093,0.0012143265303369843,-0.001417977039143443
1782836324968484600,4.064484619140625,-0.08220072882473468,0.0002860549663426354,-0.0008396474282257258
1782836324978414600,4.07441455078125,-0.07651216179430484,0.001090810319344746,-0.01516074425280094
1782836324988343800,4.08434375,-0.08608955295681953,0.007351671658016857,0.00011710530733689665
1782836324998273500,4.0942734375,-0.08309563183784484,0.00291479260980268,0.005307458758354187
1782836325008202500,4.104202392578125,-0.0772591807693243,-0.0007356333562580403,-0.0038692609150893986
1782836325018132700,4.1141328125,-0.07665829226672649,0.0023585269877541577,-0.005318729071039707
1782836325028061700,4.124061767578125,-0.09476268875598907,0.003620246598572703,0.004308766577206552
1782836325037991400,4.133991455078125,-0.0836859989464283,-0.00043338530694018117,-0.0030430392240174114
1782836325047921700,4.143921630859375,-0.08129179728627205,0.0029372253497858764,0.0011595818312838673
1782836325057850600,4.1538505859375,-0.08488309977650642,0.009782496697001625,-0.0021222528509795666
1782836325067780600,4.163780517578125,-0.08174129461944103,0.005009124836573028,-0.007788260989729315
1782836325077709600,4.17370947265625,-0.0751589936196804,-0.0065558165641006775,-0.0036698476191610097
1782836325087639600,4.1836396484375,-0.08294190258085728,0.0030368075585196492,0.006745565270073712
1782836325097568800,4.19356884765625,-0.07590951972603797,0.0013174324242514557,-0.0025085122222080827
1782836325107498800,4.203498779296875,-0.07186813538074494,0.010123597185674588,0.006722458389122039
1782836325117427700,4.213427734375,-0.08144494202136993,-0.0008100942526449216,0.009125701872259378
1782836325127357700,4.223357666015625,-0.07530746217966079,0.0018703339059124118,-0.0014620353765785693
1782836325137286700,4.23328662109375,-0.07590659711658954,-0.0051971194060548434,-0.0015845109787769615
1782836325147216600,4.243216552734375,-0.07815291473865509,-0.0009310777257225709,0.002090487739536911
1782836325157145900,4.253145751953125,-0.0723176327139139,0.007797170381969772,-0.006685030721873045
1782836325167075600,4.26307568359375,-0.08219313004016876,0.002103440835943911,-0.003893938698619604
1782836325177005600,4.273005615234375,-0.07411386848092079,-0.00668882668922306,0.0017101649187505244
1782836325186934800,4.282934814453125,-0.08144961819648742,0.0011723297171251032,-0.007240289984457194
1782836325196864500,4.292864501953125,-0.08833236344754695,0.0006740955881148693,0.010230813569948077
1782836325206793500,4.30279345703125,-0.08159691771268844,0.001798154014868487,-0.0009248962925747036
1782836325216723700,4.3127236328125,-0.07591185781359672,-0.00012071775536314816,0.001674308154080063
1782836325226652700,4.322652587890625,-0.07232055532336235,0.003346980331855593,0.003168894093390554
1782836325236582400,4.33258251953125,-0.07097323236763477,-0.0012454808620706898,0.003443911642488092
1782836325246511600,4.34251171875,-0.0904261208564043,0.0015486750491152633,-0.0016444062061607837
1782836325256441600,4.352441650390625,-0.0823480283409357,0.004136600335341063,-0.0022648944583721457
1782836325266370600,4.36237060546875,-0.07471767959296703,0.0037274478560590067,-0.0007080752041190862
1782836325276300500,4.372300537109375,-0.06917758112251758,-0.0007558273317379644,-0.013307006144896149
1782836325286229500,4.3822294921875,-0.07471358793973923,-0.0011858079699173685,-0.000781597098056227
1782836325296159700,4.39215966796875,-0.07815408378243446,0.008359212153434055,0.004711264697182923
1782836325306088700,4.402088623046875,-0.08653378959298133,0.006594155834335833,0.007113448734395206
1782836325316018700,4.412018798828125,-0.07890519441068172,0.0006869071206267108,0.0053068742364645
1782836325325949400,4.421949462890625,-0.09342413362860678,-0.006498412975436076,0.01057944434452802
1782836325335878400,4.43187841796875,-0.06858312236070632,0.005955795140360714,0.003800232533179223
1782836325345808400,4.441808349609375,-0.08549275610744952,0.0011521876864615478,-0.00006663549542427062
1782836325355737300,4.4517373046875,-0.08818740201890468,-0.0015164347282261587,-0.003764741094689816
1782836325365667300,4.461667236328125,-0.07980594264268874,0.002706517585284018,-0.001729673336818814
1782836325375596500,4.471596435546875,-0.07845861968696118,0.008604616019802051,-0.006569441518187523
1782836325385526500,4.481526611328125,-0.07681260604560375,-0.00499351912959828,-0.003566204581595957
1782836325395455500,4.49145556640625,-0.07396773800849914,0.006676374774670694,-0.0024519231967628
1782836325405385500,4.501385498046875,-0.07351824067533015,0.0017065110861178253,0.00381614248836413
1782836325415314400,4.511314453125,-0.0802519328445196,-0.0023052430226030993,-0.00023552578892558813
1782836325425244400,4.521244384765625,-0.08234744381904602,0.004382866428578563,0.0015808211843483149
1782836325435173600,4.531173583984375,-0.07411737561225891,0.0005185813702395535,0.001121350446436554
1782836325445103400,4.541103271484375,-0.07546352952420711,-0.001386848394406843,0.007090707179624587
1782836325455032300,4.5510322265625,-0.08414192602038383,0.004411544533791311,0.012155698951613158
1782836325464962600,4.560962646484375,-0.07531681452989578,0.0014313317089385237,0.008721760713867842
1782836325474892300,4.570892333984375,-0.07636661584377288,0.002865408216223295,0.00840728793721646
1782836325484821200,4.5808212890625,-0.08519464994370937,0.003933084540563868,-0.004641523929219692
1782836325494751500,4.59075146484375,-0.07741291002631187,0.00760251888448256,-0.00511865818798542
1782836325504680400,4.600680419921875,-0.08115092751085758,-0.0014629652458737837,-0.008851853366941213
1782836325514610400,4.6106103515625,-0.07352116328477859,-0.0024866722810358622,-0.008924589809589087
1782836325524539400,4.620539306640625,-0.0757645582973957,0.0044533352802041916,0.00043687531361356376
1782836325534469400,4.630469482421875,-0.07307049690783024,-0.0021705538241032626,-0.004819602176174521
1782836325544398600,4.640398681640625,-0.07456804198920726,0.00419626066940691,0.0018176256149075925
1782836325554328300,4.650328369140625,-0.06199848327338695,0.0007610449316722224,-0.0040269174285233016
1782836325564257300,4.66025732421875,-0.07875964846014977,0.0001760726633030572,0.0038713067417033013
1782836325574187500,4.6701875,-0.07157645895779133,0.003975501764295041,0.003681245796009898
1782836325584116500,4.680116455078125,-0.06514262651801109,-0.001001813722118095,0.0008769106986932456
1782836325594046500,4.69004638671875,-0.0753203216612339,-0.0023778613050642887,-0.003663363079447299
1782836325603976400,4.6999765625,-0.08355097438991069,-0.0026277940744330406,-0.005115023192483931
1782836325613905400,4.709905517578125,-0.08504735042750836,-0.008360383480502059,0.00011063903393223881
1782836325623835400,4.71983544921875,-0.08744389017522335,0.0003501951127036591,0.00022951617324724793
1782836325633764600,4.7297646484375,-0.07158405774235725,0.003892096940927149,0.005698430837318301
1782836325643694300,4.7396943359375,-0.07921674457788468,0.0018384081080323085,0.007110526124946772
1782836325653623300,4.749623291015625,-0.08221008117496967,-0.0007977890393871347,0.009247793881967663
1782836325663553500,4.759553466796875,-0.07427870365381241,0.005554633885878138,-0.0015587554830126464
1782836325673482500,4.769482421875,-0.07906944506168365,0.0014725824575900332,0.013068594279140233
1782836325683412200,4.779412109375,-0.07862111677229404,-0.0015286363372622872,0.010563516123034059
1782836325693341400,4.789341552734375,-0.07637596819400787,-0.0030097480195356184,0.005887907261122018
1782836325703271400,4.799271484375,-0.0744312638670206,-0.004882442845893092,-0.0009599310733377933
1782836325713200400,4.809200439453125,-0.08251110994815826,-0.0008621869119524489,0.005286562100797892
1782836325723130400,4.81913037109375,-0.08430500762760638,0.0052888568058726375,-0.007377415166515857
1782836325733059300,4.829059326171875,-0.09507833057641983,0.0015891574711422436,-0.0026001542947255074
1782836325742989600,4.838989501953125,-0.08191022144556045,0.006304798090987606,0.005466686174366623
1782836325752919600,4.84891943359375,-0.07876783176660537,0.0027162027248370576,0.005330583905614912
1782836325762848300,4.85884814453125,-0.07936579765975475,0.0036657231436591246,-0.0029244543456472456
1782836325772778500,4.868778564453125,-0.0753249978363514,0.005692118685896275,0.012000435324665158
1782836325782707500,4.87870751953125,-0.07682195839583873,0.007485870234871982,0.012026136021502315
1782836325792637400,4.888637451171875,-0.08041501445174216,0.004049171786582155,0.0035782238129526377
1782836325802566700,4.898566650390625,-0.08176175288558006,0.010162034066498744,-0.001062313735578209
1782836325812496400,4.908496337890625,-0.08326222057640552,0.0012045646152037078,-0.005512954735197127
1782836325822425300,4.91842529296875,-0.07024550261497498,0.005959589966066414,0.0002629069861955941
1782836325832355600,4.92835546875,-0.0828144768089056,0.004901460356905591,-0.0005166442852467298
1782836325842284500,4.938284423828125,-0.07892506815493107,0.0028638044913706835,-0.000001790098287165165
1782836325852214300,4.94821435546875,-0.08281330776512623,0.004303181653213687,-0.0037021789861842987
1782836325862143500,4.9581435546875,-0.09059387863874435,-0.0023886087446531746,0.003595156681444496
1782836325872073500,4.968073486328125,-0.07937047383487224,0.0019105548913910752,-0.00033628274966031313
1782836325882003500,4.97800341796875,-0.08326163605451584,-0.005221262900045258,-0.002557027539052069
1782836325891932400,4.987932373046875,-0.07129238131940364,-0.008188036288012518,0.00441872975770384
1782836325901862400,4.9978623046875,-0.07698036382794379,0.007144039093836908,-0.0011668152896687387
1782836325911791400,5.007791259765625,-0.08012567611634731,0.003282797944654885,0.00465790880843997
1782836325921721300,5.017721435546875,-0.07683481787741184,-0.004674151552942931,-0.0018795118699781595
1782836325931650300,5.027650390625,-0.08371697860658169,0.002690677555813454,0.0027151224439032375
1782836325941580500,5.03758056640625,-0.07773381254374981,0.0002854190704587381,-0.0012093575234524904
1782836325951509500,5.047509521484375,-0.08192308092713356,0.003428594486114161,-0.004967139154393225
1782836325961439500,5.057439453125,-0.07175006195902824,0.00446625355645956,-0.004724927896354347
1782836325971368200,5.0673681640625,-0.07653671171367168,-0.0018282645982864777,-0.00615660466728732
1782836325981298400,5.07729833984375,-0.08057634249329566,0.003628136787850235,0.004157594603486359
1782836325991227400,5.087227294921875,-0.07743219924867152,0.005654741250997176,0.009902385333180427
1782836326001157600,5.09715771484375,-0.08745850322246551,0.003399290759816358,0.0012517718930728733
1782836326011086300,5.10708642578125,-0.08282207559347152,0.0013074202036019414,0.002705532631650567
1782836326021016300,5.117016357421875,-0.07579144630432129,-0.007383542371558724,0.006104326490778475
1782836326030946600,5.126946533203125,-0.0733984136879444,0.003685620291616942,0.006936137672420591
1782836326040875500,5.13687548828125,-0.07579203082621097,-0.0024467464106128316,0.017817651969753205
1782836326050805200,5.14680517578125,-0.08073007175028324,0.0006026349329898949,-0.0032809396331198513
1782836326060734500,5.156734375,-0.08028115893900394,0.005224287686659954,0.0037382549465633927
1782836326070664400,5.16666455078125,-0.07878361385762692,0.006694101085962029,0.001300524671934545
1782836326080593400,5.176593505859375,-0.08731237275004386,0.002639087220004876,-0.00936767566828057
1782836326090523400,5.1865234375,-0.081476506203413,0.00302159857294464,-0.006049710226710885
1782836326100452400,5.196452392578125,-0.08746025678813457,0.002508254210592713,0.004616261623799801
1782836326110382300,5.20638232421875,-0.08431435997784137,-0.005360608009475982,0.0089428926512599
1782836326120311600,5.2163115234375,-0.07668167314231396,0.003597434547265584,0.00933938115555793
1782836326130241300,5.2262412109375,-0.0792237588405609,0.0031901614999384036,-0.000495035241637379
1782836326140170200,5.236170166015625,-0.09029752604067325,-0.0037451661758401314,0.0023806115262210367
1782836326150100500,5.2461005859375,-0.07503449045717715,0.006778253971767844,-0.007647884404659271
1782836326160030500,5.256030517578125,-0.07458674668967723,0.0006130110527650686,0.004993059046939015
1782836326169959400,5.26595947265625,-0.07249298928081989,-0.0005327317661227425,-0.0028762678223662077
1782836326179889400,5.275889404296875,-0.07653437362611293,0.006970603914314415,-0.0037392047946341335
1782836326189818400,5.285818359375,-0.08521277012228966,0.006083562263962812,-0.0009199461228214204
1782836326199748600,5.29574853515625,-0.0772808080792427,0.0026652108960610347,0.00246987897856161
1782836326209674200,5.30567431640625,-0.0715951636582613,0.0029229739183807397,0.008487367436103522
1782836326219603500,5.315603515625,-0.08251578612327576,0.008009825610317057,0.015077742144465446
1782836326229533400,5.325533447265625,-0.07578384751975537,0.006377649839711375,0.008407616730779409
1782836326239462400,5.33546240234375,-0.07428571791648865,0.011165523437061346,0.0012919943056069313
1782836326249392400,5.345392333984375,-0.07233867550194263,-0.002606637692794902,-0.004768949701171368
1782836326259321300,5.3553212890625,-0.07712941690981388,-0.0014136610528075835,0.0028060886629857123
1782836326269251300,5.365251220703125,-0.0739864427089691,0.006506441589086898,0.01012640334740281
1782836326279180500,5.3751806640625,-0.08146890741884708,0.004524339277602848,-0.0004659552776254713
1782836326289110500,5.385110595703125,-0.08102174817323685,0.005051907386485254,-0.012048347853310406
1782836326299039500,5.39503955078125,-0.0762310067653656,0.008695845387899316,-0.0040937355870381
1782836326308969500,5.404969482421875,-0.0745838240802288,0.006742115220951382,-0.0010167758271098137
1782836326318899500,5.4148994140625,-0.08027005302309989,0.007143587573510012,0.004827931613102555
1782836326328828400,5.424828369140625,-0.07518646614849567,0.005437155831672135,0.012487944846972823
1782836326338758000,5.4347578125,-0.08386486264467238,0.003487571546057006,0.0021308197499252854
1782836326348686800,5.444686767578125,-0.07608370724916458,0.007303388665791135,-0.0017357742840424179
1782836326358616800,5.454616943359375,-0.08281681489646435,0.005480470387835521,0.0007826748102903366
1782836326368545800,5.4645458984375,-0.07817688013613223,0.00783899965887831,0.0016331176271662114
1782836326378476000,5.47447607421875,-0.07937456548810004,0.004304775388678536,-0.0014875534103251993
1782836326388404700,5.48440478515625,-0.0826665927708149,0.0024117607205553213,0.004932122639939189
1782836326398335000,5.4943349609375,-0.07847673986554145,0.006821007409750018,0.002867974918056279
1782836326408264000,5.504263916015625,-0.08401391572654247,0.0014311989927868125,0.004684194027166813
1782836326418194000,5.51419384765625,-0.0754857413560152,0.00036112036339472977,-0.0027534268939867616
1782836326428123000,5.524122802734375,-0.0792237588405609,0.003815689826392918,-0.012477825311757623
1782836326438052900,5.534052978515625,-0.07757657615542411,0.005325964241891051,-0.00399261330012232
1782836326447981800,5.54398193359375,-0.07772621375918388,0.00940433386726072,0.0017056896730326114
1782836326457912000,5.553912109375,-0.07997019329369068,0.0063580146991240325,0.006165335963014513
1782836326467841800,5.563841796875,-0.08071721226871013,0.006276505861553596,-0.005422828766331076
1782836326477770800,5.573770751953125,-0.08445581427514552,0.007301979305883287,0.0037430407195352014
1782836326487701000,5.583700927734375,-0.08056406753361224,0.011079389798367627,-0.0026260376546531914
1782836326497630000,5.5936298828125,-0.07383037536442279,0.0030446129807067336,0.0009786905727349221
1782836326507559700,5.6035595703125,-0.07472644742131233,0.0022149920436844695,-0.003294968158472329
1782836326517489000,5.613489013671875,-0.07173135725855827,-0.002257922436535591,0.0018191051859408616
1782836326527419000,5.6234189453125,-0.08400164076685905,0.0010856055629090405,-0.004018496660050004
1782836326537347800,5.633347900390625,-0.07951309717595577,0.005070634349019383,0.0012464381308294832
1782836326547277800,5.64327783203125,-0.07696867339015007,0.0006887003584357444,-0.0011771174879744647
1782836326557206800,5.653206787109375,-0.0768190357863903,0.008226430357174831,-0.004322356711141765
1782836326567137000,5.663136962890625,-0.08415303193628787,0.008752944157531601,0.006097567956428974
1782836326577066000,5.67306591796875,-0.08131050198674201,0.004872846183774527,0.0028344927735626697
1782836326586996000,5.682995849609375,-0.08056406753361224,0.006808223847523913,0.0005198956882581115
1782836326596926000,5.692926025390625,-0.07846972560286522,-0.001463639957664418,-0.006168057643063366
1782836326606855000,5.70285498046875,-0.07547872709333896,-0.006233642254894948,0.003495751427579671
1782836326616785000,5.712784912109375,-0.0712894587099552,0.005154066857261932,0.0029205453555099666
1782836326626714000,5.722714111328125,-0.0763788908034563,0.010752118047291878,-0.00778431546697393
1782836326636643800,5.732643798828125,-0.07174129413068295,0.005418782208053744,0.010248075232002883
1782836326646572800,5.74257275390625,-0.086553078815341,0.008527521349978633,-0.00048800271265208716
1782836326656503000,5.7525029296875,-0.08715221375226974,0.008267372576449997,0.006723189041484147
1782836326666432000,5.762431884765625,-0.07697627217471599,0.00015553990487242116,0.006842888164706528
1782836326676361700,5.77236181640625,-0.07802431992292404,-0.003940255208511371,0.002966448590159416
1782836326686291000,5.782291015625,-0.06665127751529216,0.0050270954597479425,0.007285024175327271
1782836326696221000,5.792220947265625,-0.07622866867780685,0.004806010900594992,0.0005863119879737496
1782836326706150000,5.80214990234375,-0.07922258979678154,0.0007246798498701536,-0.005495638274215162
1782836326716079900,5.812079833984375,-0.08251637064516544,0.004594586364820134,0.003124561761319637
1782836326726008800,5.8220087890625,-0.09014613487124443,0.0005235586540453368,-0.0020546309748664497
1782836326735938800,5.831938720703125,-0.07248655954003333,0.01419923542701872,-0.010396543791983275
1782836326745868800,5.841868896484375,-0.07323416303694248,0.012947648480325005,-0.0005438428194262087
1782836326755797800,5.8517978515625,-0.08505494921207428,0.004399032968323445,0.002266173100005835
1782836326765728000,5.86172802734375,-0.0696428605467081,0.003015371474024141,0.0015497684589587152
1782836326775657000,5.871656982421875,-0.07832359513044357,0.0046272819163801614,0.0029912177052348853
1782836326785587000,5.8815869140625,-0.08296294536888599,0.0026350960314768597,0.004816935295052826
1782836326795515600,5.891515625,-0.0742874714821577,0.005371918279712554,0.004224723289255053
1782836326805446000,5.90144580078125,-0.08341711887717247,-0.001599932881016866,0.00804415371324867
1782836326815374800,5.911374755859375,-0.08685703019797801,0.005841440054180566,0.004216960107907653
1782836326825305000,5.92130517578125,-0.07368833654522895,0.0025371029916306724,0.0009106668378226459
1782836326835234000,5.931234130859375,-0.0732376701682806,0.00404196087567252,-0.002043945184070617
1782836326845163800,5.941163818359375,-0.07907236767113208,0.011065700341376942,-0.0014771598804742096
1782836326855094800,5.9510947265625,-0.07593173155784606,0.005897048977980739,0.004417414583452046
1782836326865023700,5.961023681640625,-0.07308569447696209,-0.0004953206527163274,-0.008578735513985157
1782836326874954000,5.9709541015625,-0.08281389228701591,0.002423371814069105,-0.0032505079622380433
1782836326884883000,5.980883056640625,-0.08012275350689887,-0.00193080024086521,0.004786631488334387
1782836326894813000,5.99081298828125,-0.06934943055808544,0.004516792437853291,0.002566507753450423
1782836326904742000,6.000741943359375,-0.07578384751975537,0.0029830846311291676,0.0030234577407129105
1782836326914671900,6.010671875,-0.07608195368349552,0.007811882181445253,-0.0033111155756749213
1782836326924600800,6.020600830078125,-0.08236673304140567,0.0071494539128267205,0.00731317255757749
1782836326934531000,6.030531005859375,-0.06889876418113708,0.00849379032702418,0.008469831779412925
1782836326944460000,6.0404599609375,-0.07458616216778755,-0.0037823321211297297,-0.0010510616892017424
1782836326954389800,6.0503896484375,-0.08326514318585396,-0.000740913461218588,-0.0028306933812797066
1782836326964320000,6.060320068359375,-0.07099427515566349,0.00460742643843987,-0.0031607838521711526
1782836326974249000,6.0702490234375,-0.07144318796694278,0.00039669285863055845,0.007297627928573637
1782836326984178700,6.0801787109375,-0.07473463072776794,0.00774266599904513,0.005477006638981401
1782836326994108000,6.09010791015625,-0.07054536234438419,0.005821269482409116,0.0007256108608096837
1782836327004038000,6.100037841796875,-0.07907236767113208,0.005583427297166781,-0.0031549751658923922
1782836327013966800,6.109966796875,-0.07143968083560466,0.004015458744525677,0.003845880039501935
1782836327023896800,6.119896728515625,-0.08490823421776295,-0.0008076791040948592,0.012260565831884741
1782836327033825800,6.12982568359375,-0.08550795367658137,-0.0026833647531486348,0.005146989233326167
1782836327043755800,6.139755859375,-0.08117021673321724,0.006247436743162689,-0.005083787804003805
1782836327053685000,6.14968505859375,-0.07743044568300246,0.01013763027760433,0.0018336634342558682
1782836327063614700,6.15961474609375,-0.08551204532980919,0.002626900166933774,-0.007360610162187367
1782836327073543700,6.169543701171875,-0.06755904000997542,-0.0018716556446190223,0.0029628135946579274
1782836327083474000,6.179473876953125,-0.08342121053040027,0.0011385390432551502,-0.005227470591012388
1782836327093404000,6.18940380859375,-0.07384206580221653,0.006927428067935397,-0.003559829639736563
1782836327103333000,6.1993330078125,-0.0810235017389059,0.009517511347329127,-0.0015127061178907752
1782836327113262800,6.209262939453125,-0.07413900292217732,0.007034181515438831,0.009645378364808856
1782836327123191800,6.21919189453125,-0.07892682172060013,0.004198463186703157,0.009478972289338708
1782836327133122000,6.2291220703125,-0.08656067759990692,-0.0015194943349924868,0.006598612813744693
1782836327143051000,6.239051025390625,-0.07160042435526848,-0.00120706396002206,0.0021372312244027853
1782836327152980700,6.248980712890625,-0.08237550086975097,0.0013773967211163835,0.008186466527078301
1782836327162910000,6.258909912109375,-0.08686755159199237,0.004741839644426363,-0.0054426477116532625
1782836327172840000,6.26883984375,-0.0834247176617384,0.006101621935394359,-0.00010932385968044399
1782836327182769000,6.278768798828125,-0.08746434844136237,0.002792532778379973,-0.002986066606082022
1782836327192699000,6.288698974609375,-0.0763876586318016,0.0035402527230093254,0.002685092631820589
1782836327202627800,6.2986279296875,-0.08102934695780277,-0.0031308236803917677,0.0056666109269484875
1782836327212557800,6.308557861328125,-0.08207739470601082,-0.007147339587553869,0.004188811725657433
1782836327222487000,6.318487060546875,-0.08656769186258316,-0.0010201682231941959,-0.0066661798909306525
1782836327232416800,6.328416748046875,-0.07324702251851559,0.006775953558471519,0.0036593992903828617
1782836327242345700,6.338345703125,-0.08327332649230956,0.0036767796834465114,0.002631955938786268
1782836327252276000,6.34827587890625,-0.0832721574485302,0.010713653767004143,-0.0002785794793628156
1782836327262206000,6.3582060546875,-0.0765355426698923,0.007178328951683943,-0.010419705471862106
1782836327272134700,6.368134765625,-0.0727934335321188,0.0052207445935258875,-0.005558693573065101
1782836327282065000,6.37806494140625,-0.07234568976461887,0.005572553135058843,-0.0014617248493246733
1782836327291993900,6.387993896484375,-0.07803133418560028,-0.000684422046362306,-0.008384381985664368
1782836327301924000,6.397924072265625,-0.07758125233054161,0.0032027330017328492,0.0001004646997898817
1782836327311853000,6.40785302734375,-0.07803074966371058,-0.0016486445606831693,0.0019250497784465551
1782836327321782800,6.41778271484375,-0.07713233951926231,0.0065257165408926085,-0.003787263453751802
1782836327331711500,6.42771142578125,-0.0766793350547552,0.005266229415533598,0.004997643890511244
1782836327341641700,6.437641845703125,-0.08101824104189873,-0.005547118441347265,0.007796225100476294
1782836327351570700,6.44757080078125,-0.07847557082176208,0.0010826344335771864,-0.0012743673173710704
1782836327361500700,6.457500732421875,-0.0774292766392231,0.00409922118797549,0.0068532451619394115
1782836327371429600,6.4674296875,-0.07892623719871043,0.00038614577761909456,-0.0017795586268417535
1782836327381359600,6.477359619140625,-0.07264438045024871,0.002857861661884817,-0.000878372003417462
1782836327391289600,6.48728955078125,-0.07713409308493137,0.0007410498877143254,-0.00024162673614919184
1782836327401218600,6.497218505859375,-0.08297054415345191,0.006897897154418751,-0.0011229396153241396
1782836327411148500,6.5071484375,-0.08012742968201637,-0.001152485941039049,-0.005318601206876337
1782836327421077800,6.517077880859375,-0.08252163134217262,0.0071628756542253535,-0.005922229655832052
1782836327431007700,6.5270078125,-0.09254559722840786,0.00044752400096913334,-0.0003140891841612756
1782836327440936400,6.5369365234375,-0.08581015149354934,0.002443423654831713,-0.001608202381618321
1782836327450866700,6.54686669921875,-0.08266717729270458,0.006757452070689759,0.002245897496957332
1782836327460795600,6.556795654296875,-0.07458733121156692,0.000499875242714188,-0.00011294058887287974
1782836327470725600,6.5667255859375,-0.07458674668967723,0.005664854507168638,0.0009271613148972392
1782836327480654600,6.576654541015625,-0.0817681826263666,0.00036738399493333417,0.008926379907876253
1782836327490584600,6.58658447265625,-0.0852104320347309,0.0026614862814807565,0.006583561375085264
1782836327500513500,6.596513427734375,-0.08206862687766552,0.0008915716949966736,-0.0028235329881310463
1782836327510443800,6.60644384765625,-0.08341302722394466,0.00097893545544066,0.005598970784526318
1782836327520372700,6.616372802734375,-0.08774901060163974,0.0034542960391845553,-0.0007335384389385581
1782836327530302500,6.626302490234375,-0.07278232761621475,0.005738253674341831,-0.004903298404254019
1782836327540232700,6.636232666015625,-0.07338087803125382,0.01652276473745005,-0.005346110268309712
1782836327550161700,6.64616162109375,-0.07188508651554584,0.0063353673300094665,-0.004883552524168044
1782836327560091600,6.656091552734375,-0.08176116836369036,0.007949207722081337,0.005151446212735027
1782836327570020600,6.6660205078125,-0.06515022530257701,0.005021440324629657,0.0037598457238636907
1782836327579950600,6.67595068359375,-0.0819078833580017,0.0022290148608153683,-0.0009640957918018102
1782836327589879800,6.6858798828125,-0.07607026324570179,-0.0020577927587990415,0.0026662235345691443
1782836327599809500,6.6958095703125,-0.06724398271143436,0.003112180057892692,0.002355330954492092
1782836327609738500,6.705738525390625,-0.07816928135156631,0.0039033213024289577,-0.000703435561619699
1782836327619668700,6.715668701171875,-0.07832008799910545,0.009780156326154246,0.006668755440507084
1782836327629597700,6.72559765625,-0.07562661113142967,0.0059229152132436865,-0.0040900275263004
1782836327639527700,6.735527587890625,-0.08655074072778224,0.0006331662123382557,-0.0012104717683047055
1782836327649456600,6.74545654296875,-0.07952011143863201,-0.0049014289616869065,-0.009617978901229798
1782836327659386600,6.75538671875,-0.08386135551333426,0.003129792204752448,-0.0019041531208902596
1782836327669315600,6.765315673828125,-0.07997253138124942,0.004831591724778991,-0.0010843794369138776
1782836327679245800,6.775245849609375,-0.07009528048932552,0.004311686903366353,0.0003708243400789797
1782836327689175600,6.785175537109375,-0.08700608327984809,0.002076503738312749,-0.00016488997181877493
1782836327699104500,6.7951044921875,-0.07847557082176208,0.003368976963710156,-0.0015551387538202106
1782836327709034800,6.80503466796875,-0.08086801891624927,0.00025311453207687006,0.011507500708568841
1782836327718963700,6.814963623046875,-0.08191431309878826,0.0002750717772025382,-0.005887158342450857
1782836327728893400,6.8248935546875,-0.08311199845075606,0.0069871354948292715,-0.001385517807956785
1782836327738822700,6.83482275390625,-0.08490823421776295,0.01210051186538767,0.009134889825712889
1782836327748752600,6.844752685546875,-0.08625497265160083,-0.0004131542280199937,-0.00402171153044328
1782836327758681600,6.854681640625,-0.07473404620587826,0.003844595118824509,-0.0044368682025931775
1782836327768611600,6.864611572265625,-0.07952128048241137,-0.0014812298424600157,0.005384871376119553
1782836327778540500,6.87454052734375,-0.07338496968448162,-0.0015152822382893645,-0.0034991306947544216
1782836327788470800,6.884470703125,-0.07263561262190342,0.005321358848721138,0.002286667898762971
1782836327798399700,6.894399658203125,-0.077123571690917,0.006327681780475541,0.009261420548520981
1782836327808329500,6.90432958984375,-0.08101531843245029,0.0003337648531218292,0.002133632761519402
1782836327818258400,6.914258544921875,-0.08490472708642482,0.00655434726786625,0.003118479080405086
1782836327828188700,6.924188720703125,-0.07787409779727458,0.0032394140335993142,-0.006346537748817354
1782836327838118700,6.93411865234375,-0.0772761319041252,0.007115289635854423,-0.0016626177162863314
1782836327848047600,6.944047607421875,-0.07862345485985278,0.007064026951964479,-0.005675981543492525
1782836327857977600,6.9539775390625,-0.06575403641462325,0.006754308553066221,-0.0028729981530457734
1782836327867906600,6.963906494140625,-0.08341010461449623,0.004213612806773744,0.000053228024579584596
1782836327877836800,6.9738369140625,-0.08161328432559967,0.0012434373187454183,0.003155103030055761
1782836327887765800,6.983765869140625,-0.08251286351382732,0.006124893783949664,0.0009824168997816741
1782836327897695500,6.993695556640625,-0.06994505836367607,-0.0002698367671924643,-0.003561911998968571
1782836327907624700,7.003624755859375,-0.07937164287865162,0.010740411626477726,0.00031202509123831986
1782836327917554700,7.0135546875,-0.0798205556899309,0.002336439595176489,0.0025459581557661292
1782836327927483600,7.023483642578125,-0.07009294240176678,0.005692761431646067,-0.0022911066118627785
1782836327937413600,7.03341357421875,-0.08026479232609271,0.006094632788893068,-0.0014195479417219757
1782836327947342600,7.043342529296875,-0.07772153758406639,0.002370557064731838,0.002332899926975369
1782836327957272600,7.0532724609375,-0.0759258863389492,0.00632732102087175,0.005629438988026231
1782836327967202600,7.06320263671875,-0.08056406753361224,0.006071414597620605,0.003653627136722207
1782836327977131500,7.073131591796875,-0.07562544208765029,0.0018512053699902024,-0.0025127865385264157
1782836327987061800,7.083061767578125,-0.08206044357120991,0.00615970708571549,-0.0056183513384312385
1782836327996990700,7.09299072265625,-0.07592705538272858,0.002887204774911515,-0.005071476311702281
1782836328006920700,7.102920654296875,-0.07323416303694248,0.00780741778134834,0.004240797641221434
1782836328016849400,7.112849365234375,-0.07248480597436428,0.008345957662927684,0.010010942007880658
1782836328026779600,7.122779541015625,-0.07188742460310459,0.005014806229510577,0.006328947293199599
1782836328036708600,7.13270849609375,-0.08026654589176177,0.0021632961057766807,0.0014923026506789027
1782836328046638800,7.142638916015625,-0.08116495603621006,-0.0005954348677012604,-0.0029727322004735467
1782836328056567600,7.152567626953125,-0.07487900763452053,0.005927700986215495,0.002235193439852446
1782836328066497500,7.16249755859375,-0.08041618349552154,0.0008258974640863015,-0.0017776223980821668
1782836328076426800,7.1724267578125,-0.08595511292219161,0.007813610630939365,-0.0007771401186473667
1782836328086356700,7.182356689453125,-0.07951952691674231,0.0025563990638562246,-0.001120857256092131
1782836328096285700,7.19228564453125,-0.0790671069741249,0.004731484359659953,-0.0035610900150611995
1782836328106215700,7.202215576171875,-0.0693383246421814,0.008488319567462894,-0.004255684683099389
1782836328116144600,7.21214453125,-0.0667939008563757,0.005060918955891975,-0.001453614608105272
1782836328126074600,7.22207470703125,-0.07382920632064342,0.0005819874393055215,-0.0011682583280839026
1782836328136004600,7.232004638671875,-0.08041559897363186,0.0076840927957789965,0.0019167020752094686
1782836328145933600,7.24193359375,-0.08101414938867092,0.009531979976565344,0.0019445581965148449
1782836328155863600,7.251863525390625,-0.07023848835229873,-0.004706831692304694,-0.0015937719974666834
1782836328165792800,7.261792724609375,-0.07862053225040436,0.0048625788056204326,-0.004324366005137563
1782836328175722500,7.271722412109375,-0.08251169447004794,0.0027879507889185333,0.00423537254743278
1782836328185651500,7.2816513671875,-0.07862170129418372,0.0032689152643637495,0.001880406919121742
1782836328195581700,7.291581787109375,-0.07338496968448162,0.010788865294528658,-0.006483462001476437
1782836328205510700,7.3015107421875,-0.0844610749721527,0.008516979977188747,-0.005274780331458896
1782836328215440600,7.311440673828125,-0.07458674668967723,-0.00037830039788095744,-0.002368044305592775
1782836328225369600,7.32136962890625,-0.07623392937481403,-0.0014937177188083296,0.003968921897280961
1782836328235299600,7.331299560546875,-0.07593523868918418,0.003129554171912605,0.0023594591403380033
1782836328245228500,7.341228515625,-0.08670914615988731,0.007169550277717644,0.0029640009047463534
1782836328255158800,7.35115869140625,-0.07249357380270957,0.004380127909276052,0.0010307678198441862
1782836328265087500,7.36108740234375,-0.08371756312847137,0.0006191102875221986,0.00003108925800770521
1782836328275017700,7.371017822265625,-0.07967676330506801,0.0012216079377831192,0.006133680449426174
1782836328284947700,7.38094775390625,-0.08177110523581504,0.006247261500760214,-0.006915971667226403
1782836328294876700,7.390876708984375,-0.07967442521750927,-0.0010226273250504164,0.00033681247262284155
1782836328304806700,7.400806640625,-0.08296352989077567,0.002784332347259624,-0.0014749313907697797
1782836328314735600,7.410735595703125,-0.07518354353904724,0.01027534226484131,0.005628050748538225
1782836328324665600,7.42066552734375,-0.07742752307355404,0.012777785505866631,-0.002636723445449024
1782836328334595800,7.430595947265625,-0.07114215919375419,0.0027290579252439782,0.0018368783046491444
1782836328344525800,7.44052587890625,-0.0772767164260149,-0.004513033573943539,0.0025568266096524894
1782836328354455000,7.450455078125,-0.07997194685935974,0.0007120863714226288,0.009837777398061007
1782836328364384800,7.460384765625,-0.07937398096621036,0.012263819518184754,0.013598591236304492
1782836328374313700,7.470313720703125,-0.06979775884747505,-0.005447447184356861,-0.0008959076601080596
1782836328384244000,7.480243896484375,-0.0762310067653656,0.0003058727700205054,-0.001550389513466507
1782836328394173000,7.4901728515625,-0.08296177632510661,0.0030055379207100485,0.006394358945917338
1782836328404103000,7.50010302734375,-0.07488251476585865,-0.003261700643110089,0.0011962605798617005
1782836328414032000,7.510031982421875,-0.07892039197981357,-0.0024337042659492,0.0001780782469548285
1782836328423961900,7.5199619140625,-0.08236322591006755,0.00368864193870977,0.0017562690827995539
1782836328433891800,7.529891845703125,-0.08475684304833411,0.002426311548182275,0.006647420391533524
1782836328443821000,7.539821044921875,-0.07577975586652755,0.009157692458454403,-0.0006235569921322167
1782836328453750800,7.549750732421875,-0.08326105153262614,0.0018980284845471031,-0.007231741351820528
1782836328463679700,7.5596796875,-0.08026596136987209,0.004383679279331408,0.004493420695420355
1782836328473610000,7.56960986328125,-0.0804132608860731,0.002919970252185885,0.0003160071466118097
1782836328483539000,7.5795390625,-0.08355565056502819,0.0004148204578988952,-0.0038773894226178524
1782836328493469000,7.589468994140625,-0.0811626179486513,0.00518645016910159,-0.0027640944184735418
1782836328503398000,7.59939794921875,-0.08191022144556045,0.003744031666801311,0.00304910363862291
1782836328513327900,7.609327880859375,-0.07652326771020888,0.0032565464044353575,-0.0033834136269055306
1782836328523256800,7.6192568359375,-0.07443067934513091,0.0028925976172482475,-0.0064182330118492245
1782836328533186800,7.629186767578125,-0.07502864523828029,-0.007294104814215097,0.0000013699731789529323
1782836328543115800,7.63911572265625,-0.08490648065209389,0.006201093975451658,0.0006797258924692869
1782836328553046000,7.6490458984375,-0.0807183813124895,0.007253052426263457,-0.0019253420393913984
1782836328562975000,7.65897509765625,-0.08341185818016529,0.002825807429019187,-0.0010349325383082033
1782836328572904700,7.66890478515625,-0.0775771606773138,0.0007258337668623426,-0.004256652797479182
1782836328582835000,7.6788349609375,-0.07772855184674263,-0.006006719326711027,0.00045110476836562153
1782836328592764000,7.688763916015625,-0.07757891424298285,0.007288277861627284,0.0048063591021113095
1782836328602694000,7.69869384765625,-0.08521160107851028,-0.004969123903036234,0.009203205821570009
1782836328612623000,7.708623046875,-0.07937573453187942,0.0027048970211777487,0.0017163571975193916
1782836328622552800,7.718552734375,-0.08251695516705512,0.0026645236261829265,-0.0019086466329172253
1782836328632481800,7.728481689453125,-0.08879998095929623,0.004546557388454675,-0.006636095279920846
1782836328642412000,7.738412109375,-0.08087035700380801,0.0032222779524192446,0.00013794716596603394
1782836328652341000,7.748341064453125,-0.07563070278465747,0.0024109378804147126,-0.0010243380790576338
1782836328662270700,7.758270751953125,-0.07802490444481372,0.0028819572068139675,0.0024125958333723247
1782836328672200000,7.768199951171875,-0.08805120841860771,0.0030688127006797,0.005288735791575163
1782836328682130000,7.7781298828125,-0.08370996434390544,0.003294604830168828,-0.0018242745514027772
1782836328692059000,7.788058837890625,-0.08535363989770411,0.005502883149043191,-0.0007591112716123461
1782836328701988900,7.79798876953125,-0.08969488397240638,0.005381803777843015,-0.008578406720422208
1782836328711917800,7.807917724609375,-0.07428104174137115,-0.004095937533512188,-0.0016042020599357782
1782836328721847800,7.817847900390625,-0.07427987269759177,0.001327106147361337,-0.0006109715051949024
1782836328731777000,7.827777099609375,-0.06979191362857819,0.0039003219174002877,0.0001835581396706402
1782836328741706800,7.837706787109375,-0.07068740116357802,-0.0012802122508568572,0.006642360623925924
1782836328751637000,7.847636962890625,-0.07682254291772841,0.001551011424207536,-0.0009937785440124571
1782836328761566000,7.85756591796875,-0.07801964374780654,0.0047475658469033075,0.005141217079665511
1782836328771496000,7.867495849609375,-0.07113456040918827,0.005349165308498777,0.0038813714779913425
1782836328781425000,7.8774248046875,-0.07846797203719616,0.006946080252766842,-0.006855163124389946
1782836328791355000,7.88735498046875,-0.0846054518789053,0.0033070875691177206,0.0011976305530406533
1782836328801283800,7.897283935546875,-0.07847089464664458,0.0017365931284279213,0.00003892550459131598
1782836328811214000,7.907214111328125,-0.08086100465357303,0.004150569209778041,0.002818820280395448
1782836328821142800,7.917142822265625,-0.07771686140894889,0.0006935560571218957,-0.0008413279286585747
1782836328831072800,7.92707275390625,-0.0841518628925085,-0.0003969642845666385,-0.006804035725351423
1782836328841002000,7.937001953125,-0.08130757937729358,-0.004018800337438006,0.005864946510642767
1782836328850932000,7.946931884765625,-0.08190496074855327,-0.002146658923162613,0.004606050757039338
1782836328860861000,7.95686083984375,-0.07771510784327984,-0.003024061670555966,0.0028087372777983546
1782836328870791000,7.966791015625,-0.0730763421267271,-0.0045847362576634625,0.00010377090172842144
1782836328880721000,7.976720947265625,-0.08789163394272327,-0.006890177355555352,-0.007316880618315189
1782836328890649900,7.98664990234375,-0.07771569236516952,-0.0005523783231532434,0.001046732573956251
1782836328900579800,7.996579833984375,-0.07352817754745483,0.0045847188475876465,0.004608005252107978
1782836328910508800,8.0065087890625,-0.07322948686182498,0.003005541631054075,0.004018715855758637
1782836328920439000,8.01643896484375,-0.07592354825139046,0.0025758395540877244,0.0027184834447689355
1782836328930368000,8.026367919921874,-0.07981354142725468,0.004382686048776668,0.005684950301237404
1782836328940297700,8.036297607421876,-0.08086042013168335,0.0032738722839829276,-0.00019669161587953566
1782836328950226700,8.046226806640625,-0.07592296372950076,0.0029087615882934185,-0.0016714220772497356
1782836328960157000,8.056156982421875,-0.06874328135848044,0.007568630314612528,-0.001503280702419579
1782836328970086000,8.0660859375,-0.08744739730656147,-0.0018755086941848276,0.008773235172778367
1782836328980015900,8.076015869140624,-0.08804536319971085,-0.0031660628154873845,0.008742931366059928
1782836328989944800,8.08594482421875,-0.08400456337630748,0.0004625939913486945,0.0015370185752399265
1782836328999874800,8.095874755859375,-0.06918927156031131,-0.00345136857774778,-0.0024063304893672463
1782836329009803800,8.1058037109375,-0.08310556870996952,-0.0010529588166435131,0.0002852649484761059
1782836329019734000,8.115734130859375,-0.07786766805648804,0.003945672596200893,-0.0033174905175343155
1782836329029662700,8.125662841796874,-0.08236030330061912,-0.003408250669817789,0.005509228408150374
1782836329039593000,8.135593017578126,-0.08221183474063873,0.002122630449837015,0.003495806226506829
1782836329049523000,8.14552294921875,-0.08625380360782146,0.0002367513440985931,-0.007956585027649999
1782836329059452000,8.155451904296875,-0.08490706517398357,0.001290088615832792,0.00281788869863376
1782836329069382000,8.1653818359375,-0.07114157467186451,0.0010504452012712136,-0.0009979067298583686
1782836329079310800,8.175310791015624,-0.07548398779034614,0.0036621572176387413,-0.007009531702194363
1782836329089240800,8.18524072265625,-0.08581132053732872,0.004930466684859129,-0.00045400911150500175
1782836329099170000,8.195170166015625,-0.07504092019796371,0.005478229340043617,0.0034513460302725433
1782836329109099800,8.205099853515625,-0.07324526895284653,0.0018166483673732726,-0.0011714366658590733
1782836329119028700,8.21502880859375,-0.07758242137432098,-0.0009064744344839709,0.004239811260532587
1782836329128959000,8.224958984375,-0.08461305066347122,0.000019373989450104998,-0.008134023953787982
1782836329138888000,8.234887939453126,-0.08072130392193794,-0.0017798543127195443,-0.004468505449872463
1782836329148817700,8.244817626953125,-0.07308744804263115,0.004322077293695474,-0.0014231646709144115
1782836329158747000,8.254746826171875,-0.07862403938174248,0.0019069926757147185,0.0029058775093406437
1782836329168676900,8.2646767578125,-0.08341302722394466,-0.004231635945587186,0.004427935977466404
1782836329178605800,8.274605712890626,-0.0804220287144184,-0.0010843100820216933,0.0007976531837135553
1782836329188535800,8.284535888671876,-0.0825181242108345,-0.005461690909662866,0.004590597459580749
1782836329198465800,8.2944658203125,-0.07877893768250942,-0.003983169047519913,-0.002211045379284769
1782836329208395000,8.30439501953125,-0.07398994984030723,0.004079084580122435,-0.0015011983431875704
1782836329218325000,8.314324951171875,-0.0720434919476509,-0.002105691873123578,0.00023722455566748974
1782836329228254000,8.32425390625,-0.07713117047548293,0.005915475688059814,-0.007227357437647879
1782836329238184000,8.334183837890626,-0.07698270191550255,0.012159559992689173,-0.007635737309139221
1782836329248113000,8.34411279296875,-0.09613748424053191,0.0008650104837564867,0.003049268035404384
1782836329258043000,8.35404296875,-0.08925356994569301,0.0007279044242401141,-0.006252046132087707
1782836329267972000,8.36397216796875,-0.08850304383933544,0.008498769608707516,-0.0032112719303928313
1782836329277901800,8.37390185546875,-0.07384148128032685,0.0013554343385912943,-0.0008335830136202275
1782836329287830800,8.383830810546876,-0.07189969956278801,0.0011751432995413778,0.002776862568501383
1782836329297761000,8.393760986328125,-0.08372165478169917,0.0015967311395332217,-0.0033344233860261737
1782836329307690000,8.40368994140625,-0.07848667673766613,-0.004035007120145019,0.000978562708571553
1782836329317619700,8.41361962890625,-0.08252981464862823,-0.0038497850338841087,0.004851202890835702
1782836329327549000,8.423548828125,-0.07879062812030314,0.0035659691174558246,0.000761358027625829
1782836329337478100,8.43347802734375,-0.076095982208848,-0.0016893418972525978,0.0018963351406157017
1782836329347407400,8.443407470703125,-0.08058569484353065,-0.000026559213362634182,0.005224657579418272
1782836329357337300,8.45333740234375,-0.08492284726500511,0.0016454559481091564,0.005694138254690915
1782836329367267300,8.463267333984374,-0.08088321648538112,-0.0025971146667347054,0.002146126916911453
1782836329377196300,8.4731962890625,-0.08327917171120643,-0.007551964590890565,0.006856660961732268
1782836329387126300,8.483126220703125,-0.08118366073668003,0.008595311047806172,0.006693542821891605
1782836329397055200,8.49305517578125,-0.08791793742775916,0.009444163554150144,0.0046259062349796294
1782836329406985200,8.502985107421875,-0.0789414347678423,0.008437324028342845,0.0024665545103140173
1782836329416914200,8.5129140625,-0.07849486004412173,0.008734118442764156,0.004508088541589677
1782836329426844400,8.522844482421876,-0.08223696918189526,0.00356601649569493,0.0029281624063849446
1782836329436773400,8.5327734375,-0.08732640127539634,-0.0020628231290655092,0.001679459253232926
1782836329446703000,8.542703125,-0.07670446949601173,0.005314243550522951,-0.00001883256463333964
1782836329456632300,8.55263232421875,-0.08164192589819431,0.0033002217202025346,0.0032559695886448022
1782836329466562300,8.562562255859374,-0.08373743687272071,0.0005315718554978957,0.0041712760689668355
1782836329476491300,8.5724912109375,-0.07490940277278423,-0.0029715457466183578,0.001968815854936838
1782836329486421200,8.582421142578125,-0.08074643836319446,-0.007728832694870652,-0.00006751227825880051
1782836329496350200,8.59235009765625,-0.09181845199763775,0.0008008152530572261,0.0006337130599655211
1782836329506280200,8.6022802734375,-0.0790980866342783,0.00203344234177639,0.00879701790716499
1782836329516210400,8.61221044921875,-0.08508534435033797,0.0034182023833185665,0.009465309090167283
1782836329526139100,8.62213916015625,-0.08732873936295509,0.00844000689248496,0.0059773025776259595
1782836329536069000,8.632069091796875,-0.07640402524471282,-0.000496575890641543,0.0023308906329795715
1782836329545998300,8.641998291015625,-0.0693728114336729,-0.0049229695066373095,0.001814173282496631
1782836329555928300,8.65192822265625,-0.07236731707453728,0.007286948416821541,-0.004236194531340152
1782836329565857300,8.661857177734374,-0.0737123019427061,0.0012896108376866321,-0.0010215798663906752
1782836329575787300,8.671787353515626,-0.08463584701716899,0.001704766653603292,0.008689703341480344
1782836329585716200,8.68171630859375,-0.07880173403620719,0.008550506645810673,0.004897179190721363
1782836329595646200,8.691646240234375,-0.08239303652644157,0.0005594910526517196,0.0004154306667856872
1782836329605575400,8.701575439453125,-0.07536123819351195,-0.009270656451035756,0.011989018881507217
1782836329615505200,8.711505126953124,-0.07985270439386367,0.0018162679144050342,-0.000632909342367202
1782836329625434000,8.72143408203125,-0.07850771952569484,0.003917377227245015,-0.00067245590146631
1782836329635364400,8.7313642578125,-0.07371931620538234,0.004134879306535003,0.002745882908347994
1782836329645293300,8.741293212890625,-0.07820552170872688,0.004393309049135132,-0.0030579445322044194
1782836329655223300,8.751223388671875,-0.08284311838150024,0.0024237262946291594,0.005695599559415131
1782836329665152300,8.76115234375,-0.09032207596004009,-0.002255556949513266,0.000910849500913173
1782836329675082200,8.771082275390626,-0.06922375835180282,-0.001329851516529743,0.008567611331772059
1782836329685012200,8.78101220703125,-0.08448270228207111,-0.004278036937158322,0.0019348222537897526
1782836329694941200,8.790941162109375,-0.09106500328183173,0.0030231880272433044,-0.0035195889608934518
1782836329704871200,8.80087109375,-0.08043897984921931,0.009627535605797311,0.0016144311930052935
1782836329714800400,8.81080029296875,-0.0775987879872322,0.0004434979922894854,0.0030967056400142607
1782836329724730400,8.82073046875,-0.07445581378638744,0.008765594147372758,0.006655256638117134
1782836329734659000,8.8306591796875,-0.08298632624447345,0.004524568177288165,0.011355488484632224
1782836329744589300,8.84058935546875,-0.0808884771823883,0.0015265434178203575,-0.005225881422124803
1782836329754518300,8.850518310546875,-0.0728057084918022,-0.0009231293125849333,-0.001008738651126623
1782836329764448300,8.8604482421875,-0.08043839532732963,-0.004205088434078789,0.00010366130387410521
1782836329774377500,8.87037744140625,-0.08552607385516166,-0.005883874402576475,0.01057155329901725
1782836329784307200,8.88030712890625,-0.08058627936542034,0.0036045566953296655,0.005992774141393602
1782836329794236200,8.890236083984375,-0.07400164027810097,0.0014492486748305963,-0.00676249813856557
1782836329804166400,8.90016650390625,-0.07265490184426307,-0.0009596813386437133,-0.00045841129198670384
1782836329814095400,8.910095458984374,-0.07833937722146511,0.002323464807527489,-0.007874222240131347
1782836329824025000,8.920025146484376,-0.07085749703347682,0.004131293972561252,-0.005348028230760246
1782836329833954300,8.929954345703125,-0.07953706257343292,0.008822957207664149,0.004725695081334561
1782836329843884300,8.93988427734375,-0.07654489502012729,0.0012539096220541977,0.007285371235199272
1782836329853814300,8.949814208984375,-0.07759235824644566,0.002699620626561227,0.010274689244292676
1782836329863743200,8.9597431640625,-0.08297931198179721,0.0011760837290465133,0.00011686784531921147
1782836329873673200,8.969673095703126,-0.06607260084450245,0.0033423866405399164,-0.0017231157318688929
1782836329883602200,8.979602294921875,-0.08507540747821331,-0.005390167464100522,-0.00027715470725670453
1782836329893532200,8.9895322265625,-0.08492518535256385,0.0059941715140361335,-0.00045912367803975935
1782836329903461000,8.999461181640624,-0.08043488819599151,0.0016299701137875672,0.005902666438836604
1782836329913391400,9.009391357421874,-0.07594225295186043,-0.007352704846122651,0.002587769737187773
1782836329923320300,9.0193203125,-0.08297814293801783,-0.0007524098194786347,0.0006365260715596378
1782836329933250300,9.029250244140625,-0.07624445076882838,0.00593009101859061,-0.005341854218300432
1782836329943179300,9.03917919921875,-0.07429974644184112,0.0011735872383389504,0.0033773126796819266
1782836329953109200,9.049109130859375,-0.0753460406243801,-0.00809418798785482,0.004075451011676341
1782836329963038200,9.0590380859375,-0.07773790419697761,0.00003217039517476223,0.005454575611464679
1782836329972968400,9.068968505859376,-0.07818564796447754,0.009128943000471918,-0.00044325025547295807
1782836329982897400,9.0788974609375,-0.07295066992044448,0.0030886844470514913,-0.007976477038208394
1782836329992827100,9.0888271484375,-0.07713993830382823,0.0034831111417151987,0.013105547022353857
1782836330002757400,9.09875732421875,-0.07983575325906277,-0.0005950418566455483,0.00003971095588058233
1782836330012686300,9.108686279296874,-0.08028583511412143,0.0038043056346868977,-0.005566475020721554
1782836330022616000,9.118615966796876,-0.08612228618264198,0.0038652631621065663,0.0007371917007490993
1782836330032545300,9.128545166015625,-0.07025894661843776,0.005133625144965481,0.0010981157013215124
1782836330042475300,9.138475341796875,-0.08492401630878448,0.006361984196410048,-0.0006634323447942734
1782836330052404200,9.148404296875,-0.09045885408222674,-0.003422314586144057,0.006427000840194523
1782836330062334200,9.158334228515624,-0.08357435526549815,0.00010596656915877246,-0.003361548854969442
1782836330072263200,9.16826318359375,-0.07309972300231456,-0.007320862102866522,-0.0020147921548224986
1782836330082193400,9.178193359375,-0.07504734993875026,0.0028721165182229013,0.0015410371632315217
1782836330092122400,9.188122314453125,-0.08118073812723159,0.004115501892151951,-0.001972176855802536
1782836330102052000,9.198052001953124,-0.08342354861795902,0.0017348133049395983,0.0015311733563430606
1782836330111981000,9.20798095703125,-0.07339373751282692,-0.0038734310563639154,-0.0018135339616797864
1782836330121911300,9.217911376953126,-0.07653904980123043,-0.003992152932051976,0.0020640015914104876
1782836330131840300,9.22784033203125,-0.07279518709778786,-0.00039605981685745064,0.002227813850995153
1782836330141770200,9.237770263671875,-0.06202127962708473,0.0008682613159457105,-0.006315192762482911
1782836330151699200,9.24769921875,-0.07698562452495097,-0.0028615300504825423,0.007348572664521634
1782836330161629200,9.257629150390626,-0.07952829474508762,-0.003893565380928339,0.008784962143190205
1782836330171558400,9.267558349609375,-0.07892974433004855,-0.002403118187673681,0.005782017467543483
1782836330181488400,9.27748828125,-0.07129822653830051,-0.0028214800262401692,-0.007227941959537566
1782836330191418000,9.287418212890625,-0.07383972771465779,0.001321938779776974,-0.00539274415532127
1782836330201347300,9.297347412109374,-0.0787795222043991,-0.004270226092160738,-0.0012750979697331785
1782836330211277300,9.30727734375,-0.080126260638237,0.007059784601686988,0.0009813757201656698
1782836330221205200,9.317205322265625,-0.07503624402284621,-0.002749943451768195,-0.00841612883079797
1782836330231134200,9.32713427734375,-0.07473404620587826,0.006960756090446375,0.0000915872735902667
1782836330241064200,9.337064208984375,-0.06515723956525325,0.003628036893972603,0.0007060841764323413
1782836330250994200,9.346994140625,-0.07577975586652755,0.0020451738787654905,-0.006556052313651889
1782836330260923100,9.356923095703126,-0.07533142757713794,-0.003362528385792393,-0.002034063110873103
1782836330270853400,9.366853271484375,-0.07308686352074145,0.005915902663033921,-0.00576654590377584
1782836330280782300,9.3767822265625,-0.0817681826263666,0.007312335732294013,0.00525245890179649
1782836330290712300,9.38671240234375,-0.0805704972743988,0.0017512158796467701,0.006416771707125008
1782836330300641300,9.396641357421874,-0.07548281874656677,-0.0007356990008061985,-0.004644574402831494
1782836330310571300,9.4065712890625,-0.07368482941389083,0.0039175821523997,-0.002056421073153615
1782836330320500500,9.41650048828125,-0.08086977248191833,-0.0023501204898348075,-0.007346325908508151
1782836330330430200,9.42643017578125,-0.07608487629294396,0.0025470016186707654,-0.009262900119554251
1782836330340363000,9.436363037109375,-0.0689022713124752,0.0008692887958299251,-0.01044294021697715
1782836330350293200,9.446293212890625,-0.07518705067038535,0.003041537676331063,-0.005973375321179628
1782836330360222200,9.45622216796875,-0.07907762836813927,0.004979891321400646,0.007052311397995799
1782836330370152200,9.466152099609374,-0.07548749492168426,0.0037912640608454237,0.005313450107723474
1782836330380081200,9.4760810546875,-0.08476794896423816,0.003348832078935811,0.0023268903112970292
1782836330390011100,9.48601123046875,-0.07294833183288574,-0.007285620113660116,-0.003575356002431363
1782836330399940400,9.4959404296875,-0.0774374599456787,-0.0009476983544940594,0.0070341364204883575
1782836330409870000,9.5058701171875,-0.0710065501153469,-0.00042383973340474765,0.013035002536792307
1782836330419799000,9.515799072265626,-0.07834229983091354,0.0004525321091714431,-0.002180887703038752
1782836330429729300,9.525729248046876,-0.07250877137184143,-0.00876115258016216,0.0034629451365210113
1782836330439659000,9.535658935546875,-0.08388415186703205,-0.003644553633111354,0.0007760806727223098
1782836330449588000,9.545587890625,-0.07714870613217353,-0.0019902174046917934,-0.0057489737144671375
1782836330459518200,9.555518310546875,-0.07266074706315993,-0.0020597441143458124,0.0031195750589482485
1782836330469447200,9.565447265625,-0.07056640513241291,-0.0009521521943810511,0.005695398630015552
1782836330479377200,9.575377197265626,-0.07370937933325768,0.0015350109937106026,-0.0006937361515127122
1782836330489306000,9.58530615234375,-0.0798474436968565,0.001544612222406431,0.0034705987200140953
1782836330499236000,9.595236083984375,-0.08688099559545516,-0.007724655418319162,0.006196827079821378
1782836330509165000,9.6051650390625,-0.07565759079158306,-0.00551121658172633,0.001985894853901118
1782836330519095300,9.61509521484375,-0.07760112607479094,0.001896423760755715,-0.0022951982650905845
1782836330529024000,9.62502392578125,-0.08059446267187595,0.0019869174817969907,-0.003913611513469368
1782836330538954000,9.6349541015625,-0.08119301308691501,-0.0030548478219978277,-0.0016585808619856833
1782836330548883200,9.64488330078125,-0.08448445584774017,-0.0025708400082177832,0.0020493885441683233
1782836330558813200,9.654813232421875,-0.07954758396744728,0.0018750343409716151,-0.0031413667656481265
1782836330568742100,9.6647421875,-0.07730418895483017,0.0008419983592830248,0.00006546645164489745
1782836330578672000,9.674672119140626,-0.08269348077774047,0.0036367393631808226,0.007814546208456159
1782836330588601000,9.68460107421875,-0.07790566197931766,0.004989743711845949,0.000950012467522174
1782836330598531300,9.69453125,-0.0864350053936243,0.00453010429598653,-0.005482596129551529
1782836330608460300,9.704460205078124,-0.0735644179046154,-0.0010418717378706786,-0.0016708010227419435
1782836330618390000,9.71439013671875,-0.07865268095433711,-0.0014782852563585038,0.0009100640496239066
1782836330628320300,9.7243203125,-0.07985036630630493,-0.000861623938599223,0.001382777861598879
1782836330638249200,9.734249267578125,-0.07910393185317516,-0.007404297465219861,-0.0010809088381938635
1782836330648179000,9.744178955078125,-0.07611293334364891,-0.008788178155227797,-0.0018979060431942342
1782836330658108200,9.754108154296874,-0.07805471506118775,0.004403676035755779,-0.0022243067196570337
1782836330668038100,9.7640380859375,-0.07835165218114852,0.0013903266992259886,0.0036718021142296492
1782836330677967000,9.773967041015625,-0.07086860294938087,0.0030358736934693294,0.007346453772671521
1782836330687897000,9.78389697265625,-0.07236380994319916,-0.0015733693864880478,0.0098205157360062
1782836330697826000,9.793825927734375,-0.08208908514380454,0.0003934169102663873,0.0022872706869617103
1782836330707756000,9.803756103515624,0.02434358313977718,0.00922037386879092,0.00026698037311434746
1782836330717685200,9.813685302734376,0.0951052185833454,0.015455976897798245,-0.024056509826704858
1782836330727615200,9.823615234375,0.5230804557740688,0.07231892962185665,-0.12843600844014436
1782836330737544000,9.8335439453125,1.041926634979248,0.15010316631174644,-0.23321184942740947
1782836330747474200,9.84347412109375,0.6800409497678279,0.1336255216409452,-0.1921157410650514
1782836330757403100,9.853403076171874,-1.9050187978088855,-0.031134777649864553,0.077756407968048
1782836330767333000,9.8633330078125,-2.6837399020373818,-0.4779646086426452,0.6787819626826792
1782836330777263000,9.87326318359375,-0.9912661228001117,-0.18805665666628626,0.1603970077810809
1782836330787192000,9.883192138671875,-0.867636236000061,-0.16856486093923448,0.24094160342924295
1782836330797122300,9.893122314453125,2.4994033253401517,0.27438058463456105,-0.49285771493520586
1782836330807051300,9.90305126953125,3.874267783465981,0.40354003024473784,-0.39648335319887845
