time,seconds_elapsed,z,y,x
1782836320956954000,0.0529541015625,-0.0009253723546862602,0.06249486654996872,0.0428643636405468
1782836320966883800,0.0628837890625,-0.0009386558085680008,-0.04672021418809891,-0.035072725266218185
1782836320976812800,0.072812744140625,-0.00037433207035064697,0.027967868372797966,0.02723832055926323
1782836320986743000,0.082742919921875,0.000195307657122612,-0.01568678580224514,-0.011865424923598766
1782836320996672000,0.092672119140625,0.00019743852317333221,0.01027850154787302,0.0054938578978180885
1782836321006601700,0.102601806640625,-0.000947834923863411,-0.009118640795350075,-0.00897185318171978
1782836321016532000,0.112531982421875,-0.0010008318349719048,0.00904944445937872,0.007402592338621616
1782836321026461000,0.1224609375,0.0015008607879281044,-0.008020274341106415,-0.006191146560013294
1782836321036391000,0.132390869140625,0.0004020407795906067,-0.000977279618382454,-0.0015407348982989788
1782836321046319900,0.14231982421875,-0.001097249798476696,0.0029138894751667976,0.0023500025272369385
1782836321056249900,0.152249755859375,0.00031369272619485855,0.0006358213722705841,-0.0030136038549244404
1782836321066179000,0.162178955078125,-0.0006192838773131371,0.0001459941267967224,-0.005028698593378067
1782836321076109000,0.172109130859375,-0.0007258104160428047,0.0021564140915870667,0.0008001625537872314
1782836321086037800,0.182037841796875,0.0022732270881533623,-0.002233436331152916,0.0012455545365810394
1782836321095968000,0.191968017578125,-0.0006317486986517906,0.00038764718919992447,0.002902040258049965
1782836321105897000,0.20189697265625,0.0002604098990559578,-0.003978339023888111,-0.004102339036762714
1782836321115827000,0.211826904296875,-0.000519895926117897,0.0038063470274209976,0.0041457368060946465
1782836321125756000,0.221755859375,-0.0019414694979786873,-0.002292812801897526,-0.0011421777307987213
1782836321135686000,0.231685791015625,-0.0012383954599499702,-0.002299737185239792,-0.0017706835642457008
1782836321145616000,0.241615966796875,-0.00011212378740310669,-0.0024004336446523666,0.0017617680132389069
1782836321155545000,0.251545166015625,0.00022529903799295425,-0.0021421071141958237,-0.002483310177922249
1782836321165474800,0.261474853515625,0.0018849093466997147,0.0024618972092866898,-0.0016879714094102383
1782836321175403800,0.27140380859375,-0.001097830943763256,0.0022778725251555443,-0.000011511147022247314
1782836321185334000,0.281333984375,0.0011711502447724342,0.0014953473582863808,0.0022033844143152237
1782836321195263000,0.291262939453125,0.0016260184347629547,0.003437325358390808,0.0013311998918652534
1782836321205193000,0.30119287109375,-0.0011426862329244614,-0.0019885217770934105,-0.003857868257910013
1782836321215122000,0.311121826171875,-0.0010417522862553596,0.0009777070954442024,0.0011022696271538734
1782836321225052000,0.321052001953125,-0.0005912268534302711,-0.0007306309416890144,-0.0025448291562497616
1782836321234980900,0.33098095703125,0.0003347545862197876,-0.0005279649049043655,-0.0038862633518874645
1782836321244910800,0.340910888671875,0.001327180303633213,0.002363939769566059,0.001564151607453823
1782836321254839800,0.35083984375,-0.0010835137218236923,-0.002865975722670555,-0.0017861053347587585
1782836321264770000,0.36077001953125,0.0016968268901109695,0.00002812221646308899,0.003751159645617008
1782836321274699000,0.370698974609375,-0.0003106631338596344,-0.003750104457139969,0.0018813535571098328
1782836321284629000,0.38062890625,-0.00022649765014648438,0.00003516394644975662,-0.0014361273497343063
1782836321294559000,0.39055908203125,0.002087523229420185,0.0011837854981422424,0.0022997548803687096
1782836321304488000,0.400488037109375,0.0006315736100077629,-0.0037036482244729996,-0.0009295940399169922
1782836321314418000,0.41041796875,0.0013929707929491997,-0.0009549995884299278,-0.00033357879146933556
1782836321324347100,0.42034716796875,-0.0002078954130411148,-0.003856491297483444,0.0007419800385832787
1782836321334276900,0.43027685546875,-0.001995142549276352,-0.0009802775457501411,-0.00019252346828579903
1782836321344206000,0.4402060546875,-0.0020993947982788086,0.0008856700733304024,-0.0005224603228271008
1782836321354136000,0.450135986328125,-0.00030362512916326523,0.0006513120606541634,0.00060991570353508
1782836321364065000,0.46006494140625,-0.0003286590799689293,0.001225489191710949,-0.0013459096662700176
1782836321373995000,0.4699951171875,0.0008045155555009842,-0.00111356470733881,0.000899667851626873
1782836321383924000,0.479924072265625,-0.002760002389550209,0.0020328229293227196,0.0026373518630862236
1782836321393854000,0.48985400390625,-0.000052366405725479126,-0.002562994137406349,-0.003909497521817684
1782836321403783200,0.499783203125,0.000402817502617836,0.0026031043380498886,0.002276870422065258
1782836321413713000,0.509712890625,-0.0012041330337524414,0.00004726927727460861,-0.0019314568489789963
1782836321423641900,0.519641845703125,0.000014469027519226074,0.00018899794667959213,-0.0012759161181747913
1782836321433572000,0.529572021484375,-0.002351216971874237,-0.0007582884281873703,-0.0012016138061881065
1782836321443501800,0.539501708984375,0.0006669536232948303,-0.0015003932639956474,-0.0002279435284435749
1782836321453431000,0.54943115234375,0.0013431301340460777,0.001054377295076847,0.00002505723387002945
1782836321463361000,0.559361083984375,-0.0009123412892222404,-0.000909736379981041,-0.0029215929098427296
1782836321473290000,0.5692900390625,0.0007404163479804993,0.0013406341895461082,0.0022039273753762245
1782836321483220200,0.57922021484375,0.0005077049136161804,0.0008103027939796448,0.0007902123034000397
1782836321493149000,0.58914892578125,-0.002011112868785858,-0.0014352742582559586,-0.002843405120074749
1782836321503079000,0.599078857421875,-0.0013444693759083748,0.0020452607423067093,0.0006457390263676643
1782836321513008000,0.609008056640625,0.0007301326841115952,-0.002613939344882965,-0.0036984090693295
1782836321522938000,0.618938232421875,0.0008302005007863045,-0.0004829084500670433,0.001604245975613594
1782836321532867000,0.6288671875,-0.0002172207459807396,-0.001605430617928505,-0.00034758448600769043
1782836321542797000,0.638797119140625,0.0020835669711232185,0.00027700792998075485,-0.0015373635105788708
1782836321552726000,0.64872607421875,-0.0008573615923523903,-0.0009046364575624466,0.002001178450882435
1782836321562656000,0.658656005859375,0.00021056551486253738,-0.0002665594220161438,-0.0002899486571550369
1782836321572585200,0.668585205078125,-0.0017599072307348251,-0.0001259446144104004,0.0001654522493481636
1782836321582515000,0.678514892578125,-0.0019653290510177612,0.000601964071393013,0.0010806601494550705
1782836321592445000,0.68844482421875,-0.0006505269557237625,-0.00042681489139795303,-0.0002754209563136101
1782836321602374100,0.6983740234375,-0.00013957824558019638,-0.002121984027326107,-0.0008944859728217125
1782836321612304000,0.708303955078125,0.0015549911186099052,-0.0009983964264392853,0.0015321867540478706
1782836321622232800,0.71823291015625,0.0014132224023342133,-0.00005410239100456238,-0.0005819229409098625
1782836321632163000,0.7281630859375,-0.0003375401720404625,-0.0012826183810830116,0.0010255612432956696
1782836321642092000,0.738092041015625,-0.0012613525614142418,-0.0012780986726284027,0.0008183121681213379
1782836321652022000,0.74802197265625,-0.002244858071208,-0.0007412051782011986,-0.0009984965436160564
1782836321661951000,0.757950927734375,0.0005787070840597153,-0.0023920685052871704,-0.0029301242902874947
1782836321671881000,0.767880859375,-0.001978193409740925,-0.002017894759774208,0.00010081939399242401
1782836321681810000,0.777809814453125,-0.0005491394549608231,-0.00021717417985200882,-0.0018374938517808914
1782836321691740200,0.787740234375,0.0016831215471029282,0.0006978884339332581,0.0007066242396831512
1782836321701668900,0.7976689453125,-0.0013123108074069023,0.0010841451585292816,0.0031302105635404587
1782836321711599000,0.80759912109375,-0.0012167030945420265,-0.0005387859418988228,0.002699577249586582
1782836321721528000,0.817528076171875,0.001201380044221878,0.0003230329602956772,0.0004576370120048523
1782836321731458000,0.8274580078125,-0.0000913180410861969,0.0013305069878697395,-0.002943485975265503
1782836321741387000,0.837386962890625,-0.0004657311365008354,0.0008568568155169487,-0.0014079362154006958
1782836321751317000,0.84731689453125,0.0001963311806321144,-0.002638808451592922,-0.0015360345132648945
1782836321761247000,0.8572470703125,0.00009580515325069427,0.0012940289452672005,0.00004330463707447052
1782836321771176200,0.86717626953125,-0.000283694826066494,-0.00020186882466077805,-0.0005303407087922096
1782836321781106000,0.87710595703125,-0.0005259085446596146,0.0004972899332642555,-0.0018666130490601063
1782836321791035000,0.887034912109375,0.00007010716944932938,-0.001172511838376522,0.0012998851016163826
1782836321800965000,0.896965087890625,0.00016361847519874573,0.0014182180166244507,-0.0007717483676970005
1782836321810894000,0.90689404296875,0.0000767996534705162,-0.0013623880222439766,-0.0007341979071497917
1782836321820823800,0.91682373046875,0.0005453145131468773,0.0018937615677714348,0.0032693538814783096
1782836321830753000,0.9267529296875,-0.0008030440658330917,-0.00021839141845703125,-0.000370122492313385
1782836321840683000,0.93668310546875,-0.0012890072539448738,-0.003487182781100273,0.0005508400499820709
1782836321850612000,0.946612060546875,0.000407160259783268,0.0003131479024887085,0.0010714884847402573
1782836321860542000,0.9565419921875,0.00048294663429260254,0.002179882489144802,0.00029214750975370407
1782836321870471000,0.966470947265625,-0.0008635483682155609,0.0021109068766236305,0.0019393125548958778
1782836321880401000,0.97640087890625,-0.0011294791474938393,0.0021631987765431404,-0.001744676847010851
1782836321890330000,0.986330078125,0.00035709701478481293,0.000440400093793869,0.0011017099022865295
1782836321900260000,0.996260009765625,-0.00003441702574491501,-0.0008389465510845184,-0.0006765434518456459
1782836321910190000,1.006190185546875,0.0008588070049881935,0.0022836104035377502,-0.0023716455325484276
1782836321920119000,1.016119140625,0.00023234635591506958,-0.0001672273501753807,-0.001378652174025774
1782836321930049000,1.026049072265625,0.0017905617132782936,0.0026490651071071625,0.001887449063360691
1782836321939978200,1.035978271484375,0.0009455299004912376,0.00017582997679710388,0.0012994203716516495
1782836321949908000,1.045907958984375,0.00006189290434122086,0.0014224555343389511,0.0019194036722183228
1782836321959837000,1.0558369140625,0.0012524528428912163,-0.0021274611353874207,-0.0003771660849452019
1782836321969767200,1.06576708984375,-0.001877560280263424,-0.0019908417016267776,0.0025802748277783394
1782836321979696000,1.075696044921875,0.0016560573130846024,0.0002808487042784691,0.0006793858483433723
1782836321989625900,1.0856259765625,0.0005606990307569504,-0.003064613789319992,-0.0012471452355384827
1782836321999555000,1.09555517578125,0.0003363974392414093,0.00021669641137123108,-0.0009309430606663227
1782836322009485000,1.105485107421875,-0.00048305653035640717,-0.00021952856332063675,-0.0018049925565719604
1782836322019414000,1.1154140625,-0.0026606880128383636,-0.0012886589393019676,-0.0018656430765986443
1782836322029344000,1.125343994140625,0.00016652420163154602,0.0010429387912154198,0.002126968465745449
1782836322039273000,1.13527294921875,0.00017521437257528305,-0.00077054463326931,-0.001379429828375578
1782836322049203000,1.145202880859375,-0.0009140186011791229,0.0003567719832062721,0.0016925269737839699
1782836322059133000,1.1551328125,0.0018744096159934998,0.0008866302669048309,0.0008193841204047203
1782836322069062000,1.165061767578125,0.000013658776879310608,0.0006733117625117302,0.0007267063483595848
1782836322078992100,1.1749921875,0.0008610421791672707,0.0008995402604341507,-0.00043225986883044243
1782836322088921000,1.184921142578125,-0.0006348555907607079,-0.000011793337762355804,-0.0005433135665953159
1782836322098851000,1.19485107421875,-0.0008235620334744453,0.001265467144548893,-0.002219021786004305
1782836322108780000,1.204780029296875,-0.0008683037012815475,0.0000020638108253479004,-0.002180672250688076
1782836322118710000,1.2147099609375,-0.0007726326584815979,-0.001940760761499405,-0.0015278011560440063
1782836322128639000,1.224638916015625,-0.0017548063769936562,-0.0009948061779141426,0.0004858151078224182
1782836322138569200,1.2345693359375,-0.0009223129600286484,0.0010911300778388977,-0.00004124315455555916
1782836322148498200,1.244498291015625,-0.0012517459690570831,-0.00042127911001443863,-0.0003552301786839962
1782836322158428000,1.254427978515625,-0.0009956210851669312,0.00258722435683012,0.00432805810123682
1782836322168356900,1.26435693359375,0.00045926403254270554,0.001421825960278511,-0.0011513959616422653
1782836322178287000,1.274287109375,0.00004083476960659027,0.0003760894760489464,-0.001514705829322338
1782836322188216000,1.284216064453125,-0.0014971410855650902,-0.002246059477329254,-0.0029251156374812126
1782836322198146000,1.29414599609375,0.0013688858598470688,-0.00042455364018678665,0.0012614745646715164
1782836322208075000,1.304074951171875,0.002343336120247841,0.0005094166845083237,0.001096624881029129
1782836322218005000,1.3140048828125,-0.0019545648247003555,0.0006286883726716042,-0.001017309259623289
1782836322227934200,1.323934326171875,0.0009536063298583031,-0.0004554847255349159,0.0010961750522255898
1782836322237864000,1.333864013671875,-0.0012431740760803223,0.0006310343742370605,0.0028662392869591713
1782836322247794000,1.3437939453125,0.0007946761325001717,-0.0011442294344305992,0.0016387887299060822
1782836322257723100,1.35372314453125,0.00012351758778095245,0.0006941203027963638,0.0007939198985695839
1782836322267652900,1.36365283203125,-0.001637364737689495,-0.00033812038600444794,-0.00042420998215675354
1782836322277581800,1.373581787109375,0.0020974045619368553,0.0009913193061947823,-0.0008746189996600151
1782836322287512000,1.383511962890625,-0.0010139662772417068,-0.00214987900108099,0.0006740093231201172
1782836322297441000,1.39344091796875,-0.0011867238208651543,-0.000051120296120643616,0.0018736617639660835
1782836322307371000,1.40337109375,-0.00024982355535030365,0.0008791210129857063,-0.0005684569478034973
1782836322317300000,1.413300048828125,0.0008408026769757271,-0.0004565408453345299,0.0016351519152522087
1782836322327230500,1.42323046875,-0.0012513771653175354,0.002503296360373497,0.000813567079603672
1782836322337159400,1.433159423828125,-0.0018081311136484146,0.00008279550820589066,0.0006375052034854889
1782836322347089400,1.44308935546875,0.00044277217239141464,-0.004046169109642506,0.0018266066908836365
1782836322357018400,1.453018310546875,0.0023826071992516518,0.0007559247314929962,0.0004907464608550072
1782836322366948400,1.4629482421875,0.0022254809737205505,0.001492287963628769,-0.0004376312717795372
1782836322376877300,1.472877197265625,-0.0013673678040504456,0.0011074338108301163,-0.0004940531216561794
1782836322386807600,1.4828076171875,0.0011836737394332886,0.0014877328649163246,0.001219158060848713
1782836322396737300,1.4927373046875,-0.004314064979553223,0.0020507648587226868,0.00005633849650621414
1782836322406666200,1.502666259765625,0.0027563609182834625,0.0011639324948191643,-0.00020864605903625488
1782836322416596500,1.512596435546875,0.001800266094505787,0.0024492014199495316,0.0012102499604225159
1782836322426525400,1.522525390625,0.00007560290396213531,-0.0013205036520957947,0.0012547243386507034
1782836322436455400,1.532455322265625,-0.00008283555507659912,-0.001143164001405239,0.0007468964904546738
1782836322446384400,1.54238427734375,-0.0018421197310090065,0.001149817369878292,-0.0005511287599802017
1782836322456314400,1.552314453125,0.00025911442935466766,-0.0006653927266597748,-0.0007705730386078358
1782836322466243600,1.56224365234375,-0.000802154652774334,0.0004613902419805527,0.0017269393429160118
1782836322476173300,1.57217333984375,-0.002202938310801983,-0.0019562533125281334,0.0011355439200997353
1782836322486102300,1.582102294921875,-0.000016748905181884766,-0.0022276295349001884,-0.0010514440946280956
1782836322496032500,1.592032470703125,-0.0016885781660676003,-0.0024511748924851418,-0.0010520410723984241
1782836322505961500,1.60196142578125,0.00007869582623243332,-0.0006404919549822807,0.000757044181227684
1782836322515891200,1.61189111328125,-0.00013147760182619095,0.0004060352221131325,-0.0003099283203482628
1782836322525820400,1.6218203125,0.00013643596321344376,0.0020715761929750443,-0.00011445209383964539
1782836322535750400,1.63175048828125,-0.0012281155213713646,-0.00034997519105672836,-0.0017735105939209461
1782836322545679400,1.641679443359375,-0.0008962852880358696,0.0011469870805740356,-0.0015897522680461407
1782836322555609300,1.651609375,-0.0009525837376713753,-0.0015115058049559593,-0.0006234743632376194
1782836322565539300,1.661539306640625,-0.001107846386730671,0.0006906623020768166,-0.0011848686262965202
1782836322575468300,1.67146826171875,0.0036785434931516647,-0.0007056752219796181,0.00171747338026762
1782836322585398500,1.6813984375,0.0005088495090603828,0.001014726236462593,0.0010317089036107063
1782836322595327500,1.691327392578125,0.00044954847544431686,0.0004388000816106796,-0.0013681203126907349
1782836322605257200,1.70125732421875,-0.001283637247979641,0.000006035901606082916,0.00317523255944252
1782836322615186400,1.7111865234375,0.000044881366193294525,0.00007853657007217407,-0.00023201899603009224
1782836322625116400,1.721116455078125,0.00005366932600736618,-0.001726287417113781,0.002474818378686905
1782836322635045400,1.73104541015625,-0.0008783098310232162,-0.0035919835790991783,-0.00009257392957806587
1782836322644975400,1.740975341796875,0.0013528866693377495,0.0009889192879199982,-0.0007157535292208195
1782836322654904300,1.750904296875,0.0006603831425309181,-0.00019535142928361893,0.0010851863771677017
1782836322664834600,1.76083447265625,-0.0021316753700375557,0.0009562000632286072,0.00005507562309503555
1782836322674763500,1.770763427734375,0.0007084440439939499,-0.001326749101281166,-0.0015634498558938503
1782836322684693200,1.780693359375,-0.0016292789950966835,0.0006354674696922302,-0.0007818117737770081
1782836322694622200,1.790622314453125,-0.0007719332352280617,-0.0003106258809566498,-0.001728125847876072
1782836322704552400,1.800552490234375,-0.000695500522851944,0.0012758197262883186,0.0001161135733127594
1782836322714481400,1.8104814453125,0.0005821818485856056,-0.0004972945898771286,0.0002458300441503525
1782836322724411400,1.820411376953125,0.0011078892275691032,-0.0005931686609983444,-0.000014094635844230652
1782836322734341400,1.83034130859375,-0.0005165012553334236,0.0025292271748185158,-0.00007508881390094757
1782836322744270300,1.840270263671875,0.0004254588857293129,0.0009443797171115875,0.0018924549221992493
1782836322754200600,1.85020068359375,-0.0009056581184267998,0.00018041860312223434,0.0003159884363412857
1782836322764129300,1.86012939453125,-0.0022220583632588387,-0.000046215951442718506,0.0027415957301855087
1782836322774059300,1.870059326171875,0.00022288039326667786,-0.002215055748820305,-0.0001715235412120819
1782836322783988500,1.879988525390625,0.0024407608434557915,0.00003957655280828476,0.002011469565331936
1782836322793918500,1.88991845703125,-0.0021041231229901314,-0.0007611028850078583,-0.0004187854938209057
1782836322803847400,1.899847412109375,-0.0006044972687959671,0.000751039944589138,-0.0013349130749702454
1782836322813777400,1.90977734375,0.0022858325392007828,-0.001794395036995411,-0.0010316651314496994
1782836322823706400,1.919706298828125,-0.00016534049063920975,0.0004112347960472107,0.0010360125452280045
1782836322833636400,1.92963623046875,-0.00027149077504873276,-0.0026192981749773026,0.0014961427077651024
1782836322843565600,1.939565673828125,-0.0005183657631278038,-0.0012376494705677032,0.002739306539297104
1782836322853495300,1.949495361328125,-0.0013060905039310455,-0.0015142876654863358,-0.0009768009185791016
1782836322863424300,1.95942431640625,0.0025805262848734856,0.0010700440034270287,-0.0007850532419979572
1782836322873354500,1.9693544921875,0.0008449740707874298,0.0005400562658905983,-0.0003023357130587101
1782836322883283500,1.979283447265625,0.0007341867312788963,0.0003600260242819786,-0.001350289210677147
1782836322893213200,1.989213134765625,0.0044089253060519695,-0.000780029222369194,-0.00015778932720422745
1782836322903143400,1.999143310546875,-0.0006619999185204506,0.0013398472219705582,0.0011194627732038498
1782836322913072400,2.009072265625,-0.00017276126891374588,0.003677206113934517,-0.0005311616696417332
1782836322923002400,2.01900244140625,-0.0001474618911743164,-0.0005713347345590591,-0.00041398266330361366
1782836322932931300,2.028931396484375,-0.00043887924402952194,0.0007741805166006088,-0.0013847402296960354
1782836322942861300,2.038861328125,-0.002017335034906864,0.001809883862733841,-0.00047527067363262177
1782836322952790500,2.04879052734375,-0.0015952754765748978,0.0005332073196768761,-0.000232029240578413
1782836322962720500,2.058720458984375,-0.0011883443221449852,0.0009657042101025581,-0.0014589475467801094
1782836322972649200,2.068649169921875,-0.0022249557077884674,-0.00017990171909332275,0.0010704528540372849
1782836322982579500,2.078579345703125,0.000575624406337738,-0.0016342541202902794,0.0005338257178664207
1782836322992508400,2.08850830078125,-0.0018989071249961853,-0.0013961726799607277,-0.0008226139470934868
1782836323002438400,2.0984384765625,-0.0016160793602466583,-0.0004941606894135475,-0.00043246103450655937
1782836323012367400,2.108367431640625,-0.0019253799691796303,-0.0005523161962628365,-0.0030516311526298523
1782836323022297300,2.11829736328125,-0.00003107357770204544,0.0017148321494460106,-0.00004811771214008331
1782836323032226300,2.128226318359375,-0.0010746186599135399,-0.00005621463060379028,0.0010409839451313019
1782836323042156500,2.138156494140625,-0.0002093575894832611,-0.00019709579646587372,-0.0017420188523828983
1782836323052086300,2.148086181640625,0.0029253028333187103,0.001737426035106182,-0.00279034860432148
1782836323062015200,2.15801513671875,0.0016547087579965591,0.001163780689239502,-0.0015839366242289543
1782836323071945500,2.167945556640625,0.0008582640439271927,0.0008319532498717308,0.0009324988350272179
1782836323081874400,2.17787451171875,-0.0009327121078968048,0.002747032791376114,-0.0007745875045657158
1782836323091804400,2.187804443359375,-0.0009193513542413712,-0.0022096317261457443,0.0018334807828068733
1782836323101733400,2.1977333984375,0.0016580559313297272,-0.0003318367525935173,0.0002715364098548889
1782836323111663400,2.207663330078125,-0.0020267143845558167,-0.0012922929599881172,-0.00293844286352396
1782836323121592300,2.21759228515625,-0.0002056444063782692,0.001542908139526844,0.0006331223994493484
1782836323131522300,2.227522216796875,0.0008284151554107666,0.0013400493189692497,0.0009905965998768806
1782836323141451300,2.237451171875,-0.0008496427908539772,0.000024714507162570953,0.00047420989722013474
1782836323151381500,2.247381591796875,0.0015232982113957405,-0.001255604438483715,0.0011552488431334496
1782836323161310500,2.257310546875,0.001146993599832058,0.0004781130701303482,-0.00019417516887187958
1782836323171240400,2.267240478515625,-0.0016356008127331734,-0.0014405101537704468,-0.002904143650084734
1782836323181169200,2.277169189453125,-0.0008398480713367462,-0.0007539475336670876,0.0021742377430200577
1782836323191099400,2.287099365234375,-0.00026521366089582443,-0.0011160364374518394,-0.0002088099718093872
1782836323201028400,2.2970283203125,-0.0004276661202311516,0.0004688110202550888,-0.0013736765831708908
1782836323210958600,2.30695849609375,0.0007181018590927124,-0.0014134114608168602,0.001852261833846569
1782836323220887300,2.31688720703125,0.002003610134124756,0.0013163285329937935,-0.0003557652235031128
1782836323230817300,2.3268173828125,0.00018459931015968323,0.0006199609488248825,-0.0022085444070398808
1782836323240747500,2.33674755859375,0.0018695807084441185,0.0014170454815030098,0.0002918974496424198
1782836323250676500,2.346676513671875,-0.0017741955816745758,0.0023987945169210434,0.0021268739365041256
1782836323260606200,2.356606201171875,0.0005041379481554031,0.000794505700469017,0.0008008857257664204
1782836323270535400,2.366535400390625,0.0009284373372793198,-0.0005399994552135468,0.0027234614826738834
1782836323280465400,2.37646533203125,-0.0018795998767018318,-0.0005687614902853966,0.0008813529275357723
1782836323290394400,2.386394287109375,0.002858441323041916,-0.0002147238701581955,0.002617302816361189
1782836323300324400,2.396324462890625,0.0012118089944124222,-0.001771874725818634,0.0004984918050467968
1782836323310253300,2.40625341796875,-0.0018117493018507957,-0.002018384635448456,-0.001110780518501997
1782836323320183300,2.416183349609375,-0.00011930987238883972,-0.00038853008300065994,-0.0020514088682830334
1782836323330112000,2.426112060546875,-0.0013080555945634842,-0.0007508769631385803,0.0008097728714346886
1782836323340042000,2.4360419921875,-0.0005887355655431747,-0.000011583790183067322,-0.0006155511364340782
1782836323349971000,2.445970947265625,0.0002996940165758133,-0.0011500958353281021,0.0003740862011909485
1782836323359901000,2.45590087890625,-0.00020550843328237534,-0.0007455619052052498,-0.001054699532687664
1782836323369830000,2.465829833984375,0.000575273297727108,-0.000605560839176178,0.0005069044418632984
1782836323379759900,2.475759765625,0.0002157464623451233,-0.0016607055440545082,-0.0011237487196922302
1782836323389689900,2.48568994140625,0.0007910951972007751,0.00035640690475702286,0.00013440800830721855
1782836323399618800,2.495618896484375,0.0013359775766730309,0.00007144827395677567,0.00018607312813401222
1782836323409549000,2.505549072265625,-0.0026336945593357086,0.0004700319841504097,-0.0019512269645929337
1782836323419478000,2.51547802734375,0.0013416064903140068,0.00005537737160921097,-0.00002842489629983902
1782836323429407700,2.52540771484375,-0.0019571445882320404,0.0013996949419379234,-0.0007154629565775394
1782836323439336700,2.535336669921875,0.0006476938724517822,-0.0025364570319652557,-0.001399895641952753
1782836323449267000,2.545266845703125,-0.0003343448042869568,-0.0005825133994221687,0.0030976049602031708
1782836323459196000,2.55519580078125,0.0005689989775419235,0.0005495958030223846,0.001971620135009289
1782836323469126000,2.5651259765625,-0.0030098995193839073,0.0022377772256731987,-0.0020775776356458664
1782836323479054800,2.575054931640625,0.0006865682080388069,0.0007967408746480942,0.0003437679260969162
1782836323488984800,2.58498486328125,0.00014588795602321625,-0.0027447305619716644,-0.0017059072852134705
1782836323498914000,2.5949140625,-0.0005942042917013168,0.0012598643079400063,0.0013143839314579964
1782836323508843800,2.60484375,0.0012836065143346786,-0.0019615190103650093,-0.0012895585969090462
1782836323518772700,2.614772705078125,-0.0015390776097774506,0.00032693520188331604,-0.000268768984824419
1782836323528703000,2.624702880859375,-0.0001151328906416893,-0.0008213389664888382,-0.001714289654046297
1782836323538633000,2.634633056640625,0.001064380630850792,-0.0008034957572817802,0.001262592151761055
1782836323548562000,2.64456201171875,-0.00047390908002853394,-0.0016765957698225975,0.0001721903681755066
1782836323558492000,2.654491943359375,-0.0010944260284304619,0.0004494059830904007,0.0023783529177308083
1782836323568420900,2.6644208984375,-0.0019078776240348816,0.000485006719827652,-0.0025625894777476788
1782836323578350800,2.674350830078125,0.0004503512755036354,-0.0011246073991060257,-0.0017979959957301617
1782836323588280000,2.684280029296875,0.0004516690969467163,-0.00046511460095643997,0.00018938584253191948
1782836323598209800,2.694209716796875,-0.0005467506125569344,0.0007679294794797897,-0.0001565590500831604
1782836323608138800,2.704138671875,-0.0006721038371324539,-0.0013362076133489609,0.00048484327271580696
1782836323618069000,2.714069091796875,0.00041419919580221176,0.0014574481174349785,0.0017170882783830166
1782836323627998000,2.723998046875,-0.00041961483657360077,-0.0016577690839767456,0.0008580540306866169
1782836323637927700,2.733927734375,0.0001827925443649292,-0.0016612308099865913,-0.0007212003692984581
1782836323647857000,2.74385693359375,0.0007550260052084923,0.0004704836755990982,-0.00029041338711977005
1782836323657787000,2.753786865234375,-0.0009198365733027458,-0.002065111882984638,-0.002126130275428295
1782836323667715800,2.7637158203125,0.0010057566687464714,0.0014178585261106491,-0.0012581809423863888
1782836323677645800,2.773645751953125,-0.00002675037831068039,-0.001604563556611538,-0.0023516747169196606
1782836323687574800,2.78357470703125,0.0010111508890986443,-0.0027175461873412132,-0.001049828715622425
1782836323697505000,2.793505126953125,0.0002532154321670532,-0.000529758632183075,0.0012410227209329605
1782836323707435000,2.80343505859375,0.0018188413232564926,0.001670917496085167,0.0003003333695232868
1782836323717363700,2.81336376953125,0.0008643642067909241,-0.0005174018442630768,0.0009794388897717
1782836323727294000,2.8232939453125,0.0005005719140172005,0.0002628182992339134,-0.0015472355298697948
1782836323737223000,2.833222900390625,0.00036794692277908325,-0.0010099057108163834,0.0014682617038488388
1782836323747153000,2.84315283203125,0.0028277896344661713,0.000032123178243637085,-0.0006875768303871155
1782836323757082000,2.85308203125,0.0007960638031363487,0.0015575820580124855,0.002065332606434822
1782836323767011800,2.86301171875,0.0015780581161379814,0.0022935206070542336,-0.001313001848757267
1782836323776940800,2.87294091796875,0.0014981627464294434,0.001344636082649231,0.00023402832448482513
1782836323786871000,2.88287109375,-0.0009578196331858635,-0.0006475262343883514,-0.001033289823681116
1782836323796800000,2.892800048828125,0.0024970993399620056,-0.0014411481097340584,0.0014503742568194866
1782836323806729700,2.902729736328125,0.0006757564842700958,0.0013235900551080704,0.0014180764555931091
1782836323816659000,2.912658935546875,-0.00048591382801532745,-0.0004314323887228966,-0.00041657546535134315
1782836323826589000,2.9225888671875,-0.0001408122479915619,-0.0009759459644556046,0.00008876807987689972
1782836323836518000,2.932517822265625,-0.0010388297960162163,-0.0009170901030302048,0.00011433428153395653
1782836323846447900,2.94244775390625,-0.000008755363523960114,-0.0004961984232068062,0.001260280143469572
1782836323856376800,2.952376953125,0.0010735532268881798,0.000497693195939064,-0.0005229725502431393
1782836323866306800,2.962306884765625,0.00185391865670681,-0.0007195249199867249,0.0010398714803159237
1782836323876236800,2.97223681640625,0.001847526989877224,0.0014733215793967247,-0.0006853244267404079
1782836323886165800,2.982165771484375,-0.0004628654569387436,0.001654067076742649,-0.0010953373275697231
1782836323896096000,2.992095947265625,-0.002281538210809231,0.0014415467157959938,0.0010772696696221828
1782836323906025000,3.00202490234375,0.0019362540915608406,-0.001657417044043541,0.0008292058482766151
1782836323915955000,3.011954833984375,-0.002182857133448124,-0.000017442740499973297,-0.0018201065249741077
1782836323925883600,3.021883544921875,-0.00154973566532135,0.0004115365445613861,-0.003358799498528242
1782836323935814000,3.03181396484375,-0.0030829180032014847,0.0033745691180229187,-0.0019875383004546165
1782836323945742800,3.041742919921875,-0.0001882072538137436,0.00032090023159980774,0.0007953331805765629
1782836323955673000,3.051673095703125,-0.00004865787923336029,-0.0011973679065704346,0.001758331898599863
1782836323965602000,3.06160205078125,-0.00026129744946956635,-0.002615579403936863,0.000508064404129982
1782836323975531800,3.07153173828125,0.0007997052744030952,-0.002567109651863575,0.0014343112707138062
1782836323985461000,3.0814609375,0.0013422230258584023,-0.0017099762335419655,0.0026364182122051716
1782836323995391000,3.091390869140625,0.00009612925350666046,-0.00038691796362400055,0.0007588895969092846
1782836324005320000,3.10131982421875,-0.00008281785994768143,-0.0026853112503886223,-0.0005068201571702957
1782836324015250000,3.11125,-0.000004521571099758148,-0.0013563940301537514,0.002238099928945303
1782836324025180000,3.121179931640625,-0.0004799840971827507,-0.0009001316502690315,0.0013641067780554295
1782836324035108900,3.13110888671875,-0.0008232658728957176,0.0010572923347353935,0.00006155483424663544
1782836324045038800,3.141038818359375,-0.0012821611016988754,0.0003160377964377403,-0.0004587927833199501
1782836324054967800,3.1509677734375,-0.00010504387319087982,0.0023466981947422028,-0.0009173890575766563
1782836324064897800,3.160897705078125,0.000920616090297699,0.001975519582629204,0.000011508353054523468
1782836324074827000,3.170826904296875,-0.0007547782734036446,0.002415473572909832,0.002342573367059231
1782836324084756700,3.1807568359375,0.0008393069729208946,-0.001433863304555416,-0.0000645127147436142
1782836324094685700,3.190685791015625,0.0010012267157435417,0.00023966748267412186,0.0008934261277318001
1782836324104616000,3.200615966796875,0.00045050401240587234,-0.0018852632492780685,-0.0008316398598253727
1782836324114545000,3.210544921875,-0.00001847837120294571,0.0008354214951395988,-0.0007229829207062721
1782836324124475000,3.220474853515625,0.00003165286034345627,0.0018694344907999039,0.00003505963832139969
1782836324134403800,3.23040380859375,-0.0010450631380081177,-0.0014789579436182976,-0.00019929837435483932
1782836324144333800,3.240333740234375,0.00023459643125534058,-0.0010714177042245865,0.001294188667088747
1782836324154262800,3.2502626953125,-0.00006207916885614395,0.00029025599360466003,0.0030396240763366222
1782836324164193000,3.260193115234375,0.0019101183861494064,0.0004072701558470726,0.000621443148702383
1782836324174122800,3.270122802734375,0.0019617835059762,-0.0006356239318847656,0.0003247666172683239
1782836324184052000,3.280052001953125,-0.0010767681524157524,0.0004370715469121933,-0.0017135790549218655
1782836324193982000,3.28998193359375,0.0013246042653918266,-0.0002604108303785324,0.00032507069408893585
1782836324203911000,3.299910888671875,0.0008522560819983482,-0.0002169506624341011,0.0002938825637102127
1782836324213841000,3.3098408203125,-0.0008143503218889236,0.0008887937292456627,0.0023093633353710175
1782836324223769900,3.319769775390625,-0.0000697718933224678,-0.00004641525447368622,0.0018561864271759987
1782836324233699800,3.329699951171875,-0.0015294505283236504,0.0008313627913594246,0.00026042014360427856
1782836324243629000,3.339629150390625,0.0007875962182879448,0.0024495162069797516,0.003348658327013254
1782836324253558800,3.349558837890625,-0.002942959778010845,-0.0010229796171188354,-0.0013856426812708378
1782836324263487700,3.35948779296875,-0.0001966310665011406,-0.00039416830986738205,0.0009851879440248013
1782836324273418000,3.36941796875,0.0017970111221075058,0.0005075773224234581,0.0018986514769494534
1782836324283347000,3.379346923828125,0.0002945130690932274,0.00044540688395500183,0.0012989318929612637
1782836324293276700,3.389276611328125,-0.001205379143357277,0.00032023899257183075,-0.0004481016658246517
1782836324303206000,3.399205810546875,0.00037673115730285645,-0.0025468533858656883,0.0004962775856256485
1782836324313135900,3.409135986328125,-0.0007069092243909836,-0.0008261846378445625,0.0008864309638738632
1782836324323066000,3.419066162109375,-0.0002621505409479141,0.000278242863714695,0.0028050648979842663
1782836324332994800,3.428994873046875,0.001333882100880146,0.0008545508608222008,-0.0016000699251890182
1782836324342924500,3.438924560546875,-0.0015558348968625069,-0.0027524009346961975,-0.001013792585581541
1782836324352853500,3.448853515625,0.00006469804793596268,0.0000843983143568039,-0.0017331121489405632
1782836324362783700,3.45878369140625,-0.0006105341017246246,-0.0031094783917069435,0.00014945445582270622
1782836324372712700,3.468712646484375,-0.0012294519692659378,0.00003438349813222885,0.0010059275664389133
1782836324382642700,3.478642578125,0.001689910888671875,-0.000007944181561470032,0.0006063170731067657
1782836324392571600,3.488571533203125,0.0024497108533978462,0.0000748801976442337,-0.0012235413305461407
1782836324402501600,3.498501708984375,-0.00030561722815036774,-0.00013028737157583237,0.000019941478967666626
1782836324412430600,3.5084306640625,0.0017665885388851166,-0.0004211040213704109,-0.0014996584504842758
1782836324422360600,3.518360595703125,-0.0013055801391601562,-0.0003512939438223839,0.001806019339710474
1782836324432289500,3.52828955078125,0.00048166699707508087,0.002653018571436405,-0.002026536036282778
1782836324442219800,3.5382197265625,-0.0004099542275071144,0.002758617512881756,0.00028116535395383835
1782836324452148700,3.548148681640625,-0.0010672220960259438,0.0008592512458562851,-0.0004807654768228531
1782836324462078500,3.558078369140625,0.0008501866832375526,-0.0005618827417492867,-0.0025259973481297493
1782836324472008700,3.5680087890625,0.0021663205698132515,-0.00124338548630476,0.0010431716218590736
1782836324481937700,3.577937744140625,-0.0007471414282917976,-0.0011324575170874596,0.002885259222239256
1782836324491867600,3.58786767578125,0.00010640174150466919,-0.00006479676812887192,0.0009001395665109158
1782836324501796600,3.597796630859375,-0.0013280995190143585,-0.00019725505262613297,0.0004120361991226673
1782836324511726600,3.6077265625,0.00040961336344480515,-0.001003660261631012,0.004257907625287771
1782836324521655600,3.617655517578125,-0.0006468528881669044,-0.0014088060706853867,-0.0007929624989628792
1782836324531585800,3.627585693359375,-0.002117450349032879,0.00008070003241300583,-0.0026353374123573303
1782836324541514800,3.6375146484375,-0.0003808988258242607,-0.0010494869202375412,-0.0019872072152793407
1782836324551444500,3.647444580078125,0.0011650659143924713,0.002121538855135441,-0.0004838528111577034
1782836324561373700,3.657373779296875,-0.0024482663720846176,0.0007914397865533829,-0.0006479662843048573
1782836324571303700,3.6673037109375,0.0018604621291160583,0.0014037005603313446,-0.0022764895111322403
1782836324581232600,3.677232666015625,-0.0002858676016330719,0.0032467348501086235,0.0014693280681967735
1782836324591162600,3.68716259765625,-0.00013886112719774246,0.0014392463490366936,0.0007263068109750748
1782836324601091600,3.697091552734375,0.00048408564180135727,0.00032650958746671677,-0.002057944890111685
1782836324611021600,3.707021484375,-0.0011990321800112724,5.383044481277466e-7,0.0006124069914221764
1782836324620951600,3.71695166015625,-0.0010631652548909187,-0.0007910244166851044,-0.001334169413894415
1782836324630880500,3.726880615234375,0.0004138238728046417,0.0010135332122445107,0.00010580196976661682
1782836324640810800,3.736810791015625,0.000012434087693691254,-0.0024243034422397614,-0.0008489019237458706
1782836324650739700,3.74673974609375,0.0009112516418099403,-0.0011182893067598343,-0.00011866306886076927
1782836324660669400,3.75666943359375,0.0007003536447882652,0.0008351979777216911,0.0011210180819034576
1782836324670598700,3.7665986328125,-0.001161728985607624,-0.003481786698102951,-0.0009599756449460983
1782836324680528600,3.776528564453125,-0.00019606389105319977,-0.00029284507036209106,-0.00005162646993994713
1782836324690457600,3.78645751953125,-0.0009585265070199966,0.001530088484287262,-0.0009184856899082661
1782836324700387800,3.796387939453125,0.00010310113430023193,-0.0030145253986120224,-0.0014515495859086514
1782836324710316500,3.806316650390625,0.0009875372052192688,-0.000823543407022953,0.000513862818479538
1782836324720246500,3.81624658203125,0.0006430372595787048,0.0011655623093247414,0.0014087478630244732
1782836324730175700,3.82617578125,-0.001275770366191864,0.0011045755818486214,-0.00008714990690350533
1782836324740105700,3.836105712890625,-0.0015024319291114807,0.00027618277817964554,0.0018855114467442036
1782836324750035500,3.846035400390625,0.00014286860823631287,-0.0002516554668545723,0.000677767675369978
1782836324759964700,3.855964599609375,0.00004537124186754227,-0.0026055006310343742,0.0024198777973651886
1782836324769894700,3.865894775390625,-0.0002494407817721367,-0.00006298162043094635,-0.0006789765320718288
1782836324779823600,3.87582373046875,0.0006714602932333946,0.00043655000627040863,0.002603634726256132
1782836324789753600,3.885753662109375,0.0007604090496897697,0.0001958003267645836,-0.0006827064789831638
1782836324799682600,3.8956826171875,-0.0008341381326317787,-0.0015980442985892296,-0.001658034510910511
1782836324809612800,3.90561279296875,-0.0022245747968554497,-0.0009242640808224678,-0.0004228604957461357
1782836324819541800,3.915541748046875,0.0001249825581908226,-0.0006491038948297501,0.0021500750444829464
1782836324829471500,3.925471435546875,0.002528752200305462,0.0007660994306206703,0.003513613250106573
1782836324839400400,3.935400390625,-0.001233680173754692,-0.001422712579369545,0.0014049052260816097
1782836324849330700,3.94533056640625,0.0002028290182352066,0.0002766503021121025,-0.0017485441640019417
1782836324859259600,3.955259765625,-0.00020692776888608932,0.0009102383628487587,-0.0001830575056374073
1782836324869189600,3.965189697265625,0.0004591289907693863,-0.0019089840352535248,-0.0009774784557521343
1782836324879118600,3.97511865234375,0.0018034717068076134,0.000016654841601848602,0.00037703197449445724
1782836324889048600,3.985048583984375,0.00019119400531053543,-0.0015934929251670837,-0.002427542582154274
1782836324898978800,3.994978759765625,0.002197444438934326,0.0007444852963089943,0.0012690052390098572
1782836324908907800,4.00490771484375,-0.0009978162124752998,0.0025461139157414436,-0.00026470934972167015
1782836324918837500,4.01483740234375,0.0008911285549402237,-0.00038544461131095886,0.0015210430137813091
1782836324928766700,4.0247666015625,-0.0008423235267400742,-0.0023106439039111137,0.0011287587694823742
1782836324938696700,4.03469677734375,-0.00024171359837055206,0.0013811113312840462,0.002647309098392725
1782836324948625700,4.044625732421875,-0.00021614693105220795,0.001139029860496521,0.002431060653179884
1782836324958555600,4.0545556640625,-0.0008346643298864365,0.0011460613459348679,-0.002642589621245861
1782836324968484600,4.064484619140625,0.0014034565538167953,-0.00027420278638601303,-0.000262522604316473
1782836324978414600,4.07441455078125,0.0005579041317105293,0.00007824692875146866,-0.0009386301971971989
1782836324988343800,4.08434375,-0.0005033658817410469,-0.00006875954568386078,0.0004957485944032669
1782836324998273500,4.0942734375,0.0012429654598236084,0.0010456368327140808,-0.0015151356346905231
1782836325008202500,4.104202392578125,-0.0002151159569621086,-0.00013627391308546066,0.00009607663378119469
1782836325018132700,4.1141328125,-0.0011096615344285965,0.0020681368187069893,0.0021774317137897015
1782836325028061700,4.124061767578125,0.00016039982438087463,0.00046731065958738327,0.0008189533837139606
1782836325037991400,4.133991455078125,-0.0003396933898329735,-0.00005347840487957001,-0.0006807213649153709
1782836325047921700,4.143921630859375,0.0000866791233420372,-0.0012529660016298294,-0.002557451371103525
1782836325057850600,4.1538505859375,-0.0006098877638578415,-0.0019087810069322586,-0.00006728805601596832
1782836325067780600,4.163780517578125,0.000023944303393363953,-0.0013694902881979942,-0.0010675713419914246
1782836325077709600,4.17370947265625,0.0011687474325299263,-0.00001911912113428116,-0.0007469230331480503
1782836325087639600,4.1836396484375,0.000253419391810894,-0.002550452947616577,-0.0016422774642705917
1782836325097568800,4.19356884765625,0.000864960253238678,0.002014576457440853,-0.002588423900306225
1782836325107498800,4.203498779296875,0.003932922147214413,0.0007333289831876755,0.001459847204387188
1782836325117427700,4.213427734375,-0.00009373947978019714,-0.00046099070459604263,-0.002111809328198433
1782836325127357700,4.223357666015625,0.0005954867228865623,-0.00035446416586637497,-0.0014348337426781654
1782836325137286700,4.23328662109375,-0.00037993211299180984,-0.0005342811346054077,-0.0026853708550333977
1782836325147216600,4.243216552734375,-0.0006736787036061287,-0.0010980721563100815,-0.0013740300200879574
1782836325157145900,4.253145751953125,0.0016609402373433113,-0.0007469328120350838,0.0008380399085581303
1782836325167075600,4.26307568359375,-0.0012466991320252419,-0.0005437340587377548,0.0014785300008952618
1782836325177005600,4.273005615234375,0.0006702058017253876,-0.0010613398626446724,-0.0003472263924777508
1782836325186934800,4.282934814453125,-0.00112130306661129,-0.0031633730977773666,0.0016663894057273865
1782836325196864500,4.292864501953125,-0.0012485645711421967,0.0009211581200361252,0.0007177381776273251
1782836325206793500,4.30279345703125,0.001241491176187992,-0.0007686177268624306,-0.0031054955907166004
1782836325216723700,4.3127236328125,0.0002269390970468521,0.0015747547149658203,0.0012379190884530544
1782836325226652700,4.322652587890625,-0.0010593682527542114,-0.001304921694099903,-0.0012087272480130196
1782836325236582400,4.33258251953125,0.00007363315671682358,0.0002912934869527817,-0.0009129000827670097
1782836325246511600,4.34251171875,-0.0020148176699876785,-0.0004195040091872215,0.0005092276260256767
1782836325256441600,4.352441650390625,-0.0006743688136339188,-0.0004032403230667114,-0.0003119031898677349
1782836325266370600,4.36237060546875,0.002586139366030693,0.0014196932315826416,0.0009480384178459644
1782836325276300500,4.372300537109375,0.0001307278871536255,0.001218670979142189,0.00010846462100744247
1782836325286229500,4.3822294921875,0.0006756102666258812,0.0009720614179968834,0.00048077479004859924
1782836325296159700,4.39215966796875,0.0018136659637093544,-0.0004635704681277275,-0.001724868081510067
1782836325306088700,4.402088623046875,0.00021576881408691406,-0.0004097744822502136,-0.0009663999080657959
1782836325316018700,4.412018798828125,0.0010496145114302635,-0.0017013223841786385,0.00035512540489435196
1782836325325949400,4.421949462890625,-0.0031717615202069283,-0.0006080940365791321,0.0020353132858872414
1782836325335878400,4.43187841796875,0.00030279625207185745,0.0001435438171029091,0.0011599441058933735
1782836325345808400,4.441808349609375,-0.0007563428953289986,-0.0018423758447170258,0.00024940958246588707
1782836325355737300,4.4517373046875,-0.0007557021453976631,-0.0013237213715910912,0.0004937867633998394
1782836325365667300,4.461667236328125,-0.0008853981271386147,-3.9674341678619385e-7,0.00009431270882487297
1782836325375596500,4.471596435546875,0.0001855790615081787,-0.0015052687376737595,-0.0006607389077544212
1782836325385526500,4.481526611328125,-0.0027878405526280403,-0.0010519996285438538,-0.00372124370187521
1782836325395455500,4.49145556640625,0.0005866065621376038,0.0008297348394989967,-0.0012533017434179783
1782836325405385500,4.501385498046875,0.000607113353908062,-0.0009410008788108826,-0.000009871553629636765
1782836325415314400,4.511314453125,-0.0007252367213368416,0.001372755505144596,0.0027258889749646187
1782836325425244400,4.521244384765625,0.001287846826016903,-0.00023659225553274155,0.0012278612703084946
1782836325435173600,4.531173583984375,0.0014805709943175316,0.0006254548206925392,-0.0012480751611292362
1782836325445103400,4.541103271484375,0.0007085204124450684,-0.0005886796861886978,0.003450806252658367
1782836325455032300,4.5510322265625,0.0011648768559098244,-0.0009439662098884583,-0.0023071984760463238
1782836325464962600,4.560962646484375,0.0006695287302136421,-0.0015402482822537422,-0.001640608999878168
1782836325474892300,4.570892333984375,0.00038971100002527237,0.00024640094488859177,0.0008071321062743664
1782836325484821200,4.5808212890625,-0.0016313623636960983,-0.0018673492595553398,-0.0007902318611741066
1782836325494751500,4.59075146484375,-0.0013069510459899902,0.0020981011912226677,-0.00017919251695275307
1782836325504680400,4.600680419921875,0.0005026673898100853,-0.0002020709216594696,0.00241099763661623
1782836325514610400,4.6106103515625,0.0002856804057955742,-0.0025211768224835396,0.00008454266935586929
1782836325524539400,4.620539306640625,-0.0011716010048985481,-0.002650606445968151,0.003181266598403454
1782836325534469400,4.630469482421875,0.0000740978866815567,-0.0011982694268226624,0.0006627663969993591
1782836325544398600,4.640398681640625,-0.0021528368815779686,-0.0009559215977787971,-0.0007148864679038525
1782836325554328300,4.650328369140625,0.001015794463455677,-0.0013683177530765533,0.002044189255684614
1782836325564257300,4.66025732421875,0.0015489589422941208,-0.0021163998171687126,-0.0009209741838276386
1782836325574187500,4.6701875,-0.00009063538163900375,0.003198438324034214,0.0005979188717901707
1782836325584116500,4.680116455078125,0.00046117231249809265,-0.001916961744427681,0.0007907315157353878
1782836325594046500,4.69004638671875,-0.001118767075240612,0.0007682973518967628,0.0022149141877889633
1782836325603976400,4.6999765625,-0.0010178331285715103,0.0003328705206513405,-0.0010402677580714226
1782836325613905400,4.709905517578125,0.00041562411934137344,0.0008242679759860039,-0.0011620838195085526
1782836325623835400,4.71983544921875,-0.0017457976937294006,-0.001280694268643856,0.0003809519112110138
1782836325633764600,4.7297646484375,0.0017943279817700386,-0.0016115019097924232,0.002251471858471632
1782836325643694300,4.7396943359375,-0.0005314107984304428,0.0006876047700643539,-0.0021632504649460316
1782836325653623300,4.749623291015625,-0.00019039679318666458,-0.0011147484183311462,-0.0007375762797892094
1782836325663553500,4.759553466796875,0.0009395824745297432,-0.0005261898040771484,-0.002117093652486801
1782836325673482500,4.769482421875,0.0009027374908328056,-0.0025831423699855804,-0.001562309917062521
1782836325683412200,4.779412109375,0.0003506643697619438,0.001474183052778244,0.000330398790538311
1782836325693341400,4.789341552734375,0.0003833482041954994,-0.0011562984436750412,-0.00028546713292598724
1782836325703271400,4.799271484375,-0.0030926093459129333,-0.003099074587225914,0.0006559602916240692
1782836325713200400,4.809200439453125,-0.0006005521863698959,0.001353345811367035,0.0020904908888041973
1782836325723130400,4.81913037109375,-0.0005805781111121178,0.0024316590279340744,-0.0025026630610227585
1782836325733059300,4.829059326171875,-0.00017681904137134552,-0.0001775519922375679,-0.00002800021320581436
1782836325742989600,4.838989501953125,0.002319095656275749,-0.001256398856639862,-0.00011322135105729103
1782836325752919600,4.84891943359375,-0.0011281268671154976,0.0011499542742967606,-0.00041381316259503365
1782836325762848300,4.85884814453125,0.0005038585513830185,-0.0004735086113214493,0.0005601043812930584
1782836325772778500,4.868778564453125,0.0011122124269604683,0.0005625532940030098,0.00024840235710144043
1782836325782707500,4.87870751953125,0.00014868099242448807,-0.0016555935144424438,-0.00040726829320192337
1782836325792637400,4.888637451171875,0.00001269858330488205,-0.00037173181772232056,0.0014307694509625435
1782836325802566700,4.898566650390625,-0.000757221132516861,0.0004075095057487488,0.001578042283654213
1782836325812496400,4.908496337890625,0.0014212187379598618,-0.0006283652037382126,0.0016480861231684685
1782836325822425300,4.91842529296875,-0.0014659147709608078,0.00040334369987249374,0.00021477323025465012
1782836325832355600,4.92835546875,0.001858370378613472,0.0004741065204143524,0.0009490493685007095
1782836325842284500,4.938284423828125,0.00004875287413597107,-0.0025067701935768127,0.003227117471396923
1782836325852214300,4.94821435546875,0.00023151841014623642,0.0014453679323196411,0.0011861184611916542
1782836325862143500,4.9581435546875,-0.0004886006936430931,-0.0013775825500488281,-0.0008080569095909595
1782836325872073500,4.968073486328125,0.00014425348490476608,0.0002756379544734955,0.00048474501818418503
1782836325882003500,4.97800341796875,0.000505378469824791,0.0006596660241484642,-0.0007419073954224586
1782836325891932400,4.987932373046875,0.0017194831743836403,-0.0026171645149588585,0.0014306590892374516
1782836325901862400,4.9978623046875,-0.0005007945001125336,-0.0025148987770080566,0.0008341106586158276
1782836325911791400,5.007791259765625,0.0014152498915791512,0.00011947285383939743,-0.0008496791124343872
1782836325921721300,5.017721435546875,-0.0008202074095606804,0.0019804900512099266,-0.00010399427264928818
1782836325931650300,5.027650390625,0.002927829511463642,0.0008311644196510315,-0.001000355463474989
1782836325941580500,5.03758056640625,-0.0005934024229645729,-0.0014112172648310661,-0.0014325864613056183
1782836325951509500,5.047509521484375,-0.0006436025723814964,0.0007638689130544662,-0.00023331120610237122
1782836325961439500,5.057439453125,-0.00025078561156988144,-0.0013858340680599213,-0.0011635534465312958
1782836325971368200,5.0673681640625,-0.0021324697881937027,0.002776973880827427,0.0009109517559409142
1782836325981298400,5.07729833984375,0.00037090200930833817,0.00032340362668037415,-0.0011181109584867954
1782836325991227400,5.087227294921875,-0.002353660762310028,0.0007681781426072121,0.001058816909790039
1782836326001157600,5.09715771484375,-0.00043192412704229355,-0.0015849918127059937,-0.002686919644474983
1782836326011086300,5.10708642578125,-0.000003200024366378784,-0.0007875552400946617,0.001427450217306614
1782836326021016300,5.117016357421875,-0.0013947011902928352,-0.0006035305559635162,0.0006079953163862228
1782836326030946600,5.126946533203125,0.0005783848464488983,-0.0016416218131780624,-0.0003903508186340332
1782836326040875500,5.13687548828125,-0.00013001542538404465,-0.0024552177637815475,0.0003308327868580818
1782836326050805200,5.14680517578125,-0.0017656981945037842,0.0012192865833640099,0.001510376576334238
1782836326060734500,5.156734375,0.0008673686534166336,0.00009729713201522827,0.0026773731224238873
1782836326070664400,5.16666455078125,-0.0021471595391631126,0.0008228980004787445,-0.0013971403241157532
1782836326080593400,5.176593505859375,-0.001098407432436943,0.0012679118663072586,0.0010258033871650696
1782836326090523400,5.1865234375,0.0013259612023830414,0.0004041530191898346,0.0006294692866504192
1782836326100452400,5.196452392578125,0.0006460566073656082,0.0013541029766201973,-0.00016495119780302048
1782836326110382300,5.20638232421875,0.00030581187456846237,0.0021072132512927055,-0.00018876837566494942
1782836326120311600,5.2163115234375,-0.002368268556892872,0.001905345357954502,0.000579021405428648
1782836326130241300,5.2262412109375,0.0013901479542255402,0.0009287269786000252,0.001332105603069067
1782836326140170200,5.236170166015625,0.0002093026414513588,0.0005396390333771706,0.0007163831032812595
1782836326150100500,5.2461005859375,0.0015208739787340164,-0.0011673159897327423,-0.0006297705695033073
1782836326160030500,5.256030517578125,-0.0022943709045648575,-0.0012344270944595337,-0.0006508096121251583
1782836326169959400,5.26595947265625,-0.00024909432977437973,0.00002689473330974579,-0.00007412442937493324
1782836326179889400,5.275889404296875,-0.000552961602807045,-0.0007504820823669434,0.0014020660892128944
1782836326189818400,5.285818359375,0.000577692873775959,0.00032579991966485977,0.0019915299490094185
1782836326199748600,5.29574853515625,0.0014176545664668083,-0.001122959889471531,0.00008896738290786743
1782836326209674200,5.30567431640625,-0.0012915795668959618,-0.002683838829398155,0.001634933054447174
1782836326219603500,5.315603515625,-0.00007563922554254532,-0.00017008185386657715,0.001004552934318781
1782836326229533400,5.325533447265625,-0.002161114476621151,-0.000885683111846447,0.0018224879167973995
1782836326239462400,5.33546240234375,-0.0004561580717563629,0.0013068979606032372,0.001302905846387148
1782836326249392400,5.345392333984375,-0.0012960908934473991,0.0004434138536453247,0.0023008007556200027
1782836326259321300,5.3553212890625,-0.0020553581416606903,0.0002599228173494339,0.0001428406685590744
1782836326269251300,5.365251220703125,0.00038151443004608154,-0.0001722574234008789,-0.0017579616978764534
1782836326279180500,5.3751806640625,-0.0005655065178871155,-0.0014207474887371063,0.0005011977627873421
1782836326289110500,5.385110595703125,-0.0007253671064972878,0.002118181437253952,0.0008741500787436962
1782836326299039500,5.39503955078125,-0.00009473133832216263,0.002152536064386368,0.0011814790777862072
1782836326308969500,5.404969482421875,-0.0003865184262394905,0.001482970081269741,-0.0010202135890722275
1782836326318899500,5.4148994140625,-0.0013937251642346382,-0.0002874992787837982,0.0010767597705125809
1782836326328828400,5.424828369140625,0.0005947425961494446,-0.0013788193464279175,-0.00006855279207229614
1782836326338758000,5.4347578125,-0.0017720088362693787,-0.0014517894014716148,0.0018920665606856346
1782836326348686800,5.444686767578125,-0.0003152592107653618,0.00015904754400253296,-0.0010505998507142067
1782836326358616800,5.454616943359375,-0.00032191723585128784,0.0012405570596456528,0.0002311798743903637
1782836326368545800,5.4645458984375,0.0013219937682151794,-0.0006070593371987343,-0.004631551913917065
1782836326378476000,5.47447607421875,0.000657268799841404,-0.0005767000839114189,-0.0008437377400696278
1782836326388404700,5.48440478515625,-0.0006009088829159737,-0.0002612946555018425,-0.0010542110539972782
1782836326398335000,5.4943349609375,-0.0011788150295615196,-0.0005915267392992973,-0.0005551348440349102
1782836326408264000,5.504263916015625,0.0012784413993358612,-0.0004587266594171524,-0.001810002140700817
1782836326418194000,5.51419384765625,-0.0005825748667120934,0.0013679349794983864,-0.0016408911906182766
1782836326428123000,5.524122802734375,-0.0007692975923418999,0.0014021340757608414,-0.0003077862784266472
1782836326438052900,5.534052978515625,0.000300760380923748,0.0017475457862019539,-0.0013022106140851974
1782836326447981800,5.54398193359375,-0.00032874662429094315,0.002319945953786373,0.0009799739345908165
1782836326457912000,5.553912109375,-0.0009407410398125648,0.0005058003589510918,0.0009163245558738708
1782836326467841800,5.563841796875,-0.0014528539031744003,0.0006270268931984901,0.0008685784414410591
1782836326477770800,5.573770751953125,-0.0008128965273499489,0.000570833683013916,0.0015996163710951805
1782836326487701000,5.583700927734375,-0.0017450805753469467,0.0015747351571917534,0.0010761488229036331
1782836326497630000,5.5936298828125,0.000738849863409996,0.00028549879789352417,0.0014111744239926338
1782836326507559700,5.6035595703125,-0.0009135790169239044,0.0012697279453277588,-0.0018112445250153542
1782836326517489000,5.613489013671875,-0.0017524752765893936,-0.0007012775167822838,0.00006521912291646004
1782836326527419000,5.6234189453125,-0.00035012513399124146,-0.001148025505244732,0.0016632876358926296
1782836326537347800,5.633347900390625,-0.0011504050344228745,-0.0020412495359778404,-0.0020419680513441563
1782836326547277800,5.64327783203125,0.00045866239815950394,0.000863960012793541,0.0018921238370239735
1782836326557206800,5.653206787109375,0.0012634703889489174,-0.0027483515441417694,0.0008431044407188892
1782836326567137000,5.663136962890625,-0.0008422452956438065,-0.0021181246265769005,-0.0005369256250560284
1782836326577066000,5.67306591796875,-0.0005634119734168053,0.00018923822790384293,-0.0011116359382867813
1782836326586996000,5.682995849609375,0.00031907111406326294,-0.0014393655583262444,0.0013061892241239548
1782836326596926000,5.692926025390625,0.0012383945286273956,-0.0012614661827683449,-0.00058785080909729
1782836326606855000,5.70285498046875,0.0009001195430755615,-0.0012071812525391579,-0.0008371216244995594
1782836326616785000,5.712784912109375,-0.000644247978925705,-0.0004186192527413368,-0.0000927681103348732
1782836326626714000,5.722714111328125,-0.0017728162929415703,0.0009031966328620911,0.002219627145677805
1782836326636643800,5.732643798828125,-0.0002958271652460098,0.0008022626861929893,0.001870220061391592
1782836326646572800,5.74257275390625,-0.0002896413207054138,0.004641219042241573,-0.0017452128231525421
1782836326656503000,5.7525029296875,0.0003364682197570801,0.0003764331340789795,-0.0002983175218105316
1782836326666432000,5.762431884765625,-0.0015944670885801315,-0.0001739664003252983,0.00032561272382736206
1782836326676361700,5.77236181640625,0.00017200782895088196,0.00022577401250600815,0.000022811349481344223
1782836326686291000,5.782291015625,-0.0015394678339362144,0.001022552140057087,0.0005750264972448349
1782836326696221000,5.792220947265625,-0.0008334638550877571,-0.0004634913057088852,0.0007409416139125824
1782836326706150000,5.80214990234375,0.003484964370727539,-0.0033494681119918823,-0.000043567270040512085
1782836326716079900,5.812079833984375,-0.0011827582493424416,0.00032622646540403366,0.0021271752193570137
1782836326726008800,5.8220087890625,0.0008032508194446564,0.0016823261976242065,0.0017281929031014442
1782836326735938800,5.831938720703125,-0.0002585509791970253,0.000901486724615097,0.00046984944492578506
1782836326745868800,5.841868896484375,-0.0023147379979491234,-0.00038432981818914413,-0.0003892313688993454
1782836326755797800,5.8517978515625,0.0012690778821706772,-0.00022027920931577682,0.00007549067959189415
1782836326765728000,5.86172802734375,0.0007000546902418137,-0.0017558364197611809,-0.0024002729915082455
1782836326775657000,5.871656982421875,0.00026835594326257706,0.0008852202445268631,-0.0010593715123832226
1782836326785587000,5.8815869140625,-0.00048238225281238556,0.0006392905488610268,0.0012380839325487614
1782836326795515600,5.891515625,0.0023765210062265396,-0.0022531691938638687,0.0004146345891058445
1782836326805446000,5.90144580078125,0.000725187361240387,0.0005038492381572723,0.0009821313433349133
1782836326815374800,5.911374755859375,0.000719328410923481,0.0011981353163719177,0.0001048860140144825
1782836326825305000,5.92130517578125,0.0005866857245564461,0.001377689652144909,0.0031575956381857395
1782836326835234000,5.931234130859375,0.0005536628887057304,0.0012610433623194695,-0.0002302117645740509
1782836326845163800,5.941163818359375,-0.004416715353727341,-0.00004763156175613403,0.0017331438139081001
1782836326855094800,5.9510947265625,-0.0009207846596837044,0.0005507813766598701,-0.0005233525298535824
1782836326865023700,5.961023681640625,-0.0008768420666456223,-0.0008846623823046684,-0.00022348063066601753
1782836326874954000,5.9709541015625,0.00021107681095600128,-0.0031842365860939026,-0.0026924540288746357
1782836326884883000,5.980883056640625,0.00032585859298706055,-0.0010856660082936287,0.0006237141788005829
1782836326894813000,5.99081298828125,0.000007768161594867706,-0.001447306014597416,0.0011640079319477081
1782836326904742000,6.000741943359375,-0.00023244880139827728,-0.0010182708501815796,-0.0013489513657987118
1782836326914671900,6.010671875,0.0005359472706913948,-0.0006144391372799873,-0.00006245682016015053
1782836326924600800,6.020600830078125,-0.0009202687069773674,-0.00021576415747404099,-0.0005229171365499496
1782836326934531000,6.030531005859375,0.00023673195391893387,0.0008537126705050468,0.0019841063767671585
1782836326944460000,6.0404599609375,0.00037015601992607117,-0.0009641619399189949,0.0013228431344032288
1782836326954389800,6.0503896484375,-0.0008838502690196037,-0.00038190558552742004,-0.00029481062665581703
1782836326964320000,6.060320068359375,-0.000042557716369628906,0.0011193174868822098,-0.0014974940568208694
1782836326974249000,6.0702490234375,-0.0015163477510213852,0.0015447521582245827,-0.0012277341447770596
1782836326984178700,6.0801787109375,-0.00040074996650218964,0.0002784188836812973,0.0010213050991296768
1782836326994108000,6.09010791015625,0.0018822597339749336,0.0013595456257462502,0.0007378812879323959
1782836327004038000,6.100037841796875,-0.00006477721035480499,-0.00007722992449998856,0.0012888899073004723
1782836327013966800,6.109966796875,-0.001461782492697239,0.0010208319872617722,-0.001641763374209404
1782836327023896800,6.119896728515625,0.003730583004653454,-0.0005799941718578339,0.001238711178302765
1782836327033825800,6.12982568359375,0.0006962278857827187,-0.0016146302223205566,0.0005680089816451073
1782836327043755800,6.139755859375,-0.0008481396362185478,-0.001514761708676815,0.001253240741789341
1782836327053685000,6.14968505859375,0.00014994945377111435,-0.0005351770669221878,-0.0001905062235891819
1782836327063614700,6.15961474609375,-0.0014580674469470978,-0.002440136857330799,-0.001022211741656065
1782836327073543700,6.169543701171875,0.0008218204602599144,-0.0017000967636704445,0.0002720481716096401
1782836327083474000,6.179473876953125,0.0015842840075492859,0.0011281808838248253,0.0033360146917402744
1782836327093404000,6.18940380859375,-0.002106280066072941,0.0009611239656805992,-0.0012458255514502525
1782836327103333000,6.1993330078125,0.0014817966148257256,0.00006630178540945053,-0.0007076007314026356
1782836327113262800,6.209262939453125,-0.002958846278488636,0.0012957211583852768,-0.0038939097430557013
1782836327123191800,6.21919189453125,-0.0003460189327597618,-0.0010329466313123703,-0.001947671640664339
1782836327133122000,6.2291220703125,0.0012387046590447426,-0.00024417415261268616,-0.0005244226194918156
1782836327143051000,6.239051025390625,0.0003777043893933296,0.0007044440135359764,0.0003448333591222763
1782836327152980700,6.248980712890625,-0.0007110061123967171,0.0008671898394823074,0.0005838321521878242
1782836327162910000,6.258909912109375,0.0002855481579899788,-0.0007149940356612206,0.0013217944651842117
1782836327172840000,6.26883984375,-0.0005921414121985435,0.000796901062130928,-0.0002412698231637478
1782836327182769000,6.278768798828125,0.0012289276346564293,0.0014504408463835716,0.0014644847251474857
1782836327192699000,6.288698974609375,-0.00015922542661428452,-0.0024751033633947372,0.0016773254610598087
1782836327202627800,6.2986279296875,0.0025960803031921387,0.0012008575722575188,-0.0028575053438544273
1782836327212557800,6.308557861328125,-0.0005417400971055031,-0.002349340356886387,-0.0018523400649428368
1782836327222487000,6.318487060546875,-0.0005015265196561813,-0.001766107976436615,-0.00007947348058223724
1782836327232416800,6.328416748046875,0.0007811728864908218,0.0006470279768109322,0.001188027672469616
1782836327242345700,6.338345703125,-0.0006649233400821686,-0.0007745670154690742,0.002337714657187462
1782836327252276000,6.34827587890625,-0.00035588163882493973,0.0022448189556598663,-0.0024339668452739716
1782836327262206000,6.3582060546875,0.001489155925810337,0.0015401467680931091,0.002279296051710844
1782836327272134700,6.368134765625,-0.002480623312294483,-0.00045458413660526276,0.002717946656048298
1782836327282065000,6.37806494140625,-0.00033997464925050735,0.00091561209410429,0.0005357526242733002
1782836327291993900,6.387993896484375,-0.0006797425448894501,0.0031444504857063293,-0.0000879061408340931
1782836327301924000,6.397924072265625,-0.0012219613417983055,0.002375328913331032,-0.001676215324550867
1782836327311853000,6.40785302734375,0.0006187791004776955,-0.00036224350333213806,0.001435589510947466
1782836327321782800,6.41778271484375,0.00022356584668159485,0.003392014652490616,0.00014182599261403084
1782836327331711500,6.42771142578125,-0.00005421135574579239,0.00027331337332725525,-0.001806108746677637
1782836327341641700,6.437641845703125,0.0015910891816020012,0.00111487228423357,0.0007478632032871246
1782836327351570700,6.44757080078125,-0.0008234167471528053,0.0011675143614411354,0.0008472716435790062
1782836327361500700,6.457500732421875,-0.00032487325370311737,-0.00043091457337141037,0.0022765900939702988
1782836327371429600,6.4674296875,0.002100699581205845,-0.0022770510986447334,-0.002778473310172558
1782836327381359600,6.477359619140625,-0.0031563807278871536,-0.0013137850910425186,-0.002072468865662813
1782836327391289600,6.48728955078125,0.002452627755701542,-0.0032673198729753494,-0.0027618547901511192
1782836327401218600,6.497218505859375,0.0002635093405842781,-0.0026417430490255356,-0.0013972511515021324
1782836327411148500,6.5071484375,0.002077127806842327,-0.0016157785430550575,-0.0005435463972389698
1782836327421077800,6.517077880859375,0.0006201127544045448,-0.00015796348452568054,0.0020783361978828907
1782836327431007700,6.5270078125,-0.0020786775276064873,-0.0007173726335167885,0.002091212198138237
1782836327440936400,6.5369365234375,-0.0005478924140334129,0.0013867905363440514,-0.0004390566609799862
1782836327450866700,6.54686669921875,-0.0012636436149477959,0.00028527528047561646,-0.00017782766371965408
1782836327460795600,6.556795654296875,-0.002270584926009178,-0.0009070215746760368,-0.00023162364959716797
1782836327470725600,6.5667255859375,0.001355677843093872,0.0010976465418934822,-0.0006574671715497971
1782836327480654600,6.576654541015625,-0.0003005415201187134,0.0013447878882288933,-0.00011711148545145988
1782836327490584600,6.58658447265625,-0.0016795611009001732,-0.00008630286902189255,-0.0000351928174495697
1782836327500513500,6.596513427734375,0.0009708162397146225,0.0007017264142632484,-0.00013319728896021843
1782836327510443800,6.60644384765625,-0.0010937992483377457,0.0027225585654377937,0.0015558754093945026
1782836327520372700,6.616372802734375,0.0006005037575960159,0.0018932502716779709,0.0001593143679201603
1782836327530302500,6.626302490234375,0.0012900205329060555,0.0013915430754423141,0.00005544302985072136
1782836327540232700,6.636232666015625,0.001715327613055706,-0.0013698888942599297,-0.0008186060003936291
1782836327550161700,6.64616162109375,-0.001081877388060093,-0.0006118183955550194,-0.0018407665193080902
1782836327560091600,6.656091552734375,0.0011988533660769463,-0.0011468473821878433,0.00010760175064206123
1782836327570020600,6.6660205078125,-0.001935337670147419,-0.00047506578266620636,-0.0018040062859654427
1782836327579950600,6.67595068359375,0.0003147665411233902,-0.0006830589845776558,0.002269565127789974
1782836327589879800,6.6858798828125,0.001665368676185608,-0.00035295356065034866,0.002165311947464943
1782836327599809500,6.6958095703125,-0.0003628944978117943,-0.002251788042485714,-0.00026002898812294006
1782836327609738500,6.705738525390625,-0.00007709115743637085,0.0009760754182934761,0.0011983481235802174
1782836327619668700,6.715668701171875,-0.0016656666994094849,-0.000257234089076519,0.00013015465810894966
1782836327629597700,6.72559765625,0.0005504218861460686,0.0005794363096356392,-0.00093459477648139
1782836327639527700,6.735527587890625,0.0021949242800474167,0.00025346502661705017,0.0013575884513556957
1782836327649456600,6.74545654296875,-0.0006585493683815002,-0.0007868176326155663,-0.0006701573729515076
1782836327659386600,6.75538671875,-0.0012367218732833862,-0.00083928182721138,-0.0009300820529460907
1782836327669315600,6.765315673828125,-0.00042680371552705765,0.0021647531539201736,-0.001337133813649416
1782836327679245800,6.775245849609375,-0.0008939225226640701,-0.00006963871419429779,0.003292504698038101
1782836327689175600,6.785175537109375,0.001416034996509552,-0.0002965284511446953,0.0003201221115887165
1782836327699104500,6.7951044921875,0.0004333285614848137,-0.00007069297134876251,0.0012269285507500172
1782836327709034800,6.80503466796875,0.0006189597770571709,0.00044444669038057327,0.000817927997559309
1782836327718963700,6.814963623046875,0.0010756924748420715,-0.0008794106543064117,-0.000204459298402071
1782836327728893400,6.8248935546875,-0.000867932103574276,-0.0021834075450897217,-0.0022838637232780457
1782836327738822700,6.83482275390625,0.0010058674961328506,-0.0022739553824067116,-0.002174940425902605
1782836327748752600,6.844752685546875,0.002956211566925049,0.0007222304120659828,-0.0016067656688392162
1782836327758681600,6.854681640625,-0.0007447833195328712,-0.00013291090726852417,-0.0006749257445335388
1782836327768611600,6.864611572265625,0.0014677653089165688,0.0010006148368120193,0.0011475873179733753
1782836327778540500,6.87454052734375,0.001828889362514019,0.0024610916152596474,0.00032919785007834435
1782836327788470800,6.884470703125,-0.00030571408569812775,0.001551605761051178,0.0030920146964490414
1782836327798399700,6.894399658203125,-0.00018347520381212234,0.0017521418631076813,0.0005007595755159855
1782836327808329500,6.90432958984375,-0.0010776780545711517,0.0008141929283738136,-0.0015522432513535023
1782836327818258400,6.914258544921875,0.0005551055073738098,0.0001987367868423462,0.00010424293577671051
1782836327828188700,6.924188720703125,-0.0023192185908555984,-0.00005204230546951294,0.00244072824716568
1782836327838118700,6.93411865234375,-0.000547151081264019,0.0007093558087944984,-0.0009225774556398392
1782836327848047600,6.944047607421875,0.0004312777891755104,-0.001097358763217926,0.0003547659143805504
1782836327857977600,6.9539775390625,-0.0019176295027136803,0.002001495100557804,-0.00025749439373612404
1782836327867906600,6.963906494140625,-0.0011365758255124092,0.0014190254732966423,0.0019544162787497044
1782836327877836800,6.9738369140625,0.00289278756827116,-0.0011914046481251717,-0.0007303166203200817
1782836327887765800,6.983765869140625,-0.0023326585069298744,-0.001572994515299797,0.001246888656169176
1782836327897695500,6.993695556640625,-0.00006151478737592697,-0.0005535371601581573,-0.0014423714019358158
1782836327907624700,7.003624755859375,-0.001512998715043068,0.00038508977741003036,-0.004034089855849743
1782836327917554700,7.0135546875,0.00012591015547513962,-0.001559017226099968,-0.0018084859475493431
1782836327927483600,7.023483642578125,0.0011819303035736084,0.0007851235568523407,0.0017405971884727478
1782836327937413600,7.03341357421875,0.0007750000804662704,0.002021629363298416,0.0010596271604299545
1782836327947342600,7.043342529296875,0.0015561394393444061,-0.0009036604315042496,0.0007957215420901775
1782836327957272600,7.0532724609375,-0.0008172700181603432,0.00012378767132759094,-0.002000331413000822
1782836327967202600,7.06320263671875,-0.0014289692044258118,0.001858874224126339,-0.0005050129257142544
1782836327977131500,7.073131591796875,0.00022618472576141357,0.0015225168317556381,-0.00018942821770906448
1782836327987061800,7.083061767578125,0.002632138319313526,-0.0014987532049417496,-0.0011822925880551338
1782836327996990700,7.09299072265625,-0.0017213309183716774,-0.00019540172070264816,-0.0006262245588004589
1782836328006920700,7.102920654296875,0.0008600885048508644,0.0014797477051615715,0.0007206657901406288
1782836328016849400,7.112849365234375,0.0013788724318146706,0.0009183529764413834,0.0008996305987238884
1782836328026779600,7.122779541015625,-0.00030130334198474884,-0.0015966426581144333,0.0034459028393030167
1782836328036708600,7.13270849609375,-0.00042167771607637405,0.0010263053700327873,-0.0005254033021628857
1782836328046638800,7.142638916015625,-0.0016635311767458916,0.0015180017799139023,0.0002165953628718853
1782836328056567600,7.152567626953125,0.0003460897132754326,-0.00023568980395793915,-0.00041723670437932014
1782836328066497500,7.16249755859375,0.0003542006015777588,-0.000013452954590320587,0.0011704838834702969
1782836328076426800,7.1724267578125,-0.0012610061094164848,-0.0011373069137334824,-0.0006849407218396664
1782836328086356700,7.182356689453125,-0.0009545553475618362,0.00019149668514728546,0.0003880145959556103
1782836328096285700,7.19228564453125,0.0010105911642313004,0.00035128649324178696,0.0007672482170164585
1782836328106215700,7.202215576171875,-0.0026209596544504166,-0.00021069590002298355,0.0005578575655817986
1782836328116144600,7.21214453125,-0.0002885637804865837,-0.0007617045193910599,-0.0027335435152053833
1782836328126074600,7.22207470703125,-0.0000161612406373024,-0.0029772594571113586,-0.00248140562325716
1782836328136004600,7.232004638671875,0.0002863733097910881,-0.0009322185069322586,0.0002209041267633438
1782836328145933600,7.24193359375,0.0015537375584244728,0.001194787211716175,-0.0009172516874969006
1782836328155863600,7.251863525390625,-0.001713428646326065,-0.0000017704442143440247,-0.0004277625121176243
1782836328165792800,7.261792724609375,0.0010502878576517105,0.00025072600692510605,0.000667705200612545
1782836328175722500,7.271722412109375,-0.002539120614528656,-0.00009042490273714066,0.001074369065463543
1782836328185651500,7.2816513671875,-0.0006895503029227257,-0.00040770042687654495,0.0006291554309427738
1782836328195581700,7.291581787109375,0.0003245817497372627,0.0006700800731778145,-0.00016047200188040733
1782836328205510700,7.3015107421875,-0.0014288835227489471,-0.002041950821876526,-0.00001666974276304245
1782836328215440600,7.311440673828125,-0.00042194221168756485,-0.00028000306338071823,0.001938090194016695
1782836328225369600,7.32136962890625,0.0003616577014327049,-0.0013245763257145882,0.00027952389791607857
1782836328235299600,7.331299560546875,0.0022604912519454956,-0.0006691720336675644,0.001287530642002821
1782836328245228500,7.341228515625,-0.0018452918156981468,-0.001166672445833683,-0.0009195548482239246
1782836328255158800,7.35115869140625,0.0013773990795016289,-0.0005072737112641335,-0.0013813469558954239
1782836328265087500,7.36108740234375,-0.0010427683591842651,-0.0010475777089595795,0.00014325836673378944
1782836328275017700,7.371017822265625,-0.001005483791232109,0.0005399323999881744,-0.002991016488522291
1782836328284947700,7.38094775390625,0.0017680805176496506,0.0022509172558784485,0.0004968689754605293
1782836328294876700,7.390876708984375,-0.0011398252099752426,0.0010532932355999947,0.0018428303301334381
1782836328304806700,7.400806640625,-0.0011406587436795235,0.0012928545475006104,0.0000839838758111
1782836328314735600,7.410735595703125,-0.0007691476494073868,-0.0005356725305318832,0.0005825283005833626
1782836328324665600,7.42066552734375,0.00006323307752609253,0.0009502479806542397,-0.0030362620018422604
1782836328334595800,7.430595947265625,0.002624128945171833,0.0025635911151766777,-0.0005368855781853199
1782836328344525800,7.44052587890625,-0.000428149476647377,-0.0003137001767754555,0.0003293808549642563
1782836328354455000,7.450455078125,0.00015907734632492065,-0.001582430675625801,-0.0009164456278085709
1782836328364384800,7.460384765625,0.0013940446078777313,-0.001439189538359642,0.001651151105761528
1782836328374313700,7.470313720703125,0.0004925644025206566,0.0006564520299434662,0.0007560625672340393
1782836328384244000,7.480243896484375,0.00022990815341472626,-0.00041504204273223877,0.0003405734896659851
1782836328394173000,7.4901728515625,-0.000684887170791626,0.0006614085286855698,0.0004455018788576126
1782836328404103000,7.50010302734375,-0.0002568410709500313,-0.0004318365827202797,-0.0001956745982170105
1782836328414032000,7.510031982421875,-0.002248619683086872,-0.0009916331619024277,0.0005862298421561718
1782836328423961900,7.5199619140625,-0.0015364447608590126,0.00005985517054796219,-0.0004727402701973915
1782836328433891800,7.529891845703125,0.000772782601416111,-0.0015601450577378273,-0.000574206467717886
1782836328443821000,7.539821044921875,0.0005068155005574226,-0.00016327202320098877,-0.002595843281596899
1782836328453750800,7.549750732421875,-0.0015765754505991936,0.002279113046824932,-0.001520991325378418
1782836328463679700,7.5596796875,0.0003389362245798111,0.0008503291755914688,0.001956930384039879
1782836328473610000,7.56960986328125,-0.0011399174109101295,0.0031518321484327316,0.002310597337782383
1782836328483539000,7.5795390625,-0.0009474614635109901,-0.0027633504942059517,-0.0014705252833664417
1782836328493469000,7.589468994140625,-0.00022174976766109467,0.0017115594819188118,0.0005630641244351864
1782836328503398000,7.59939794921875,0.0009278496727347374,0.0011260760948061943,-0.00021037505939602852
1782836328513327900,7.609327880859375,-0.00041598081588745117,0.00035775359719991684,-0.0011704443022608757
1782836328523256800,7.6192568359375,-0.0015710648149251938,-0.00048310868442058563,-0.001040223054587841
1782836328533186800,7.629186767578125,-0.000007256865501403809,-0.0012791277840733528,0.00007457658648490906
1782836328543115800,7.63911572265625,0.00176159106194973,-0.0036335140466690063,0.0005072560161352158
1782836328553046000,7.6490458984375,0.002852954901754856,-0.00014237593859434128,0.0018116720020771027
1782836328562975000,7.65897509765625,-0.00027872342616319656,0.0020186565816402435,-0.0007052882574498653
1782836328572904700,7.66890478515625,-0.000973009504377842,0.00047828443348407745,-0.00039875879883766174
1782836328582835000,7.6788349609375,-0.0023027313873171806,-0.00090833380818367,-0.0013468475081026554
1782836328592764000,7.688763916015625,0.0037530306726694107,0.001432051882147789,-0.0034028077498078346
1782836328602694000,7.69869384765625,0.0007824748754501343,-0.0004633963108062744,0.0006974148564040661
1782836328612623000,7.708623046875,-0.000018870458006858826,-0.0004591355100274086,-0.0005761086940765381
1782836328622552800,7.718552734375,0.001647690311074257,0.003055172972381115,0.0012894608080387115
1782836328632481800,7.728481689453125,-0.0008101416751742363,0.0010327687487006187,-0.0013814237900078297
1782836328642412000,7.738412109375,0.002506336197257042,-0.0003023715689778328,0.0006290804594755173
1782836328652341000,7.748341064453125,0.00041895080357789993,0.0002726055681705475,0.000650918111205101
1782836328662270700,7.758270751953125,-0.0008812034502625465,-0.000403696671128273,-0.00046282727271318436
1782836328672200000,7.768199951171875,0.00010336749255657196,0.0018994053825736046,-0.0011499226093292236
1782836328682130000,7.7781298828125,0.004137702751904726,0.0013449853286147118,0.0008831499144434929
1782836328692059000,7.788058837890625,0.0002518845722079277,-0.00023932941257953644,-0.0001512216404080391
1782836328701988900,7.79798876953125,0.0007733218371868134,-0.0016184495761990547,-0.0026978515088558197
1782836328711917800,7.807917724609375,-0.00017476361244916916,0.0016929255798459053,0.00044920574873685837
1782836328721847800,7.817847900390625,0.0005348613485693932,-0.0004920186474919319,0.002245950512588024
1782836328731777000,7.827777099609375,-0.00010642781853675842,0.0002696458250284195,0.0014139795675873756
1782836328741706800,7.837706787109375,-0.0004134075716137886,-0.00036292150616645813,-0.0014487123116850853
1782836328751637000,7.847636962890625,0.0017698518931865692,-0.001209806650876999,0.001705802045762539
1782836328761566000,7.85756591796875,-0.001260434277355671,-0.0009034257382154465,-0.0014228974469006062
1782836328771496000,7.867495849609375,0.0016426770016551018,-0.0006509581580758095,-0.00014697713777422905
1782836328781425000,7.8774248046875,0.0005414579063653946,-0.0007655862718820572,-0.0027525578625500202
1782836328791355000,7.88735498046875,-0.0010282089933753014,-0.0023405803367495537,0.00035481806844472885
1782836328801283800,7.897283935546875,-0.0013582557439804077,0.0007143467664718628,0.00035927537828683853
1782836328811214000,7.907214111328125,0.00022179819643497467,0.004216402769088745,-0.0012761722318828106
1782836328821142800,7.917142822265625,-0.0008255727589130402,0.0015204856172204018,0.0024248789995908737
1782836328831072800,7.92707275390625,-0.000571773387491703,0.0001891711726784706,0.001271197572350502
1782836328841002000,7.937001953125,0.000407160259783268,0.0012192633002996445,-0.00022404128685593605
1782836328850932000,7.946931884765625,-0.0005811387673020363,-0.000583963468670845,-0.0005406909622251987
1782836328860861000,7.95686083984375,0.000383659265935421,0.0014720950275659561,-0.0018053511157631874
1782836328870791000,7.966791015625,-0.0019418131560087204,-0.0001684129238128662,-0.0017065475694835186
1782836328880721000,7.976720947265625,0.00006990134716033936,0.0005208775401115417,0.001184418797492981
1782836328890649900,7.98664990234375,0.0006776349619030952,0.00016427971422672272,0.0003561759367585182
1782836328900579800,7.996579833984375,-0.0014908937737345695,-0.0013520130887627602,-0.00024143513292074203
1782836328910508800,8.0065087890625,0.00016266293823719025,-0.0006673140451312065,-0.0006369142793118954
1782836328920439000,8.01643896484375,0.0017905812710523605,-0.0012044347822666168,-0.0020328103564679623
1782836328930368000,8.026367919921874,0.0011908374726772308,0.0013191765174269676,-0.002440274227410555
1782836328940297700,8.036297607421876,0.0003205779939889908,-0.00039364397525787354,-0.00018897559493780136
1782836328950226700,8.046226806640625,0.0018646791577339172,-0.0026101935654878616,-0.0018105744384229183
1782836328960157000,8.056156982421875,-0.0008039716631174088,0.0009065289050340652,-0.0022676666267216206
1782836328970086000,8.0660859375,0.00003838632255792618,0.00011530332267284393,-0.000810917466878891
1782836328980015900,8.076015869140624,0.00040553417056798935,0.0021269964054226875,0.002128561958670616
1782836328989944800,8.08594482421875,-0.0000868840143084526,0.0013671964406967163,-0.0018643159419298172
1782836328999874800,8.095874755859375,0.0031464146450161934,0.00012150313705205917,0.0018361695110797882
1782836329009803800,8.1058037109375,-0.0011316873133182526,0.0007212478667497635,-0.00009169289842247963
1782836329019734000,8.115734130859375,0.0003444766625761986,-0.0004208376631140709,-0.00015608081594109535
1782836329029662700,8.125662841796874,0.0009455522522330284,-0.001215791329741478,0.0011597871780395508
1782836329039593000,8.135593017578126,-0.001073502004146576,-0.0004826206713914871,-0.0014821803197264671
1782836329049523000,8.14552294921875,0.0014977799728512764,-0.001637633889913559,-0.000510659534484148
1782836329059452000,8.155451904296875,-0.002484867349267006,-0.003247336484491825,0.0004011886194348335
1782836329069382000,8.1653818359375,0.0010552722960710526,-0.0012038927525281906,-0.00038364483043551445
1782836329079310800,8.175310791015624,-0.0006618238985538483,-0.0006423741579055786,-0.0016176886856555939
1782836329089240800,8.18524072265625,-0.001822429709136486,-0.0022906046360731125,-0.0008016959764063358
1782836329099170000,8.195170166015625,0.002852261997759342,-0.002240668050944805,0.0004405723884701729
1782836329109099800,8.205099853515625,-0.0001645674929022789,-0.0009330557659268379,-0.0018273754976689816
1782836329119028700,8.21502880859375,-0.002034807577729225,0.003197604790329933,-0.0011925934813916683
1782836329128959000,8.224958984375,0.00014259293675422668,0.0011195400729775429,-0.00026128580793738365
1782836329138888000,8.234887939453126,-0.0007778285071253777,0.002426333725452423,-0.00022840546444058418
1782836329148817700,8.244817626953125,0.0005705300718545914,0.0012811748310923576,-0.00023932429030537605
1782836329158747000,8.254746826171875,0.0008601294830441475,0.0019145216792821884,-0.00016302568838000298
1782836329168676900,8.2646767578125,0.00117571372538805,-0.0012477152049541473,0.00197602529078722
1782836329178605800,8.274605712890626,0.0005627525970339775,-0.0003643687814474106,-0.000049400608986616135
1782836329188535800,8.284535888671876,-0.00013499613851308823,0.0001996885985136032,-0.0013290494680404663
1782836329198465800,8.2944658203125,-0.0012953104451298714,0.0011986307799816132,-0.0004711262881755829
1782836329208395000,8.30439501953125,-0.00008756667375564575,-0.0001225639134645462,-0.00023170839995145798
1782836329218325000,8.314324951171875,-0.0002485327422618866,0.000040164217352867126,-0.0018565836362540722
1782836329228254000,8.32425390625,-0.000517512671649456,-0.00003786664456129074,-0.0006842603906989098
1782836329238184000,8.334183837890626,0.00025860685855150223,-0.0018318258225917816,0.0007955972105264664
1782836329248113000,8.34411279296875,-0.0001419326290488243,-0.001563912257552147,-0.0005967034958302975
1782836329258043000,8.35404296875,-0.00024851784110069275,0.00008733291178941727,0.001969309523701668
1782836329267972000,8.36397216796875,-0.0014285650104284286,-0.0021222922950983047,-0.0031860382296144962
1782836329277901800,8.37390185546875,-0.0009336266666650772,-0.0026252353563904762,-0.00011479062959551811
1782836329287830800,8.383830810546876,0.0018035704270005226,-0.00008671078830957413,-0.0008167997002601624
1782836329297761000,8.393760986328125,0.0008434262126684189,0.0003793388605117798,0.00023294612765312195
1782836329307690000,8.40368994140625,0.001443968154489994,-0.000935729593038559,0.0008510658517479897
1782836329317619700,8.41361962890625,0.00023556314408779144,-0.0027030371129512787,0.002091989852488041
1782836329327549000,8.423548828125,-0.0023650135844945908,-0.00040526222437620163,-0.000019098632037639618
1782836329337478100,8.43347802734375,0.0007766345515847206,0.0014533419162034988,0.0007553212344646454
1782836329347407400,8.443407470703125,-0.0003861011937260628,0.0015606675297021866,0.0010879496112465858
1782836329357337300,8.45333740234375,0.000022435560822486877,-0.0010535335168242455,0.002038688398897648
1782836329367267300,8.463267333984374,0.0009204531088471413,0.0007430342957377434,-0.000051892828196287155
1782836329377196300,8.4731962890625,-0.001337244175374508,0.0010093813762068748,-0.000999577809125185
1782836329387126300,8.483126220703125,-0.0007151300087571144,-0.00025828275829553604,-0.0005934457294642925
1782836329397055200,8.49305517578125,0.000642591156065464,-0.00266281608492136,-0.00006502959877252579
1782836329406985200,8.502985107421875,0.0003126254305243492,-0.0026135481894016266,0.0006761280819773674
1782836329416914200,8.5129140625,0.0001572389155626297,-0.0028982162475585938,0.0022987304255366325
1782836329426844400,8.522844482421876,0.000622759573161602,-0.0025203144177794456,0.0012979144230484962
1782836329436773400,8.5327734375,-0.0013279551640152931,-0.0018983986228704453,-0.0013104258105158806
1782836329446703000,8.542703125,-0.00032607465982437134,0.00023452751338481903,-0.002836949657648802
1782836329456632300,8.55263232421875,-0.000994914211332798,-0.00014587491750717163,0.00010407250374555588
1782836329466562300,8.562562255859374,0.0011976659297943115,-0.0003267033025622368,0.0008279196918010712
1782836329476491300,8.5724912109375,0.0017948569729924202,0.0008406834676861763,-0.0021654395386576653
1782836329486421200,8.582421142578125,0.0015679551288485527,0.0008369553834199905,-0.0009654192253947258
1782836329496350200,8.59235009765625,0.000118243508040905,0.001544356346130371,0.0030210381373763084
1782836329506280200,8.6022802734375,0.00005778949707746506,0.000045795924961566925,-0.00019632652401924133
1782836329516210400,8.61221044921875,-0.0009727049618959427,-0.00019401311874389648,0.0018065683543682098
1782836329526139100,8.62213916015625,-0.0016619311645627022,0.0026494432240724564,-0.0016424916684627533
1782836329536069000,8.632069091796875,-0.0008970433846116066,-0.0015426073223352432,-0.0002254401333630085
1782836329545998300,8.641998291015625,0.00006329268217086792,-0.00007946603000164032,0.0016198642551898956
1782836329555928300,8.65192822265625,0.001590905711054802,0.001649211160838604,-0.0015528560616075993
1782836329565857300,8.661857177734374,0.000779174268245697,-0.00033963751047849655,-0.0016798889264464378
1782836329575787300,8.671787353515626,0.0008768737316131592,-0.0014465870335698128,0.0006679948419332504
1782836329585716200,8.68171630859375,-0.0007447255775332451,-0.0016322089359164238,-0.00010272394865751266
1782836329595646200,8.691646240234375,-0.0014004223048686981,-0.0025684693828225136,0.0010169688612222672
1782836329605575400,8.701575439453125,0.000639292411506176,-0.00233624130487442,-0.00020169327035546303
1782836329615505200,8.711505126953124,0.0001449882984161377,-0.0011225910857319832,-0.0005046725273132324
1782836329625434000,8.72143408203125,-0.0001807166263461113,-0.003299458883702755,0.0018732640892267227
1782836329635364400,8.7313642578125,-0.0002579065039753914,0.0005515627562999725,-0.000613936223089695
1782836329645293300,8.741293212890625,-0.00046110525727272034,0.0015507806092500687,-0.00142726581543684
1782836329655223300,8.751223388671875,0.000024546869099140167,0.0013997824862599373,-0.0011449768207967281
1782836329665152300,8.76115234375,-0.00010435003787279129,0.0011702179908752441,0.00040445011109113693
1782836329675082200,8.771082275390626,-0.002504301257431507,0.00025896355509757996,0.00042328890413045883
1782836329685012200,8.78101220703125,0.0004118597134947777,0.0029855072498321533,0.0010731006041169167
1782836329694941200,8.790941162109375,-0.00010301265865564346,0.0016155308112502098,0.0017765164375305176
1782836329704871200,8.80087109375,-0.00023617129772901535,0.0008831610903143883,0.0009607905521988869
1782836329714800400,8.81080029296875,-0.00014889519661664963,0.0008330531418323517,0.0010254224762320518
1782836329724730400,8.82073046875,-0.0009422507137060165,0.0009523630142211914,-0.0003133481368422508
1782836329734659000,8.8306591796875,0.0006711622700095177,-0.00034537073224782944,-0.0000830148346722126
1782836329744589300,8.84058935546875,-0.0015512453392148018,0.0006463909521698952,-0.0012316363863646984
1782836329754518300,8.850518310546875,0.0003042006865143776,-0.0013143867254257202,0.0001241881400346756
1782836329764448300,8.8604482421875,-0.00011498108506202698,0.0005817832425236702,0.0005769254639744759
1782836329774377500,8.87037744140625,-0.0013488233089447021,0.00013116002082824707,-0.00023683160543441772
1782836329784307200,8.88030712890625,0.0006924895569682121,0.001497361809015274,-0.0004197908565402031
1782836329794236200,8.890236083984375,-0.0002341698855161667,0.00026182085275650024,-0.0014013252221047878
1782836329804166400,8.90016650390625,-0.000050677917897701263,0.0013174982741475105,-0.0017201057635247707
1782836329814095400,8.910095458984374,-0.0011828187853097916,0.0012884512543678284,-0.0012170206755399704
1782836329824025000,8.920025146484376,0.0003128126263618469,-0.001037553884088993,-0.0016628340817987919
1782836329833954300,8.929954345703125,0.0010638302192091942,0.00006977841258049011,-0.0012535923160612583
1782836329843884300,8.93988427734375,-0.00021209008991718292,0.0009656650945544243,0.0008545657619833946
1782836329853814300,8.949814208984375,0.002184435725212097,0.0008037444204092026,0.0021664276719093323
1782836329863743200,8.9597431640625,-0.0014715520665049553,0.0007949555292725563,-0.00020564952865242958
1782836329873673200,8.969673095703126,0.0017461925745010376,-0.000014452263712882996,0.003507595509290695
1782836329883602200,8.979602294921875,0.0003514951094985008,-0.000038154423236846924,0.0009640101343393326
1782836329893532200,8.9895322265625,0.0004406590014696121,0.0012282785028219223,-0.00042215874418616295
1782836329903461000,8.999461181640624,-0.00007519498467445374,-0.0008785482496023178,-0.0021886336617171764
1782836329913391400,9.009391357421874,-0.0011621685698628426,-0.00023387186229228973,0.0012684911489486694
1782836329923320300,9.0193203125,0.0013281535357236862,-0.0021388307213783264,0.0016607744619250298
1782836329933250300,9.029250244140625,0.00005224160850048065,-0.0013238200917840004,0.00036450475454330444
1782836329943179300,9.03917919921875,-0.0008998382836580276,-0.0003238031640648842,-0.0019340692088007927
1782836329953109200,9.049109130859375,-0.000057894736528396606,0.00009153876453638077,-0.0015184921212494373
1782836329963038200,9.0590380859375,0.001858249306678772,0.001325647346675396,-0.00027825823053717613
1782836329972968400,9.068968505859376,-0.0005910703912377357,-0.0013685282319784164,0.001144111156463623
1782836329982897400,9.0788974609375,0.0009016320109367371,-0.0011264467611908913,-0.001859135925769806
1782836329992827100,9.0888271484375,0.00044847745448350906,-0.00013146642595529556,-0.0008813822641968727
1782836330002757400,9.09875732421875,-0.0010311752557754517,0.000027257949113845825,-0.00005713384598493576
1782836330012686300,9.108686279296874,0.0011804336681962013,-0.0002043275162577629,0.0004176897928118706
1782836330022616000,9.118615966796876,-0.001540517434477806,0.00047051720321178436,0.0016619190573692322
1782836330032545300,9.128545166015625,0.0006279721856117249,0.0012292750179767609,0.0016052750870585442
1782836330042475300,9.138475341796875,0.0003411499783396721,-0.00002454034984111786,-0.0007710638456046581
1782836330052404200,9.148404296875,0.00006263889372348785,0.0008990010246634483,0.0018069706857204437
1782836330062334200,9.158334228515624,0.002159345895051956,-0.0004128720611333847,0.0006333151832222939
1782836330072263200,9.16826318359375,-0.0012943316251039505,0.000636606477200985,-0.0019529997371137142
1782836330082193400,9.178193359375,0.001680951565504074,0.00009971391409635544,0.00008298642933368683
1782836330092122400,9.188122314453125,0.0005099233239889145,-0.0006614020094275475,0.0012536700814962387
1782836330102052000,9.198052001953124,-0.0010893046855926514,-0.0002089301124215126,-0.0018656905740499496
1782836330111981000,9.20798095703125,-0.001314925029873848,0.0008045956492424011,-0.0006998968310654163
1782836330121911300,9.217911376953126,0.00186116062104702,0.0009308299049735069,-0.0001150667667388916
1782836330131840300,9.22784033203125,-0.0005843406543135643,0.00032755639404058456,-0.0004354901611804962
1782836330141770200,9.237770263671875,0.0007629524916410446,-0.0007797861471772194,0.0006489492952823639
1782836330151699200,9.24769921875,-0.00020947307348251343,0.001948314718902111,0.0008510909974575043
1782836330161629200,9.257629150390626,0.001309860497713089,0.0013048956170678139,-0.0027284640818834305
1782836330171558400,9.267558349609375,0.0005893288180232048,-0.0009561972692608833,0.0012168549001216888
1782836330181488400,9.27748828125,0.0015680398792028427,0.00008456595242023468,0.0008093910291790962
1782836330191418000,9.287418212890625,0.001507059670984745,0.00010544992983341217,-0.002261824905872345
1782836330201347300,9.297347412109374,0.0015206420794129372,0.000045795924961566925,-0.0026336018927395344
1782836330211277300,9.30727734375,-0.001003284938633442,0.0002397364005446434,0.002406119368970394
1782836330221205200,9.317205322265625,0.00036120694130659103,0.0011165104806423187,0.0018253838643431664
1782836330231134200,9.32713427734375,-0.0021339086815714836,0.0021306416019797325,0.001240554265677929
1782836330241064200,9.337064208984375,-0.0017238035798072815,0.0013194149360060692,-0.00014639366418123245
1782836330250994200,9.346994140625,0.0000988636165857315,-0.0009653102606534958,-0.002627127803862095
1782836330260923100,9.356923095703126,-0.0005146535113453865,-0.0002662716433405876,-0.0029118028469383717
1782836330270853400,9.366853271484375,-0.0012984219938516617,-0.002410915680229664,0.0004997067153453827
1782836330280782300,9.3767822265625,0.0016230745241045952,-0.0014969836920499802,-0.0006495933048427105
1782836330290712300,9.38671240234375,-0.0007178438827395439,-0.0013206824660301208,-0.0003798147663474083
1782836330300641300,9.396641357421874,0.001803182065486908,-0.00022862013429403305,-0.0006322585977613926
1782836330310571300,9.4065712890625,0.000492108054459095,-0.00027629081159830093,0.000733410008251667
1782836330320500500,9.41650048828125,0.0006271107122302055,-0.0010910332202911377,-0.0012013544328510761
1782836330330430200,9.42643017578125,0.0001908848062157631,-0.0005682548508048058,-0.0018921783193945885
1782836330340363000,9.436363037109375,0.0015262877568602562,0.0013596909120678902,-0.002876239363104105
1782836330350293200,9.446293212890625,-0.00004231370985507965,0.0020707547664642334,0.00032754335552453995
1782836330360222200,9.45622216796875,-0.002758694812655449,0.0006749136373400688,-0.00039757415652275085
1782836330370152200,9.466152099609374,0.00011432357132434845,-0.0008793072775006294,0.0009055100381374359
1782836330380081200,9.4760810546875,0.00030197203159332275,0.00006091408431529999,0.002198772504925728
1782836330390011100,9.48601123046875,-0.0011009806767106056,0.001262531615793705,-0.0002974080853164196
1782836330399940400,9.4959404296875,-0.0018661348149180412,-0.0008278768509626389,0.00023760832846164703
1782836330409870000,9.5058701171875,0.000561070628464222,-0.0025615952908992767,-0.0018652230501174927
1782836330419799000,9.515799072265626,-0.0018616067245602608,-0.002081139013171196,-0.0017390171997249126
1782836330429729300,9.525729248046876,0.000339762307703495,-0.0023437272757291794,0.0013033775612711906
1782836330439659000,9.535658935546875,-0.001475033350288868,0.0005210293456912041,0.00004700757563114166
1782836330449588000,9.545587890625,-0.002125910483300686,-0.0008427752181887627,-0.0009056050330400467
1782836330459518200,9.555518310546875,0.000569680705666542,-0.00036939792335033417,-0.0006899461150169373
1782836330469447200,9.565447265625,-0.0013192994520068169,-0.00151748675853014,0.0004520174115896225
1782836330479377200,9.575377197265626,0.0006479714065790176,-0.001264801248908043,0.0023159319534897804
1782836330489306000,9.58530615234375,0.0020107105374336243,-0.00019128061830997467,0.002236303873360157
1782836330499236000,9.595236083984375,-0.00020074937492609024,-0.0014501968398690224,-0.0028690313920378685
1782836330509165000,9.6051650390625,0.00011803023517131805,0.0027482770383358,-0.0017454437911510468
1782836330519095300,9.61509521484375,-0.0009463988244533539,0.002416905015707016,0.0009492007084190845
1782836330529024000,9.62502392578125,-0.0012590531259775162,-0.0012377509847283363,0.0011697099544107914
1782836330538954000,9.6349541015625,0.0020006531849503517,0.0020256461575627327,0.0007492280565202236
1782836330548883200,9.64488330078125,-0.0003314763307571411,-0.00027079787105321884,-0.0015599983744323254
1782836330558813200,9.654813232421875,-0.0009024813771247864,0.0007473137229681015,0.0015286151319742203
1782836330568742100,9.6647421875,0.00019740406423807144,-0.00045989733189344406,0.0014577750116586685
1782836330578672000,9.674672119140626,-0.0011960826814174652,0.0006325040012598038,-0.0010876553133130074
1782836330588601000,9.68460107421875,-0.0000392058864235878,-0.00276036374270916,0.00015044864267110825
1782836330598531300,9.69453125,-0.0013672299683094025,-0.00033318623900413513,-0.0006370428018271923
1782836330608460300,9.704460205078124,0.00006581656634807587,-0.0010067000985145569,0.0001134364865720272
1782836330618390000,9.71439013671875,0.0006465893238782883,-0.0004326850175857544,-0.002618141006678343
1782836330628320300,9.7243203125,-0.0014277463778853416,-0.0011147204786539078,0.0015124212950468063
1782836330638249200,9.734249267578125,-0.000861315056681633,-0.0006413552910089493,0.0024437950924038887
1782836330648179000,9.744178955078125,-0.0007004598155617714,0.0003908863291144371,0.000200614333152771
1782836330658108200,9.754108154296874,-0.0003208965063095093,0.0034816227853298187,-0.0007857177406549454
1782836330668038100,9.7640380859375,-0.0003009224310517311,0.00111354049295187,-0.0019159633666276932
1782836330677967000,9.773967041015625,0.0002599665895104408,0.0024322932586073875,0.00047850608825683594
1782836330687897000,9.78389697265625,-0.00044870004057884216,0.00023678317666053772,-0.000686360988765955
1782836330697826000,9.793825927734375,0.0006741024553775787,0.004035886377096176,-0.002312802243977785
1782836330707756000,9.803756103515624,-0.002123282290995121,0.03776402026414871,0.03196873888373375
1782836330717685200,9.813685302734376,-0.0010395916178822517,0.13043422996997833,0.08158737421035767
1782836330727615200,9.823615234375,-0.005218358710408211,0.43885624408721924,0.2698449194431305
1782836330737544000,9.8335439453125,-0.011321328580379486,0.7687779068946838,0.4676606357097626
1782836330747474200,9.84347412109375,-0.013365304097533226,0.9207826256752014,0.555973470211029
1782836330757403100,9.853403076171874,-0.026228804141283035,-0.30867379903793335,-0.21149103343486786
1782836330767333000,9.8633330078125,0.01168635580688715,-0.6683099865913391,-0.3804856538772583
1782836330777263000,9.87326318359375,0.009324366226792336,-0.9167843461036682,-0.5606685280799866
1782836330787192000,9.883192138671875,0.010419989936053753,-0.6908103227615356,-0.608750581741333
1782836330797122300,9.893122314453125,-0.016986485570669174,0.26924243569374084,0.39150363206863403
1782836330807051300,9.90305126953125,-0.013329698704183102,0.4598366320133209,0.2856278121471405
