time,seconds_elapsed,z,y,x
1782829666434095400,0.073095458984375,0.2881260369956493,0.07788454612605274,0.07530387284993194
1782829666444024300,0.0830244140625,0.3671118954271078,0.08499342828318476,0.025278571568103505
1782829666453953300,0.092953369140625,0.08069324687123298,0.036735629864223296,0.010313418386061675
1782829666463881200,0.102881103515625,-0.36287060459554193,-0.04771072246283292,0.05649085316727869
1782829666473810400,0.112810546875,-0.5581996999502181,-0.0866807237830013,0.04321742963157594
1782829666483738400,0.12273828125,-0.31997955737411976,-0.05214768199697137,0.013654924533423035
1782829666493667300,0.132667236328125,0.03728022160232067,0.032305063538253305,0.0223089720396325
1782829666503595300,0.14259521484375,0.18674363783895967,0.07981595258004963,0.03540910766792949
1782829666513524200,0.152524169921875,0.0976455507159233,0.06338690542448312,0.0712955368242925
1782829666523452200,0.1624521484375,-0.07685469162166118,0.03298924641013145,0.07395601560466457
1782829666533381000,0.172381103515625,-0.1530196474134922,0.03929696825221181,0.10164473075415008
1782829666543309300,0.182309326171875,-0.11817045235037803,0.057741045024618506,0.04611206422769464
1782829666553238300,0.19223828125,-0.053990533384680746,0.017949680851586162,-0.0043548753078328445
1782829666563166500,0.20216650390625,-0.07299976975917816,-0.0621864801261574,0.012327306358586065
1782829666573095400,0.212095458984375,-0.14885083729624748,-0.14260869150366634,0.025171686260681597
1782829666583023400,0.2220234375,-0.10946399880349636,-0.1529858912743628,0.024579223093134348
1782829666592952300,0.231952392578125,-0.00948445218205452,-0.06533420356735586,0.05468651629220694
1782829666602880300,0.24188037109375,0.004866729253530502,0.11192257093675434,0.02873605507821776
1782829666612809500,0.2518095703125,-0.049935705035924906,0.17401651394125073,0.046218881036457604
1782829666622737400,0.2617373046875,-0.10007423916757106,0.1491960705373436,0.06957186853657477
1782829666632666400,0.271666259765625,-0.11936696865856647,0.11455481913648545,0.12590501952464692
1782829666642594300,0.28159423828125,-0.14226912081837653,0.027806619607843457,0.10661440892550163
1782829666652523300,0.291523193359375,-0.10038520481288432,-0.09354681016020476,-0.005330474307760596
1782829666662451200,0.301451171875,0.01949205145537853,-0.17396376084070653,-0.07848617441416718
1782829666672380200,0.311380126953125,-0.009072948771715163,-0.12358067736346273,-0.019025931780971585
1782829666682308400,0.321308349609375,-0.11367430997490882,-0.03167326844073832,0.06662884192119818
1782829666692237300,0.3312373046875,-0.11755845793187618,0.04863982000648975,0.09435978877721354
1782829666702165200,0.341165283203125,-0.06920914530456065,0.11586513455007225,0.09176761685954406
1782829666712094200,0.35109423828125,-0.06517185261249542,0.1441652732959017,0.07314937539689709
1782829666722022400,0.3610224609375,-0.06563479394912719,0.13525054729320107,0.054851876621483824
1782829666731951400,0.370951416015625,-0.07267769819796085,0.02991053308453411,0.05996432883096858
1782829666741879300,0.38087939453125,-0.09183306504487991,-0.07549739526119083,0.042709302012925034
1782829666751808500,0.39080859375,-0.08912848226130009,-0.13954769649785012,-0.0020411139061674473
1782829666761736400,0.400736328125,-0.060974400922656054,-0.11337627687640488,-0.008180703506572172
1782829666771665400,0.41066552734375,-0.05916472115218639,-0.015524718726985156,0.023334164068638346
1782829666781593300,0.42059326171875,-0.07861644059717655,0.0806840041188523,0.05114437300621066
1782829666791522300,0.430522216796875,-0.0787444508910179,0.12211422154009341,0.05543440748348366
1782829666801450200,0.4404501953125,-0.07051321364045143,0.1825042467035353,0.10196430896418168
1782829666811379500,0.45037939453125,-0.10226385816633701,0.11460227500740439,0.0774792897934094
1782829666821307400,0.460307373046875,-0.026115853509306907,0.004773936403542757,0.08126154827848077
1782829666831236400,0.470236328125,-0.05231821625828743,-0.11632292478755116,0.024291341495886444
1782829666841164300,0.480164306640625,-0.12834230227470397,-0.19245438016857952,-0.022092470611585303
1782829666851093200,0.49009326171875,-0.06531389143168925,-0.22529303912688045,-0.04874956399127841
1782829666861021200,0.500021240234375,-0.057494742113351816,-0.0827631484804675,0.014568340450758114
1782829666870950100,0.5099501953125,-0.1041635543078184,0.11477949473783373,0.049872215912234966
1782829666880878300,0.51987841796875,-0.08201192825436592,0.16660696833711117,0.08789605438951402
1782829666890807300,0.529807373046875,-0.03890343888998032,0.1983789113793522,0.11547217144342138
1782829666900735500,0.539735595703125,-0.07797112843096256,0.1597623266067356,0.09589832345610484
1782829666910664200,0.549664306640625,-0.09984744467437266,0.053696117015369235,0.09059781502834521
1782829666920592400,0.55959228515625,-0.06843932997584343,-0.07564122417867183,-0.006148476159758866
1782829666930521300,0.569521240234375,-0.053769584110379215,-0.15955752474963664,-0.02547947356821969
1782829666940449300,0.57944921875,-0.08189151674509047,-0.12138207134064287,-0.008809228934766725
1782829666950378500,0.58937841796875,-0.08801379901766776,-0.04454140824433416,0.05716467447534669
1782829666960306400,0.599306396484375,-0.0977326444774866,0.04017155912965536,0.06744601722271182
1782829666970235400,0.6092353515625,-0.07258709730505943,0.09683445352874696,0.07425720877463464
1782829666980163300,0.619163330078125,-0.05941957269608974,0.10733970012590288,0.053565572271146805
1782829666990092300,0.62909228515625,-0.06436755049228668,0.08237710830494761,0.05349665348709095
1782829667000020200,0.639020263671875,-0.08668167363107204,0.020307167230546472,0.06662500599629712
1782829667009949200,0.64894921875,-0.09536591534614562,-0.039026298084668815,0.031314052340062334
1782829667019877400,0.65887744140625,-0.06453063209950924,-0.0770201843816787,0.028637627071887252
1782829667029806300,0.668806396484375,-0.07470072845816612,-0.05947882860265672,0.008745411017513834
1782829667039734300,0.678734375,-0.06332417891919613,-0.011025544144213199,0.026156665010307913
1782829667049663200,0.688663330078125,-0.06287468158602715,0.03688092008642852,0.052854250230593605
1782829667059591200,0.698591064453125,-0.0884650499165058,0.07178509673979133,0.06620703174597584
1782829667069520100,0.70852001953125,-0.08038286574780941,0.07035689056757836,0.057010041036061006
1782829667079448300,0.7184482421875,-0.06706219640374184,0.049037075695768,0.0611827738431748
1782829667089377300,0.728377197265625,-0.06781622964143752,0.01866816785186529,0.049565268854913296
1782829667099306200,0.73830615234375,-0.07216507250070571,-0.02121573344282806,0.046319532965915275
1782829667109234400,0.748234375,-0.07082067215442657,-0.05302241900488734,0.017154155692877246
1782829667119163400,0.758163330078125,-0.06647475190460682,-0.05003967686705291,0.023772884279466232
1782829667129091300,0.76809130859375,-0.08561959735751151,-0.0231568941058591,0.043318519952450875
1782829667139020500,0.7780205078125,-0.07019932538568974,0.03261215672604739,0.05454378791984636
1782829667148948500,0.787948486328125,-0.07273907299637794,0.06681063279546796,0.05138331916150637
1782829667158877400,0.79787744140625,-0.0740787971675396,0.06408380164746194,0.050191762156225735
1782829667168805400,0.807805419921875,-0.05896656823158264,0.045319735673069954,0.04101072250069119
1782829667178734300,0.817734375,-0.06884674173295498,0.0071717913255095475,0.03870756925800815
1782829667188662300,0.827662353515625,-0.0742395406872034,-0.016310718005523084,0.034866502390941606
1782829667198591200,0.83759130859375,-0.07887363022863865,-0.026962496933899818,0.0357928873877041
1782829667208519200,0.847519287109375,-0.0764706607401371,-0.019674970274232328,0.032519747468549756
1782829667218448400,0.857448486328125,-0.07076806518435477,-0.005776829835772514,0.037526054156129245
1782829667228376300,0.867376220703125,-0.06222995394170284,0.018281725817546248,0.0474607160574058
1782829667238305300,0.87730517578125,-0.0683662647396326,0.030448147092573343,0.060475479523767715
1782829667248233200,0.887233154296875,-0.0695645346134901,0.0326918343661353,0.05131523606108967
1782829667258162200,0.897162109375,-0.07464519887864589,0.02593110805954784,0.03356452554743737
1782829667268090400,0.90709033203125,-0.07270107907354831,0.012253770764917134,0.037362561556953
1782829667278019300,0.917019287109375,-0.07914075673222541,0.002300385896861553,0.036894309290964156
1782829667287947300,0.926947265625,-0.08094459128379822,-0.0071866966336965555,0.04791778477567713
1782829667297876200,0.936876220703125,-0.09680208562910556,-0.02141549379862845,0.035245564836403356
1782829667307804200,0.94680419921875,-0.08452011168301105,-0.004112148026563227,0.025144761721137908
1782829667317733400,0.9567333984375,-0.054879006657004355,0.010908055244386195,0.03466239008700941
1782829667327661300,0.966661376953125,-0.06564297725558281,0.026241708378680048,0.046468499282817356
1782829667337590300,0.97659033203125,-0.08209668392837047,0.021774280641041695,0.05085552329458296
1782829667347518200,0.986518310546875,-0.08178922541439533,0.009462496078573166,0.04761540429561864
1782829667357447200,0.996447265625,-0.08387596856057643,0.0051491994567215435,0.03889268003394827
1782829667367375000,1.006375,-0.06755494835674762,0.004511814868636429,0.03131802982885856
1782829667377304300,1.01630419921875,-0.07834288435280323,0.007649784100800752,0.02532010915488936
1782829667387232300,1.026232177734375,-0.07325871295630931,0.0007299947749823332,0.03547909959764219
1782829667397161200,1.0361611328125,-0.07608604533672332,-0.002710793328657746,0.036740538934781214
1782829667407089200,1.046089111328125,-0.08353226968944072,0.004259520608000457,0.034605097808665594
1782829667417018000,1.05601806640625,-0.07407178290486335,0.011262494705244899,0.03164632563488558
1782829667426946000,1.065946044921875,-0.07300970663130282,0.012061974519863725,0.02865181086086668
1782829667436875000,1.075875,-0.06880874781012535,0.008892660301364957,0.028349768307525662
1782829667446803200,1.08580322265625,-0.07149404137134552,0.005053009073249995,0.03135515153543092
1782829667456732200,1.095732177734375,-0.08345803540945053,0.005930011103488505,0.037519711180310694
1782829667466660400,1.105660400390625,-0.08495207335948944,-0.001648424794152379,0.038412965659028846
1782829667476589300,1.11558935546875,-0.07791326076388358,0.0005407923458144068,0.03692928470622282
1782829667486517200,1.125517333984375,-0.06743219875991344,-0.0022166166035458446,0.02120916213814635
1782829667496446200,1.1354462890625,-0.07100888820290566,0.0066249345650896425,0.018806087618367745
1782829667506374100,1.1453740234375,-0.06545359216332436,0.013701631485670804,0.030477016994031145
1782829667516303400,1.155303466796875,-0.07666589105129241,0.016764599252864717,0.03881714884601533
1782829667526231300,1.165231201171875,-0.07082008763253689,0.016554682829231022,0.04090228912357707
1782829667536160300,1.17516015625,-0.06916238355338573,0.01657715038936585,0.021227606543712318
1782829667546088200,1.185088134765625,-0.0696077892333269,0.0038755627917125817,0.009598292386648244
1782829667556017200,1.19501708984375,-0.0761877521455288,-0.004474989989586174,0.023294407446985133
1782829667565945000,1.204945068359375,-0.09070084614455699,-0.007765994358994066,0.03340216089284513
1782829667575874000,1.2148740234375,-0.08784954836666584,-0.014708580038510262,0.025290645598387344
1782829667585802200,1.22480224609375,-0.06119944185018539,-0.0005427285745739937,0.02525484363264404
1782829667595731200,1.234731201171875,-0.07091302661299705,0.01282188950907439,0.02754093157609459
1782829667605659100,1.2446591796875,-0.07015490172207355,0.0012434241898357868,0.015904612289508804
1782829667615588000,1.254588134765625,-0.07762158434092999,-0.0009531725389882921,0.015589386027608997
1782829667625516300,1.264516357421875,-0.07192717209160328,0.002436835225485265,0.021388834120566025
1782829667635445000,1.274445068359375,-0.06923486426770686,0.0037232583068311214,0.023884897853154688
1782829667645373200,1.284373291015625,-0.0789583859026432,0.0037089009879156943,0.027009852340118958
1782829667655302400,1.294302490234375,-0.07267360654473304,0.003196129160188138,0.0178253786184825
1782829667665230300,1.304230224609375,-0.06638941170871257,-0.005858809030801057,0.01791012515933253
1782829667675159300,1.3141591796875,-0.07041910561621188,-0.0014794614354148507,0.025657720778533257
1782829667685087200,1.324087158203125,-0.08268705103695392,0.005491729284077883,0.02425537969993893
1782829667695016200,1.33401611328125,-0.07625321859717368,0.01705733512174338,0.019401962019130588
1782829667704944000,1.343944091796875,-0.06128536656796932,0.011151435546204447,0.021917451971396804
1782829667714873300,1.353873291015625,-0.08133505190610885,-0.004104366578906774,0.017513805618393233
1782829667724801300,1.36380126953125,-0.06980477311015129,-0.015653861531987785,0.020223932226770557
1782829667734730200,1.373730224609375,-0.07713000143170357,-0.010602532959170638,0.017000152441253885
1782829667744658200,1.383658203125,-0.07383271345198154,0.007205437866784631,0.011919885468319989
1782829667754587100,1.393587158203125,-0.058117842447757716,0.015416436046920716,0.016291625145985745
1782829667764516000,1.40351611328125,-0.07293138069808483,0.013523060048371553,0.015430094679514877
1782829667774444000,1.413444091796875,-0.07606617159247397,0.0016414835967123508,0.02369057629087474
1782829667784373200,1.423373291015625,-0.0709720633238554,-0.006933817851170897,0.01408856671033427
1782829667794301200,1.43330126953125,-0.07620937945544719,-0.009617796238139272,0.010777830160572193
1782829667804230100,1.443230224609375,-0.06663958707749844,-0.004712378942035138,0.006777175117889419
1782829667814158000,1.453157958984375,-0.07262450670599938,0.00534811956230551,0.015585495303780771
1782829667824087000,1.463087158203125,-0.07202244915962219,0.00972512907013297,0.027554955534869804
1782829667834015200,1.47301513671875,-0.07860124302804469,0.015571845804341136,0.029839468009164555
1782829667843944200,1.482944091796875,-0.0769458770364523,0.010962817638926207,0.02424776264906395
1782829667853872400,1.492872314453125,-0.07635141827464104,0.011573241154849529,0.019025593854254112
1782829667863801300,1.50280126953125,-0.061091305300593375,0.011567943925224243,-0.0031624323865631593
1782829667873729300,1.512729248046875,-0.07500409531891346,-0.007637363010644912,0.006918314321362413
1782829667883658200,1.522658203125,-0.07575403690338134,-0.021501418516412376,0.012863290098542347
1782829667893586200,1.532586181640625,-0.07275543960928917,-0.013890541653893888,0.01677776012853719
1782829667903515100,1.54251513671875,-0.07693067946732043,0.0021569588381797076,0.011999435244244523
1782829667913443000,1.552443115234375,-0.07706862663328647,0.019821721801161766,0.020297627650643697
1782829667923372300,1.562372314453125,-0.0736252081811428,0.0156411481808871,0.014496302694431504
1782829667933300200,1.57230029296875,-0.07302431967854499,0.0020024989288300273,0.013674085891619324
1782829667943229200,1.582229248046875,-0.07840601271688938,0.0010847630294039845,0.021594695423590018
1782829667953157000,1.5921572265625,-0.06913023484945297,0.0029223537201061842,0.022995314902556126
1782829667963086000,1.602086181640625,-0.06868599821329116,0.002184614030085504,0.017745107323350384
1782829667973014000,1.612013916015625,-0.07213058570921421,-0.0032267800267785788,0.005034875194937922
1782829667982943200,1.621943115234375,-0.06703530839681625,-0.01655844568889588,0.014836129108048043
1782829667992871200,1.63187109375,-0.07704758384525776,-0.018440021651796996,0.020534285950730553
1782829668002800000,1.641800048828125,-0.07464227626919746,-0.00532152381632477,0.009253337706765159
1782829668012728300,1.651728271484375,-0.06071954937875271,-0.0002548150112852454,0.000031719445670023556
1782829668022657300,1.6616572265625,-0.06595569646656513,0.011122611310519278,0.01409665868524462
1782829668032585200,1.671585205078125,-0.06460603542327881,0.018869499110244214,0.022720717478566802
1782829668042514200,1.68151416015625,-0.058466802015900605,0.017128573727048933,0.021462725907261483
1782829668052442400,1.6914423828125,-0.08300736903250217,-0.0007082578672096133,0.014289436744409613
1782829668062371300,1.701371337890625,-0.08032382903695107,-0.01808192892912775,0.007315821172390133
1782829668072299300,1.71129931640625,-0.06566343552172184,-0.015372816100902855,0.009946133143361657
1782829668082228200,1.721228271484375,-0.06895254019498824,-0.005861841238103806,0.009971240185154601
1782829668092156200,1.73115625,-0.07613631421923638,-0.0019204466685652732,0.011898870079754851
1782829668102085000,1.741085205078125,-0.07447802561819553,-0.0043438378905877465,0.0010625785970594733
1782829668112013000,1.751012939453125,-0.057551440736651416,0.006396971028111874,0.02081315769103821
1782829668121942300,1.7609423828125,-0.0846270791888237,0.01707793951835483,0.012539921629382297
1782829668131870200,1.7708701171875,-0.08029109581112862,0.01793736935928464,0.00791433505481109
1782829668141799200,1.780799072265625,-0.06503390544652939,0.005420052287355065,0.01481484885800164
1782829668151727000,1.79072705078125,-0.0762608173817396,-0.01701784336157143,0.007073591648042201
1782829668161656000,1.800656005859375,-0.08210486723482609,-0.017686390272900462,0.013544080003513953
1782829668171584300,1.810584228515625,-0.06863982098400592,-0.012692600573599338,0.00539564849846065
1782829668181513200,1.82051318359375,-0.07193418635427952,-0.005157017436996102,0.013423965321760625
1782829668191441400,1.83044140625,-0.06339607511162758,0.0034706352526322004,0.0009051823785295709
1782829668201370000,1.8403701171875,-0.07790332389175891,0.01419474876485765,0.007605912993033416
1782829668211298300,1.85029833984375,-0.07894435737729072,0.026291721532866356,0.019904600611911155
1782829668221227300,1.860227294921875,-0.0749064801633358,0.00885188989955932,0.022646437532803973
1782829668231155200,1.8701552734375,-0.07760697129368782,-0.005443140901997685,0.006967336528282612
1782829668241084200,1.880084228515625,-0.06863163767755032,-0.016110300062596797,0.00002285571920219809
1782829668251012000,1.89001220703125,-0.061003042495250695,-0.012243687762320042,0.00262413795851171
1782829668260941300,1.89994140625,-0.08015899386405945,-0.0012364464597776532,0.0038549994942964983
1782829668270869200,1.909869140625,-0.0810544813990593,-0.003107062637247145,0.01081767811377067
1782829668280798200,1.919798095703125,-0.07251286302506924,0.004316292296536266,0.01184357796225231
1782829668290726100,1.92972607421875,-0.08327449553608894,0.023735351580940187,0.009594045469793491
1782829668300655000,1.939655029296875,-0.07040507709085941,0.019237419107183813,0.008126543900230898
1782829668310583000,1.9495830078125,-0.06112228496074676,0.013256773795001208,0.006417351662437431
1782829668320512000,1.959511962890625,-0.06950432885885238,-0.0038777547487989067,0.0029445929513778535
1782829668330440000,1.96943994140625,-0.06920622269511223,-0.021788857155665753,0.01548799431263469
1782829668340369200,1.979369140625,-0.07399462601542472,-0.004610379872284829,0.015046109463763422
1782829668350298000,1.989298095703125,-0.07549626275002956,0.00032426351830363274,0.012365994401159696
1782829668360226000,1.99922607421875,-0.07070902847349643,0.005492131142877042,-0.005290347793349064
1782829668370155000,2.009155029296875,-0.06516659191548824,0.0035766894429922103,0.0028992651054635644
1782829668380083200,2.019083251953125,-0.06441665033102036,-0.004546228594891726,0.013633278957195578
1782829668390012000,2.029011962890625,-0.08012509159445762,0.017777539155073463,0.013800904308794998
1782829668399940000,2.038940185546875,-0.07369125915467739,0.015696641227789222,0.010394717161078005
1782829668409869300,2.048869384765625,-0.06366612422466278,0.004222805326804519,0.006125424077734351
1782829668419797200,2.05879736328125,-0.06561199759542942,-0.006481105647608638,0.00531036766807083
1782829668429726200,2.068726318359375,-0.06097206283509731,-0.01578505016360432,0.012926518927328288
1782829668439654100,2.078654052734375,-0.0677040014386177,0.003292429141514003,0.013167661606287583
1782829668449583000,2.0885830078125,-0.0817687671482563,0.006529949758015572,0.01392112402182538
1782829668459511000,2.098510986328125,-0.07398936531841754,0.002554981712438166,-0.005638563009398058
1782829668469440300,2.108440185546875,-0.05722410847842693,-0.005054835704155266,0.010368450208660215
1782829668479368200,2.1183681640625,-0.06814648450911044,-0.0005855448029935359,0.019771996341343037
1782829668489297200,2.128297119140625,-0.08969780658185482,0.0033758331086486577,0.010180699951061979
1782829668499225000,2.13822509765625,-0.07204699907898902,0.000560337296500802,-0.0018538431391818449
1782829668509154000,2.148154052734375,-0.060977323532104485,0.010257445848546922,0.008298754095402545
1782829668519082000,2.15808203125,-0.0720522597759962,0.009444595095701514,0.014949247793434187
1782829668529011000,2.168010986328125,-0.06546645164489746,-0.010631685988418757,0.0012031241454882546
1782829668538939000,2.17793896484375,-0.07174421674013137,-0.013986074450239538,0.012847430375707335
1782829668548868000,2.1878681640625,-0.07503098332583903,-0.006688391722738742,-0.0009178454972803592
1782829668558796300,2.19779638671875,-0.06844400615096091,-0.009450221118889749,-0.005651696485606953
1782829668568725000,2.20772509765625,-0.056469490718841546,0.00365654974617064,0.00454177618206013
1782829668578653200,2.217653076171875,-0.06231120248436928,0.00010367957018315791,0.02078632904961705
1782829668588582100,2.22758203125,-0.09059212507307529,-0.0051625703949481246,0.01629341981085017
1782829668598510000,2.237510009765625,-0.08310147705674172,-0.00888363674469292,-0.0005720505671808495
1782829668608439300,2.247439208984375,-0.07187281155586242,-0.0011058058174327015,-0.004083995077735744
1782829668618367200,2.2573671875,-0.06574234597682953,0.009240304695256054,0.0017946465981192885
1782829668628296200,2.267296142578125,-0.06963759984970093,0.009688852180354297,0.003832495401543565
1782829668638224100,2.27722412109375,-0.07023030504584311,0.00008844546843320131,0.005057169225136749
1782829668648153000,2.287153076171875,-0.0781523302167654,-0.008419599429517984,0.012592377902404405
1782829668658081000,2.2970810546875,-0.07470891176462173,0.00812719235420227,0.004872930665453895
1782829668668010200,2.30701025390625,-0.06004618016183376,0.00878554666507989,0.0023805201946757735
1782829668677938200,2.316938232421875,-0.05017477448880672,-0.004374525289796293,0.000661482416302897
1782829668687867100,2.3268671875,-0.06274784033596516,-0.017456234778836368,0.00954553928610403
1782829668697795000,2.336795166015625,-0.08399228841662407,-0.01641114617269486,-0.0011797158704372121
1782829668707724000,2.34672412109375,-0.07725859624743461,-0.0031185704119503495,0.0009564285085769369
1782829668717652000,2.35665185546875,-0.07306991238594054,0.003493212410621345,0.002018559581064619
1782829668727581000,2.366580810546875,-0.06857493905425072,0.02013641377352178,0.0009353035221574828
1782829668737509000,2.376509033203125,-0.0944558147639036,0.024154088449664414,0.012181618844158948
1782829668747438000,2.38643798828125,-0.07619359736442566,0.004808532792888581,0.014811232128809205
1782829668757366300,2.3963662109375,-0.060928808215260505,-0.00992225907742977,0.009421995104826055
1782829668767295200,2.406295166015625,-0.07365326523184776,-0.01725559764020145,-0.00017636121390387415
1782829668777223200,2.41622314453125,-0.06692191115021705,-0.002226188149489462,-0.013323377324384636
1782829668787152100,2.426152099609375,-0.060792030093073844,0.0019959230575710535,-0.005981974186166189
1782829668797081300,2.436081298828125,-0.07665770774483681,-0.0026586247500032184,0.013790099786990322
1782829668807009300,2.44600927734375,-0.07724865937530993,0.0007226517187431454,0.011613632530742324
1782829668816938200,2.455938232421875,-0.07664367921948433,0.004260945380106568,0.024586360653396696
1782829668826866200,2.4658662109375,-0.06586392652988433,0.01037489821575582,0.002582340076821856
1782829668836795100,2.475795166015625,-0.06885317147374152,0.00370806073769927,-0.0020567772661801427
1782829668846723000,2.48572314453125,-0.06825169844925404,0.006825717834196984,0.0025922335664625277
1782829668856652000,2.495652099609375,-0.07842880907058715,-0.0016665815053507685,0.016565998807689174
1782829668866580000,2.505580078125,-0.0817161601781845,-0.013963716487959027,0.01881566829746589
1782829668876509200,2.51550927734375,-0.08066168268918991,-0.02001585613377392,0.004514668979425914
1782829668886437000,2.52543701171875,-0.07586568058431148,-0.009450586445070802,-0.006623085101298056
1782829668896366000,2.535365966796875,-0.07675532290041447,0.005289484710246324,-0.008244797701749485
1782829668906294000,2.5452939453125,-0.06358546020388603,0.01963935097157955,0.006015273667569272
1782829668916223000,2.555222900390625,-0.07750584900677204,0.010930522804521024,0.0223343507927726
1782829668926151000,2.56515087890625,-0.07615852605104446,-0.001232427871786058,0.017783101246180013
1782829668936080100,2.575080078125,-0.0712163934737444,-0.017224617980048058,-0.001692284485476557
1782829668946008300,2.58500830078125,-0.06492752246260643,-0.021981055259518323,0.008606655567372216
1782829668955937000,2.59493701171875,-0.08512976801395415,-0.00471921054162085,-0.012856574946676845
1782829668965865200,2.604865234375,-0.07016542311608791,0.0011123451560735701,0.002868584556120913
1782829668975794200,2.614794189453125,-0.07046820545494556,0.0006169628545641899,0.011206088342890143
1782829668985722000,2.62472216796875,-0.07405366272628307,-0.0004694076100364327,0.022212315865280104
1782829668995651000,2.634651123046875,-0.06686345896124839,0.004246624593809247,0.000993235121318139
1782829669005579300,2.644579345703125,-0.06850947260260581,0.009022278030402958,0.00043774981315946205
1782829669015508200,2.65450830078125,-0.06731295629441737,0.007407024853490292,-0.0020547862384933976
1782829669025436200,2.664436279296875,-0.06582242547571658,0.005384359919466078,-0.0021953066707472314
1782829669035365000,2.674365234375,-0.06791910549402237,0.0024408538134768603,0.011155440434464254
1782829669045293000,2.68429296875,-0.08168518051803111,-0.013780176614597439,0.024078169102664103
1782829669055222000,2.694221923828125,-0.07794073329269885,0.0018104834880679846,0.017699665313004515
1782829669065150000,2.70414990234375,-0.07285071667730808,0.007884323509037495,-0.0009346801843610592
1782829669075079200,2.7140791015625,-0.06356383289396762,0.0038926600569859143,-0.0077802123973029665
1782829669085007000,2.724007080078125,-0.06969663656055927,-0.005427760669775307,0.003757617234159261
1782829669094936000,2.73393603515625,-0.07896656920909881,-0.021795359961688517,0.007951678240380716
1782829669104864000,2.743864013671875,-0.10140519551038742,-0.021895130541734396,0.005859423235442955
1782829669114793000,2.75379296875,-0.08972703267633915,0.0009314721638336777,-0.011357972702663392
1782829669124721200,2.76372119140625,-0.06564122368991375,0.007270721655339002,-0.004649074764724355
1782829669134650000,2.773650146484375,-0.06086100367605686,0.0038117037752643224,-0.0001201786138350144
1782829669144578300,2.783578369140625,-0.0662491264551878,0.0013059680320322512,0.011354757832270116
1782829669154507300,2.79350732421875,-0.07642915968596935,-0.007411006908863782,0.017399702835606875
1782829669164435200,2.803435302734375,-0.09318740226328373,0.001946713620983064,0.00431920120625291
1782829669174364200,2.8133642578125,-0.06774608701467513,0.006048669047094881,-0.006904685371520463
1782829669184293000,2.823293212890625,-0.05113572847545147,0.0023187252711504695,0.0028340886314748783
1782829669194221000,2.833220947265625,-0.057871758732199664,0.0016495938379317522,0.011564813536510336
1782829669204150300,2.843150390625,-0.08346504967212677,-0.018564853607863186,0.009987599948199932
1782829669214078200,2.853078125,-0.08271335452198982,-0.015845986570604143,0.002783200977742672
1782829669224007200,2.863007080078125,-0.08525660926401615,0.0014930881019681692,0.010039702311484143
1782829669233935000,2.87293505859375,-0.08241700192391872,0.011019991186261176,0.003989311664761044
1782829669243864000,2.882864013671875,-0.08077391089200973,0.01293638273421675,-0.0012241418173420241
1782829669253792000,2.8927919921875,-0.06596212620735169,-0.001312068979255855,0.001049383472057525
1782829669263721200,2.90272119140625,-0.074941551476717,-0.012050503277778625,0.004784288834198378
1782829669273649200,2.912649169921875,-0.07508651290535927,-0.019567673974856734,0.014846789782668929
1782829669283577900,2.922577880859375,-0.07254208911955357,-0.00629358371887356,0.0048408869927981865
1782829669293505800,2.932505859375,-0.07104746664762497,0.006946494669653475,0.001739194650412537
1782829669303434800,2.942434814453125,-0.06491057132780552,-0.007455503637716174,-0.010591833468643017
1782829669313363000,2.952363037109375,-0.07343523856699466,-0.0027628523094579576,-0.002681256706919521
1782829669323292000,2.9622919921875,-0.06580372077524661,-0.0023262509904801846,0.021685259783873333
1782829669333219800,2.9722197265625,-0.08316460542082786,0.005514160311594605,0.012061211901460773
1782829669343149000,2.982149169921875,-0.07508359029591083,0.005334565960988402,0.0030922235444304533
1782829669353077000,2.992076904296875,-0.07135024898648262,-0.0036653175745159387,-0.010028500497457571
1782829669363006000,3.002005859375,-0.0735989046961069,-0.0018462854538112878,-0.004883901867328677
1782829669372934000,3.011933837890625,-0.07509995690882205,-0.018028554774075747,0.00008062748815864324
1782829669382862800,3.02186279296875,-0.07120411851406097,-0.026730916667729615,0.004552016731572803
1782829669392790800,3.031790771484375,-0.07763444382250309,-0.01251114305946976,0.002884199967072345
1782829669402720000,3.041719970703125,-0.0720914227426052,0.009907499899715184,-0.0028598395606619304
1782829669412648000,3.05164794921875,-0.05518529612720012,0.03204049431793392,0.006668138952576555
1782829669422577000,3.061576904296875,-0.06072364103198051,0.017130619553662834,0.0229262248718529
1782829669432504800,3.0715048828125,-0.07374152803719043,-0.00025441315248608587,0.009037932257261126
1782829669442433800,3.081433837890625,-0.07433890940845012,-0.019466076763905583,0.008965654755628202
1782829669452361700,3.09136181640625,-0.08407295243740082,-0.005336757918074727,-0.008680777966219466
1782829669462290700,3.101290771484375,-0.08004267400801181,-0.008585055656917393,-0.012003940172714646
1782829669472218600,3.111218505859375,-0.06433540178835391,0.001904080055654049,0.0018905652702436782
1782829669482147800,3.12114794921875,-0.07750409544110298,0.013151779050566255,0.009807991897861938
1782829669492076000,3.131075927734375,-0.07211012744307517,0.002162256067804992,0.021544129713554867
1782829669502004700,3.141004638671875,-0.0679132602751255,-0.002400850596651435,0.0029742871200316586
1782829669511933000,3.150932861328125,-0.0747930829167366,-0.00716890524867922,0.0024026817941339685
1782829669521862000,3.16086181640625,-0.05893500404953956,0.0019185104398056865,-0.01177582137210993
1782829669531789800,3.170789794921875,-0.06507306841313838,0.006660590400360524,-0.000694064945075661
1782829669541719000,3.180718994140625,-0.07330722827315331,0.0001895677553489804,0.014626824605767615
1782829669551648000,3.19064794921875,-0.084831661850214,-0.005914192479848862,0.006568142326956149
1782829669561576000,3.200575927734375,-0.07675006220340728,-0.01852485039103776,0.00613087200440932
1782829669571505000,3.2105048828125,-0.07061959662437439,-0.00459715506453067,0.00258591114024166
1782829669581432800,3.220432861328125,-0.0752677146911621,0.006459953261725604,-0.009300588081707245
1782829669591361800,3.23036181640625,-0.06614215894937515,0.0025259748136624693,0.0048883702631806955
1782829669601289700,3.240289794921875,-0.07107377013266086,0.002649272399768233,0.009247736799751874
1782829669611219000,3.250218994140625,-0.08648352071046829,0.013761873772926628,0.01680268450723961
1782829669621147000,3.26014697265625,-0.07765197947919368,0.008716938408277928,-0.0000014316219720058143
1782829669631075800,3.270075927734375,-0.07884791126549244,-0.003279496594704687,-0.007873544103407766
1782829669641003800,3.280003662109375,-0.07301847445964812,-0.005599244779162109,-0.014151055753603576
1782829669650932700,3.2899326171875,-0.06688274818360805,-0.017865838493034244,0.0003031613647704944
1782829669660860700,3.299860595703125,-0.08423544952273368,-0.016376768979057668,0.013980373078526462
1782829669670790000,3.309789794921875,-0.0809404996305704,0.008647964825294912,0.010768407028389628
1782829669680717800,3.3197177734375,-0.06777122145593166,0.01892780516874045,0.003186087256786413
1782829669690646800,3.329646728515625,-0.06193477038741112,0.024927666638046502,0.001127595240843948
1782829669700575000,3.339574951171875,-0.06298457170128823,0.029955285541713235,0.002692545285914093
1782829669710504000,3.34950390625,-0.07106617134809494,0.009915208282135426,0.015668527094868476
1782829669720431900,3.359431884765625,-0.07451075884401798,-0.013667875346541404,0.004959145360894035
1782829669730361000,3.369361083984375,-0.0655342561841011,-0.028450653132423755,-0.003919618845859077
1782829669740289000,3.3792890625,-0.06344108329713344,-0.0275152719784528,-0.015064092645025812
1782829669750218000,3.389218017578125,-0.06763093620240689,-0.012535546848364174,-0.009829005003138444
1782829669760146000,3.39914599609375,-0.06628185968101025,0.013010324753262102,0.007644176343921572
1782829669770075000,3.409074951171875,-0.07226385670006275,0.02398315232954919,0.010693512877984902
1782829669780002800,3.4190029296875,-0.07750058830976486,0.03026124621834606,0.0190933801271487
1782829669789931800,3.428931884765625,-0.06239829624593258,0.01547276934403926,0.015259053528122603
1782829669799859700,3.438859619140625,-0.06763795046508311,0.002076148686930537,-0.0005352234048419632
1782829669809789000,3.448788818359375,-0.06973579952716827,-0.00859678262732923,-0.004108942289324477
1782829669819716900,3.458716796875,-0.07108662961423397,-0.020441716863028703,-0.005799788302963134
1782829669829645800,3.468645751953125,-0.07108838317990303,-0.019790084553882478,0.0006420242305845022
1782829669839573800,3.47857373046875,-0.07542436655759811,-0.014179076271690428,0.00855414221213432
1782829669849502700,3.488502685546875,-0.0707803401440382,-0.0070031567603349686,0.01330229115387192
1782829669859432000,3.498431884765625,-0.08349544481039047,0.01620988797955215,0.005620915471564512
1782829669869359900,3.50835986328125,-0.0749672704398632,0.029406894411332905,-0.008711444815830327
1782829669879288800,3.518288818359375,-0.06180383748412132,0.023877865324169394,0.010183038038620725
1782829669889217000,3.528217041015625,-0.061060910162329674,0.015060279553011058,0.007514691045624204
1782829669899145700,3.538145751953125,-0.0727367349088192,-0.007866897450201213,0.006299170926155056
1782829669909074000,3.548073974609375,-0.07288695703446865,-0.022268640029244124,-0.00021500130741624162
1782829669919003000,3.5580029296875,-0.06854337487220764,-0.035871414250321684,-0.012982059923291671
1782829669928930800,3.567930908203125,-0.0653992316275835,-0.016601188852079212,-0.008462077731220052
1782829669938860000,3.577860107421875,-0.08245558036863804,0.010114493713900446,0.008396930939983576
1782829669948788000,3.5877880859375,-0.08409867140054703,0.023203984650596976,0.010725933293264824
1782829669958717000,3.597717041015625,-0.07601531818807125,0.02193148049674928,0.011548999479447956
1782829669968644900,3.607644775390625,-0.07601590270996093,0.015045739571005105,0.013202269412076566
1782829669978573800,3.61757373046875,-0.07152911268472671,0.00300232362113893,0.005591858340438921
1782829669988501800,3.627501708984375,-0.06300093831419945,-0.003387158220261335,0.0027293655983870848
1782829669998431000,3.637430908203125,-0.06360182681679726,-0.015583791970461607,-0.0004196661671972833
1782829670008359000,3.64735888671875,-0.08530337101519107,-0.02952405451759696,-0.0007629677461110986
1782829670018287900,3.657287841796875,-0.07048749467730522,-0.024632227355428037,-0.0006204243201296776
1782829670028215800,3.6672158203125,-0.06958733096718787,-0.008259586562216282,0.0018146596229751592
1782829670038144800,3.677144775390625,-0.07108195343911647,0.01248557022679597,-0.0036997198843280784
1782829670048072700,3.68707275390625,-0.06658814915120602,0.016546280327066776,0.0007640751410974189
1782829670058001700,3.697001708984375,-0.07212181788086891,0.02727499694917351,0.0074804828153457485
1782829670067929900,3.706929931640625,-0.0692857176721096,0.02433269641958177,0.01970033532764064
1782829670077858800,3.71685888671875,-0.08485212011635303,-0.0010528700537979602,0.021152949855325277
1782829670087787000,3.726787109375,-0.0722878220975399,-0.02201166959349066,-0.008465041439863853
1782829670097716000,3.736716064453125,-0.06779343328773975,-0.030538638387620446,-0.015303269412473309
1782829670107644000,3.746643798828125,-0.06704641431272029,-0.00773125183917582,-0.008901067370106465
1782829670117572900,3.75657275390625,-0.07153320433795451,0.0010375628868117927,0.017739141090156042
1782829670127500800,3.766500732421875,-0.06733692169189452,0.004893726858310401,0.011883361983369103
1782829670137430000,3.776429931640625,-0.07002806047201156,0.018266857041977346,0.01872808819542406
1782829670147358000,3.78635791015625,-0.0671814388692379,0.007655081330426037,0.016307194891164545
1782829670157287000,3.796286865234375,-0.0653816959708929,-0.0035283202566206455,-0.000727971781254746
1782829670167215900,3.8062158203125,-0.06089139881432056,0.0001721051638945937,-0.005880877015425358
1782829670177143800,3.816143798828125,-0.0718131903231144,-0.01737199056148529,0.00012885511063504964
1782829670187072800,3.82607275390625,-0.08064239346683025,-0.011090170345641671,0.011287373418174684
1782829670197001000,3.8360009765625,-0.06821954974532127,0.0006313201734796166,0.01174199216774432
1782829670206930000,3.845929931640625,-0.0780956315934658,0.009935447352565824,0.006851674259360879
1782829670216857900,3.85585791015625,-0.07016834572553635,0.008713467809557915,-0.0004038155775167979
1782829670226786800,3.865786865234375,-0.06328852308392524,0.001356894501671195,-0.0012322703248704783
1782829670236714800,3.87571484375,-0.06927636532187462,-0.002618292739614844,0.0033710747351404276
1782829670246643700,3.885643798828125,-0.07660685434043407,-0.015573160978592931,0.014965086966671514
1782829670256571600,3.895571533203125,-0.08034545634686946,-0.008774696477502585,0.004709104706137441
1782829670266500900,3.9055009765625,-0.06253741245567798,0.0033238106604665516,-0.002288868989003822
1782829670276429000,3.915428955078125,-0.06283610314130783,0.0035966727850958702,-0.007679400637641083
1782829670286357500,3.925357421875,-0.0710632487386465,-0.012338636036776006,0.003905170195398386
1782829670296285400,3.935285400390625,-0.07046294475793838,-0.018230945478379727,0.00021363590081455185
1782829670306214700,3.945214599609375,-0.08138298270106314,0.0006567834082990884,0.0066147830638336015
1782829670316142600,3.955142578125,-0.0736035808712244,0.026746041171625254,0.008196131687855813
1782829670326071600,3.965071533203125,-0.06942308031618595,0.014922734245844185,0.005015163564181421
1782829670335999500,3.97499951171875,-0.07735036618411541,0.0013559811862185597,-0.004415802581678144
1782829670345928400,3.984928466796875,-0.058792380708456035,-0.0021343086149543523,0.0064625425110338254
1782829670355856400,3.9948564453125,-0.08138590531051158,-0.024182218565605578,0.007531338503037113
1782829670365785600,4.00478564453125,-0.0833323632031679,-0.015202939426712692,-0.0019566527763963675
1782829670375713500,4.014713623046875,-0.06312719504237174,-0.0009371347196400165,-0.012363955424411687
1782829670385642500,4.024642578125,-0.06551847409307957,0.015000037265755235,0.003007054595183581
1782829670395570400,4.0345703125,-0.07733867574632167,0.017943470306508242,0.013103485212719533
1782829670405499400,4.04449951171875,-0.06880699424445628,0.01636873180307448,0.019730419938650448
1782829670415427300,4.05442724609375,-0.08137713748216628,-0.0003993380485102534,0.0068944356888532635
1782829670425356300,4.064356201171875,-0.06880933233201503,-0.000514708056487143,-0.008964912686822936
1782829670435285500,4.074285400390625,-0.06791559836268425,-0.014728563380613922,-0.0067465402343193995
1782829670445213400,4.08421337890625,-0.07450082197189331,-0.008379121288657188,-0.00225835968630854
1782829670455142400,4.094142333984375,-0.08108195392787457,-0.012227649942971765,0.00950716862065019
1782829670465070600,4.104070556640625,-0.07898176677823067,-0.013889811001531778,0.004379738037742208
1782829670474999600,4.11399951171875,-0.061767012605071066,-0.011236154687590896,0.0010382889725966378
1782829670484927500,4.123927490234375,-0.058925651699304575,-0.005189312271401286,0.0058149036737042475
1782829670494856700,4.133856689453125,-0.06640811640918254,0.011448920655436814,0.0011156148253940045
1782829670504784600,4.14378466796875,-0.06909750162363051,0.024653124012984334,0.0016159838292747735
1782829670514713600,4.153713623046875,-0.07971943340301513,0.027434315696731208,0.006623813470371533
1782829670524641500,4.1636416015625,-0.07418401110768318,0.005434884530305862,0.009434288330818526
1782829670534570500,4.173570556640625,-0.06475625754892826,-0.016732231353223322,0.0017990875945077278
1782829670544498400,4.18349853515625,-0.06311433556079864,-0.02258968867715448,-0.008117326264025178
1782829670554427400,4.193427490234375,-0.07194821487963199,-0.026180041319318115,-0.004107563182990998
1782829670564355300,4.203355224609375,-0.0649158320248127,-0.007604154860787093,-0.007914481185283512
1782829670574284500,4.213284423828125,-0.06400806953012943,0.008580342949181795,0.008034641532809472
1782829670584212500,4.22321240234375,-0.0705880324423313,0.02115903481952846,0.011508258760394527
1782829670594141400,4.233141357421875,-0.07986088770031928,0.016531959540769456,0.011021071181783918
1782829670604069400,4.2430693359375,-0.06983399920463562,0.0027380466617643834,-0.00025366195052629333
1782829670613998300,4.252998291015625,-0.07567045027315616,-0.011308050880022347,-0.0006710882115759886
1782829670623926500,4.262926513671875,-0.06265548587739467,-0.018560506226308643,-0.0022160389315220527
1782829670633855500,4.27285546875,-0.07103402264416217,-0.017539711811207233,-0.004363028931536245
1782829670643783700,4.28278369140625,-0.08270283312797545,-0.0007052621925249695,0.0028462562765926122
1782829670653712400,4.29271240234375,-0.07940846775770187,0.0058168330525979394,0.007129276491189375
1782829670663640600,4.302640625,-0.07312368839979172,0.014792568527534604,0.01447234414682025
1782829670673569500,4.312569580078125,-0.06010697043836116,0.006779357941821217,0.008967794197075999
1782829670683498500,4.32249853515625,-0.06549743130505084,-0.004923135615885257,-0.006533141795522533
1782829670693426700,4.3324267578125,-0.07986381030976772,-0.008636676246300339,-0.0020118078965810126
1782829670703355600,4.342355712890625,-0.07297697340548039,0.004740801318921148,-0.002980780792899895
1782829670713283600,4.35228369140625,-0.07372340785861015,-0.0176225312564522,-0.006482098878163378
1782829670723212500,4.362212646484375,-0.07192424948215484,-0.011889978953823446,-0.004871962551074103
1782829670733140500,4.372140380859375,-0.06070201372206211,-0.001834412352927029,-0.0012221918888506479
1782829670743069400,4.3820693359375,-0.07940496062636375,0.00514262358546257,0.006150761731679086
1782829670752997400,4.391997314453125,-0.07880757925510407,0.013250928576104342,0.0028444342122646046
1782829670762926600,4.401926513671875,-0.0665408028781414,0.03056337097007781,0.0006802373491227626
1782829670772854500,4.4118544921875,-0.06938742448091506,0.022144977116957305,0.00982485855098348
1782829670782783500,4.421783447265625,-0.07552724241018295,-0.0004805500585585832,0.004067532566701993
1782829670792711400,4.43171142578125,-0.06236030232310295,-0.01958999540451914,-0.002001081006589811
1782829670802640400,4.441640380859375,-0.06400280883312225,-0.02477616587076336,-0.0017909545204020105
1782829670812568300,4.451568359375,-0.08345219019055367,-0.014569427296146749,-0.0068379265785100864
1782829670822497500,4.46149755859375,-0.07566226696670054,0.002383753331378102,0.002771099547995254
1782829670832425500,4.471425537109375,-0.07835399026870728,0.011932393323443828,0.009020341801643371
1782829670842354400,4.4813544921875,-0.07999708130061627,0.02127772929575294,0.011129091283655725
1782829670852282600,4.49128271484375,-0.07610708812475205,0.004807400281727314,0.0018474773304769769
1782829670862211600,4.501211669921875,-0.07236497898697852,0.0014897636337205767,-0.0011567985024419612
1782829670872139500,4.511139404296875,-0.08194821536839007,0.0007619242832064628,-0.010148790992435533
1782829670882068500,4.521068359375,-0.06564180821180343,-0.005215688821673393,-0.00004291897640796378
1782829670891996400,4.530996337890625,-0.0732768331348896,-0.008564487792924047,0.004736848946299869
1782829670901925600,4.540925537109375,-0.07821253597140311,-0.01821801293157041,0.006892252864921465
1782829670911853600,4.550853515625,-0.07761281651258468,-0.01391209589857608,0.008179166853323113
1782829670921782500,4.560782470703125,-0.07580956648290157,0.007832629854418337,0.006796850216027815
1782829670931711500,4.57071142578125,-0.07042027465999126,0.013466763283871114,0.005058315436029807
1782829670941639400,4.580639404296875,-0.06772445970475673,0.019568769953399897,-0.0038394959644880143
1782829670951568600,4.590568603515625,-0.06862170080542564,0.010279730745591223,0.00774391724121524
1782829670961496600,4.60049658203125,-0.07311082891821861,-0.007101429503038525,0.015151955874857957
1782829670971425500,4.610425537109375,-0.08029284937679768,-0.0238880213920027,0.003316241558652837
1782829670981353500,4.620353515625,-0.07071487369239329,-0.017501754420995712,-0.008737762000598013
1782829670991282400,4.630282470703125,-0.07266016254127025,0.008863068880699574,-0.011169398177869152
1782829671001210400,4.64021044921875,-0.07236264089941978,0.02165050813090056,0.004955519498547073
1782829671011139300,4.650139404296875,-0.08044365602433681,0.013451894508302212,0.005771790617762599
1782829671021067300,4.6600673828125,-0.0799906515598297,-0.0017948109949007629,0.012766939884866588
1782829671030996500,4.66999658203125,-0.07071370464861393,-0.0019465674905106425,0.004070306762389373
1782829671040924700,4.679924560546875,-0.07250877137184143,-0.004513641499541699,-0.01572683087007608
1782829671050853400,4.689853271484375,-0.0704185210943222,-0.0016527721757069228,-0.0017649638459086418
1782829671060781600,4.699781494140625,-0.06608195319473743,-0.003942600145936012,0.0014760022531379944
1782829671070710500,4.70971044921875,-0.09136895466446876,-0.003108414344117045,-0.0023741201366414316
1782829671080638500,4.719638427734375,-0.08223580013811588,-0.016013415559381246,0.015423333861876744
1782829671090567700,4.729567626953125,-0.06577215659320354,-0.002511909755691886,0.0024447468205937182
1782829671100495600,4.73949560546875,-0.0701134006679058,0.010257482381165027,-0.009406655971799046
1782829671110424600,4.749424560546875,-0.05500584790706634,0.009875460793636739,-0.004805929843848571
1782829671120352500,4.7593525390625,-0.0735597417294979,0.008042984669469297,0.011159328875003847
1782829671130281500,4.769281494140625,-0.07191372808814048,-0.008573913208395243,0.013645853027689735
1782829671140209400,4.77920947265625,-0.06951309668719768,-0.012674553460255264,0.004041701722412835
1782829671150138400,4.789138427734375,-0.0710065501153469,-0.013076814118213952,-0.004920971058262512
1782829671160067600,4.799067626953125,-0.0692073917388916,0.0003139978526160121,-0.006185798795730807
1782829671169995500,4.80899560546875,-0.06965805811583996,0.0053324105365201825,0.011104020774480887
1782829671179924500,4.818924560546875,-0.06352057827413082,0.006001140110939741,0.02178075604760088
1782829671189852400,4.828852294921875,-0.09285247122049331,-0.0028900223530828953,0.01296423200565623
1782829671199781400,4.838781494140625,-0.07534077992737293,-0.00018646248281002043,0.013766223437769804
1782829671209709300,4.848709228515625,-0.0687584789276123,0.0012078779524192214,-0.011237796372117009
1782829671219638500,4.858638427734375,-0.07788929536640643,0.003998129725456237,-0.012992971759662032
1782829671229566500,4.86856640625,-0.07460077521502971,-0.00035158991664648053,-0.0037765936459763904
1782829671239495400,4.878495361328125,-0.07773965776264667,-0.004636062302812933,0.014937196596036664
1782829671249423600,4.888423583984375,-0.07668927192687988,-0.0017325228810310363,0.01814758489372907
1782829671259352300,4.898352294921875,-0.07533668827414512,0.004061586883105337,0.0011370731719536706
1782829671269280500,4.908280517578125,-0.0674035571873188,-0.00485631745737046,-0.00404190950167831
1782829671279209500,4.91820947265625,-0.06530629264712333,-0.0021994828056544065,-0.012346949490683618
1782829671289137700,4.9281376953125,-0.07353577633202076,-0.008925174331478774,0.00718877214306267
1782829671299067000,4.93806689453125,-0.07144026535749436,-0.010288242845609783,0.011147633870632853
1782829671308994800,4.947994873046875,-0.07427870365381241,0.00871971488725394,-0.0014373416100279426
1782829671318923800,4.957923828125,-0.07038987952172755,0.008610117032937705,0.015245844703388866
1782829671328851700,4.967851806640625,-0.06560089167952537,0.007259360011108219,-0.01476659840263892
1782829671338780700,4.97778076171875,-0.06275953077375888,-0.00252469617202878,-0.01713886222562287
1782829671348708600,4.98770849609375,-0.0672463207989931,-0.012011267245933413,0.005742116998706478
1782829671358637800,4.997637939453125,-0.0871457840114832,-0.009417414827831089,0.014283146284229586
1782829671368565800,5.007565673828125,-0.0718827484279871,0.0020813363187015053,0.008355249506013933
1782829671378494700,5.01749462890625,-0.0642448008954525,0.012520824203267692,-0.005392463310819585
1782829671388422700,5.027422607421875,-0.0618482611477375,0.01995955936927348,0.007056115356856026
1782829671398351600,5.0373515625,-0.06873802066147328,-0.002863974596373737,-0.00015294837227556853
1782829671408280600,5.047280517578125,-0.06739245127141476,-0.0026660043388605117,0.013635692393279168
1782829671418208500,5.05720849609375,-0.07682429648339748,-0.015565635259263216,0.002344019542611204
1782829671428137700,5.0671376953125,-0.07981763308048248,-0.025000256950221955,-0.00739097790098749
1782829671438065700,5.077065673828125,-0.06545300764143466,-0.008663052796572446,-0.01773886024565436
1782829671447994600,5.08699462890625,-0.05931377423405647,-0.004118796963058412,-0.0051213798680342735
1782829671457922800,5.0969228515625,-0.07143266657292842,0.0103308764109388,0.006303837968118023
1782829671467851500,5.1068515625,-0.06963350819647311,0.007700272179022431,0.0028158588550402782
1782829671477779700,5.11677978515625,-0.0717214203864336,0.008990531185269355,0.015473694075935053
1782829671487709000,5.126708984375,-0.07291735217273235,0.005198299295455217,0.010854576058057137
1782829671497636900,5.136636962890625,-0.07262333766222,0.001152640633843839,-0.00682302355361171
1782829671507565800,5.14656591796875,-0.07561784330308437,-0.014199790266156196,-0.005342283476563171
1782829671517493800,5.15649365234375,-0.07800970687568187,-0.028179909899644553,-0.0017822140915202908
1782829671527422700,5.166422607421875,-0.0820475840896368,-0.023018289352767167,0.0027544794900459238
1782829671537350700,5.1763505859375,-0.07277180622220039,-0.009209398100338875,0.014178037375363054
1782829671547279600,5.186279541015625,-0.07112345449328422,0.0047643648575991385,0.0024126643320312724
1782829671557207600,5.19620751953125,-0.0679740505516529,0.007392886730283498,-0.003590032981755212
1782829671567136800,5.20613671875,-0.06542436606884003,0.014893435086123645,-0.004043546619627159
1782829671577064700,5.216064697265625,-0.07455050633251667,0.012163389067724347,0.004465413877065293
1782829671586993700,5.22599365234375,-0.08666822962760924,-0.006791961695067584,0.0019676879103528336
1782829671596921600,5.235921630859375,-0.06527122133374214,-0.014982428543828427,-0.006369959723600186
1782829671606850600,5.2458505859375,-0.07664309469759464,-0.010976078979298472,0.003631734965322539
1782829671616778500,5.255778564453125,-0.07425473825633526,-0.006467077122256159,-0.005632158384786453
1782829671626707700,5.265707763671875,-0.07096037288606166,0.003642740416526794,0.004462966191652231
1782829671636636700,5.27563671875,-0.07619885806143284,0.003237922475300729,0.006080651070957537
1782829671646564600,5.285564697265625,-0.07635200279653072,0.009171221514418721,0.00839168850928545
1782829671656493600,5.29549365234375,-0.07485270414948463,-0.007384849554300308,0.005944790830800775
1782829671666421800,5.305421875,-0.07874269732534885,-0.0003663856269791722,-0.004209475487773307
1782829671676350700,5.315350830078125,-0.06946633493602275,0.0014576514624059199,-0.002857741218409501
1782829671686278700,5.325278564453125,-0.06752338417470455,-0.0007116188680753112,-0.00535763630932197
1782829671696208000,5.335207763671875,-0.07994622789621353,-0.007786927549168467,0.00739567919227993
1782829671706135800,5.3451357421875,-0.08817629610300064,-0.019160262217745184,0.0024225532550946807
1782829671716064800,5.355064697265625,-0.08398293606638908,-0.006545183859765529,-0.001819552710512653
1782829671725992700,5.36499267578125,-0.07635024923086166,-0.0003109291126951575,0.001571050992293749
1782829671735921700,5.374921630859375,-0.0631856472313404,0.004421615834534168,0.0049264075684943235
1782829671745849600,5.384849609375,-0.07007014604806899,0.004036817768029869,0.0008088481478742323
1782829671755778800,5.39477880859375,-0.0658826312303543,-0.004568842285498976,0.01222043931747321
1782829671765706800,5.404706787109375,-0.08279343402087688,0.0014685016499832273,0.01455004902553046
1782829671775635700,5.4146357421875,-0.08204466148018837,-0.010821034548059105,0.003260762211482506
1782829671785563600,5.424563720703125,-0.053610594156384465,-0.017183701447769997,-0.013400847024365793
1782829671795492600,5.43449267578125,-0.05959726735055446,0.0024835969766601918,-0.007451336635963525
1782829671805420500,5.444420654296875,-0.07321545833647251,0.005195668946951627,0.009471056127652991
1782829671815349800,5.454349853515625,-0.07979775933623313,-0.005175649072229862,-0.007559854494757019
1782829671825278700,5.46427880859375,-0.07126257070302963,0.00018076339438557624,-0.0017800541004748083
1782829671835206700,5.47420654296875,-0.06841770266592502,0.00327087489683181,0.0013107035726541653
1782829671845135600,5.484135498046875,-0.07799801643788815,0.006816182820871472,0.004779263315920252
1782829671855063600,5.4940634765625,-0.0777075090587139,0.01111837352681905,-0.0002043794487020932
1782829671864992500,5.503992431640625,-0.06977963866889476,0.0038768779659643766,0.007085227286908775
1782829671874920700,5.513920654296875,-0.07980886525213718,-0.004555763608217239,0.003890659896144643
1782829671884849700,5.523849609375,-0.07756430119574069,-0.024608554218895733,0.005601071410067379
1782829671894777900,5.53377783203125,-0.05691138926744461,-0.02260411906130612,-0.00035501941617112603
1782829671904706800,5.543706787109375,-0.08204641504585743,-0.01628456065095961,0.0006189515989623032
1782829671914634800,5.553634765625,-0.06991992392241954,-0.0017963453648611903,-0.00011159573186887428
1782829671924563700,5.563563720703125,-0.07246084057688712,0.017856997599452733,-0.00461956782573834
1782829671934491600,5.57349169921875,-0.0645277094900608,0.03574548631571233,0.018118808607105165
1782829671944420900,5.5834208984375,-0.08368541442453861,0.018222250715270637,0.015311441302485762
1782829671954348800,5.593348876953125,-0.07531272287666797,-0.0028105639087036252,0.002722205205238424
1782829671964277800,5.60327783203125,-0.053471477946639055,-0.017280622483603656,-0.0008957843625219538
1782829671974205700,5.613205810546875,-0.06663958707749844,-0.029251959577947854,0.0004797440576716326
1782829671984134700,5.623134765625,-0.0727758978754282,-0.022011012006364763,-0.010115464111568872
1782829671994062600,5.6330625,-0.07037585099637508,-0.010069302865304053,0.007579915468674153
1782829672003991600,5.642991455078125,-0.07306465168893336,0.0029654987420886752,0.008911077307467348
1782829672013920800,5.652920654296875,-0.06662965020537376,0.008916881427168845,0.003488963210477959
1782829672023848700,5.6628486328125,-0.061844169494509695,0.018577457361109554,0.015796005382458678
1782829672033777700,5.672777587890625,-0.07307400403916835,0.029701822237297892,-0.0007025245294556953
1782829672043705600,5.68270556640625,-0.06933481751084328,0.013606062156707047,-0.0007694568524020724
1782829672053634600,5.692634521484375,-0.0675385817438364,-0.01751465043518692,-0.0023957360301166773
1782829672063562800,5.702562744140625,-0.06365092665553093,-0.03868482770323753,-0.010525789344974328
1782829672073491700,5.71249169921875,-0.06215513513982296,-0.03837134130727499,-0.005081305869261268
1782829672083420000,5.722419921875,-0.08759703491032123,-0.03095269908122718,-0.011165587369143032
1782829672093348900,5.732348876953125,-0.08160860815048217,-0.005885441309399902,-0.010324204641557299
1782829672103276800,5.74227685546875,-0.06484802748560906,0.02821768462676555,-0.0022732627112069166
1782829672113205800,5.752205810546875,-0.06874386588037014,0.034681035421974954,0.015022233114542904
1782829672123133700,5.7621337890625,-0.08057166631817818,0.020214703174121676,0.017205634718365035
1782829672133062700,5.772062744140625,-0.0766793350547552,0.010863448917679487,0.007184943068027496
1782829672142990600,5.781990478515625,-0.06082300975322723,-0.015180362268723546,-0.008439249411481432
1782829672152919800,5.791919921875,-0.06591887158751487,-0.02676956817768514,-0.014262882097624241
1782829672162847700,5.80184765625,-0.06995791784524917,-0.030818916633725164,-0.01524069132094737
1782829672172776700,5.811776611328125,-0.07399813314676285,-0.012118636610545217,-0.0002668753418372944
1782829672182704600,5.82170458984375,-0.10093290182352066,-0.0049546632653102276,0.014215145382203627
1782829672192633600,5.831633544921875,-0.07398994984030723,0.010781944646686316,0.008547125666169449
1782829672202561500,5.8415615234375,-0.06455635106265545,0.023765381393022835,-0.0038770195298595354
1782829672212490800,5.85149072265625,-0.051536710491776466,0.018790552122518418,-0.003756546371791046
1782829672222418700,5.861418701171875,-0.06889934870302676,0.004273403002880514,0.00825159048542846
1782829672232347600,5.87134765625,-0.07533668827414512,-0.009253200709447264,0.0055336595965083685
1782829672242276600,5.881276611328125,-0.07608429177105426,-0.025476496159844098,-0.00030047165076248347
1782829672252204500,5.89120458984375,-0.06905600056946277,-0.02788421488869935,-0.005383512819383759
1782829672262133500,5.901133544921875,-0.0754986008375883,-0.0125276192702353,-0.01243927654979052
1782829672272061700,5.911061767578125,-0.07475333542823791,0.005224968106672168,-0.01272379942946136
1782829672281990700,5.92099072265625,-0.07445230665504932,0.01818447598814964,-0.01123683510760311
1782829672291919600,5.930919677734375,-0.07071487369239329,0.027096900435909628,0.006457117417245172
1782829672301848600,5.9408486328125,-0.07790215484797954,0.012560352496057747,0.01935070218935143
1782829672311776500,5.950776611328125,-0.06892915931940079,-0.012440927367471159,-0.0018165821520029566
1782829672321705700,5.960705810546875,-0.06429565429985523,-0.01826532267201692,-0.010642648057139012
1782829672331634000,5.970634033203125,-0.0732768331348896,-0.024924707495979963,-0.01260221887640655
1782829672341562600,5.980562744140625,-0.08210428271293639,-0.010304901719465851,-0.012195307159505318
1782829672351490800,5.99049072265625,-0.07881342447400093,0.00708140962831676,0.003818875584856141
1782829672361419800,6.000419677734375,-0.06774433344900607,0.004039228920824826,0.010164004544587804
1782829672371347700,6.01034765625,-0.0637087943226099,0.012234627673029899,0.006266999389335978
1782829672381276700,6.020276611328125,-0.07508709742724895,0.011358831219188868,-0.0027750108214211647
1782829672391204600,6.03020458984375,-0.0703057083696127,-0.0031491116806864738,-0.011363062153023202
1782829672401133800,6.0401337890625,-0.07479834361374378,-0.01099328584242612,0.0011188319790759124
1782829672411061800,6.050061767578125,-0.07300561497807502,0.0021296324398368594,0.0014482283302233554
1782829672420990700,6.05999072265625,-0.07360533443689346,0.009476305408217013,0.01434896436232375
1782829672430919700,6.069919677734375,-0.08004267400801181,-0.0024109701318666336,0.00019337856407510115
1782829672440847600,6.07984765625,-0.060143795317411416,-0.005151208750717342,0.0019417337684775702
1782829672450776800,6.08977685546875,-0.060299862661957734,-0.003911145561747252,-0.005592783072334714
1782829672460704800,6.099704833984375,-0.07137947508096694,-0.009290719708241522,-0.0013370641399058512
1782829672470633700,6.1096337890625,-0.07961363494098186,-0.010351042416132985,-0.0058490571050555445
1782829672480561700,6.119561767578125,-0.07453063258826732,-0.004674421551823616,0.004506599837401881
1782829672490490600,6.12949072265625,-0.07423194190263747,0.013752996346727013,0.00908182848120341
1782829672500418600,6.13941845703125,-0.07976619515419006,0.020234905711933968,0.007786267678753938
1782829672510347500,6.149347412109375,-0.07572481080889701,0.021545403788611292,0.007785429711826145
1782829672520275700,6.159275634765625,-0.07347907770872115,0.005797689960710704,0.004225837534107268
1782829672530204700,6.16920458984375,-0.07766893061399459,-0.002878112719580531,-0.010306381290499121
1782829672540132900,6.1791328125,-0.07782032178342342,-0.014627368028461932,-0.004770538870058953
1782829672550061800,6.189061767578125,-0.075128013959527,-0.02028784147556871,-0.0029397089969948865
1782829672559989800,6.19898974609375,-0.07273498134315014,-0.017404102732799947,-0.008594373757822904
1782829672569918700,6.208918701171875,-0.07064005489051342,-0.01066821860652417,-0.007162461808160879
1782829672579846700,6.2188466796875,-0.07184007833003997,0.0004805865911766886,-0.00558601997140795
1782829672589776000,6.22877587890625,-0.0690028090775013,0.007809066315740346,0.005696385010704397
1782829672599703800,6.238703857421875,-0.06481470973789692,0.013100085395947097,-0.0008701201983029023
1782829672609632800,6.2486328125,-0.07065116080641747,0.009068418727070093,-0.0022676755039254203
1782829672619561700,6.258561767578125,-0.06735913352370261,0.005169657722860575,0.006545937345013953
1782829672629489700,6.26848974609375,-0.0702010789513588,-0.001778663577698171,0.0034533119417843408
1782829672639418600,6.278418701171875,-0.07543839508295058,-0.0025275822488591074,0.0019873675750684923
1782829672649346600,6.2883466796875,-0.08306932835280895,-0.013461502586863934,-0.0034431216246215623
1782829672659275800,6.29827587890625,-0.07633154453039169,-0.008330386776104568,-0.013569655119476373
1782829672669203700,6.30820361328125,-0.06690320644974708,0.009454312772117555,0.0016798748117638751
1782829672679132700,6.318132568359375,-0.07917699708938598,-0.002876432219147682,0.011669381305971182
1782829672689060600,6.328060546875,-0.06900573168694972,-0.007850676967762411,0.008711255302873906
1782829672698989600,6.337989501953125,-0.0673597180455923,0.004427387988194823,-0.001952574822900351
1782829672708917500,6.34791748046875,-0.08726151934564114,0.019521642876043913,0.010825662774115334
1782829672718846700,6.3578466796875,-0.07514438057243823,-0.0028323373490944503,-0.016240737492253538
1782829672728775000,6.36777490234375,-0.05853109942376613,-0.007527692091092467,-0.009939755918213632
1782829672738703600,6.37770361328125,-0.07349719788730144,-0.0026658216757699848,0.005103602182748727
1782829672748631800,6.3876318359375,-0.10522153892815113,-0.01495820741802454,0.008544442802027333
1782829672758560800,6.397560791015625,-0.07902677496373653,-0.01968392076566815,-0.021471272256609518
1782829672768488700,6.40748876953125,-0.06749708068966866,-0.0032562253169715403,-0.010138817587692755
1782829672778417700,6.417417724609375,-0.0740875649958849,0.005593764886446297,0.009608318307029549
1782829672788345900,6.427345947265625,-0.07378945883214473,0.0021873539764434096,0.0005581955717643722
1782829672798274800,6.43727490234375,-0.07034194872677325,0.009809154091775418,0.0009996328960638493
1782829672808203800,6.447203857421875,-0.07333879245519638,-0.00011759849768131971,0.007485750362218823
1782829672818131700,6.457131591796875,-0.08022738292515277,-0.012551475069858133,0.0037929876583511937
1782829672828060700,6.467060791015625,-0.06525836185216903,-0.015238522196747362,-0.009178534887905697
1782829672837988600,6.476988525390625,-0.07183715572059154,-0.009871880597062408,-0.0019896006313501855
1782829672847917800,6.486917724609375,-0.08305939148068428,-0.016926073424890636,-0.002814593913138378
1782829672857845800,6.496845703125,-0.07183072597980499,-0.0025861805683001873,0.0014684400011901744
1782829672867774700,6.506774658203125,-0.06703706196248531,-0.004966134507395327,-0.0025691084192018022
1782829672877702700,6.51670263671875,-0.07287059042155743,0.008724391062371432,0.003549849385127891
1782829672887631600,6.526631591796875,-0.07916179952025414,0.005003945767134428,-0.004092867937358096
1782829672897559600,6.5365595703125,-0.06689326957762241,-0.004646510631591081,-0.009626714763534255
1782829672907488500,6.546488525390625,-0.08006839297115802,0.0015283420784398913,-0.0024534073343733323
1782829672917416700,6.556416748046875,-0.08710779008865356,-0.005935527528822422,-0.003617717856413219
1782829672927345700,6.566345703125,-0.05957213290929794,-0.016782390637882054,-0.005191428879962768
1782829672937273900,6.57627392578125,-0.06734744308590888,-0.007362674255110323,0.004706220912595745
1782829672947202600,6.58620263671875,-0.0719867933243513,-0.005112118849344551,-0.004142828575905878
1782829672957130800,6.596130859375,-0.06884323460161686,0.00026803981903940436,0.00008456159447086974
1782829672967059700,6.606059814453125,-0.07707213376462459,0.00503872481957078,0.0009796038881875575
1782829672976987600,6.615987548828125,-0.0787234081029892,0.01100881220512092,0.006621970856445841
1782829672986916900,6.625916748046875,-0.07378361361324787,0.004515541195683181,0.004961154654889833
1782829672996844800,6.6358447265625,-0.07438567115962505,-0.010357399091683327,-0.007291645712358877
1782829673006773800,6.645773681640625,-0.06989771209061145,-0.0014769772173836826,-0.0007448224513558671
1782829673016702700,6.65570263671875,-0.08216916464269161,-0.0012886515710502863,-0.0030398951355717144
1782829673026630700,6.665630615234375,-0.07124854217767715,-0.004626636887341737,-0.00824667456500465
1782829673036559600,6.6755595703125,-0.07348901458084584,0.00003726327046751976,-0.0017148159776930697
1782829673046487800,6.68548779296875,-0.06884440364539623,-0.003140636113286018,0.006737694774160627
1782829673056416800,6.695416748046875,-0.06824176157712936,0.008114369405247271,0.007163386540056671
1782829673066344700,6.7053447265625,-0.06405015510618686,0.008972082213126122,0.00010229589727241545
1782829673076273700,6.715273681640625,-0.07856500267088412,-0.008665317818894982,0.003440651106322184
1782829673086201600,6.72520166015625,-0.07587269484698772,-0.006245725989155471,-0.0007942647833842784
1782829673096130600,6.735130615234375,-0.06809504658281802,-0.015577143033966422,0.008034045594476628
1782829673106058500,6.74505859375,-0.07498714418411255,-0.008715404038317501,0.0018960017804754896
1782829673115987700,6.75498779296875,-0.0733417150646448,-0.0031723464258015155,0.002150862457533367
1782829673125915600,6.76491552734375,-0.07184709259271621,0.004692870523966848,-0.0005420321715413593
1782829673135844600,6.7748447265625,-0.0672118340075016,0.001964468473382294,-0.006218369908060412
1782829673145772800,6.784772705078125,-0.07708966942131519,0.0011076689809560775,0.0035108142826822584
1782829673155701800,6.79470166015625,-0.0815811356216669,-0.004526391383260488,0.006088937125401571
1782829673165629700,6.804629638671875,-0.07050152320265769,-0.006044029404595494,-0.0029704443452646953
1782829673175559000,6.814558837890625,-0.07199614567458629,-0.006260558232106268,-0.0076774004767998115
1782829673185488000,6.82448779296875,-0.06601239508986473,-0.00275861452575773,-0.001399379653239157
1782829673195415800,6.834415771484375,-0.0773807613223791,-0.0006121040163561701,0.0017362651910982094
1782829673205344800,6.8443447265625,-0.07468669993281364,-0.010803608489222825,0.0012369898824719711
1782829673215272700,6.854272705078125,-0.06585457417964935,-0.00028159342035651204,0.0060377343778382055
1782829673225201700,6.86420166015625,-0.06780687729120254,0.0003877937411889434,-0.0001413287164294161
1782829673235129600,6.874129638671875,-0.07513970439732075,0.0011621756471693514,-0.007407659607729874
1782829673245058800,6.884058837890625,-0.07319266198277473,0.0019962883837521075,0.004064237781206612
1782829673254986800,6.89398681640625,-0.06286883636713028,-0.00366721727065742,0.0031776071228086945
1782829673264915700,6.903915771484375,-0.07408581143021584,-0.0056419148771092295,-0.005174557660263963
1782829673274843600,6.91384375,-0.07079203058183192,-0.008546696407906711,-0.010461800181074067
1782829673284772600,6.923772705078125,-0.07213759997189044,0.0008445245327427983,-0.0087190253340872
1782829673294700500,6.933700439453125,-0.0667494771927595,-0.007417655845358967,-0.00745720925432397
1782829673304629500,6.94362939453125,-0.07736731731891631,-0.005356010607816279,-0.005803272601414937
1782829673314557400,6.953557373046875,-0.07586977223753928,0.0011851546639576555,-0.0009968906664173118
1782829673324486700,6.963486572265625,-0.07228022331297397,0.005712715090997517,0.005199233160505537
1782829673334414800,6.973414794921875,-0.07033727255165577,0.003248370804078877,-0.0037075332980253733
1782829673344343600,6.983343505859375,-0.06105915659666061,-0.004253711921721697,-0.009345171575527637
1782829673354271700,6.993271728515625,-0.07931435973346233,-0.006957710183411836,-0.008595156925823539
1782829673364200700,7.00320068359375,-0.08245791845619678,-0.007971965259872376,-0.006302552476618439
1782829673374129400,7.01312939453125,-0.08305296173989772,-0.0020999679539352653,0.004765264473319985
1782829673384057600,7.0230576171875,-0.07677052046954631,0.00469031324069947,0.007423802458355203
1782829673393986800,7.03298681640625,-0.07362462365925311,-0.0025934140266850587,-0.005039222576492466
1782829673403914800,7.042914794921875,-0.07092354800701141,0.0009328969359397888,-0.005280410921224393
1782829673413843700,7.05284375,-0.08363748362958431,0.0007883373660966754,-0.0031494975564652123
1782829673423771600,7.062771728515625,-0.07600713488161563,-0.001885375355184078,0.0009801541607477701
1782829673433700600,7.07270068359375,-0.08079846081137657,-0.004200045505724847,-0.0016283250043285077
1782829673443628500,7.082628662109375,-0.07616144866049289,-0.005054214649647474,-0.001356405877904035
1782829673453557800,7.092557861328125,-0.06928279506266116,-0.011051518835686147,-0.009089991238061338
1782829673463485700,7.102485595703125,-0.06673778675496578,-0.002979929126240313,-0.006018835597834549
1782829673473414700,7.11241455078125,-0.07422843477129935,0.006116765847243368,0.0021879430649103596
1782829673483342600,7.122342529296875,-0.07048574111163616,-0.0006688026396557688,0.0015014883208437821
1782829673493271600,7.132271484375,-0.06629355011880397,-0.002992459814250469,0.005337319607078097
1782829673503199500,7.142199462890625,-0.08036474556922912,0.003599960720725357,0.007158518568694126
1782829673513128400,7.15212841796875,-0.07408113525509834,-0.00684350921921432,-0.0040700556006398984
1782829673523056400,7.162056396484375,-0.06540507684648036,-0.012886661840975283,-0.004322037050733343
1782829673532985600,7.171985595703125,-0.07123918982744216,-0.00545424681790173,-0.0024737879686988888
1782829673542913800,7.181913818359375,-0.07842354837357997,-0.0040719986792653795,-0.004915728627564385
1782829673552842500,7.191842529296875,-0.06973696857094765,-0.006836166162975132,-0.0031028636694536544
1782829673562771500,7.201771484375,-0.06809095492959022,-0.00010601765774190425,-0.0038185079753864553
1782829673572699600,7.21169970703125,-0.07632628383338451,0.00020396160688251257,0.0016887864872929639
1782829673582628600,7.221628662109375,-0.07184475450515747,-0.00016143763940781354,0.0031039253986673426
1782829673592556800,7.231556884765625,-0.06870528743565082,-0.0035100174149498343,-0.0021729464251780883
1782829673602485800,7.24148583984375,-0.07573708576858043,-0.0034192338589578864,-0.006089058139699045
1782829673612413700,7.25141357421875,-0.06840484318435192,-0.004296491617523134,-0.004044852660724427
1782829673622342700,7.2613427734375,-0.06930208428502083,-0.004018113067559898,0.0002712295732577331
1782829673632270600,7.2712705078125,-0.0722965899258852,-0.0024742446264252064,-0.006306911274616141
1782829673642199600,7.281199462890625,-0.08157236779332161,-0.0016243132662028073,-0.0029245342607493513
1782829673652127500,7.29112744140625,-0.0649631782978773,-0.0005572685565799475,0.00006356903879204765
1782829673662056700,7.301056640625,-0.0681090751081705,0.000602057546377182,0.0016082868632976896
1782829673671984600,7.310984619140625,-0.07529226461052894,-0.001619052569195628,-0.0030128746979054995
1782829673681913600,7.32091357421875,-0.07559153981804848,-0.0010307678198441862,-0.0028145528139430095
1782829673691841500,7.330841552734375,-0.06825695914626122,-0.003331555575504899,-0.003295701094123069
1782829673701770500,7.3407705078125,-0.06391220794022083,-0.004251629562489688,-0.002851363993261475
1782829673711698400,7.350698486328125,-0.06675298432409763,-0.004326704092696309,-0.0049738725725677795
1782829673721627600,7.360627685546875,-0.0745318016320467,0.0016152166442945598,-0.00602286103569204
1782829673731556600,7.370556640625,-0.081711484003067,0.006178834765404462,0.001652849807520397
1782829673741484500,7.380484619140625,-0.07542787368893623,-0.00007226151861250401,-0.0038165831630700264
1782829673751413500,7.39041357421875,-0.07586977223753928,-0.0025316008368507026,-0.0042352492498466746
1782829673761341700,7.400341796875,-0.07900865478515624,0.0015692586107179521,-0.00030204255334101616
1782829673771270400,7.4102705078125,-0.0803571467846632,-0.0006213467687368392,0.002947296365117654
1782829673781198600,7.420198486328125,-0.0686842446476221,-0.004541625485010445,-0.0009511700948583893
1782829673791127800,7.4301279296875,-0.0692816260188818,-0.006086151513271033,-0.006160159747686703
1782829673801055700,7.4400556640625,-0.07331365801393985,-0.006621208238042891,0.003687533972901292
1782829673810984700,7.449984619140625,-0.068671385166049,0.00494827005714178,0.0014226143983541988
1782829673820912600,7.45991259765625,-0.07091711826622486,-0.004747011863999068,-0.00041109470167430116
1782829673830841600,7.469841552734375,-0.06717617817223072,0.0013762567892670631,-0.0038656053699902258
1782829673840769500,7.47976953125,-0.0704623602360487,0.0010590440662577747,-0.005890841287013609
1782829673850698800,7.48969873046875,-0.07524550285935401,-0.009445654541626571,0.0056972640768275596
1782829673860626700,7.499626708984375,-0.07209902152717113,0.004063888438045979,-0.006935333954822272
1782829673870555600,7.5095556640625,-0.0789887810409069,-0.005466923636384308,-0.0049059675686643454
1782829673880483600,7.519483642578125,-0.07405600081384181,-0.005447305620461702,-0.006060560414288193
1782829673890412500,7.52941259765625,-0.07630290295779704,-0.003873699628189206,-0.009225269239617046
1782829673900340500,7.539340576171875,-0.07959843737185,-0.0042422772122547026,-0.006023020865896251
1782829673910269400,7.54926953125,-0.06926993558108806,-0.001497873874939978,-0.0030404088755138217
1782829673920198700,7.55919873046875,-0.07300853758752346,-0.00036178251709789033,0.00595054928472964
1782829673930126600,7.569126708984375,-0.06387772114872932,0.007182458849996328,-0.005318797569698654
1782829673940055600,7.5790556640625,-0.06911094562709331,-0.0002753828752785921,-0.004950240535230841
1782829673949983500,7.5889833984375,-0.07674187889695167,-0.011683971520327031,-0.0036354635756579226
1782829673959912400,7.598912353515625,-0.06013210487961769,-0.013326258834637702,-0.00294246035979595
1782829673969840600,7.608840576171875,-0.07270633977055549,-0.001074862689897418,-0.0006039572425186634
1782829673979769600,7.61876953125,-0.07241115621626376,0.002802197939157486,-0.004878332926356233
1782829673989697800,7.62869775390625,-0.06762275289595127,-0.0019774740854278205,-0.0004102453183033503
1782829673999626800,7.638626708984375,-0.08019055804610252,-0.0018889555517584084,-0.00022212745123542844
1782829674009554700,7.6485546875,-0.07211246553063393,0.0002726429289206862,0.009319662674935534
1782829674019483600,7.658483642578125,-0.07480828048586845,0.007368629071861505,0.003299632917146664
1782829674029411600,7.66841162109375,-0.07091653374433517,-0.007188998188637196,0.00007704272500704973
1782829674039340800,7.6783408203125,-0.06597557021081447,-0.0092257647132501,0.0037333983916440043
1782829674049268700,7.688268798828125,-0.07824234658777714,0.005027472773194313,-0.011519816767447627
1782829674059197700,7.69819775390625,-0.0665671063631773,-0.002419007307849824,-0.007703096607059706
1782829674069125600,7.708125732421875,-0.07090951948165893,0.0032213366666808724,0.009142906452098394
1782829674079054600,7.7180546875,-0.0703179833292961,-0.0006194105399772524,-0.0034170259188511408
1782829674088983600,7.727983642578125,-0.07151917581260205,-0.000045958033576607704,-0.007054807032470125
1782829674098911500,7.737911376953125,-0.06762976715862751,0.002225530562363565,0.004206648776447401
1782829674108840700,7.7478408203125,-0.06718377695679664,0.00230677910503,0.0012643687964533454
1782829674118768600,7.7577685546875,-0.06538754118978977,-0.003692169048823416,0.0012441274427343158
1782829674128697600,7.767697509765625,-0.0790022250443697,-0.007360738026350736,0.005888532882207073
1782829674138625500,7.77762548828125,-0.0807885239392519,-0.005849968137219548,-0.003819229494594037
1782829674148554500,7.787554443359375,-0.06716916390955448,-0.008289031852409243,-0.0012797010796144605
1782829674158482400,7.797482421875,-0.06731061820685863,-0.004801810791157186,-0.004916913654364179
1782829674168411600,7.80741162109375,-0.0762877053886652,-0.001104088784381747,0.0025256346036563624
1782829674178339800,7.81733984375,-0.07718962266445159,-0.00530201539825648,0.0015829629090847446
1782829674188268500,7.8272685546875,-0.07314765379726887,-0.005820267118699848,0.0023567146274028343
1782829674198196700,7.83719677734375,-0.06312368791103362,-0.009795089033804834,0.009356916812248527
1782829674208125700,7.847125732421875,-0.06671440587937831,-0.001296250355616212,-0.005302051930874586
1782829674218053600,7.8570537109375,-0.07479483648240566,-0.003682122578844428,-0.005341589356819168
1782829674227982600,7.866982666015625,-0.07104746664762497,-0.010288169780373573,-0.00874314827847993
1782829674237910500,7.87691064453125,-0.07448737796843051,-0.0035917408816516397,0.0006851601194124669
1782829674247839700,7.88683984375,-0.07119944233894347,-0.004978774793259799,0.00553428065101616
1782829674257767700,7.896767578125,-0.07748714430630206,-0.002057151725515723,0.0008087362667312845
1782829674267696600,7.906696533203125,-0.07808744828701018,0.002800882764905691,-0.0076754688146174884
1782829674277625600,7.91662548828125,-0.07853402301073074,-0.0026353900048881767,-0.0052913912562537
1782829674287552300,7.92655224609375,-0.06281856748461723,-0.0021280250046402213,0.002503712749504484
1782829674297481200,7.936481201171875,-0.06730594203174114,-0.004118979626148939,0.0008348753549857064
1782829674307409400,7.946409423828125,-0.07344049926400184,-0.005196728392876685,0.011470052491722163
1782829674317338000,7.956338134765625,-0.07149637945890426,0.0002437821606174111,-0.0010319459967780857
1782829674327266300,7.966266357421875,-0.07194821487963199,0.002563128486275673,-0.007758027964958455
1782829674337195500,7.976195556640625,-0.07583294735848903,0.00105374683663249,0.005209311596525367
1782829674347123500,7.98612353515625,-0.06745382606983184,-0.0025126769406720994,-0.0072675090682343575
1782829674357052400,7.996052490234375,-0.05967325519621372,0.00856572990193963,-0.0030124522895086554
1782829674366980400,8.00598046875,-0.06954641443490982,-0.002153561304695904,-0.0015557118592667393
1782829674376909300,8.015909423828125,-0.08316402089893818,-0.009311397170089185,-0.002466433496016543
1782829674386837200,8.025837158203124,-0.07224106034636497,-0.007514796076901257,-0.0027176340613979844
1782829674396766500,8.035766357421876,-0.0720914227426052,0.0023787118300795554,-0.006226971056335605
1782829674406694400,8.0456943359375,-0.06655600044727325,0.0019651625931262967,-0.0033883044311543925
1782829674416623400,8.055623291015625,-0.07194120061695575,-0.004679316922649741,-0.003081069679465145
1782829674426552300,8.06555224609375,-0.0767272658497095,-0.00593362783268094,-0.00466570167253958
1782829674436480300,8.075480224609375,-0.07343699213266372,-0.008407507132925093,-0.007912312061083502
1782829674446409200,8.0854091796875,-0.0685059654712677,-0.0011861410446465015,0.00234006032012403
1782829674456337200,8.095337158203124,-0.060573418906331056,0.0019112404488027094,-0.006680726722802501
1782829674466266400,8.105266357421876,-0.07942074271738529,-0.003536393965221941,-0.014465976054826751
1782829674476194300,8.1151943359375,-0.06549860034883022,-0.00983962229527533,-0.0006490818757447414
1782829674486123300,8.125123291015624,-0.07507423794567585,-0.007183481763303279,0.0003538206896395422
1782829674496051200,8.13505126953125,-0.07043371866345405,-0.004989003926329314,-0.00865645865900442
1782829674505980200,8.144980224609375,-0.06849135242402553,0.00020074673648923634,-0.007523221411951817
1782829674515908400,8.154908447265624,-0.0678957246184349,0.0011784326622262596,0.003457296280446462
1782829674525837300,8.16483740234375,-0.06999240463674068,-0.010289046563208103,-0.001866140931751579
1782829674535765500,8.174765625,-0.0714905342400074,-0.0027415172604843972,-0.002745528998610098
1782829674545694500,8.184694580078125,-0.0661006578952074,-0.006267535962164401,0.0016359352053375914
1782829674555622400,8.194622314453126,-0.07822188832163811,-0.004313808078505099,-0.0027488899994757955
1782829674565551400,8.20455126953125,-0.07224164486825466,-0.0014548749834299086,0.004651479067653418
1782829674575479300,8.214479248046874,-0.06834872908294201,-0.006617006986960768,-0.007150533908349461
1782829674585408300,8.224408203125,-0.08839198468029498,-0.007768661240115761,-0.001563997913710773
1782829674595336400,8.23433642578125,-0.07955635179579257,-0.0027393618360161778,-0.0018510506771854125
1782829674605265400,8.244265380859375,-0.06758592801690101,0.0007002937564626336,-0.0005892619968857615
1782829674615194400,8.2541943359375,-0.06968085446953773,0.0024915610874071716,-0.002041004308313131
1782829674625122300,8.264122314453125,-0.07357084764540195,-0.0009535743977874516,-0.0028091071705566716
1782829674635051300,8.27405126953125,-0.0678869567900896,-0.008090732801333069,0.0017994392209569922
1782829674644979200,8.283979248046874,-0.07222936990857123,-0.008439327043294906,-0.0020259642860968596
1782829674654908400,8.293908447265625,-0.07342705526053905,-0.005421257863752544,0.0067465539340511894
1782829674664836400,8.30383642578125,-0.07312251935601234,-0.0025931948309764266,-0.005499766460061073
1782829674674765300,8.313765380859374,-0.07506663916110992,0.0006663914868608117,-0.01333907950030407
1782829674684693200,8.323693359375,-0.07506663916110992,0.0033689284438267347,-0.0045952782012755045
1782829674694622200,8.333622314453125,-0.07776070055067538,0.00025075989067554474,-0.002243472644430585
1782829674704550100,8.343550048828124,-0.07880641021132469,-0.0032447175422683355,0.0011375206965254618
1782829674714479000,8.35347900390625,-0.07416589092910289,0.000009535013325512408,0.007614927416550926
1782829674724407600,8.363407470703125,-0.07745616464614867,-0.002448964054696262,-0.0025777689329814163
1782829674734336300,8.373336181640624,-0.08224398344457148,-0.01130658957529813,-0.009755681755312252
1782829674744264400,8.383264404296876,-0.0645884997665882,-0.0036044177001342175,0.00017129002985311672
1782829674754193400,8.393193359375,-0.059954410225152965,-0.010962415780127048,0.0017391923671239054
1782829674764121300,8.403121337890624,-0.0717775344878435,-0.005521320704743266,-0.004708227923302911
1782829674774050300,8.41305029296875,-0.07252630702853202,0.005264350268989801,-0.0031810183560242876
1782829674783979500,8.4229794921875,-0.07491875512301921,-0.0007680252304300665,-0.0008450496891280636
1782829674793907500,8.432907470703125,-0.07880348760187625,-0.0004502645181491971,0.001250548050366342
1782829674803836400,8.44283642578125,-0.07730535799860953,-0.00574358515329659,0.0029767439385992474
1782829674813764400,8.452764404296875,-0.0774549956023693,-0.004250533583946526,-0.0027334412685944697
1782829674823693300,8.462693359375,-0.07640285620093346,-0.004998612004891038,-0.0014029073341749608
1782829674833621200,8.472621337890626,-0.06622866818904877,0.003580123509094119,-0.004684180327435024
1782829674843550200,8.48255029296875,-0.0696732556849718,-0.0009742518596351146,-0.004533264082041568
1782829674853478400,8.492478515625,-0.07954875301122664,-0.00023892332240939138,-0.004295272341393866
1782829674863407400,8.502407470703124,-0.07251987728774548,-0.002200067327544093,-0.005156024206441361
1782829674873335300,8.512335205078125,-0.07985211987197399,-0.008617423556558788,-0.0036780834412551483
1782829674883264300,8.52226416015625,-0.07446399709284306,-0.004309826023131609,-0.0005857822650112212
1782829674893192200,8.532192138671874,-0.07102233220636844,-0.0025128230711445212,-0.004735883115208708
1782829674903121200,8.54212109375,-0.0729717127084732,-0.006449651063419878,-0.0027034502724185582
1782829674913049300,8.55204931640625,-0.08120061187148093,-0.0073683002782985564,0.010262578681390732
1782829674922978300,8.561978271484374,-0.07506254750788212,-0.00028371231220662593,0.010352286808437201
1782829674932907300,8.5719072265625,-0.07131693123877048,-0.009098558137007056,-0.0034691990640829317
1782829674942835500,8.58183544921875,-0.07759995703101158,-0.009442110877670348,-0.0033846740022301673
1782829674952764200,8.59176416015625,-0.07625146503150462,0.001587707582861185,0.0028287000703043305
1782829674962692400,8.6016923828125,-0.07206219664812087,-0.0052759311089292165,0.0043057891688309605
1782829674972621600,8.61162158203125,-0.07790157032608985,-0.007566745459847151,-0.005027564104739576
1782829674982549500,8.621549560546875,-0.07401508428156375,-0.008925904983840882,-0.006515530790307093
1782829674992478500,8.631478515625,-0.06893032836318015,-0.004035283398069441,-0.00926433630810352
1782829675002406400,8.641406494140625,-0.06818506295382976,0.002487798227742314,-0.0077527581347967495
1782829675012335400,8.65133544921875,-0.06549158608615398,0.0008340762039646506,0.0013711878885049372
1782829675022263300,8.66126318359375,-0.06833411603569985,-0.0012726868169382214,0.0008070397832780145
1782829675032192300,8.671192138671875,-0.06893091288506985,-0.007612630428187548,0.0012932249981793575
1782829675042120200,8.6811201171875,-0.06803191821873188,-0.0049746466074138875,-0.0049000949503039005
1782829675052049400,8.69104931640625,-0.0771586430042982,-0.005901880987547337,-0.006623836303257849
1782829675061977300,8.700977294921875,-0.06848316911756992,-0.00490782844889909,-0.0005807727297535165
1782829675071906300,8.71090625,-0.07252163085341454,-0.0019622765162959693,-0.012250843588891438
1782829675081834200,8.720834228515624,-0.07401976045668125,-0.008625570330396294,-0.0002632791622425429
1782829675091763200,8.73076318359375,-0.06952654069066047,-0.001994206024520099,-0.0014523245500284246
1782829675101692400,8.7406923828125,-0.0671247402459383,0.00333298034761101,-0.006569101308181416
1782829675111620400,8.750620361328124,-0.07953881613910198,-0.004314465665630996,-0.0019185812217532656
1782829675121549300,8.76054931640625,-0.07444704595804214,-0.0014399696752429008,-0.006714900703751482
1782829675131477200,8.770477294921875,-0.0687584789276123,-0.0018223931215703487,0.0052951267164549785
1782829675141406200,8.78040625,-0.06905658509135246,-0.0011246201157569884,-0.005846173311513848
1782829675151334400,8.79033447265625,-0.06935235316753387,-0.009313881388120353,-0.002671041273581795
1782829675161263000,8.80026318359375,-0.07683540239930152,-0.00762074066940695,-0.007517341943725477
1782829675171191300,8.81019140625,-0.07728840686380863,-0.0016598595036193728,-0.017287625329836735
1782829675181120500,8.82012060546875,-0.07384615745544433,-0.004968107268773019,-0.013593556584871838
1782829675191048400,8.83004833984375,-0.08013093681335448,-0.007810929479263723,-0.010652447931945789
1782829675200977400,8.839977294921875,-0.07190028408467769,-0.005886939146742224,-0.002698538918572012
1782829675210905300,8.8499052734375,-0.07578852369487285,-0.002511946288309991,-0.005216127213090658
1782829675220834300,8.859834228515625,-0.06785831521749495,-0.0035511531429365277,-0.009958074742904863
1782829675230762200,8.86976220703125,-0.07189853051900863,-0.008507058517262338,-0.0027978596907574683
1782829675240691500,8.87969140625,-0.07608779890239238,0.00015478870291262865,-0.0000975557900732383
1782829675250619400,8.889619384765625,-0.07668167314231396,-0.0043321109201759096,-0.006238389782782178
1782829675260548400,8.89954833984375,-0.06321487332582473,-0.0008676131473854184,-0.00008108871246222406
1782829675270477300,8.909477294921874,-0.07099252158999443,0.003079517043195665,-0.007996158986212686
1782829675280405200,8.9194052734375,-0.06365794091820716,0.005695398630015552,-0.005633608273067511
1782829675290336000,8.9293359375,-0.07503039880394935,-0.0034362215263769027,0.001096720611967612
1782829675300264000,8.939263916015625,-0.07069499994814396,-0.004201799071393906,-0.006591685316036455
1782829675310193000,8.94919287109375,-0.07279518709778786,0.0020848069174215196,-0.005224771743849851
1782829675320120800,8.959120849609375,-0.07968085495829581,-0.00157261961158365,0.00013245129022980109
1782829675330049800,8.9690498046875,-0.07698971617817878,0.0007372282333672046,0.0004538538478780538
1782829675339977700,8.978977783203124,-0.0651642538279295,-0.005644691356085241,-0.006234444260026794
1782829675349907000,8.988906982421875,-0.07219371407330036,-0.011004939747601746,-0.007530822479806375
1782829675359835000,8.9988349609375,-0.07503449045717715,0.004939502228796482,-0.00831816889863694
1782829675369763800,9.008763916015624,-0.07338672325015068,-0.008269450369104743,0.0033963119243853724
1782829675379691800,9.01869189453125,-0.07772796732485295,-0.008198869350925087,-0.001284384104597848
1782829675389620700,9.028620849609375,-0.07593348512351512,-0.0002480199443176389,-0.009166269061376806
1782829675399548700,9.038548583984374,-0.06755377931296826,-0.0005382350625470281,-0.005295960116805509
1782829675409477600,9.0484775390625,-0.07982172473371028,0.00013685118742287158,0.00020915152194211258
1782829675419405800,9.05840576171875,-0.08221358830630779,-0.001415127494931221,-0.0031527169934357515
1782829675429334800,9.068334716796874,-0.06889584157168865,-0.010690357373096048,0.0068947941651684224
1782829675439263700,9.078263671875,-0.07188742460310459,-0.0030844854792580006,-0.00530246063953964
1782829675449192000,9.08819189453125,-0.07562193495631217,0.0012108005618676543,-0.0025763373110094107
1782829675459120600,9.09812060546875,-0.06963526176214217,-0.01363740714304149,-0.0028979887471185066
1782829675469048800,9.108048828125,-0.07621230206489563,-0.006803907861188054,-0.0014419789692386984
1782829675478977800,9.117977783203125,-0.06918167277574538,-0.0028447949718683955,-0.003946538818825502
1782829675488906000,9.127906005859375,-0.0654424862474203,0.0021453414656221865,-0.0042199512160150335
1782829675498835000,9.1378349609375,-0.07606324898302555,-0.0006454582966864109,-0.007621443922305479
1782829675508763000,9.147762939453125,-0.08130465676784515,-0.004260360858216882,-0.002729192068451084
1782829675518691800,9.15769189453125,-0.07158347322046757,-0.01099646418020129,-0.0033888524204259735
1782829675528619800,9.167619873046876,-0.06784253312647343,0.000816357884183526,-0.007526166854286566
1782829675538548700,9.177548828125,-0.07427870365381241,-0.008706197818554938,-0.010025767400965559
1782829675548477000,9.187476806640625,-0.06949380746483802,-0.007406038472801447,0.0035026195597834884
1782829675558406000,9.197406005859374,-0.07293488782942295,0.0026128859121352433,-0.0033276991010061465
1782829675568333800,9.207333740234375,-0.07801964374780654,-0.004047887151315808,0.003381954605469946
1782829675578262800,9.2172626953125,-0.07697451860904693,-0.00787383864764124,-0.0029733053059200756
1782829675588191700,9.227191650390624,-0.07637421462833881,-0.005080006678029894,-0.005149738312838599
1782829675598119700,9.23711962890625,-0.08176233740746974,-0.009682495504803955,-0.0039935677147703245
1782829675608049000,9.247048828125,-0.06545066955387592,-0.006734861212968826,-0.014822333478135987
1782829675617976800,9.256976806640624,-0.07801905922591686,-0.0022847864689305424,-0.009772324646147898
1782829675627905800,9.26690576171875,-0.08086334274113177,-0.0022496420903131364,0.002903436673793476
1782829675637833700,9.276833740234375,-0.07008943527042866,-0.0037333413094282147,-0.00481935558100231
1782829675647762700,9.2867626953125,-0.0687415277928114,-0.007640504815801977,-0.0036159802737645804
1782829675657691000,9.29669091796875,-0.0765226831883192,-0.005844232516176998,-0.010982960811234078
1782829675667619600,9.30661962890625,-0.06963643080592155,-0.000986088427901268,-0.010167077851085922
1782829675677548000,9.316548095703125,-0.06948796224594116,-0.002300824288278818,-0.01272239064037567
1782829675687477000,9.32647705078125,-0.07457330268621444,-0.00851334212757647,-0.007336829711089376
1782829675697405000,9.336405029296875,-0.07981354142725468,-0.0018466142473742364,0.0010226804115111008
1782829675707334000,9.346333984375,-0.07547171283066273,0.004829100656881928,-0.0018683488718583248
1782829675717261800,9.35626171875,-0.08040975375473498,-0.003081343674100935,-0.007778321834316011
1782829675727190800,9.366190673828125,-0.06664367873072624,-0.005320720098726451,0.004375580169144086
1782829675737118700,9.37611865234375,-0.07861644059717655,-0.005118110198713839,-0.011407883108861278
1782829675747048000,9.3860478515625,-0.07667348983585834,0.002733114758320153,-0.002577709567476995
1782829675756977000,9.395976806640626,-0.06889233444035053,-0.0005608852857723832,-0.011707708588941022
1782829675766904800,9.40590478515625,-0.07517477571070194,-0.004827237493358552,-0.00736879346864298
1782829675776833800,9.415833740234374,-0.07292904261052609,-0.005446903761662542,-0.013031337858538609
1782829675786761700,9.42576171875,-0.07292962713241577,-0.00945179202146828,0.00034962628842331465
1782829675796691000,9.43569091796875,-0.08325579083561897,-0.00837250888478011,-0.010431601405632682
1782829675806619000,9.445618896484374,-0.06425123063623905,-0.0037500732485204933,-0.00486517433397239
1782829675816547800,9.4555478515625,-0.08011223211288451,-0.013503551630303263,-0.0018451186933205461
1782829675826475800,9.465475830078125,-0.06305179171860217,-0.006677066611126065,-0.0033782853606389835
1782829675836404700,9.47540478515625,-0.06904021847844123,0.004929382693581283,0.0017203735022223554
1782829675846332700,9.485332763671876,-0.0679915862083435,-0.007085720477253198,-0.008691673819569404
1782829675856261600,9.49526171875,-0.07592939347028732,-0.010176306903734802,-0.006755677955423016
1782829675866189800,9.50518994140625,-0.07728256164491176,-0.008052044758759438,-0.0024019876743899657
1782829675876118800,9.515118896484376,-0.06965104385316372,0.002442242052964866,-0.002492241507419385
1782829675886047000,9.525046875,-0.06530746169090271,0.003221482797153294,0.0018232288052095098
1782829675895976000,9.534975830078125,-0.06829319950342178,0.0008970219049602746,0.00025881076639052477
1782829675905905000,9.54490478515625,-0.07083528520166874,-0.012021459846384823,-0.0011831476532504894
1782829675915832800,9.554832763671875,-0.07397650583684444,-0.007292568160966038,-0.0007675936888786964
1782829675925762000,9.564761962890625,-0.0672422291457653,-0.005518617291003465,-0.003545954094722401
1782829675935690000,9.57468994140625,-0.07143149752914905,-0.005977466974407434,-0.004579185583000071
1782829675945619000,9.584618896484375,-0.07921323744654656,-0.011791413950175047,-0.0020358189598307943
1782829675955547000,9.594546875,-0.07068681664168834,-0.00932696006540209,-0.003154845018440392
1782829675965475800,9.604475830078124,-0.06964169150292873,-0.00012527034748345612,-0.004854168882768135
1782829675975403800,9.61440380859375,-0.07143617370426654,0.0014870967525988817,-0.004602863286109641
1782829675985332700,9.624332763671875,-0.06979425171613693,-0.003761471425369382,-6.279043736867606e-7
1782829675995260700,9.6342607421875,-0.06979775884747505,-0.008298201539553702,-0.0020892068146145903
1782829676005190000,9.64418994140625,-0.06845102041363715,-0.006512560231797397,-0.003869244932068977
1782829676015117800,9.654117919921875,-0.08296703702211379,-0.008723039355501533,-0.0007715392116340808
1782829676025046800,9.664046875,-0.06875146466493606,-0.00544357929341495,-0.004733661475370172
1782829676034974700,9.673974609375,-0.07608370724916458,-0.007251505498215556,-0.002582285277894698
1782829676044903700,9.683903564453125,-0.008152326795458794,0.009217289145849645,-0.017673676921799778
1782829676054833000,9.6938330078125,2.700511588618159,0.35050084276814014,-0.16459171952456234
1782829676064760800,9.7037607421875,1.795502776557207,0.4598673360139131,-0.06997408352876082
1782829676074689800,9.713689697265625,-1.0217091918587684,-0.16247048958688973,0.24910342870540916
1782829676084617700,9.72361767578125,-1.9993179607063531,-0.2973126022096723,0.1913781657718122
1782829676094546700,9.733546630859376,-2.4635212800979613,-0.4680910110125318,0.03284954796178499
1782829676104475000,9.743474853515625,-2.4997096148103473,-0.34573297077920284,-0.10986529134707525
1782829676114403800,9.75340380859375,-2.359323823520541,-0.3335783860724419,-0.08241093750931322
1782829676124331800,9.763331787109376,-0.305939341583848,-0.0971598678245209,-0.17043891118280588
1782829676134261000,9.773260986328125,2.2612252683401106,0.2918046341768466,-0.17895912144258616
1782829676144189000,9.78318896484375,2.6718700160235165,0.3601821326965466,0.01622083749018493
1782829676154118000,9.793117919921874,1.888600162449479,0.2623900861820206,0.21165791527247055
