time,seconds_elapsed,z,y,x
1782829666434095400,0.073095458984375,0.0004132157191634178,-0.04173305258154869,0.03042823076248169
1782829666444024300,0.0830244140625,-0.0008664336055517197,0.027916595339775085,0.061685483902692795
1782829666453953300,0.092953369140625,-0.0024750642478466034,0.0286544281989336,0.03844926506280899
1782829666463881200,0.102881103515625,0.0016999738290905952,-0.023002907633781433,-0.016815856099128723
1782829666473810400,0.112810546875,0.0021956423297524452,-0.034286633133888245,-0.051285143941640854
1782829666483738400,0.12273828125,0.001121588982641697,0.006592622958123684,-0.03592216596007347
1782829666493667300,0.132667236328125,-0.00015839189291000366,0.04320533573627472,0.002448468469083309
1782829666503595300,0.14259521484375,-0.002086254768073559,0.03462276607751846,0.024001697078347206
1782829666513524200,0.152524169921875,0.00036462582647800446,-0.00786534696817398,0.012117736972868443
1782829666523452200,0.1624521484375,0.0014221668243408203,-0.036400049924850464,-0.007840259000658989
1782829666533381000,0.172381103515625,0.0003701644018292427,-0.039201520383358,-0.005888968240469694
1782829666543309300,0.182309326171875,-0.0004058806225657463,0.0010628122836351395,0.0072539979591965675
1782829666553238300,0.19223828125,-0.0005640722811222076,0.034851934760808945,0.009966428391635418
1782829666563166500,0.20216650390625,-0.0022123027592897415,0.018051382154226303,0.0032217055559158325
1782829666573095400,0.212095458984375,0.0007093120366334915,-0.011904820799827576,-0.009613223373889923
1782829666583023400,0.2220234375,0.00021103490144014359,-0.01879654824733734,-0.014371760189533234
1782829666592952300,0.231952392578125,0.00010094605386257172,-0.009031854569911957,-0.004252851475030184
1782829666602880300,0.24188037109375,-0.0008719069883227348,0.004838953725993633,0.009795855730772018
1782829666612809500,0.2518095703125,-0.0014262925833463669,0.008967461995780468,0.012085992842912674
1782829666622737400,0.2617373046875,0.0018062526360154152,0.008086222223937511,-0.0009760139510035515
1782829666632666400,0.271666259765625,-0.0028183916583657265,-0.015759341418743134,-0.005969630554318428
1782829666642594300,0.28159423828125,0.00022906344383955002,-0.025227945297956467,-0.001767162699252367
1782829666652523300,0.291523193359375,0.00031553488224744797,0.004226480610668659,0.0016820183955132961
1782829666662451200,0.301451171875,-0.00009592343121767044,0.02881518006324768,-0.0023417514748871326
1782829666672380200,0.311380126953125,-0.0016430281102657318,0.008846254087984562,0.0001843562349677086
1782829666682308400,0.321308349609375,0.00004621502012014389,-0.01484176516532898,-0.0011088750325143337
1782829666692237300,0.3312373046875,0.00032863859087228775,-0.010270079597830772,-0.007468595169484615
1782829666702165200,0.341165283203125,0.0019121542572975159,0.002360227517783642,-0.0021278918720781803
1782829666712094200,0.35109423828125,-0.001366548240184784,0.004415573552250862,0.005781346000730991
1782829666722022400,0.3610224609375,-0.0001127319410443306,0.006021726876497269,0.003848157823085785
1782829666731951400,0.370951416015625,0.001584978774189949,-0.0019015297293663025,0.0023682313039898872
1782829666741879300,0.38087939453125,-0.0005753766745328903,-0.0095594497397542,-0.004503789357841015
1782829666751808500,0.39080859375,0.0005739964544773102,-0.0031896671280264854,-0.008691107854247093
1782829666761736400,0.400736328125,-0.0013256361708045006,0.003602192737162113,-0.006666572764515877
1782829666771665400,0.41066552734375,-0.0005413973703980446,0.0009486721828579903,-0.0005098623223602772
1782829666781593300,0.42059326171875,0.0018162988126277924,0.00317427609115839,-0.00014740601181983948
1782829666791522300,0.430522216796875,-0.00023565813899040222,0.006713476963341236,-0.005751517601311207
1782829666801450200,0.4404501953125,0.00009191036224365234,-0.011773388832807541,0.005483826156705618
1782829666811379500,0.45037939453125,0.0034559043124318123,0.000004048459231853485,0.0047421809285879135
1782829666821307400,0.460307373046875,-0.0004496220499277115,0.0042459312826395035,0.008133449591696262
1782829666831236400,0.470236328125,-0.000810449942946434,-0.013242257758975029,0.0025941510684788227
1782829666841164300,0.480164306640625,0.0012364555150270462,-0.002566177397966385,-0.004463758319616318
1782829666851093200,0.49009326171875,-0.0024145646020770073,0.007306760177016258,-0.012229597195982933
1782829666861021200,0.500021240234375,0.0005852198228240013,0.000021949410438537598,-0.009211969561874866
1782829666870950100,0.5099501953125,0.0015810029581189156,-0.002068852074444294,-0.0012439200654625893
1782829666880878300,0.51987841796875,0.00045688264071941376,0.006554729305207729,-0.0036189272068440914
1782829666890807300,0.529807373046875,0.003859071061015129,0.002924308180809021,-0.00041913939639925957
1782829666900735500,0.539735595703125,0.0013951146975159645,-0.007641783449798822,0.005516780074685812
1782829666910664200,0.549664306640625,0.0006787516176700592,-0.008710731752216816,0.0065696644596755505
1782829666920592400,0.55959228515625,0.0027959654107689857,0.005571800284087658,-0.00047652656212449074
1782829666930521300,0.569521240234375,0.000603310763835907,0.01037054043263197,-0.002094564028084278
1782829666940449300,0.57944921875,-0.0014736885204911232,0.003912108950316906,-0.004328423645347357
1782829666950378500,0.58937841796875,-0.0013583078980445862,-0.003757375292479992,-0.0004472085274755955
1782829666960306400,0.599306396484375,-0.0012576403096318245,-0.002366938628256321,-0.0018160734325647354
1782829666970235400,0.6092353515625,0.0002772202715277672,-0.000901268795132637,-0.001901949755847454
1782829666980163300,0.619163330078125,0.00039599649608135223,0.0011088848114013672,0.002859782427549362
1782829666990092300,0.62909228515625,-0.0008921930566430092,0.0010711438953876495,0.0028931782580912113
1782829667000020200,0.639020263671875,0.002838362939655781,-0.005755602847784758,0.0033680195920169353
1782829667009949200,0.64894921875,-0.0005935989320278168,-0.001154906116425991,-0.0034057232551276684
1782829667019877400,0.65887744140625,0.00005860906094312668,-0.00009097252041101456,-0.0030848123133182526
1782829667029806300,0.668806396484375,-0.0017316369339823723,0.001452532596886158,-0.000017877202481031418
1782829667039734300,0.678734375,-0.0007286909967660904,0.0026879729703068733,-0.0009787455201148987
1782829667049663200,0.688663330078125,-0.0005973745137453079,-0.00047550350427627563,0.000726673286408186
1782829667059591200,0.698591064453125,-0.0011523766443133354,-0.003608446568250656,-0.00024165213108062744
1782829667069520100,0.70852001953125,-0.0012113936245441437,0.000258471816778183,-0.0004858854226768017
1782829667079448300,0.7184482421875,-0.0003298874944448471,-0.000014501623809337616,0.0016100220382213593
1782829667089377300,0.728377197265625,0.0008588889613747597,-0.001892867498099804,0.002007417380809784
1782829667099306200,0.73830615234375,0.00024769362062215805,0.000507173128426075,0.00020765326917171478
1782829667109234400,0.748234375,-0.0022785309702157974,0.0022738277912139893,-0.001281615812331438
1782829667119163400,0.758163330078125,-0.00021404866129159927,0.0015838025137782097,-0.0017268965020775795
1782829667129091300,0.76809130859375,0.0013815788552165031,0.0023743323981761932,-0.0019757268019020557
1782829667139020500,0.7780205078125,-0.00004960410296916962,0.0012299716472625732,0.002009693533182144
1782829667148948500,0.787948486328125,0.0007695769891142845,0.0020727356895804405,-0.00022121379151940346
1782829667158877400,0.79787744140625,-0.0011694710701704025,0.0015267878770828247,-0.0013301540166139603
1782829667168805400,0.807805419921875,0.0007113534957170486,0.00014572963118553162,0.0006624609231948853
1782829667178734300,0.817734375,-0.0015291646122932434,0.0027742693200707436,0.0014443658292293549
1782829667188662300,0.827662353515625,0.002839107997715473,-0.0012160632759332657,-0.0014326013624668121
1782829667198591200,0.83759130859375,0.0015727747231721878,-0.0010386975482106209,-0.002847272902727127
1782829667208519200,0.847519287109375,0.0017399284988641739,0.0038892803713679314,-0.0035410868003964424
1782829667218448400,0.857448486328125,0.0018251501023769379,0.00478783156722784,0.0010709757916629314
1782829667228376300,0.867376220703125,0.00048655178397893906,0.002345777116715908,-0.00042658159509301186
1782829667238305300,0.87730517578125,0.0004902807995676994,-0.003956859931349754,0.002576399128884077
1782829667248233200,0.887233154296875,0.0009540766477584839,0.0003794673830270767,-0.0005854801274836063
1782829667258162200,0.897162109375,-0.000798017717897892,0.0008862670511007309,-0.0026893774047493935
1782829667268090400,0.90709033203125,-0.00008276570588350296,0.0011855950579047203,-0.0012935157865285873
1782829667278019300,0.917019287109375,-0.00014801323413848877,-0.00047488603740930557,0.0030216039158403873
1782829667287947300,0.926947265625,0.0001461924985051155,-0.004254454746842384,-0.0007109842263162136
1782829667297876200,0.936876220703125,0.00018853694200515747,-0.005031298846006393,-0.0022921026684343815
1782829667307804200,0.94680419921875,-0.0004293890669941902,-0.0014240564778447151,-0.0019417977891862392
1782829667317733400,0.9567333984375,0.00037355348467826843,-0.000628836452960968,0.0003666304983198643
1782829667327661300,0.966661376953125,-0.000014303252100944519,-0.0016235839575529099,0.0023285429924726486
1782829667337590300,0.97659033203125,-0.0005637137219309807,-0.0005074534565210342,0.0002462174743413925
1782829667347518200,0.986518310546875,0.0008545583114027977,-0.0020721610635519028,0.00006547989323735237
1782829667357447200,0.996447265625,0.0001845071092247963,0.0030861152336001396,-0.0016487967222929
1782829667367375000,1.006375,-0.0011919457465410233,0.0005233120173215866,-0.00182627746835351
1782829667377304300,1.01630419921875,-0.00012295227497816086,0.001149686984717846,0.0008901464752852917
1782829667387232300,1.026232177734375,-0.0002883346751332283,0.0003512715920805931,0.003512029070407152
1782829667397161200,1.0361611328125,0.0018477868288755417,0.0006586005911231041,-0.000697895884513855
1782829667407089200,1.046089111328125,0.0014575328677892685,-0.0010155187919735909,-0.002444435842335224
1782829667417018000,1.05601806640625,0.0006415406242012978,-0.0013974159955978394,0.0008680038154125214
1782829667426946000,1.065946044921875,0.0009025568142533302,-0.0014988379552960396,0.0011419141665101051
1782829667436875000,1.075875,-0.0004956023767590523,0.0009139860048890114,0.0019214209169149399
1782829667446803200,1.08580322265625,0.0008687423542141914,0.0000030370429158210754,0.0017453627660870552
1782829667456732200,1.095732177734375,0.0002586124464869499,-0.0031024757772684097,0.00024227425456047058
1782829667466660400,1.105660400390625,-0.0010461434721946716,-0.0017698407173156738,0.0002176063135266304
1782829667476589300,1.11558935546875,-0.0006975363940000534,-0.0012334799394011497,-0.0016684448346495628
1782829667486517200,1.125517333984375,0.00023661181330680847,0.0018896246328949928,0.0010185642167925835
1782829667496446200,1.1354462890625,0.0006166454404592514,0.0017633913084864616,-0.0011686901561915874
1782829667506374100,1.1453740234375,-0.00032690446823835373,0.0010175611823797226,-0.002286973875015974
1782829667516303400,1.155303466796875,0.001092560589313507,-0.00031801406294107437,-0.0008866838179528713
1782829667526231300,1.165231201171875,0.0014599841088056564,-0.00530498381704092,-0.0005770199932157993
1782829667536160300,1.17516015625,0.0005292091518640518,-0.00047161243855953217,-0.0013280310668051243
1782829667546088200,1.185088134765625,-0.0028654560446739197,0.0013858331367373466,-0.00016829976812005043
1782829667556017200,1.19501708984375,0.000025138258934020996,0.0022156741470098495,0.0007251910865306854
1782829667565945000,1.204945068359375,0.0011005504056811333,0.0009999843314290047,0.00018630363047122955
1782829667575874000,1.2148740234375,-0.0008523454889655113,-0.001242930069565773,-0.0014022719115018845
1782829667585802200,1.22480224609375,0.0014094766229391098,0.0031627370044589043,-0.0002073114737868309
1782829667595731200,1.234731201171875,0.0022813957184553146,-0.0005747433751821518,0.0015855282545089722
1782829667605659100,1.2446591796875,-0.00117424875497818,-0.0013246769085526466,-0.0004095444455742836
1782829667615588000,1.254588134765625,-0.0002424083650112152,0.0028644753620028496,-0.0004524216055870056
1782829667625516300,1.264516357421875,0.0005977451801300049,0.000862564891576767,0.0006257249042391777
1782829667635445000,1.274445068359375,0.00036525167524814606,-0.0003688810393214226,0.0006491607055068016
1782829667645373200,1.284373291015625,0.0009276103228330612,0.0008345479145646095,0.00021928967908024788
1782829667655302400,1.294302490234375,-0.0013568494468927383,0.002094755880534649,-0.0011178837157785892
1782829667665230300,1.304230224609375,0.000997006893157959,0.00014146696776151657,0.0002169376239180565
1782829667675159300,1.3141591796875,-0.0009241970255970955,-0.0017845304682850838,0.0003322521224617958
1782829667685087200,1.324087158203125,-0.0010932143777608871,-0.0008751871064305305,-0.0006866734474897385
1782829667695016200,1.33401611328125,0.000798429362475872,0.002725672908127308,0.0005490332841873169
1782829667704944000,1.343944091796875,0.002412249334156513,0.0006763450801372528,0.0018843961879611015
1782829667714873300,1.353873291015625,-0.001326030120253563,-0.001224619336426258,-0.001738834660500288
1782829667724801300,1.36380126953125,0.0015436066314578056,-0.0010798787698149681,-0.0012207059189677238
1782829667734730200,1.373730224609375,-0.000601569190621376,-0.0031366385519504547,-0.002759746741503477
1782829667744658200,1.383658203125,0.00025821104645729065,0.00009336788207292557,-0.0012460509315133095
1782829667754587100,1.393587158203125,-0.0019135968759655952,0.0006750021129846573,0.0006900676526129246
1782829667764516000,1.40351611328125,-0.002419890835881233,-0.00037885550409555435,0.0010286839678883553
1782829667774444000,1.413444091796875,0.00021424144506454468,-0.002604193054139614,-0.0008765412494540215
1782829667784373200,1.423373291015625,0.0015614153817296028,-0.0029317401349544525,0.00016349181532859802
1782829667794301200,1.43330126953125,-0.0013355705887079239,-0.0005287695676088333,-0.0010264082811772823
1782829667804230100,1.443230224609375,0.0025085899978876114,0.002831217832863331,0.002351324073970318
1782829667814158000,1.453157958984375,-0.0008243555203080177,0.0002934923395514488,-0.0016167857684195042
1782829667824087000,1.463087158203125,0.0002474198117852211,-0.0020080339163541794,0.0017901277169585228
1782829667834015200,1.47301513671875,-0.0005464684218168259,0.00047776009887456894,-0.00005411170423030853
1782829667843944200,1.482944091796875,-0.0008266065269708633,-0.0012724250555038452,-0.0004800804890692234
1782829667853872400,1.492872314453125,0.0018405495211482048,0.000810965895652771,0.002353789284825325
1782829667863801300,1.50280126953125,0.0018305899575352669,0.0028213653713464737,-0.0010489127598702908
1782829667873729300,1.512729248046875,0.0005879588425159454,0.001986997202038765,-0.0008600945584475994
1782829667883658200,1.522658203125,-0.0013499250635504723,-0.0020698951557278633,-0.00008271308615803719
1782829667893586200,1.532586181640625,0.00034144893288612366,-0.00301371980458498,-0.002900337800383568
1782829667903515100,1.54251513671875,0.0010061003267765045,-0.0013063782826066017,-0.004894680343568325
1782829667913443000,1.552443115234375,0.0018362076953053474,0.00046995002776384354,0.0021650930866599083
1782829667923372300,1.562372314453125,-0.0009627128019928932,0.0011854805052280426,0.0033776145428419113
1782829667933300200,1.57230029296875,0.00008763745427131653,-0.00003451388329267502,-0.00041685765609145164
1782829667943229200,1.582229248046875,-0.0015260716900229454,-0.0032087890431284904,-0.0002879980020225048
1782829667953157000,1.5921572265625,0.002338707447052002,-0.0011389805004000664,-0.0005196928977966309
1782829667963086000,1.602086181640625,0.0009537907317280769,0.0030789226293563843,-0.0016903192736208439
1782829667973014000,1.612013916015625,-0.0005439715459942818,0.0030680038034915924,0.00031903525814414024
1782829667982943200,1.621943115234375,0.001639021560549736,0.0005380008369684219,-0.0026224255561828613
1782829667992871200,1.63187109375,-0.0006113490089774132,-0.0031408900395035744,-0.001681797206401825
1782829668002800000,1.641800048828125,-0.0009587882086634636,-0.0023358147591352463,-0.0000431770458817482
1782829668012728300,1.651728271484375,0.0013411184772849083,0.00006555765867233276,-0.0006493125110864639
1782829668022657300,1.6616572265625,0.002781510353088379,0.003061228431761265,0.0016588950529694557
1782829668032585200,1.671585205078125,-0.0005090916529297829,0.0010188501328229904,0.0003542127087712288
1782829668042514200,1.68151416015625,0.0011777160689234734,-0.0007043303921818733,-0.0018512057140469551
1782829668052442400,1.6914423828125,-0.00008222553879022598,-0.002635122276842594,-0.0006197597831487656
1782829668062371300,1.701371337890625,0.000588543713092804,-0.00113003421574831,0.0023985225707292557
1782829668072299300,1.71129931640625,-0.00047565530985593796,-0.000420302152633667,0.0011593541130423546
1782829668082228200,1.721228271484375,-0.002367418259382248,0.0030210567638278008,0.0007676715031266212
1782829668092156200,1.73115625,0.0014523537829518318,-0.001039198599755764,-0.000014232471585273743
1782829668102085000,1.741085205078125,0.000026524066925048828,0.005049099214375019,-0.004789675585925579
1782829668112013000,1.751012939453125,0.0005591567605733871,-0.0026708729565143585,-0.0023427633568644524
1782829668121942300,1.7609423828125,-0.001355297863483429,-0.0017542792484164238,-0.000294731929898262
1782829668131870200,1.7708701171875,-0.0017933882772922516,0.0009743953123688698,0.0012312596663832664
1782829668141799200,1.780799072265625,0.0006410423666238785,-0.0003386465832591057,-0.0013114134781062603
1782829668151727000,1.79072705078125,0.000980062410235405,0.0019508730620145798,0.0030689537525177
1782829668161656000,1.800656005859375,0.0018328651785850525,-0.004306985065340996,0.0024047093465924263
1782829668171584300,1.810584228515625,-0.00018794089555740356,-0.0025652777403593063,-0.0008448795415461063
1782829668181513200,1.82051318359375,-0.0012808935716748238,0.000032681040465831757,-0.0011883191764354706
1782829668191441400,1.83044140625,-0.0010294914245605469,-0.0005502849817276001,-0.0008620820008218288
1782829668201370000,1.8403701171875,0.0011229608207941055,0.0008363872766494751,0.0011037187650799751
1782829668211298300,1.85029833984375,-0.0021519288420677185,-0.0015577943995594978,0.0016715051606297493
1782829668221227300,1.860227294921875,0.00007801689207553864,-0.001421007327735424,0.0015858379192650318
1782829668231155200,1.8701552734375,0.0001246221363544464,0.0027199415490031242,-0.0004200553521513939
1782829668241084200,1.880084228515625,-0.001452552154660225,0.002156836912035942,-0.0005898256786167622
1782829668251012000,1.89001220703125,0.0011560143902897835,0.0016886526718735695,0.001188899390399456
1782829668260941300,1.89994140625,0.0016762269660830498,0.00033780280500650406,-0.0016539446078240871
1782829668270869200,1.909869140625,-0.00012220628559589386,0.001985500566661358,-0.0012459480203688145
1782829668280798200,1.919798095703125,-0.0009788600727915764,-0.0003060074523091316,-0.0020706169307231903
1782829668290726100,1.92972607421875,-0.0010315906256437302,0.0027033640071749687,0.0017283824272453785
1782829668300655000,1.939655029296875,0.0008926419541239738,0.0015562241896986961,-0.0001427200622856617
1782829668310583000,1.9495830078125,0.0008108830079436302,0.0003319690003991127,-0.0016625858843326569
1782829668320512000,1.959511962890625,0.0009372914209961891,0.0005996469408273697,0.0002993587404489517
1782829668330440000,1.96943994140625,0.0018678000196814537,-0.0024717766791582108,-0.0010822894982993603
1782829668340369200,1.979369140625,-0.0005141496658325195,-0.002091681584715843,0.002148115076124668
1782829668350298000,1.989298095703125,-0.0015621036291122437,-0.000013617798686027527,0.0016764691099524498
1782829668360226000,1.99922607421875,0.0009361216798424721,0.0021150419488549232,0.0006518964655697346
1782829668370155000,2.009155029296875,0.0010527679696679115,0.002287347801029682,-0.001352931372821331
1782829668380083200,2.019083251953125,-0.00034439098089933395,-0.001359395682811737,-0.00018016761168837547
1782829668390012000,2.029011962890625,0.0006910460069775581,-0.003941596485674381,0.00020252913236618042
1782829668399940000,2.038940185546875,0.0018350835889577866,-0.0009658234193921089,-0.0009164051152765751
1782829668409869300,2.048869384765625,-0.0017953375354409218,-0.000388449989259243,-0.00005593756213784218
1782829668419797200,2.05879736328125,0.0017273975536227226,0.001751704141497612,0.0015308749862015247
1782829668429726200,2.068726318359375,-0.0014835763722658157,-0.003069682978093624,0.00022246362641453743
1782829668439654100,2.078654052734375,0.00025025103241205215,-0.004029792733490467,0.00021964125335216522
1782829668449583000,2.0885830078125,0.00007368344813585281,-0.0010401280596852303,-0.0005910252220928669
1782829668459511000,2.098510986328125,-0.0035635652020573616,0.0036628469824790955,0.0013109836727380753
1782829668469440300,2.108440185546875,-0.0000924011692404747,0.002019943669438362,0.001466779038310051
1782829668479368200,2.1183681640625,0.00010056793689727783,-0.0038011334836483,-0.0016279942356050014
1782829668489297200,2.128297119140625,0.00048672594130039215,-0.0021036341786384583,0.0024711438454687595
1782829668499225000,2.13822509765625,0.0004849061369895935,-0.0005198158323764801,0.001376037485897541
1782829668509154000,2.148154052734375,0.00041806045919656754,0.001021355390548706,0.0010886816307902336
1782829668519082000,2.15808203125,0.0011083297431468964,0.002536245621740818,0.002478406298905611
1782829668529011000,2.168010986328125,0.0014995485544204712,0.003154898062348366,-0.0013155327178537846
1782829668538939000,2.17793896484375,-0.0007700258865952492,-0.0019166497513651848,-0.004744049161672592
1782829668548868000,2.1878681640625,-0.0011665700003504753,-0.0022809701040387154,-0.0022966042160987854
1782829668558796300,2.19779638671875,-0.00442489143460989,0.002267986536026001,-0.0004589115269482136
1782829668568725000,2.20772509765625,-0.001318579539656639,0.003160945139825344,-0.00012441817671060562
1782829668578653200,2.217653076171875,-0.0006353473290801048,-0.001969635486602783,0.0010042921639978886
1782829668588582100,2.22758203125,-0.00023960135877132416,-0.002010648138821125,-0.00186100322753191
1782829668598510000,2.237510009765625,0.0006430773064494133,0.0003208676353096962,-0.004700922407209873
1782829668608439300,2.247439208984375,-0.0017250049859285355,0.0015214206650853157,-0.0013972707092761993
1782829668618367200,2.2573671875,-0.00039917975664138794,0.0016768453642725945,0.004476820584386587
1782829668628296200,2.267296142578125,-0.00008386187255382538,0.00004033278673887253,-0.0005432376638054848
1782829668638224100,2.27722412109375,0.00032815150916576385,-0.0016801441088318825,-0.003634186927229166
1782829668648153000,2.287153076171875,0.00020085182040929794,-0.002891083247959614,-0.0037601543590426445
1782829668658081000,2.2970810546875,-0.0010672053322196007,-0.0028197551146149635,-0.0007303808815777302
1782829668668010200,2.30701025390625,0.0001005902886390686,0.0010303761810064316,-0.0003732512705028057
1782829668677938200,2.316938232421875,-0.00026433728635311127,0.0013747941702604294,0.0030885343439877033
1782829668687867100,2.3268671875,-0.001467287540435791,-0.0026247408241033554,0.0010988875292241573
1782829668697795000,2.336795166015625,-0.00132780522108078,-0.0040399497374892235,-0.0012712585739791393
1782829668707724000,2.34672412109375,-0.002121959812939167,0.0009859679266810417,0.0027447883039712906
1782829668717652000,2.35665185546875,0.0010467525571584702,0.0027108900249004364,-0.0014271102845668793
1782829668727581000,2.366580810546875,0.0008344985544681549,0.005201744846999645,-0.00028674444183707237
1782829668737509000,2.376509033203125,-0.001340443268418312,0.00028747785836458206,0.0008628927171230316
1782829668747438000,2.38643798828125,-0.0029199644923210144,0.00011756829917430878,-0.0026117339730262756
1782829668757366300,2.3963662109375,-0.00004255864769220352,-0.00035108625888824463,0.00010702339932322502
1782829668767295200,2.406295166015625,-0.0003589428961277008,-0.00002751220017671585,0.0007560360245406628
1782829668777223200,2.41622314453125,0.001255616545677185,0.0036177048459649086,0.000029320362955331802
1782829668787152100,2.426152099609375,0.001118464395403862,0.002051766961812973,0.00024157436564564705
1782829668797081300,2.436081298828125,-0.0013193180784583092,-0.0003702901303768158,0.000722015742212534
1782829668807009300,2.44600927734375,-0.0015472844243049622,-0.0005500540137290955,-0.00013365782797336578
1782829668816938200,2.455938232421875,-0.001581854186952114,-0.0038623781874775887,-0.0008431477472186089
1782829668826866200,2.4658662109375,0.0003774333745241165,0.0006607342511415482,-0.0010940171778202057
1782829668836795100,2.475795166015625,-0.000779508613049984,0.003110770136117935,-0.0019239643588662148
1782829668846723000,2.48572314453125,0.0016439687460660934,0.002395978197455406,0.00007420545443892479
1782829668856652000,2.495652099609375,0.0005567874759435654,-0.0037978189066052437,-0.00037978263571858406
1782829668866580000,2.505580078125,0.0014601312577724457,-0.0035738470032811165,-0.00038084806874394417
1782829668876509200,2.51550927734375,0.00005674920976161957,-0.0021085040643811226,-0.0014519528485834599
1782829668886437000,2.52543701171875,-0.0015427451580762863,-0.0016086287796497345,-0.001976063009351492
1782829668896366000,2.535365966796875,0.0015077218413352966,0.0031300680711865425,-0.00128572853282094
1782829668906294000,2.5452939453125,-0.0001908428966999054,0.0015923595055937767,0.0017334972508251667
1782829668916223000,2.555222900390625,0.00012055877596139908,-0.001480264589190483,0.0021736742928624153
1782829668926151000,2.56515087890625,0.0011128531768918037,-0.003555133007466793,-0.0012980224564671516
1782829668936080100,2.575080078125,0.00100625678896904,0.0019279522821307182,-0.00390303460881114
1782829668946008300,2.58500830078125,-0.000019593164324760437,-0.0015141833573579788,-0.001252656802535057
1782829668955937000,2.59493701171875,0.0010624472051858902,0.0011635180562734604,-0.0008959472179412842
1782829668965865200,2.604865234375,-0.0015764785930514336,0.002802959643304348,0.0010321815498173237
1782829668975794200,2.614794189453125,0.0014818999916315079,0.00020749587565660477,0.0005296799354255199
1782829668985722000,2.62472216796875,0.0006304876878857613,-0.0013323435559868813,-0.001826950814574957
1782829668995651000,2.634651123046875,-0.00033917464315891266,-0.001142214983701706,0.00125132966786623
1782829669005579300,2.644579345703125,0.00016762502491474152,0.0001574074849486351,-0.00040915142744779587
1782829669015508200,2.65450830078125,-0.0016628196462988853,0.0026307692751288414,0.0006222040392458439
1782829669025436200,2.664436279296875,-0.0022295406088232994,0.003332246094942093,0.001351377461105585
1782829669035365000,2.674365234375,-0.0014303596690297127,-0.002738604322075844,-0.001234132330864668
1782829669045293000,2.68429296875,-0.0005680285394191742,-0.005407890770584345,0.0001017092727124691
1782829669055222000,2.694221923828125,0.00182342529296875,-0.002847481518983841,-0.0006773117929697037
1782829669065150000,2.70414990234375,-0.00009138789027929306,0.0002838633954524994,-0.0017558918334543705
1782829669075079200,2.7140791015625,-0.002519681118428707,0.0025785863399505615,0.0007576500065624714
1782829669085007000,2.724007080078125,-0.0008781086653470993,0.002579118125140667,-0.0006908434443175793
1782829669094936000,2.73393603515625,-0.0016288142651319504,-0.0001971069723367691,-0.0013312939554452896
1782829669104864000,2.743864013671875,-0.0009116251021623611,-0.00519958883523941,-0.002328647766262293
1782829669114793000,2.75379296875,0.001724284142255783,-0.0013447795063257217,0.000162418931722641
1782829669124721200,2.76372119140625,0.0024028578773140907,0.002692572772502899,0.003682319074869156
1782829669134650000,2.773650146484375,0.0024573951959609985,0.0012334482744336128,0.0003294670023024082
1782829669144578300,2.783578369140625,0.0014150338247418404,0.001186843030154705,0.0031359060667455196
1782829669154507300,2.79350732421875,-0.00020910799503326416,-0.004599856212735176,0.0009628520347177982
1782829669164435200,2.803435302734375,-0.0007705017924308777,-0.0004549119621515274,-0.0028827525675296783
1782829669174364200,2.8133642578125,-0.0015727970749139786,0.003042318858206272,-0.0036468608304858208
1782829669184293000,2.823293212890625,-0.000036685727536678314,0.004773905500769615,-0.00006357766687870026
1782829669194221000,2.833220947265625,0.0011801216751337051,-0.0002547549083828926,0.0008341455832123756
1782829669204150300,2.843150390625,-0.0018292507156729698,-0.0008062953129410744,0.00006529130041599274
1782829669214078200,2.853078125,-0.00029255542904138565,0.00027544889599084854,-0.0015487191267311573
1782829669224007200,2.863007080078125,-0.0009937658905982971,-0.0006334884092211723,-0.00004696287214756012
1782829669233935000,2.87293505859375,-0.0003532692790031433,0.0009190067648887634,0.0011227200739085674
1782829669243864000,2.882864013671875,-0.001242498867213726,0.004856489598751068,0.0009381636045873165
1782829669253792000,2.8927919921875,-0.00010340753942728043,0.0028262874111533165,0.00254760030657053
1782829669263721200,2.90272119140625,0.00001963134855031967,-0.0025098882615566254,-0.0003925291821360588
1782829669273649200,2.912649169921875,-0.00004365108907222748,-0.005600306671112776,-0.0037588500417768955
1782829669283577900,2.922577880859375,0.004348966293036938,0.00021310709416866302,0.00043189991265535355
1782829669293505800,2.932505859375,-0.0008838539943099022,0.0019042808562517166,0.0010864981450140476
1782829669303434800,2.942434814453125,-0.0021786820143461227,0.002393503673374653,0.0009216484613716602
1782829669313363000,2.952363037109375,0.0009918930009007454,0.00024016853421926498,0.0010999888181686401
1782829669323292000,2.9622919921875,-0.0005261087790131569,-0.005089349113404751,0.000058426521718502045
1782829669333219800,2.9722197265625,0.001322740688920021,-0.0026526954025030136,-0.0008141482248902321
1782829669343149000,2.982149169921875,-0.0010027317330241203,0.0006906362250447273,0.0009917407296597958
1782829669353077000,2.992076904296875,0.0021412931382656097,0.005982019007205963,0.0006710588932037354
1782829669363006000,3.002005859375,-0.0000033508986234664917,0.001954253762960434,0.0027792174369096756
1782829669372934000,3.011933837890625,0.00020278431475162506,-0.0020789513364434242,0.000905714463442564
1782829669382862800,3.02186279296875,0.001981508918106556,-0.0008325912058353424,-0.003362799994647503
1782829669392790800,3.031790771484375,-0.0014467006549239159,-0.0008523650467395782,-0.0007635597139596939
1782829669402720000,3.041719970703125,-0.000364658422768116,0.004707782529294491,0.0009232861921191216
1782829669412648000,3.05164794921875,0.0014750631526112556,0.0016404446214437485,-0.0005201082676649094
1782829669422577000,3.061576904296875,-0.000514850951731205,-0.0019359150901436806,-0.0002628467045724392
1782829669432504800,3.0715048828125,0.0021831393241882324,0.0002863500267267227,-0.001241298858076334
1782829669442433800,3.081433837890625,0.0008475640788674355,-0.002244185656309128,0.0018237335607409477
1782829669452361700,3.09136181640625,-0.00006437953561544418,0.002279418520629406,0.003286204766482115
1782829669462290700,3.101290771484375,0.0009042117744684219,0.006313309073448181,-0.0005905586294829845
1782829669472218600,3.111218505859375,0.002111334353685379,0.003114020451903343,0.0006403857842087746
1782829669482147800,3.12114794921875,0.001083354465663433,-0.0004956284537911415,0.00032453425228595734
1782829669492076000,3.131075927734375,0.00021741073578596115,-0.003239675424993038,-0.0013434742577373981
1782829669502004700,3.141004638671875,-0.001004447229206562,-0.0020524384453892708,-0.002193821594119072
1782829669511933000,3.150932861328125,0.0007170988246798515,-0.0030549457296729088,0.0008028596639633179
1782829669521862000,3.16086181640625,-0.000568675808608532,0.0002071605995297432,-0.00042938534170389175
1782829669531789800,3.170789794921875,-0.0010573798790574074,0.0027437498793005943,0.0002166791819036007
1782829669541719000,3.180718994140625,-0.0005617653951048851,-0.005396202206611633,0.0003034980036318302
1782829669551648000,3.19064794921875,0.0008647553622722626,-0.0015207836404442787,0.0008670343086123466
1782829669561576000,3.200575927734375,0.00024450477212667465,0.0007357122376561165,0.0007772855460643768
1782829669571505000,3.2105048828125,-0.0005816379562020302,-0.000771673396229744,0.002742917276918888
1782829669581432800,3.220432861328125,-0.0014210669323801994,0.0010933391749858856,0.0019391747191548347
1782829669591361800,3.23036181640625,-0.00008856318891048431,0.0032596001401543617,-0.000938421580940485
1782829669601289700,3.240289794921875,0.0004707006737589836,-0.0007894700393080711,-0.00037463055923581123
1782829669611219000,3.250218994140625,0.0001973528414964676,-0.0032186359167099,-0.000906982459127903
1782829669621147000,3.26014697265625,0.0012373169884085655,0.0015529496595263481,-0.0000028391368687152863
1782829669631075800,3.270075927734375,-0.0016035791486501694,0.0017370041459798813,0.0013785110786557198
1782829669641003800,3.280003662109375,0.0001881951466202736,0.004093368537724018,0.0008679833263158798
1782829669650932700,3.2899326171875,0.0007833298295736313,0.002889741212129593,-0.00016145268455147743
1782829669660860700,3.299860595703125,-0.00015756487846374512,-0.00039633363485336304,-0.0025098277255892754
1782829669670790000,3.309789794921875,0.000310785137116909,-0.00024830177426338196,0.0009995494037866592
1782829669680717800,3.3197177734375,-0.0006982861086726189,-0.00002805795520544052,0.0009484170004725456
1782829669690646800,3.329646728515625,-0.00240184273570776,-0.00022261124104261398,0.0010768366046249866
1782829669700575000,3.339574951171875,0.0014624036848545074,0.0013427939265966415,0.0022739279083907604
1782829669710504000,3.34950390625,-0.00164730753749609,-0.001476089470088482,-0.0006488384678959846
1782829669720431900,3.359431884765625,0.0010760407894849777,-0.0030018147081136703,-0.00010954868048429489
1782829669730361000,3.369361083984375,-0.0004158494994044304,-0.0019066017121076584,0.0008521261624991894
1782829669740289000,3.3792890625,-0.000786561518907547,-0.0006850101053714752,-0.0027724364772439003
1782829669750218000,3.389218017578125,0.0005238587036728859,0.00009110849350690842,0.0017433981411159039
1782829669760146000,3.39914599609375,-0.0004324819892644882,0.003129242919385433,-0.0017352229915559292
1782829669770075000,3.409074951171875,-0.0020902976393699646,0.0006196228787302971,-0.0032424619421362877
1782829669780002800,3.4190029296875,0.0010820599272847176,-0.0010882625356316566,0.0032942662946879864
1782829669789931800,3.428931884765625,0.0024849800392985344,0.00022266898304224014,0.0030280062928795815
1782829669799859700,3.438859619140625,-0.0026405397802591324,0.0019097812473773956,0.0005150474607944489
1782829669809789000,3.448788818359375,0.0010294076055288315,-0.00047033652663230896,0.0016465876251459122
1782829669819716900,3.458716796875,0.0023756353184580803,-0.001608039252460003,0.001183464191854
1782829669829645800,3.468645751953125,0.0001614680513739586,0.0024688709527254105,0.0005506412126123905
1782829669839573800,3.47857373046875,0.0010277945548295975,0.0013119932264089584,-0.0008661607280373573
1782829669849502700,3.488502685546875,-0.001535947434604168,0.0007545333355665207,-0.0017350874841213226
1782829669859432000,3.498431884765625,-0.000018744729459285736,-0.0015581557527184486,0.0000604153610765934
1782829669869359900,3.50835986328125,0.0010652998462319374,0.0013924343511462212,0.00044693564996123314
1782829669879288800,3.518288818359375,0.0005318690091371536,0.003540273755788803,0.001252808142453432
1782829669889217000,3.528217041015625,0.002074682153761387,0.00011612195521593094,0.0005162782035768032
1782829669899145700,3.538145751953125,-0.00027129705995321274,-0.0041183046996593475,-0.00005283905193209648
1782829669909074000,3.548073974609375,-0.00013905949890613556,-0.0015902947634458542,-0.0006781062111258507
1782829669919003000,3.5580029296875,-0.0019966140389442444,0.000690702348947525,0.0011815791949629784
1782829669928930800,3.567930908203125,-0.00019444618374109268,0.001934208907186985,-0.0006544860079884529
1782829669938860000,3.577860107421875,0.000478268601000309,0.0006234012544155121,0.00020970962941646576
1782829669948788000,3.5877880859375,0.00059550441801548,-0.000669386237859726,0.001256630290299654
1782829669958717000,3.597717041015625,0.0004197359085083008,-0.00028136372566223145,0.0009263982065021992
1782829669968644900,3.607644775390625,0.0005320105701684952,-0.0025312406942248344,-0.0005013542249798775
1782829669978573800,3.61757373046875,-0.002615579403936863,-0.00009098649024963379,0.0010379524901509285
1782829669988501800,3.627501708984375,-0.0008821990340948105,0.0007199570536613464,-0.0011481596156954765
1782829669998431000,3.637430908203125,0.00022514350712299347,-0.00034317653626203537,-0.00016172509640455246
1782829670008359000,3.64735888671875,-0.0000889832153916359,-0.0002006683498620987,0.0008658608421683311
1782829670018287900,3.657287841796875,0.0012609735131263733,-0.0005266396328806877,-0.0016958336345851421
1782829670028215800,3.6672158203125,0.0010544676333665848,-0.0008477773517370224,-0.0017052670009434223
1782829670038144800,3.677144775390625,-0.00024089403450489044,-0.002043803222477436,0.00014776038005948067
1782829670048072700,3.68707275390625,0.0008813878521323204,0.0025254590436816216,-0.001215497963130474
1782829670058001700,3.697001708984375,0.0023208269849419594,0.002086303196847439,0.0019989372231066227
1782829670067929900,3.706929931640625,-0.0011712061241269112,-0.003621520474553108,0.0019658044911921024
1782829670077858800,3.71685888671875,-0.00005081389099359512,-0.0033509433269500732,-0.0005652634426951408
1782829670087787000,3.726787109375,-0.002033766359090805,0.0007515400648117065,0.00027274806052446365
1782829670097716000,3.736716064453125,0.00043764710426330566,0.002741454169154167,-0.0016631041653454304
1782829670107644000,3.746643798828125,-0.00044570956379175186,0.0010488340631127357,0.0003865188919007778
1782829670117572900,3.75657275390625,-0.001529882661998272,0.0007881103083491325,-0.0026252497918903828
1782829670127500800,3.766500732421875,0.0008832551538944244,0.00023597385734319687,-0.0018480191938579082
1782829670137430000,3.776429931640625,-0.0006043864414095879,-0.0014692479744553566,0.0004952959716320038
1782829670147358000,3.78635791015625,0.00001744646579027176,-0.001428358256816864,-0.0016497974283993244
1782829670157287000,3.796286865234375,0.00029654521495103836,0.0008521061390638351,0.0006021712906658649
1782829670167215900,3.8062158203125,-0.0006048977375030518,0.00005693640559911728,0.0010725227184593678
1782829670177143800,3.816143798828125,0.0009421324357390404,0.0029248949140310287,-0.0027539068832993507
1782829670187072800,3.82607275390625,0.0004462301731109619,-0.003073733299970627,0.0009229639545083046
1782829670197001000,3.8360009765625,-0.000034203752875328064,-0.00037062447518110275,-0.0029229074716567993
1782829670206930000,3.845929931640625,0.0009867707267403603,0.0016798162832856178,0.0029612001962959766
1782829670216857900,3.85585791015625,-0.00014480669051408768,-0.00021156016737222672,0.00010735681280493736
1782829670226786800,3.865786865234375,0.00034324824810028076,-0.0012086480855941772,0.00029084784910082817
1782829670236714800,3.87571484375,0.001085205003619194,-0.0016845548525452614,0.0008706185035407543
1782829670246643700,3.885643798828125,-0.0008456790819764137,-0.004045999608933926,-0.0005363980308175087
1782829670256571600,3.895571533203125,-0.001557542011141777,0.0010054847225546837,-0.0021633231081068516
1782829670266500900,3.9055009765625,0.0011574970558285713,-0.0016988962888717651,-0.00045017432421445847
1782829670276429000,3.915428955078125,-0.0008518584072589874,0.001972537487745285,0.00004304293543100357
1782829670286357500,3.925357421875,-0.0017189746722579002,0.000020605511963367462,-0.0014296993613243103
1782829670296285400,3.935285400390625,0.00027972739189863205,-0.0007154922932386398,0.00041480641812086105
1782829670306214700,3.945214599609375,-0.0011862339451909065,0.0003192191943526268,0.0001656981185078621
1782829670316142600,3.955142578125,-0.000013377517461776733,0.0007083071395754814,0.0013553313910961151
1782829670326071600,3.965071533203125,0.00041779130697250366,0.000753793865442276,-0.0017991336062550545
1782829670335999500,3.97499951171875,-0.0012432225048542023,0.0028073573485016823,-0.0012451959773898125
1782829670345928400,3.984928466796875,-0.0003757067024707794,0.004098979756236076,-0.0008368338458240032
1782829670355856400,3.9948564453125,0.00011644512414932251,-0.003262796439230442,0.0004790341481566429
1782829670365785600,4.00478564453125,-0.0005212752148509026,-0.0008629690855741501,-0.0037391968071460724
1782829670375713500,4.014713623046875,0.0002875272184610367,0.0022931434214115143,-0.00030957767739892006
1782829670385642500,4.024642578125,-0.0025075403973460197,-0.0008791619911789894,-0.0017311349511146545
1782829670395570400,4.0345703125,0.0025197090581059456,-0.001484764739871025,-0.000554550439119339
1782829670405499400,4.04449951171875,0.0007796389982104301,-0.0010061338543891907,0.0012968163937330246
1782829670415427300,4.05442724609375,-0.00026937946677207947,-0.001953686587512493,-0.0008627409115433693
1782829670425356300,4.064356201171875,0.0010646777227520943,-0.0005101831629872322,0.0019275583326816559
1782829670435285500,4.074285400390625,-0.00012548919767141342,0.0024682963266968727,0.0001405775547027588
1782829670445213400,4.08421337890625,0.0001798691228032112,-0.0007928656414151192,0.0017766812816262245
1782829670455142400,4.094142333984375,-0.0008691493421792984,-0.002162795513868332,-0.0005908692255616188
1782829670465070600,4.104070556640625,-0.00022291578352451324,-0.0008382163941860199,0.0017092842608690262
1782829670474999600,4.11399951171875,0.0006194422021508217,-0.0001612408086657524,-0.0010361685417592525
1782829670484927500,4.123927490234375,0.00018020067363977432,0.0007352773100137711,0.001834273338317871
1782829670494856700,4.133856689453125,-0.0005574943497776985,0.002896432764828205,0.0006731348112225533
1782829670504784600,4.14378466796875,-0.0004954962059855461,0.0024056769907474518,-0.0035305856727063656
1782829670514713600,4.153713623046875,-0.0011354535818099976,-0.0019651027396321297,-0.0014312160201370716
1782829670524641500,4.1636416015625,-0.0005976073443889618,-0.0010739192366600037,-0.0021138773299753666
1782829670534570500,4.173570556640625,-0.0007834956049919128,0.0007847007364034653,0.0029546506702899933
1782829670544498400,4.18349853515625,-0.0036962367594242096,-0.000041816383600234985,0.0022191284224390984
1782829670554427400,4.193427490234375,0.0012521827593445778,0.0000029243528842926025,0.0037443209439516068
1782829670564355300,4.203355224609375,-0.0015656668692827225,0.002168300561606884,-0.0015155584551393986
1782829670574284500,4.213284423828125,0.00032837316393852234,0.0007568253204226494,-0.002940881997346878
1782829670584212500,4.22321240234375,0.00037689972668886185,-0.00050401221960783,-0.00022000400349497795
1782829670594141400,4.233141357421875,-0.0011656032875180244,0.0013447543606162071,0.0007909322157502174
1782829670604069400,4.2430693359375,0.001368919387459755,-0.001438874751329422,-0.001145427580922842
1782829670613998300,4.252998291015625,-0.0012273965403437614,-0.0029278481379151344,0.0015387721359729767
1782829670623926500,4.262926513671875,-0.00007950793951749802,-0.0008269632235169411,0.0006996644660830498
1782829670633855500,4.27285546875,-0.0015019029378890991,-0.000512709841132164,-0.0008881124667823315
1782829670643783700,4.28278369140625,0.0032179411500692368,-0.00001955311745405197,-0.001202346757054329
1782829670653712400,4.29271240234375,-0.0008827941492199898,-0.00039665587246418,0.00012044515460729599
1782829670663640600,4.302640625,0.0010639680549502373,-0.000660289078950882,-0.00046161701902747154
1782829670673569500,4.312569580078125,-0.0014692312106490135,0.0002079010009765625,0.0014593210071325302
1782829670683498500,4.32249853515625,-0.002012149430811405,0.00007553212344646454,0.0008029509335756302
1782829670693426700,4.3324267578125,0.001437443308532238,0.00039218179881572723,0.000603480264544487
1782829670703355600,4.342355712890625,-0.0006223423406481743,-0.00046157464385032654,-0.0019123703241348267
1782829670713283600,4.35228369140625,0.0021255072206258774,-0.0009273616597056389,-0.002891880925744772
1782829670723212500,4.362212646484375,0.0016605304554104805,0.0035904645919799805,0.0004651695489883423
1782829670733140500,4.372140380859375,-0.0010292623192071915,-0.0009044185280799866,-0.000304217915982008
1782829670743069400,4.3820693359375,0.0021358998492360115,-0.0009681694209575653,-0.00038464879617094994
1782829670752997400,4.391997314453125,-0.0002295197919011116,0.0020523881539702415,0.0005708932876586914
1782829670762926600,4.401926513671875,-0.00003623310476541519,-0.00035091955214738846,0.0026479512453079224
1782829670772854500,4.4118544921875,0.0015009436756372452,0.0016597667708992958,0.0012188982218503952
1782829670782783500,4.421783447265625,-0.0014914106577634811,0.00021578650921583176,0.002172376960515976
1782829670792711400,4.43171142578125,-0.00029325392097234726,0.0008789133280515671,-0.002579500898718834
1782829670802640400,4.441640380859375,0.00026790983974933624,-0.0018547512590885162,-0.00047165947034955025
1782829670812568300,4.451568359375,-0.0016045588999986649,-0.0005798954516649246,-0.0021212217397987843
1782829670822497500,4.46149755859375,0.0005712313577532768,0.003746442496776581,-0.0021459562703967094
1782829670832425500,4.471425537109375,-0.0025665052235126495,0.0018998058512806892,0.00042585842311382294
1782829670842354400,4.4813544921875,0.00015028100460767746,-0.002767428755760193,0.0002708863466978073
1782829670852282600,4.49128271484375,-0.0004819529131054878,-0.000811869278550148,0.00024079252034425735
1782829670862211600,4.501211669921875,-0.0005675284191966057,-0.003156607039272785,0.0008080396801233292
1782829670872139500,4.511139404296875,0.0018945634365081787,0.00016541965305805206,-0.0005706790834665298
1782829670882068500,4.521068359375,0.00007606856524944305,0.001881629228591919,0.0015622470527887344
1782829670891996400,4.530996337890625,-0.002551672048866749,-0.001465698704123497,0.00016222335398197174
1782829670901925600,4.540925537109375,0.0010972991585731506,-0.0023360177874565125,-0.0019976510666310787
1782829670911853600,4.550853515625,-0.0006212387233972549,-0.0009349286556243896,0.001294814981520176
1782829670921782500,4.560782470703125,-0.002495085820555687,-0.0016975793987512589,-0.001132856123149395
1782829670931711500,4.57071142578125,-0.0009453920647501945,0.0036591021344065666,0.0009678453207015991
1782829670941639400,4.580639404296875,-0.000004941597580909729,0.002187564969062805,-0.0025329026393592358
1782829670951568600,4.590568603515625,0.0010059941560029984,0.0002144286409020424,-0.00005829334259033203
1782829670961496600,4.60049658203125,-0.001895214430987835,-0.00023195333778858185,0.0008585099130868912
1782829670971425500,4.610425537109375,0.0004398450255393982,-0.0017515532672405243,-0.00048079388216137886
1782829670981353500,4.620353515625,0.0013912087306380272,0.0010926248505711555,-0.001117343083024025
1782829670991282400,4.630282470703125,0.0009195627644658089,0.00361810065805912,0.00019932398572564125
1782829671001210400,4.64021044921875,0.0003928588703274727,0.0025384090840816498,0.0020171678625047207
1782829671011139300,4.650139404296875,0.0015033967792987823,-0.000006773509085178375,0.0010222108103334904
1782829671021067300,4.6600673828125,-0.001289278268814087,-0.002798615023493767,0.0012713512405753136
1782829671030996500,4.66999658203125,0.0006409808993339539,-0.0022670477628707886,-0.0004186904989182949
1782829671040924700,4.679924560546875,0.0032400544732809067,0.0008574873208999634,-0.0010949182324111462
1782829671050853400,4.689853271484375,-0.0022433940321207047,0.003525177016854286,-0.0007345923222601414
1782829671060781600,4.699781494140625,-0.0007301550358533859,-0.00021537579596042633,0.00040596211329102516
1782829671070710500,4.70971044921875,0.00041793379932641983,-0.001621524803340435,-0.0011024526320397854
1782829671080638500,4.719638427734375,-0.0006644297391176224,-0.00602110568434,-0.0017773155122995377
1782829671090567700,4.729567626953125,0.0004884526133537292,-0.004567552357912064,-0.000594072975218296
1782829671100495600,4.73949560546875,-0.001151595264673233,0.003240726888179779,0.002122306264936924
1782829671110424600,4.749424560546875,-0.0003039110451936722,0.0027552321553230286,0.0023734429851174355
1782829671120352500,4.7593525390625,0.0022570230066776276,-0.002034919336438179,-0.0008872607722878456
1782829671130281500,4.769281494140625,-0.0002455497160553932,-0.0010548755526542664,0.0018291636370122433
1782829671140209400,4.77920947265625,-0.00016106478869915009,-0.0017156042158603668,-0.0015572961419820786
1782829671150138400,4.789138427734375,0.00018168427050113678,-0.0021712705492973328,-0.0010073534213006496
1782829671160067600,4.799067626953125,0.0003279028460383415,0.0042783236131072044,0.0011201524175703526
1782829671169995500,4.80899560546875,0.002032858319580555,0.0018127691000699997,0.0021188375540077686
1782829671179924500,4.818924560546875,-0.0015311585739254951,-0.0014770887792110443,-0.0002335095778107643
1782829671189852400,4.828852294921875,0.0007232073694467545,0.0001317271962761879,-0.00032325834035873413
1782829671199781400,4.838781494140625,0.0002479059621691704,0.0005655596032738686,-0.0022842446342110634
1782829671209709300,4.848709228515625,-0.0016059204936027527,-0.0007172850891947746,0.001636727713048458
1782829671219638500,4.858638427734375,-0.00037455279380083084,0.004169115796685219,0.000409561675041914
1782829671229566500,4.86856640625,-0.0005748225376009941,0.003128618933260441,-0.0006498438306152821
1782829671239495400,4.878495361328125,0.0008937511593103409,0.0016142800450325012,-0.0008991267532110214
1782829671249423600,4.888423583984375,0.0010753786191344261,-0.002919752150774002,-0.0013886159285902977
1782829671259352300,4.898352294921875,0.00032757408916950226,-0.0011187940835952759,-0.0008473033085465431
1782829671269280500,4.908280517578125,-0.0012189233675599098,0.0009321067482233047,0.0006637740880250931
1782829671279209500,4.91820947265625,0.000025997869670391083,0.0029631033539772034,-0.0015167472884058952
1782829671289137700,4.9281376953125,-0.0007942561060190201,0.00019528064876794815,-0.0006999555043876171
1782829671299067000,4.93806689453125,0.000934363342821598,-0.0015174997970461845,-0.0016279960982501507
1782829671308994800,4.947994873046875,-0.003534154035151005,-0.000593915581703186,-0.0016290610656142235
1782829671318923800,4.957923828125,0.00006292574107646942,-0.002977268770337105,-0.0012481422163546085
1782829671328851700,4.967851806640625,-0.00010778289288282394,0.0004488872364163399,0.00020807376131415367
1782829671338780700,4.97778076171875,0.0026488592848181725,0.002691485919058323,0.0016490737907588482
1782829671348708600,4.98770849609375,-0.0007517309859395027,-0.0018422799184918404,-0.002682025544345379
1782829671358637800,4.997637939453125,0.0027300072833895683,-0.003997477702796459,-0.0007309196516871452
1782829671368565800,5.007565673828125,-0.0013187965378165245,0.0006630541756749153,-0.0007367786020040512
1782829671378494700,5.01749462890625,0.0003918139263987541,0.0016465689986944199,0.0007022940553724766
1782829671388422700,5.027422607421875,0.0007513407617807388,0.003882025368511677,0.0017920597456395626
1782829671398351600,5.0373515625,-0.00021218135952949524,0.0010364288464188576,-0.0005540857091546059
1782829671408280600,5.047280517578125,-0.00012482982128858566,0.0008625248447060585,0.0004840139299631119
1782829671418208500,5.05720849609375,0.000116715207695961,-0.0031182710081338882,0.001157880760729313
1782829671428137700,5.0671376953125,0.00022510532289743423,-0.0016647176817059517,-0.0002930094487965107
1782829671438065700,5.077065673828125,-0.0019806139171123505,0.004008222371339798,-0.0008587208576500416
1782829671447994600,5.08699462890625,0.001116110011935234,0.00008485279977321625,0.0010180091485381126
1782829671457922800,5.0969228515625,-0.0026250146329402924,-0.000956432893872261,0.0005169692449271679
1782829671467851500,5.1068515625,-0.00013309530913829803,0.00027128495275974274,-0.002455118577927351
1782829671477779700,5.11677978515625,0.0003854818642139435,-0.0001715710386633873,-0.000990943517535925
1782829671487709000,5.126708984375,0.00029333680868148804,-0.0009739818051457405,0.0004215971566736698
1782829671497636900,5.136636962890625,0.00136503204703331,-0.0020496416836977005,0.002370597794651985
1782829671507565800,5.14656591796875,-0.0012198323383927345,0.0006097909063100815,0.0006909416988492012
1782829671517493800,5.15649365234375,-0.00010548066347837448,0.0013716230168938637,-0.001283599529415369
1782829671527422700,5.166422607421875,0.0013936134055256844,-0.0008273487910628319,0.00017554638907313347
1782829671537350700,5.1763505859375,-0.0007395762950181961,-0.002265520393848419,0.0024376404471695423
1782829671547279600,5.186279541015625,0.0004836134612560272,-0.003089768812060356,0.0003451951779425144
1782829671557207600,5.19620751953125,0.0003608511760830879,0.0004434864968061447,-0.0013753864914178848
1782829671567136800,5.20613671875,-0.001516943797469139,0.0028073079884052277,0.000019577331840991974
1782829671577064700,5.216064697265625,-0.00040972325950860977,-0.0010391362011432648,-0.00021170638501644135
1782829671586993700,5.22599365234375,-0.0022678105160593987,-0.0020234407857060432,-0.0003845458850264549
1782829671596921600,5.235921630859375,-0.0004981746897101402,-0.0009505804628133774,0.0003708251751959324
1782829671606850600,5.2458505859375,0.0011921338737010956,-0.0017287563532590866,-0.00042785704135894775
1782829671616778500,5.255778564453125,-0.0005177455022931099,-0.001610555686056614,0.001546365674585104
1782829671626707700,5.265707763671875,0.0001432504504919052,0.00026670657098293304,0.0014302521012723446
1782829671636636700,5.27563671875,-0.0015280386433005333,-0.0009608613327145576,0.0004336233250796795
1782829671646564600,5.285564697265625,0.0007060868665575981,-0.0001507280394434929,0.0018853121437132359
1782829671656493600,5.29549365234375,0.00007620826363563538,0.0011090682819485664,-0.0016501792706549168
1782829671666421800,5.305421875,-0.0002689370885491371,0.0001455359160900116,-0.0006911749951541424
1782829671676350700,5.315350830078125,0.0010066386312246323,0.000696137547492981,-0.0018885154277086258
1782829671686278700,5.325278564453125,-0.0005465168505907059,0.002514543943107128,0.001316332258284092
1782829671696208000,5.335207763671875,-0.0009642215445637703,0.0014364346861839294,0.0010001142509281635
1782829671706135800,5.3451357421875,0.0015657814219594002,-0.0024342043325304985,-0.001725364476442337
1782829671716064800,5.355064697265625,0.0003078123554587364,-0.0017532911151647568,0.00031486479565501213
1782829671725992700,5.36499267578125,-0.0009436067193746567,-0.0019556907936930656,0.0004115370102226734
1782829671735921700,5.374921630859375,0.00002743396908044815,0.0005051614716649055,0.0020015155896544456
1782829671745849600,5.384849609375,-0.0025587622076272964,0.0002737324684858322,0.00014635734260082245
1782829671755778800,5.39477880859375,-0.0009354697540402412,-0.0016229283064603806,0.0032500922679901123
1782829671765706800,5.404706787109375,0.0003252709284424782,-0.002261820249259472,-0.0009883278980851173
1782829671775635700,5.4146357421875,0.0004044054076075554,-0.0009733308106660843,-0.0009579509496688843
1782829671785563600,5.424563720703125,0.000263790600001812,0.0013076672330498695,0.0015049399808049202
1782829671795492600,5.43449267578125,0.0010242555290460587,-0.00020778458565473557,0.0027960785664618015
1782829671805420500,5.444420654296875,-0.0013515502214431763,-0.0015268484130501747,-0.0012402087450027466
1782829671815349800,5.454349853515625,0.00043475721031427383,0.0004311017692089081,-0.002758399583399296
1782829671825278700,5.46427880859375,-0.0005325032398104668,-0.0009010108187794685,-0.0021053925156593323
1782829671835206700,5.47420654296875,0.0004022326320409775,-0.0012128045782446861,0.0015186588279902935
1782829671845135600,5.484135498046875,0.0003055604174733162,-0.000977913849055767,0.001009195577353239
1782829671855063600,5.4940634765625,0.0003102123737335205,0.0003060121089220047,0.004288063384592533
1782829671864992500,5.503992431640625,-0.0002426598221063614,0.00093824602663517,-0.0009016385301947594
1782829671874920700,5.513920654296875,-0.0007200902327895164,-0.0001472514122724533,0.00038347020745277405
1782829671884849700,5.523849609375,-0.0004851995036005974,-0.0006537847220897675,-0.0016360045410692692
1782829671894777900,5.53377783203125,-0.000020634382963180542,0.0007050484418869019,-0.000283797737210989
1782829671904706800,5.543706787109375,-0.001233171671628952,0.0017127888277173042,-0.0012894072569906712
1782829671914634800,5.553634765625,0.0014674188569188118,0.00036627985537052155,-0.0008937167003750801
1782829671924563700,5.563563720703125,0.0018226848915219307,0.000014476478099822998,-0.0001565534621477127
1782829671934491600,5.57349169921875,0.00008385255932807922,0.000950956717133522,-0.0005196253769099712
1782829671944420900,5.5834208984375,-0.00006794743239879608,-0.0031266091391444206,0.002114507369697094
1782829671954348800,5.593348876953125,0.0010786736384034157,0.0022646738216280937,0.00034236907958984375
1782829671964277800,5.60327783203125,-0.0009711617603898048,0.0020002219825983047,0.0008576903492212296
1782829671974205700,5.613205810546875,-0.0011753644794225693,-0.0006895484402775764,-0.0013916841708123684
1782829671984134700,5.623134765625,-0.0035173483192920685,0.000041223131120204926,-0.0006103124469518661
1782829671994062600,5.6330625,-0.001434733159840107,0.0003393050283193588,-0.0012892531231045723
1782829672003991600,5.642991455078125,0.0007549179717898369,-0.0006423359736800194,0.00022209063172340393
1782829672013920800,5.652920654296875,-0.0014175353571772575,-0.0015102680772542953,0.00044001732021570206
1782829672023848700,5.6628486328125,-0.0009110020473599434,-0.0028421152383089066,0.002166545018553734
1782829672033777700,5.672777587890625,0.0006104689091444016,-0.0021234359592199326,0.0025258781388401985
1782829672043705600,5.68270556640625,-0.0008691828697919846,0.0008811419829726219,-0.002459825947880745
1782829672053634600,5.692634521484375,0.0035766512155532837,0.0014498271048069,0.0001944899559020996
1782829672063562800,5.702562744140625,-0.0006125010550022125,0.0005566021427512169,0.0002605365589261055
1782829672073491700,5.71249169921875,-0.0007334426045417786,-0.0015502236783504486,-0.0002480503171682358
1782829672083420000,5.722419921875,0.000918249599635601,-0.002460758201777935,0.0014435895718634129
1782829672093348900,5.732348876953125,-0.0019844481721520424,0.004172490909695625,-0.0010191979818046093
1782829672103276800,5.74227685546875,0.0001942841336131096,0.003627076745033264,-0.0004612659104168415
1782829672113205800,5.752205810546875,0.00008544325828552246,0.0017440179362893105,0.001042050775140524
1782829672123133700,5.7621337890625,0.00006600189954042435,-0.0009979726746678352,0.001715297345072031
1782829672133062700,5.772062744140625,0.0009544538334012032,-0.0001575881615281105,-0.001700807362794876
1782829672142990600,5.781990478515625,0.0009675025939941406,-0.0030106324702501297,0.0019346736371517181
1782829672152919800,5.791919921875,-0.001588425599038601,0.00400465726852417,0.0004345690831542015
1782829672162847700,5.80184765625,-0.0005034543573856354,0.002695447765290737,-0.0011635934934020042
1782829672172776700,5.811776611328125,0.0003488175570964813,-0.001703750342130661,-0.00014795130118727684
1782829672182704600,5.82170458984375,-0.0011236444115638733,-0.0026963111013174057,-0.000350085087120533
1782829672192633600,5.831633544921875,0.002011967822909355,-0.0011244211345911026,-0.0026325671933591366
1782829672202561500,5.8415615234375,-0.0034041032195091248,0.001683349721133709,0.00022074393928050995
1782829672212490800,5.85149072265625,0.0007404312491416931,0.0007963469251990318,-0.0005198195576667786
1782829672222418700,5.861418701171875,-0.00017356500029563904,-0.0001541348174214363,0.0015747561119496822
1782829672232347600,5.87134765625,-0.0012168986722826958,-0.00272571574896574,-0.0008957535028457642
1782829672242276600,5.881276611328125,0.002481166273355484,-0.00392706785351038,-0.0011591403745114803
1782829672252204500,5.89120458984375,0.0006259605288505554,-0.002043698914349079,0.002063792198896408
1782829672262133500,5.901133544921875,0.00018254481256008148,0.002302047796547413,0.004098713397979736
1782829672272061700,5.911061767578125,-0.0004941914230585098,-0.0009784512221813202,0.0005655735731124878
1782829672281990700,5.92099072265625,-0.0008752895519137383,-0.0027678292244672775,-8.195638656616211e-8
1782829672291919600,5.930919677734375,0.0014693913981318474,-0.0026972079649567604,0.0020308298990130424
1782829672301848600,5.9408486328125,-0.0009141378104686737,-0.0011187521740794182,0.001797270029783249
1782829672311776500,5.950776611328125,-0.0007094983011484146,-0.00022419355809688568,0.0022547245025634766
1782829672321705700,5.960705810546875,-0.000057023949921131134,0.0026221927255392075,0.001600385643541813
1782829672331634000,5.970634033203125,0.0011913338676095009,-0.00042265094816684723,-0.000863141380250454
1782829672341562600,5.980562744140625,0.00033059995621442795,0.00033981259912252426,-0.001627202145755291
1782829672351490800,5.99049072265625,0.000716143287718296,-0.0012831389904022217,0.0016677356325089931
1782829672361419800,6.000419677734375,-0.0015320973470807076,-0.003299151547253132,0.003129811491817236
1782829672371347700,6.01034765625,-0.00017396733164787292,-0.0004977919161319733,0.004160332027822733
1782829672381276700,6.020276611328125,-0.0012371009215712547,-0.00414871983230114,0.0010361778549849987
1782829672391204600,6.03020458984375,0.0003343764692544937,-0.004122977145016193,0.0023257494904100895
1782829672401133800,6.0401337890625,-0.002119726501405239,-0.00010400079190731049,0.0015435791574418545
1782829672411061800,6.050061767578125,-0.0015996843576431274,-0.0009365575388073921,0.001260354183614254
1782829672420990700,6.05999072265625,-0.0006049936637282372,-0.0029062312096357346,0.001121070235967636
1782829672430919700,6.069919677734375,-0.00006668176501989365,-0.0013190656900405884,0.0010987529531121254
1782829672440847600,6.07984765625,0.0010877987369894981,-0.00002370402216911316,0.0017791902646422386
1782829672450776800,6.08977685546875,-0.0005411673337221146,-0.0036890655755996704,0.002593348268419504
1782829672460704800,6.099704833984375,0.0013126591220498085,-0.0012488113716244698,0.0022751004435122013
1782829672470633700,6.1096337890625,-0.0009827874600887299,-0.0007328158244490623,0.0016198963858187199
1782829672480561700,6.119561767578125,0.00017462298274040222,0.001086389645934105,0.0013274815864861012
1782829672490490600,6.12949072265625,0.002305511385202408,-0.0028902972117066383,-0.001490304246544838
1782829672500418600,6.13941845703125,-0.0011368906125426292,-0.0004891911521553993,0.000003463122993707657
1782829672510347500,6.149347412109375,-0.0005410285666584969,0.001671421341598034,-0.0016658101230859756
1782829672520275700,6.159275634765625,-0.0017245374619960785,-0.001874045468866825,0.0013129357248544693
1782829672530204700,6.16920458984375,-0.000048561953008174896,0.002167542465031147,0.001266255509108305
1782829672540132900,6.1791328125,-0.00040755607187747955,0.0021704714745283127,-0.0010962346568703651
1782829672550061800,6.189061767578125,-0.00027556437999010086,-0.0006531951949000359,0.001373389270156622
1782829672559989800,6.19898974609375,0.002382270060479641,-0.0009322939440608025,-0.00037577468901872635
1782829672569918700,6.208918701171875,0.0008016880601644516,-0.00017224717885255814,0.0030585089698433876
1782829672579846700,6.2188466796875,-0.0016239192336797714,-0.002053503878414631,0.002146109938621521
1782829672589776000,6.22877587890625,-0.000004882924258708954,-0.0015866821631789207,0.00016954680904746056
1782829672599703800,6.238703857421875,-0.002532755956053734,-0.001400260254740715,0.0006563724018633366
1782829672609632800,6.2486328125,0.00040043797343969345,-0.00290767103433609,-0.0005989805795252323
1782829672619561700,6.258561767578125,0.0012867376208305359,-0.003720734268426895,-0.0006519774906337261
1782829672629489700,6.26848974609375,-0.00011636968702077866,-0.0010151173919439316,-0.0006687603890895844
1782829672639418600,6.278418701171875,-0.001518789678812027,0.0007731951773166656,-0.0003955196589231491
1782829672649346600,6.2883466796875,0.00007787533104419708,-0.00011842511594295502,0.001324803102761507
1782829672659275800,6.29827587890625,-0.0016928603872656822,0.001241385005414486,0.0001394296996295452
1782829672669203700,6.30820361328125,-0.0008303560316562653,-0.001043017953634262,0.0018826727755367756
1782829672679132700,6.318132568359375,0.0010216068476438522,-0.0009295670315623283,0.0008714697323739529
1782829672689060600,6.328060546875,-0.0013949703425168991,-0.0004539024084806442,0.002211553044617176
1782829672698989600,6.337989501953125,0.0020263930782675743,0.0002712765708565712,-0.0018031620420515537
1782829672708917500,6.34791748046875,0.0005044033750891685,-0.002994895912706852,0.001153488177806139
1782829672718846700,6.3578466796875,0.00006791111081838608,0.003503750078380108,-0.0007232418283820152
1782829672728775000,6.36777490234375,0.0007198061794042587,0.003803117200732231,-0.0012074359692633152
1782829672738703600,6.37770361328125,0.0013605626299977303,-0.0013271952047944069,0.0007201600819826126
1782829672748631800,6.3876318359375,0.0012573683634400368,-0.003931170329451561,-0.000627150759100914
1782829672758560800,6.397560791015625,0.0020677680149674416,0.004566976800560951,-0.002509739249944687
1782829672768488700,6.40748876953125,-0.0015941057354211807,0.003360525704920292,-0.0016310317441821098
1782829672778417700,6.417417724609375,-0.0019957106560468674,-0.00308938417583704,0.0029602576978504658
1782829672788345900,6.427345947265625,-0.002401069737970829,0.002428380772471428,-0.0020551434718072414
1782829672798274800,6.43727490234375,0.0018823584541678429,-0.0006273295730352402,-0.0011483370326459408
1782829672808203800,6.447203857421875,-0.0010001566261053085,-0.004774115979671478,0.0028636017814278603
1782829672818131700,6.457131591796875,-0.0007974905893206596,-0.00005313009023666382,0.0006792768836021423
1782829672828060700,6.467060791015625,0.0003210371360182762,0.0016723321750760078,-0.0019865469075739384
1782829672837988600,6.476988525390625,0.0019705994054675102,-0.0028401287272572517,0.0011202963069081306
1782829672847917800,6.486917724609375,0.000889989547431469,-0.002172691747546196,-0.0005382834933698177
1782829672857845800,6.496845703125,0.0009997114539146423,0.0028002290055155754,-0.002860027365386486
1782829672867774700,6.506774658203125,-0.0014780526980757713,-0.00021354109048843384,-0.0004820344038307667
1782829672877702700,6.51670263671875,-0.00023222621530294418,-0.0010990416631102562,0.00048256292939186096
1782829672887631600,6.526631591796875,0.001091749407351017,-0.0006403326988220215,0.0015129931271076202
1782829672897559600,6.5365595703125,0.0005173059180378914,0.00015861541032791138,-0.0007642754353582859
1782829672907488500,6.546488525390625,-0.00011767260730266571,-0.001473819836974144,0.0023652417585253716
1782829672917416700,6.556416748046875,-0.000903039239346981,0.0006846720352768898,0.0003905082121491432
1782829672927345700,6.566345703125,-0.002966177649796009,-0.00016120262444019318,0.00044931331649422646
1782829672937273900,6.57627392578125,0.00022189226001501083,0.0009333565831184387,-0.0020404765382409096
1782829672947202600,6.58620263671875,-0.0007929224520921707,0.0008369451388716698,-0.0016478430479764938
1782829672957130800,6.596130859375,0.00015036948025226593,0.0022433605045080185,-0.001000960823148489
1782829672967059700,6.606059814453125,-0.0005456795915961266,0.0002465471625328064,0.0010767420753836632
1782829672976987600,6.615987548828125,-0.0023699449375271797,-0.0019162055104970932,-0.0003648269921541214
1782829672986916900,6.625916748046875,-0.0009953202679753304,-0.0008345423266291618,-0.0017045680433511734
1782829672996844800,6.6358447265625,0.00028672534972429276,0.0018951976671814919,-0.0003362358547747135
1782829673006773800,6.645773681640625,-0.001038496382534504,0.0018311282619833946,0.001924571581184864
1782829673016702700,6.65570263671875,-0.001767137087881565,0.0012106122449040413,-0.0001204698346555233
1782829673026630700,6.665630615234375,-0.00043099839240312576,0.002028878778219223,-0.000822968315333128
1782829673036559600,6.6755595703125,0.000519484281539917,-0.0005109775811433792,-0.001087153796106577
1782829673046487800,6.68548779296875,0.0013142945244908333,-0.0019513675943017006,-0.0025569978170096874
1782829673056416800,6.695416748046875,-0.00017201527953147888,0.0016340464353561401,-0.0011926600709557533
1782829673066344700,6.7053447265625,-0.0012282216921448708,0.0010244585573673248,0.0005000773817300797
1782829673076273700,6.715273681640625,0.0008730124682188034,-0.00037130434066057205,0.001150420866906643
1782829673086201600,6.72520166015625,-0.0027112727984786034,-0.002069363370537758,0.0009728227742016315
1782829673096130600,6.735130615234375,-0.000145849771797657,0.0010491982102394104,0.0014644418843090534
1782829673106058500,6.74505859375,0.000360315665602684,-0.001492558978497982,0.0005794554017484188
1782829673115987700,6.75498779296875,-0.002575819380581379,0.0016081593930721283,-0.0012655826285481453
1782829673125915600,6.76491552734375,0.0009614871814846992,0.0011244136840105057,0.003290098160505295
1782829673135844600,6.7748447265625,0.002042197622358799,-0.0016727037727832794,0.0014874041080474854
1782829673145772800,6.784772705078125,-0.0009295586496591568,-0.0010489607229828835,-0.00021333107724785805
1782829673155701800,6.79470166015625,0.00097726471722126,0.00010525248944759369,-0.0017539700493216515
1782829673165629700,6.804629638671875,-0.00025021471083164215,-0.000012231990694999695,-0.003217363264411688
1782829673175559000,6.814558837890625,0.0019162669777870178,-0.00007881037890911102,0.002390720881521702
1782829673185488000,6.82448779296875,-0.000041983090341091156,0.0016464563086628914,-0.00027129193767905235
1782829673195415800,6.834415771484375,-0.0011029867455363274,0.0021284883841872215,-0.00018873438239097595
1782829673205344800,6.8443447265625,-0.0006470289081335068,0.0011197812855243683,-0.0010097338818013668
1782829673215272700,6.854272705078125,-0.002013763412833214,0.0007618516683578491,-0.0025855260901153088
1782829673225201700,6.86420166015625,-0.0004187682643532753,0.00006124284118413925,0.0035065533593297005
1782829673235129600,6.874129638671875,0.00047046132385730743,0.0007704431191086769,-0.0004306640475988388
1782829673245058800,6.884058837890625,0.00012984313070774078,-0.000639219768345356,0.00048489170148968697
1782829673254986800,6.89398681640625,-0.0003149043768644333,-0.0022538937628269196,-0.00016012601554393768
1782829673264915700,6.903915771484375,0.0004788292571902275,-0.0037881936877965927,-0.0016192239709198475
1782829673274843600,6.91384375,-0.0010988274589180946,-0.0010778941214084625,-0.0002162707969546318
1782829673284772600,6.923772705078125,-0.000054858624935150146,-0.000696835108101368,0.00034408411011099815
1782829673294700500,6.933700439453125,0.0004615290090441704,-0.0005775261670351028,-0.0016791191883385181
1782829673304629500,6.94362939453125,-0.000704658217728138,-0.0003366013988852501,-0.0016963663510978222
1782829673314557400,6.953557373046875,-0.0004026554524898529,-0.001995484344661236,-0.0004185815341770649
1782829673324486700,6.963486572265625,0.0001963786780834198,0.0005263760685920715,0.0022814301773905754
1782829673334414800,6.973414794921875,-0.00022573210299015045,-0.0019964370876550674,-0.0017316867597401142
1782829673344343600,6.983343505859375,-0.00015644356608390808,-0.000010948628187179565,0.0014030286110937595
1782829673354271700,6.993271728515625,-0.0004041176289319992,0.0012295516207814217,-0.001307003665715456
1782829673364200700,7.00320068359375,0.0008359439671039581,0.0007208231836557388,-0.0017396258190274239
1782829673374129400,7.01312939453125,0.00010996684432029724,-0.0016113072633743286,-0.0010631829500198364
1782829673384057600,7.0230576171875,-0.00009771343320608139,-0.0006736377254128456,-0.001238781027495861
1782829673393986800,7.03298681640625,0.0021950025111436844,0.0009397044777870178,0.0001415354199707508
1782829673403914800,7.042914794921875,-0.0009695440530776978,0.0030226334929466248,-0.0024867868050932884
1782829673413843700,7.05284375,-0.0013343971222639084,0.001122734509408474,0.0008496218360960484
1782829673423771600,7.062771728515625,0.0010730084031820297,-0.00009557418525218964,-0.0006330716423690319
1782829673433700600,7.07270068359375,-0.0012276964262127876,-0.0010620355606079102,-0.0018203090876340866
1782829673443628500,7.082628662109375,0.0002898257225751877,-0.0016511129215359688,0.0019775284454226494
1782829673453557800,7.092557861328125,0.0016198083758354187,0.0009750304743647575,-0.00017137592658400536
1782829673463485700,7.102485595703125,-0.0006509069353342056,0.000943552702665329,0.002752634696662426
1782829673473414700,7.11241455078125,-0.0011497167870402336,0.0003339555114507675,0.001742498017847538
1782829673483342600,7.122342529296875,-0.0006533106788992882,-0.003650258295238018,0.0013651754707098007
1782829673493271600,7.132271484375,-0.00003252830356359482,-6.621703505516052e-7,0.00013772398233413696
1782829673503199500,7.142199462890625,-0.0001774616539478302,0.0010335175320506096,0.0012369267642498016
1782829673513128400,7.15212841796875,-0.0005867891013622284,-0.0026680100709199905,0.00023238174617290497
1782829673523056400,7.162056396484375,-0.0012153834104537964,-0.00031846482306718826,-0.00004704296588897705
1782829673532985600,7.171985595703125,0.00011406652629375458,-0.0006873132660984993,0.000564951915293932
1782829673542913800,7.181913818359375,-0.0017266357317566872,-0.0013648029416799545,-0.0003948514349758625
1782829673552842500,7.191842529296875,-0.0009599123150110245,-0.001957622356712818,-0.0024870308116078377
1782829673562771500,7.201771484375,0.0013987356796860695,-0.00031414907425642014,-0.0002751154825091362
1782829673572699600,7.21169970703125,-0.002047128975391388,0.0028385017067193985,0.00241201464086771
1782829673582628600,7.221628662109375,0.001522350125014782,0.0006943261250853539,0.001703803427517414
1782829673592556800,7.231556884765625,-0.0023200586438179016,-0.0016130367293953896,0.0005325451493263245
1782829673602485800,7.24148583984375,0.000385102815926075,0.002185848541557789,-0.0014235549606382847
1782829673612413700,7.25141357421875,0.000878320075571537,0.0020279232412576675,-0.0008637583814561367
1782829673622342700,7.2613427734375,-0.0011211708188056946,-0.00035212840884923935,0.00004183454439043999
1782829673632270600,7.2712705078125,0.000028782524168491364,-0.0005739694461226463,-0.0009086476638913155
1782829673642199600,7.281199462890625,-0.0008474206551909447,0.0014025922864675522,0.0003612171858549118
1782829673652127500,7.29112744140625,-0.002432001754641533,-0.0010235477238893509,0.0009377915412187576
1782829673662056700,7.301056640625,-0.0000562518835067749,0.0022216439247131348,-0.00032182643190026283
1782829673671984600,7.310984619140625,-0.0026001036167144775,0.0006306711584329605,0.00008244160562753677
1782829673681913600,7.32091357421875,-0.0021794000640511513,-0.00048715248703956604,0.0001660604029893875
1782829673691841500,7.330841552734375,0.0012630019336938858,-0.0009486787021160126,-0.0024374453350901604
1782829673701770500,7.3407705078125,0.001038501039147377,-0.0022259457036852837,-0.0016964366659522057
1782829673711698400,7.350698486328125,-0.0005817664787173271,0.0013259118422865868,-0.0006684567779302597
1782829673721627600,7.360627685546875,-0.0014438601210713387,0.0009175334125757217,-0.00287826731801033
1782829673731556600,7.370556640625,-0.0011503798887133598,0.0003998149186372757,0.0005979570560157299
1782829673741484500,7.380484619140625,-0.00005107652395963669,-0.0012932177633047104,-0.0014007971622049809
1782829673751413500,7.39041357421875,0.0016733203083276749,-0.0018253177404403687,-0.001570174004882574
1782829673761341700,7.400341796875,0.0012087812647223473,0.000706791877746582,0.0010877237655222416
1782829673771270400,7.4102705078125,0.002141953445971012,-0.0007627401500940323,0.0003873123787343502
1782829673781198600,7.420198486328125,-0.002183576114475727,0.00017274823039770126,-0.001730550080537796
1782829673791127800,7.4301279296875,0.0015834653750061989,0.0010129762813448906,-0.002614719793200493
1782829673801055700,7.4400556640625,-0.0005797389894723892,0.0013511106371879578,-0.005019080825150013
1782829673810984700,7.449984619140625,0.00080111064016819,0.00046401098370552063,0.001342944335192442
1782829673820912600,7.45991259765625,-0.00019349809736013412,-0.0009312732145190239,0.0018259631469845772
1782829673830841600,7.469841552734375,-0.0008547613397240639,0.0019465386867523193,-0.0009461212903261185
1782829673840769500,7.47976953125,-0.0022364025935530663,-0.0008133677765727043,-0.0017668441869318485
1782829673850698800,7.48969873046875,0.001011056825518608,0.0003301938995718956,-0.001650464255362749
1782829673860626700,7.499626708984375,0.00026051048189401627,0.002007001079618931,0.00015099020674824715
1782829673870555600,7.5095556640625,0.0013734456151723862,0.0012658433988690376,0.0024884468875825405
1782829673880483600,7.519483642578125,-0.00045172590762376785,-0.001491655595600605,0.0041268570348620415
1782829673890412500,7.52941259765625,0.0004521505907177925,-0.0017670262604951859,-0.0004926626570522785
1782829673900340500,7.539340576171875,-0.0008679330348968506,-0.0012587020173668861,-0.0014032525941729546
1782829673910269400,7.54926953125,0.0015147970989346504,0.0004217522218823433,-0.002307395450770855
1782829673920198700,7.55919873046875,0.00004384387284517288,0.00014840997755527496,-0.0008430033922195435
1782829673930126600,7.569126708984375,0.0015948684886097908,-0.0006806319579482079,-0.0010778945870697498
1782829673940055600,7.5790556640625,0.0014104023575782776,-0.0018903501331806183,-0.0018431022763252258
1782829673949983500,7.5889833984375,-0.000806679017841816,-0.0032054195180535316,0.0004959520883858204
1782829673959912400,7.598912353515625,0.0005824584513902664,0.00010424107313156128,-0.00041074445471167564
1782829673969840600,7.608840576171875,0.0020951339974999428,0.0007402040064334869,0.0009365491569042206
1782829673979769600,7.61876953125,-0.001139097847044468,-0.002031601034104824,0.0010802485048770905
1782829673989697800,7.62869775390625,-0.0005042003467679024,-0.0005506174638867378,-0.0004020668566226959
1782829673999626800,7.638626708984375,-0.000041386112570762634,0.00011487491428852081,-0.0005002967081964016
1782829674009554700,7.6485546875,0.0012893956154584885,0.0005830582231283188,0.00031276652589440346
1782829674019483600,7.658483642578125,0.0015040021389722824,-0.0014590201899409294,-0.0005462085828185081
1782829674029411600,7.66841162109375,-0.00021054036915302277,0.0013932250440120697,-0.0002466030418872833
1782829674039340800,7.6783408203125,-0.00023935269564390182,-0.0007745558395981789,-0.0034817829728126526
1782829674049268700,7.688268798828125,-0.0024561677128076553,0.001269153319299221,-0.00047054700553417206
1782829674059197700,7.69819775390625,-0.0004995623603463173,0.0023306189104914665,-0.0017570266500115395
1782829674069125600,7.708125732421875,0.0014762366190552711,0.0006339186802506447,0.0032899295911192894
1782829674079054600,7.7180546875,-0.0019311876967549324,0.001911841332912445,0.0022632265463471413
1782829674088983600,7.727983642578125,0.0005708523094654083,0.0006281975656747818,0.00013775750994682312
1782829674098911500,7.737911376953125,-0.00323606189340353,-0.00045884866267442703,0.000986836850643158
1782829674108840700,7.7478408203125,-0.001928982324898243,0.0009132111445069313,0.0008052093908190727
1782829674118768600,7.7577685546875,-0.0014661187306046486,-0.0007637152448296547,-0.0008660419844090939
1782829674128697600,7.767697509765625,0.0015256758779287338,-0.0003240276128053665,-0.002886582165956497
1782829674138625500,7.77762548828125,-0.0012205615639686584,-0.0001951456069946289,-0.0010651624761521816
1782829674148554500,7.787554443359375,0.0011797454208135605,-0.0007184576243162155,-0.0015466618351638317
1782829674158482400,7.797482421875,-0.0015687039121985435,-0.000022382475435733795,-0.0020021279342472553
1782829674168411600,7.80741162109375,-0.00013379286974668503,-0.0001709870994091034,0.0001425156369805336
1782829674178339800,7.81733984375,0.00016668997704982758,-0.0009328210726380348,-0.0005064895376563072
1782829674188268500,7.8272685546875,-0.0010594287887215614,0.0014294032007455826,-0.0005291267298161983
1782829674198196700,7.83719677734375,0.0006855502724647522,-0.0016238167881965637,0.0003483537584543228
1782829674208125700,7.847125732421875,-0.0006015552207827568,-0.0008554942905902863,0.0008269241079688072
1782829674218053600,7.8570537109375,-0.0022860225290060043,0.0017892597243189812,-0.000724228098988533
1782829674227982600,7.866982666015625,-0.000552038662135601,0.0016590319573879242,-0.0026571503840386868
1782829674237910500,7.87691064453125,-0.0017031338065862656,0.0009757047519087791,-0.001233070157468319
1782829674247839700,7.88683984375,-0.002104206010699272,-0.0007233927026391029,0.002521187998354435
1782829674257767700,7.896767578125,0.0015417365357279778,0.001613028347492218,0.0011481260880827904
1782829674267696600,7.906696533203125,-0.0007429886609315872,0.002414640039205551,0.000994727946817875
1782829674277625600,7.91662548828125,0.0003694603219628334,0.0025381073355674744,-0.0025640656240284443
1782829674287552300,7.92655224609375,-0.0026044920086860657,0.0011484697461128235,-0.003992584999650717
1782829674297481200,7.936481201171875,-0.0007538842037320137,0.0018666954711079597,0.0010162098333239555
1782829674307409400,7.946409423828125,0.0024839872494339943,0.00008770357817411423,0.0004518860951066017
1782829674317338000,7.956338134765625,0.00018455088138580322,0.0017349021509289742,0.000548223964869976
1782829674327266300,7.966266357421875,-0.0005398290231823921,-0.0005008215084671974,0.0006278520449995995
1782829674337195500,7.976195556640625,0.0016662683337926865,0.00038846954703330994,-0.0012649954296648502
1782829674347123500,7.98612353515625,-0.0003137923777103424,0.000967174768447876,-0.0002668425440788269
1782829674357052400,7.996052490234375,-0.0014017708599567413,-0.0009927749633789062,-0.0018359171226620674
1782829674366980400,8.00598046875,0.003757304511964321,-0.0016468474641442299,0.00011218525469303131
1782829674376909300,8.015909423828125,0.0004004575312137604,-0.0017485590651631355,-0.0002468493767082691
1782829674386837200,8.025837158203124,-0.0005718627944588661,-0.0029219482094049454,0.0003318553790450096
1782829674396766500,8.035766357421876,-0.0005130385980010033,0.0009114295244216919,-0.00028576236218214035
1782829674406694400,8.0456943359375,-0.0010201046243309975,0.0007582977414131165,-0.0002751094289124012
1782829674416623400,8.055623291015625,0.0012293308973312378,0.00012284237891435623,-0.0004892591387033463
1782829674426552300,8.06555224609375,-0.0023225266486406326,0.002389458939433098,0.00015336135402321815
1782829674436480300,8.075480224609375,0.0009538475424051285,0.000927451066672802,0.0007326598279178143
1782829674446409200,8.0854091796875,-0.0009769434109330177,-0.0007974784821271896,0.002250129822641611
1782829674456337200,8.095337158203124,-0.0025638965889811516,-0.0006115129217505455,-0.00028505176305770874
1782829674466266400,8.105266357421876,0.000545077957212925,-0.0000485200434923172,-0.0008946489542722702
1782829674476194300,8.1151943359375,-0.001513563096523285,-0.00030812621116638184,-0.0022972645238041878
1782829674486123300,8.125123291015624,0.00023027509450912476,0.00024288147687911987,0.0007752240635454655
1782829674496051200,8.13505126953125,-0.0010142847895622253,0.0010173739865422249,0.00018092291429638863
1782829674505980200,8.144980224609375,-0.0009253351017832756,0.0020197872072458267,0.0028616604395210743
1782829674515908400,8.154908447265624,0.0009594159200787544,0.001974102109670639,0.0012911902740597725
1782829674525837300,8.16483740234375,0.00007497984915971756,0.0022971443831920624,0.001931680366396904
1782829674535765500,8.174765625,-0.003576594404876232,0.0025232937186956406,-0.002907272893935442
1782829674545694500,8.184694580078125,-0.00006495043635368347,-0.00009699072688817978,-0.0025810357183218002
1782829674555622400,8.194622314453126,0.0010854117572307587,-0.0010981326922774315,0.0017304373905062675
1782829674565551400,8.20455126953125,-0.0007287338376045227,0.0023685041815042496,-0.0003473609685897827
1782829674575479300,8.214479248046874,0.0006023133173584938,0.0004134364426136017,-0.0012440048158168793
1782829674585408300,8.224408203125,-0.0010800054296851158,-0.0011301320046186447,-0.0047671003267169
1782829674595336400,8.23433642578125,-0.0008021239191293716,0.0007749199867248535,-0.000569069292396307
1782829674605265400,8.244265380859375,-0.00008387025445699692,-0.003886144608259201,0.00014412542805075645
1782829674615194400,8.2541943359375,-0.000528392381966114,-0.0022359685972332954,-0.000692498404532671
1782829674625122300,8.264122314453125,-0.0006769970059394836,-0.001037013716995716,-0.00006186170503497124
1782829674635051300,8.27405126953125,-0.00012308359146118164,-0.0016772663220763206,0.002883641980588436
1782829674644979200,8.283979248046874,0.0005650781095027924,-0.0004801750183105469,-0.0002567577175796032
1782829674654908400,8.293908447265625,-0.00040398817509412766,0.00032518617808818817,-0.0013407329097390175
1782829674664836400,8.30383642578125,-0.00005138572305440903,-0.0004114443436264992,-0.0026419535279273987
1782829674674765300,8.313765380859374,-0.0028481418266892433,0.0005958275869488716,0.0001999642699956894
1782829674684693200,8.323693359375,0.0013258308172225952,0.0012520300224423409,0.0005014343187212944
1782829674694622200,8.333622314453125,-0.0005063051357865334,0.0005177818238735199,0.0005772565491497517
1782829674704550100,8.343550048828124,0.0012689586728811264,0.0022168783470988274,-0.0018081367015838623
1782829674714479000,8.35347900390625,0.0005329754203557968,0.0020166151225566864,-0.0002350853756070137
1782829674724407600,8.363407470703125,0.0004504173994064331,-0.0013525504618883133,0.0012522903271019459
1782829674734336300,8.373336181640624,0.00247968640178442,0.002241421490907669,-0.0008988841436803341
1782829674744264400,8.383264404296876,0.0026152413338422775,-0.0007727444171905518,0.003200253937393427
1782829674754193400,8.393193359375,0.0007284507155418396,0.0012998851016163826,0.0005211848765611649
1782829674764121300,8.403121337890624,-0.0018111392855644226,-0.001686583273112774,-0.00004074210301041603
1782829674774050300,8.41305029296875,-0.0012218914926052094,0.001194000244140625,0.0014965501613914967
1782829674783979500,8.4229794921875,0.00034085195511579514,0.0022675199434161186,-0.0038161897100508213
1782829674793907500,8.432907470703125,0.0019907495006918907,0.0010935794562101364,-0.001502792350947857
1782829674803836400,8.44283642578125,-0.000873747281730175,-0.0005344115197658539,-0.0014074509963393211
1782829674813764400,8.452764404296875,0.00031225383281707764,-0.00018179602921009064,-0.0012943530455231667
1782829674823693300,8.462693359375,-0.0011636698618531227,-0.001003648154437542,-0.0028464430943131447
1782829674833621200,8.472621337890626,0.0004426725208759308,-0.0012462250888347626,0.0022703618742525578
1782829674843550200,8.48255029296875,-0.000940307043492794,-0.001080309972167015,0.0012359903194010258
1782829674853478400,8.492478515625,-0.0015705311670899391,0.0014590956270694733,-0.0006737885996699333
1782829674863407400,8.502407470703124,-0.001798497512936592,0.00071713887155056,0.002173397224396467
1782829674873335300,8.512335205078125,-0.0023119496181607246,0.0007930127903819084,-0.0018826266750693321
1782829674883264300,8.52226416015625,-0.0007537342607975006,0.0009136544540524483,0.0006218096241354942
1782829674893192200,8.532192138671874,-0.0002876194193959236,-0.0009141871705651283,0.0027750730514526367
1782829674903121200,8.54212109375,0.0007499484345316887,0.00009648315608501434,-0.0020223455503582954
1782829674913049300,8.55204931640625,-0.00001184362918138504,-0.0009848223999142647,-0.0003160950727760792
1782829674922978300,8.561978271484374,0.00013436377048492432,0.001361955888569355,-0.0023150634951889515
1782829674932907300,8.5719072265625,-0.0022663185372948647,0.0005423715338110924,-0.000934988260269165
1782829674942835500,8.58183544921875,-0.0002833288162946701,0.0015067020431160927,-0.001248176209628582
1782829674952764200,8.59176416015625,0.002726134844124317,-0.0002695685252547264,-0.00007070368155837059
1782829674962692400,8.6016923828125,-0.0003974875435233116,0.002494259737432003,0.00009174924343824387
1782829674972621600,8.61162158203125,-0.00025951769202947617,-0.0009034723043441772,0.002870677039027214
1782829674982549500,8.621549560546875,0.0006824424490332603,0.0005799084901809692,0.00561186857521534
1782829674992478500,8.631478515625,-0.002375861629843712,0.0013122288510203362,0.0003265528939664364
1782829675002406400,8.641406494140625,0.0008494928479194641,-0.000573023222386837,-0.00040981126949191093
1782829675012335400,8.65133544921875,0.0022545577958226204,0.000038961879909038544,0.0011142119765281677
1782829675022263300,8.66126318359375,-0.0017636194825172424,0.0005782516673207283,-0.0004938044585287571
1782829675032192300,8.671192138671875,0.0008303886279463768,0.0010155634954571724,0.0013764426112174988
1782829675042120200,8.6811201171875,-0.002376589924097061,0.0015753591433167458,-0.0003287792205810547
1782829675052049400,8.69104931640625,0.000557946041226387,0.0005065621808171272,0.0006960518658161163
1782829675061977300,8.700977294921875,0.00041333679109811783,-0.00010063778609037399,0.0010763509199023247
1782829675071906300,8.71090625,-0.002930697053670883,0.0010468577966094017,-0.0006363829597830772
1782829675081834200,8.720834228515624,-0.0014185542240738869,-0.0009033745154738426,0.0003830748610198498
1782829675091763200,8.73076318359375,0.0007022116333246231,0.0011844849213957787,-0.002848047763109207
1782829675101692400,8.7406923828125,0.00002230703830718994,0.0007498562335968018,-0.0024954448454082012
1782829675111620400,8.750620361328124,0.0007537417113780975,0.0005084658041596413,0.0007567754946649075
1782829675121549300,8.76054931640625,0.000025367364287376404,0.0000842241570353508,-0.0013631004840135574
1782829675131477200,8.770477294921875,0.000915277749300003,-0.0018491186201572418,-0.0015451363287866116
1782829675141406200,8.78040625,0.0008084848523139954,0.0005344105884432793,-0.0015312875621020794
1782829675151334400,8.79033447265625,-0.0005909036844968796,-0.00009701959788799286,-0.000009954441338777542
1782829675161263000,8.80026318359375,-0.0017049042508006096,0.0009059272706508636,0.0008856663480401039
1782829675171191300,8.81019140625,-0.0009659947827458382,0.0012848256155848503,0.0007609203457832336
1782829675181120500,8.82012060546875,-0.0003563975915312767,0.00039932411164045334,-0.0017544347792863846
1782829675191048400,8.83004833984375,0.0006737373769283295,0.001111605204641819,0.0003131357952952385
1782829675200977400,8.839977294921875,0.002229023724794388,-0.0008780425414443016,-0.0000655660405755043
1782829675210905300,8.8499052734375,0.0014765933156013489,0.0021232198923826218,-0.000665818341076374
1782829675220834300,8.859834228515625,-0.0007314328104257584,-0.001118379645049572,0.000709970947355032
1782829675230762200,8.86976220703125,-0.0021019112318754196,-0.0008727274835109711,0.00018156180158257484
1782829675240691500,8.87969140625,-0.0015919152647256851,0.00017283018678426743,-0.0013108737766742706
1782829675250619400,8.889619384765625,0.0009050015360116959,0.0009532170370221138,-0.00016726506873965263
1782829675260548400,8.89954833984375,-0.0011562854051589966,0.001971876248717308,-0.0015385267324745655
1782829675270477300,8.909477294921874,-0.0008028848096728325,0.002154930494725704,-0.0014192662201821804
1782829675280405200,8.9194052734375,0.0007103234529495239,-0.0020789634436368942,-0.0002461438998579979
1782829675290336000,8.9293359375,-0.00108320452272892,0.0017685992643237114,0.0014458764344453812
1782829675300264000,8.939263916015625,0.0015850160270929337,-0.001659688539803028,0.0017888909205794334
1782829675310193000,8.94919287109375,-0.0011103339493274689,-0.0006438270211219788,0.0020766165107488632
1782829675320120800,8.959120849609375,0.0004481477662920952,-0.0015168115496635437,0.0018619652837514877
1782829675330049800,8.9690498046875,0.0018718438223004341,0.0013734502717852592,0.0026205331087112427
1782829675339977700,8.978977783203124,-0.00004962645471096039,-0.0009560165926814079,-0.00037312600761651993
1782829675349907000,8.988906982421875,-0.001230957917869091,0.0012854170054197311,0.0010295500978827477
1782829675359835000,8.9988349609375,-0.0009694360196590424,0.0003266790881752968,0.0008639013394713402
1782829675369763800,9.008763916015624,-0.0014768922701478004,0.0009197620674967766,0.000245408620685339
1782829675379691800,9.01869189453125,-0.001342136412858963,-0.0003039604052901268,0.000571379903703928
1782829675389620700,9.028620849609375,0.0015712743625044823,0.00023298244923353195,-0.0001470576971769333
1782829675399548700,9.038548583984374,0.00029215775430202484,0.0009983740746974945,-0.001748149748891592
1782829675409477600,9.0484775390625,0.0028484174981713295,0.00012522749602794647,-0.00028245989233255386
1782829675419405800,9.05840576171875,0.0005375929176807404,0.001682911068201065,-0.0008811387233436108
1782829675429334800,9.068334716796874,-0.00030418019741773605,0.0026032384485006332,-0.0007402780465781689
1782829675439263700,9.078263671875,-0.0003718240186572075,0.0010809758678078651,0.0002695927396416664
1782829675449192000,9.08819189453125,0.0006470028311014175,0.001467730849981308,-0.0013897665776312351
1782829675459120600,9.09812060546875,0.0002504577860236168,0.0013260506093502045,-0.0026339953765273094
1782829675469048800,9.108048828125,0.0004548346623778343,-0.00004792306572198868,-0.0016876794397830963
1782829675478977800,9.117977783203125,0.002160589210689068,0.00039149820804595947,0.00253476295620203
1782829675488906000,9.127906005859375,0.0015492970123887062,-0.0009058425202965736,0.0020914198830723763
1782829675498835000,9.1378349609375,-0.0009167902171611786,0.0009711533784866333,-0.0001605488359928131
1782829675508763000,9.147762939453125,-0.0010763825848698616,-0.0034578274935483932,0.0021104724146425724
1782829675518691800,9.15769189453125,0.001117262989282608,-0.00012008752673864365,0.0013232422061264515
1782829675528619800,9.167619873046876,0.0018329368904232979,0.000026434659957885742,-0.0017342246137559414
1782829675538548700,9.177548828125,0.0006853807717561722,-0.00172326248139143,0.000545174814760685
1782829675548477000,9.187476806640625,0.002486577257514,0.0005143983289599419,-0.0009701959788799286
1782829675558406000,9.197406005859374,0.000021821819245815277,0.0017772689461708069,-0.0019313306547701359
1782829675568333800,9.207333740234375,0.0017491476610302925,-0.0035609258338809013,0.0009375540539622307
1782829675578262800,9.2172626953125,-0.0009470367804169655,0.0005850838497281075,-0.00021532829850912094
1782829675588191700,9.227191650390624,-0.0011927317827939987,0.000746934674680233,0.0012968466617166996
1782829675598119700,9.23711962890625,0.0025692488998174667,-0.0007428377866744995,-0.0008832169696688652
1782829675608049000,9.247048828125,-0.0018822858110070229,-0.004181944765150547,0.00039149587973952293
1782829675617976800,9.256976806640624,0.0001720767468214035,0.003038417547941208,-0.0003083827905356884
1782829675627905800,9.26690576171875,0.0015431316569447517,0.0021092258393764496,-0.0011512651108205318
1782829675637833700,9.276833740234375,0.0008797384798526764,0.00259498693048954,0.0015451856888830662
1782829675647762700,9.2867626953125,-0.0010515907779335976,0.0016198474913835526,-0.0011267485097050667
1782829675657691000,9.29669091796875,0.001491728238761425,0.0013918811455368996,-0.001847399864345789
1782829675667619600,9.30661962890625,0.00021796952933073044,0.0007300237193703651,0.001066452357918024
1782829675677548000,9.316548095703125,0.00028241798281669617,0.00003307405859231949,-0.0010829847306013107
1782829675687477000,9.32647705078125,-0.002141566015779972,-0.0009074043482542038,0.0005693063139915466
1782829675697405000,9.336405029296875,-0.001100802794098854,0.002960571087896824,-0.0002365661785006523
1782829675707334000,9.346333984375,-0.00018515344709157944,0.0029689576476812363,-0.0014311131089925766
1782829675717261800,9.35626171875,-0.000041076913475990295,0.0005918201059103012,0.0022030360996723175
1782829675727190800,9.366190673828125,-0.0001130513846874237,0.0005134735256433487,-0.0014135432429611683
1782829675737118700,9.37611865234375,-0.0004523377865552902,-0.00001862645149230957,-0.0006758477538824081
1782829675747048000,9.3860478515625,0.001092284917831421,-0.0005340650677680969,-0.0013562515377998352
1782829675756977000,9.395976806640626,0.0028856582939624786,-0.0019327569752931595,-0.0010643689893186092
1782829675766904800,9.40590478515625,-0.00034587085247039795,-0.0009516021236777306,-0.0008819876238703728
1782829675776833800,9.415833740234374,-0.000790618360042572,-0.0009449440985918045,0.0016562705859541893
1782829675786761700,9.42576171875,-0.0005578594282269478,0.0020039770752191544,-0.001149788498878479
1782829675796691000,9.43569091796875,-0.0006790328770875931,-0.0012818314135074615,-0.0006272764876484871
1782829675806619000,9.445618896484374,0.0014770366251468658,0.0020089931786060333,0.0014368798583745956
1782829675816547800,9.4555478515625,0.0009641116484999657,-0.003017989918589592,-0.0007759407162666321
1782829675826475800,9.465475830078125,0.000025306828320026398,0.001323937438428402,-0.0007657748647034168
1782829675836404700,9.47540478515625,-0.0012894952669739723,0.000664539635181427,-0.0013703126460313797
1782829675846332700,9.485332763671876,0.002749266102910042,-0.0022972458973526955,0.002873095218092203
1782829675856261600,9.49526171875,0.0005857134237885475,0.0008487468585371971,0.0017585628665983677
1782829675866189800,9.50518994140625,0.0028080539777874947,0.0025658011436462402,0.0015951530076563358
1782829675876118800,9.515118896484376,-0.00008174218237400055,0.0019831014797091484,0.0005836845375597477
1782829675886047000,9.525046875,-0.0007776347920298576,0.0005459971725940704,-0.0014473963528871536
1782829675895976000,9.534975830078125,0.0005635330453515053,-0.0010356539860367775,-0.00010223360732197762
1782829675905905000,9.54490478515625,-0.0008256388828158379,0.0006080176681280136,-0.0012927348725497723
1782829675915832800,9.554832763671875,-0.0004362845793366432,-0.0016090646386146545,-0.00011055730283260345
1782829675925762000,9.564761962890625,-0.0009665181860327721,-0.0005488134920597076,-0.0004972405731678009
1782829675935690000,9.57468994140625,-0.0009726434946060181,-0.00044255331158638,-0.0005185459740459919
1782829675945619000,9.584618896484375,0.002302703447639942,-0.001702750101685524,-0.00044502364471554756
1782829675955547000,9.594546875,-0.0008243797346949577,-0.002151492051780224,0.0004748320206999779
1782829675965475800,9.604475830078124,-0.0008814064785838127,0.00028826016932725906,-0.0007603098638355732
1782829675975403800,9.61440380859375,-0.00022174138575792313,-0.00001667160540819168,0.0014652935788035393
1782829675985332700,9.624332763671875,-0.0008111139759421349,-0.00015756301581859589,0.000039390288293361664
1782829675995260700,9.6342607421875,-0.00021216925233602524,-0.0006656944751739502,0.0018516713753342628
1782829676005190000,9.64418994140625,0.0023432690650224686,-0.0008397726342082024,-0.00035014236345887184
1782829676015117800,9.654117919921875,-0.0011095190420746803,0.0008428124710917473,-0.000010056886821985245
1782829676025046800,9.664046875,0.0016480116173624992,-0.0030004847794771194,-0.0007622484117746353
1782829676034974700,9.673974609375,0.00041629932820796967,-0.00021961238235235214,0.0009269947186112404
1782829676044903700,9.683903564453125,-0.014483828097581863,0.3347821831703186,0.29587864875793457
1782829676054833000,9.6938330078125,-0.013582615181803703,0.40054839849472046,0.5216334462165833
1782829676064760800,9.7037607421875,-0.005600880831480026,0.05284871160984039,0.4600147306919098
1782829676074689800,9.713689697265625,0.0009483648464083672,-0.27604955434799194,0.15158312022686005
1782829676084617700,9.72361767578125,0.011784426867961884,-0.3727012574672699,-0.17393070459365845
1782829676094546700,9.733546630859376,0.013440913520753384,-0.2831202447414398,-0.3685382902622223
1782829676104475000,9.743474853515625,0.01234735269099474,-0.18428918719291687,-0.5051996111869812
1782829676114403800,9.75340380859375,0.01563023030757904,0.011984985321760178,-0.5120564699172974
1782829676124331800,9.763331787109376,0.0023551201447844505,0.31545665860176086,-0.3017093539237976
1782829676134261000,9.773260986328125,-0.003721148706972599,0.38393664360046387,-0.0191157516092062
1782829676144189000,9.78318896484375,-0.006977583281695843,0.173176571726799,0.19065147638320923
1782829676154118000,9.793117919921874,-0.0027045411989092827,-0.15569639205932617,0.23150436580181122
