time,seconds_elapsed,z,y,x
1782832051296985600,0.082985595703125,-0.40324645412564275,-0.9889056772790848,0.9276027750544249
1782832051306914600,0.09291455078125,0.4612777873337269,-0.18381635221540926,1.1475699795160441
1782832051316843500,0.102843505859375,0.8133207084447145,0.5045056652940809,0.3628703123345971
1782832051326772700,0.112772705078125,0.6832172417163849,0.8152505074635148,-0.1364045305007603
1782832051336700700,0.12270068359375,0.43571196892261504,0.8988619798690081,0.024297296312637627
1782832051346629600,0.132629638671875,-0.01734276446700096,0.7857489570386708,0.18530704743089152
1782832051356558600,0.14255859375,-0.33333763611912726,0.47834012742415066,0.10552681461819446
1782832051366487600,0.152487548828125,-0.423630485984683,0.14010069073811174,-0.05981947700018063
1782832051376416800,0.162416748046875,-0.49125499244630333,-0.19668226352930068,-0.16540031422739848
1782832051386345700,0.172345703125,-0.5978215162426233,-0.431553095677495,0.003697009620722383
1782832051396274700,0.182274658203125,-0.6170505328476429,-0.4797025018185377,0.34178163933753963
1782832051406202600,0.19220263671875,-0.49548108570873733,-0.3715944476686418,0.4008327075148001
1782832051416131600,0.202131591796875,-0.42077042037844653,-0.15676555594354866,0.1969531528925523
1782832051426060800,0.212060791015625,-0.4306546855330467,0.0648348757430911,0.043073527648858724
1782832051435989500,0.221989501953125,-0.4968512050181627,0.1991235192015767,0.07356023491984233
1782832051445918500,0.23191845703125,-0.5574661249786615,0.24183380302861332,0.1342012391696684
1782832051455847400,0.241847412109375,-0.5953624326527118,0.13210618485286832,0.1233974662836641
1782832051465775600,0.251775634765625,-0.5708692119091748,-0.08714271527156234,0.058972395184170454
1782832051475704600,0.26170458984375,-0.4018190516710281,-0.21088585318773984,0.013555409681703894
1782832051485633500,0.271633544921875,-0.23116087171435354,-0.1999814512051642,0.010520809492468834
1782832051495562500,0.2815625,-0.12436521533727646,-0.125408586910367,0.04007600806700066
1782832051505491500,0.291491455078125,-0.08018529734909534,-0.03951221843808889,0.06271631268654018
1782832051515420700,0.301420654296875,-0.08416764498353003,-0.014381430443376302,0.024003683660924435
1782832051525349600,0.311349609375,0.0331090733975172,0.04802694880515337,0.028092578676063566
1782832051535277600,0.321277587890625,0.14481763625741004,0.06708586954027414,0.051759906522091476
1782832051545206500,0.33120654296875,0.13908873721659182,0.041567397402226924,0.12600231501981615
1782832051555135500,0.341135498046875,0.15118307963609695,0.06771992966011166,0.17109995064111425
1782832051565064700,0.351064697265625,0.2096744315713644,0.07023615026473999,0.12398938602851703
1782832051574993700,0.36099365234375,0.17826339426338672,0.021172844149172306,-0.001347450819890946
1782832051584922600,0.370922607421875,0.020903671818971632,-0.006875438727438449,-0.039430577169777825
1782832051594850600,0.3808505859375,-0.05648118115663528,0.043534021300077434,-0.0056426729289349165
1782832051604779500,0.390779541015625,-0.11491174281537532,0.172556853184849,0.014193524922151118
1782832051614708700,0.400708740234375,-0.06185469088852405,0.28955665432065725,0.09906948257181793
1782832051624637700,0.4106376953125,-0.020866846939921378,0.21500950898900628,0.15475315667521208
1782832051634566700,0.420566650390625,-0.20697101783156394,-0.17490706957280636,0.17798943616021423
1782832051644495400,0.430495361328125,-0.17724281904399394,-0.3809280932031572,0.34816081898063417
1782832051654424600,0.440424560546875,-0.028898762226104734,-0.3291515826061368,0.31678971182424576
1782832051664352800,0.450352783203125,-0.0290483998298645,-0.15729016433954238,0.057578155213641
1782832051674281500,0.460281494140625,-0.09225392080545425,0.03905760653838515,-0.0342530010019429
1782832051684210400,0.47021044921875,-0.1637035385131836,0.17131284447312353,0.048920701040793206
1782832051694139400,0.480139404296875,-0.1280804364681244,0.2116490926451981,0.15843012815490365
1782832051704068600,0.490068603515625,-0.022551439025998113,0.23642127646058797,0.16285077587505803
1782832051713997600,0.49999755859375,-0.049044309154152865,0.16813041504472492,0.06054320643115788
1782832051723925500,0.509925537109375,-0.20282266598045826,-0.033152766408771274,0.038313802433758974
1782832051733854500,0.5198544921875,-0.3186094380646944,-0.17525339879244564,0.09606711328490637
1782832051743783400,0.529783447265625,-0.24562720396220683,-0.14080840061604977,0.15596395723707973
1782832051753712600,0.539712646484375,-0.16408464678525925,0.02623524210527539,0.070703155855136
1782832051763641600,0.5496416015625,-0.1585924791097641,0.18018734806329012,-0.04697111960928887
1782832051773570600,0.559570556640625,-0.1782347526907921,0.23923501870706676,0.01816164310183376
1782832051783499500,0.56949951171875,-0.15240999108254907,0.21992460742890835,0.12754480435461737
1782832051793427500,0.579427490234375,-0.11049977159202098,0.06878083688989281,0.16356802076632157
1782832051803356700,0.589356689453125,-0.08586801916062832,-0.11029621184393763,0.06703890685969963
1782832051813285600,0.59928564453125,-0.07359364399909973,-0.06849120629355311,0.007942319040279835
1782832051823214600,0.609214599609375,-0.07273498134315014,0.06683847065046429,0.1067757643665187
1782832051833143600,0.6191435546875,-0.05133271235227584,0.09809300222247838,0.18856157398112117
1782832051843072800,0.62907275390625,0.01580079572200775,0.038990678782016036,0.14449927275693042
1782832051853000700,0.639000732421875,-0.005517886638641357,-0.03755041684582829,0.04748255799645558
1782832051862929700,0.6489296875,-0.04630407053530216,0.00007744915038347244,0.06409737351508811
1782832051872858600,0.658858642578125,-0.07458440860211848,0.06170461489334702,0.17954828297477216
1782832051882787600,0.66878759765625,-0.034141923576593396,0.052935179112851616,0.21266027898173778
1782832051892716500,0.678716552734375,0.010702011278271674,0.004618745841830968,0.10166738097737543
1782832051902645500,0.6886455078125,-0.015095862323045729,0.02098769684061408,0.03466927191894501
1782832051912574500,0.698574462890625,-0.012356792747974394,0.09306523718833923,0.06098948889393359
1782832051922502400,0.70850244140625,-0.04836041854321956,0.08339753739386796,0.1172414187388029
1782832051932431400,0.718431396484375,-0.0946177273273468,0.029021219561994074,0.1390009767347481
1782832051942360600,0.728360595703125,-0.10614508351385593,0.023022271408140657,0.1669193404882215
1782832051952289000,0.7382890625,-0.18473697419166563,0.008026362328231335,0.12144867030344902
1782832051962218200,0.74821826171875,-0.2045978589594364,-0.021024375589191912,0.0599573328346014
1782832051972147200,0.758147216796875,-0.15322598364055157,-0.008129238180816173,0.08617189747802913
1782832051982075100,0.7680751953125,-0.19575871894359587,-0.06127002286836505,0.10399857300445436
1782832051992004000,0.778004150390625,-0.20747078404724598,-0.13208484980389476,0.1404594593142159
1782832052001933000,0.78793310546875,-0.13820786272883415,-0.1054144311517477,0.19177375922696663
1782832052011862300,0.7978623046875,-0.08703706294000148,-0.051120530906319614,0.17482198510523883
1782832052021791200,0.807791259765625,-0.10515899508595467,-0.00933437618687749,0.08488072515632956
1782832052031720200,0.81772021484375,-0.09806289934515952,0.07134557281136512,0.08473969098413363
1782832052041649200,0.827649169921875,-0.09290507819056511,0.14328808860257267,0.08163363299388438
1782832052051577000,0.8375771484375,-0.0969879635900259,0.1530500425517559,0.05512411312502809
1782832052061506300,0.84750634765625,-0.03396773605346679,0.19596637034490702,0.09277531433105468
1782832052071435300,0.857435302734375,0.04552607190012931,0.18679931354895232,0.13528897047429345
1782832052081364200,0.8673642578125,0.014932780715823173,0.02771145213767886,0.1226271760309115
1782832052091293200,0.877293212890625,-0.04250409373044967,-0.15877192732989787,0.08667719838535412
1782832052101222400,0.887222412109375,-0.037511692270636554,-0.18847776815518735,0.07023623246313072
1782832052111150300,0.897150390625,0.008778349739313126,-0.06983399920463562,0.08005889449045062
1782832052121079300,0.907079345703125,0.030962709018588063,0.09140651019588113,0.08257886882158927
1782832052131008300,0.91700830078125,0.01002864206135273,0.2020394066482782,0.0953731488045305
1782832052140937200,0.926937255859375,0.049639936959743496,0.21702245624661445,0.16463680077530443
1782832052150866200,0.9368662109375,0.05413432576954364,0.1843923985376954,0.14926682508545927
1782832052160795100,0.946795166015625,-0.024913491982221602,0.17097864408269522,0.16027243155334145
1782832052170724000,0.95672412109375,-0.1035316861450672,0.15763985456004737,0.17818806400485335
1782832052180652000,0.966652099609375,-0.1718728164434433,0.1023759402386844,0.1528283717582468
1782832052190581000,0.9765810546875,-0.18900398398637772,0.03274140912890434,0.16829598086997866
1782832052200510200,0.98651025390625,-0.1843295624345541,-0.08772796781361103,0.14125282904845662
1782832052210439200,0.996439208984375,-0.16460253317952156,-0.1619692620664835,0.09042409329609945
1782832052220368100,1.0063681640625,-0.11159341204762459,-0.10509528219997882,0.0905024374956265
1782832052230297000,1.016297119140625,-0.12028700611293315,-0.036898236547410486,0.08988291735779494
1782832052240225300,1.026225341796875,-0.16397066501677035,0.008248480646312237,0.09317170237065292
1782832052250154200,1.036154296875,-0.12829963217675686,0.09211962690129875,0.12960895207650028
1782832052260083200,1.046083251953125,-0.13140285888910294,0.1291208854317665,0.10467415244476869
1782832052270012200,1.05601220703125,-0.11713994025886058,0.12964154830500482,0.0946936238414608
1782832052279941400,1.06594140625,-0.09092588707208633,0.13295184189677237,0.07836084013460204
1782832052289870300,1.075870361328125,-0.1329196931928396,0.14963424275889992,0.05692082381607033
1782832052299799300,1.08579931640625,-0.16476035408973694,0.09852394098564982,0.08889538589147851
1782832052309727200,1.095727294921875,-0.14623276375234126,0.047134383879601956,0.1426166556144133
1782832052319656200,1.10565625,-0.1773100390613079,-0.05435892830565572,0.12142559995511545
1782832052329585400,1.11558544921875,-0.15470657758712766,-0.09331132090389728,0.125826209534239
1782832052339514400,1.125514404296875,-0.09654606504142284,-0.07779372603744268,0.12609616731572895
1782832052349443000,1.135443115234375,-0.1179231995910406,-0.07127353048846125,0.10345242863008752
1782832052359372000,1.1453720703125,-0.16092939762473105,-0.04049202325567603,0.13684361603776923
1782832052369300200,1.15530029296875,-0.1455471195757389,0.00004252396747469902,0.16810906172944232
1782832052379229200,1.165229248046875,-0.06786708304584026,0.05842880809307098,0.1504876629841514
1782832052389158100,1.175158203125,0.008525251761078835,0.07504442732930183,0.1532289427826181
1782832052399087000,1.185087158203125,0.006695698246359825,0.03668532444909215,0.12819972459939308
1782832052409016000,1.19501611328125,-0.04524725495874882,0.0031843291245400905,0.0618332553748507
1782832052418945300,1.2049453125,-0.06624503480195999,0.03573693768307566,0.09075967279286123
1782832052428874200,1.214874267578125,-0.11231120492815971,0.06630918607935309,0.13577195908511056
1782832052438802200,1.22480224609375,-0.09284604147970676,0.04753755785301327,0.14262816338911652
1782832052448731100,1.234731201171875,-0.0003355155646800995,-0.0009479483745992183,0.10554909038208424
1782832052458660000,1.24466015625,0.002333995905518532,-0.03588730593919754,0.0768919548921287
1782832052468589300,1.25458935546875,-0.1479430748015642,-0.04311901075839996,0.03337645562943071
1782832052478518300,1.264518310546875,-0.2647381471455097,-0.011639876650273799,0.025234001774014903
1782832052488447200,1.274447265625,-0.24939152493178843,0.07106339486911893,0.04662555757462978
1782832052498375200,1.284375244140625,-0.1407803435653448,0.1186658346518874,0.12102406994951888
1782832052508304100,1.29430419921875,0.0058317748934030526,0.05817717141956091,0.16030768552981317
1782832052518233300,1.3042333984375,0.10075929882228374,-0.03542158812358975,0.10267605569642037
1782832052528162300,1.314162353515625,0.07629355060756206,-0.019507541285455225,0.0844244053567294
1782832052538091300,1.32409130859375,-0.04754384146332741,0.09648717446103691,0.1722566098629497
1782832052548020200,1.334020263671875,-0.14520225166082382,0.16756079846322536,0.22610075704688204
1782832052557949200,1.34394921875,-0.1580342607051134,0.12301949981674551,0.17420898603973908
1782832052567877400,1.35387744140625,-0.11884440608918666,0.04244008858352899,0.07828210320943035
1782832052577806300,1.363806396484375,-0.13847265114486218,-0.010428308903425932,0.06494885751157999
1782832052587735300,1.3737353515625,-0.200262460103631,-0.027830694603174923,0.11374690028708427
1782832052597664000,1.3836640625,-0.1798936258137226,-0.0011361644230782986,0.128169722186774
1782832052607593200,1.39359326171875,-0.09999240610301494,0.005016512987762689,0.12226398700801655
1782832052617522200,1.403522216796875,-0.03650923722982406,0.002093172886967659,0.14284845507629215
1782832052627450000,1.4134501953125,0.004497311419248581,0.053913522625714534,0.13495085196057333
1782832052637379000,1.423379150390625,0.0034878421157598493,0.12548852027878166,0.09506741645676084
1782832052647308000,1.43330810546875,-0.03777881877422332,0.14922332387045026,0.056271059237024745
1782832052657237200,1.4432373046875,-0.1253957274287939,0.14545622642189263,0.04595630284382496
1782832052667166200,1.453166259765625,-0.19374387198984622,0.09575169979333877,0.08705278109894134
1782832052677095200,1.46309521484375,-0.12303192090690135,0.028601240584254263,0.13670946826408617
1782832052687024000,1.473024169921875,-0.013801730859279632,-0.02161445043683052,0.14880359148788266
1782832052696952000,1.4829521484375,0.014289222115278243,-0.07550897610113025,0.11788758942154236
1782832052706881300,1.49288134765625,0.0363029010027647,-0.060547115421295164,0.11215803279359825
1782832052716810200,1.502810302734375,0.028182722911238668,0.015897680225223303,0.14442351324013433
1782832052726739200,1.5127392578125,-0.05689210004508495,0.07875219580605626,0.13198746297718025
1782832052736668200,1.522668212890625,-0.13716975185275077,0.15258987769410012,0.08772342863581142
1782832052746597400,1.532597412109375,-0.17191957819461823,0.19679419947117566,0.08677108721388503
1782832052756525300,1.542525390625,-0.17743103509247302,0.1679600269138813,0.15812120833620427
1782832052766454300,1.552454345703125,-0.11819324870407581,0.09990151294916867,0.2155845871969126
1782832052776383200,1.56238330078125,-0.056415714704990384,0.004446896406263113,0.19291450849361716
1782832052786312200,1.572312255859375,-0.03244797914028168,-0.06871434752494096,0.1222624800375197
1782832052796241400,1.582241455078125,-0.08722235637903213,-0.0657968526430428,0.0701172457259614
1782832052806170000,1.592170166015625,-0.19156068273186683,-0.044750411352515215,0.0696885354524944
1782832052816099000,1.60209912109375,-0.19692133298218248,-0.0320950740493834,0.13704317546417005
1782832052826027300,1.61202734375,-0.1542348684221506,-0.024183862533420322,0.13127559751393272
1782832052835956200,1.621956298828125,-0.05777706618607044,0.003962327759712934,0.07747539906958117
1782832052845885200,1.63188525390625,0.03764788587093353,0.05049421570152044,0.02522640298944898
1782832052855814100,1.641814208984375,0.056095396709442136,0.09538388939425349,-0.01143620730433613
1782832052865743000,1.6517431640625,0.006854103678464889,0.15382131918519734,0.026421421460295094
1782832052875672000,1.661672119140625,-0.0758341164022684,0.15396175056919453,0.060754739423142745
1782832052885600000,1.67160009765625,-0.17180150477290151,0.10957549635395407,0.04972171522537246
1782832052895529200,1.681529296875,-0.19782441930174827,0.10782397651150823,0.05182584789777174
1782832052905458200,1.691458251953125,-0.15844576411545275,0.09123451462984085,0.12058125808546319
1782832052915387100,1.70138720703125,-0.16149579933583735,0.01373231888487935,0.1634449971748516
1782832052925316000,1.711316162109375,-0.1637380253046751,-0.0816803582124412,0.20453820119407026
1782832052935245300,1.721245361328125,-0.161280110758543,-0.1324874392554164,0.1982316483957693
1782832052945174300,1.73117431640625,-0.12055997783541679,-0.08281403841748833,0.20946009470093993
1782832052955103200,1.741103271484375,-0.0937941359847784,0.02342544538155198,0.20041396087091415
1782832052965032400,1.751032470703125,-0.09380582642257213,0.06661693685427307,0.16951576845590025
1782832052974961400,1.76096142578125,-0.08035539321899414,0.04312105658501386,0.14420187897924333
1782832052984890000,1.77089013671875,-0.030815994024276733,-0.03767258192077279,0.12781707282420246
1782832052994819000,1.780819091796875,-0.029518355429172513,-0.0627029782809317,0.09369538831803947
1782832053004748300,1.790748291015625,0.01583645155727863,0.041335780603438614,0.13733997558681293
1782832053014676200,1.80067626953125,-0.008013795107603073,0.11946356090083718,0.1882513024555519
1782832053024605200,1.810605224609375,-0.09935001654624938,0.12477671874761581,0.1471318954159971
1782832053034534100,1.8205341796875,-0.16695581830739975,0.09070712975487112,0.11351047031586058
1782832053044463000,1.830463134765625,-0.15460662434399128,-0.01410612063333392,0.09830709249773062
1782832053054392300,1.840392333984375,-0.14887480269372463,-0.11796879229843615,0.08957385140862316
1782832053064321300,1.8503212890625,-0.1699988392651081,-0.12285729499235748,0.08492612606748007
1782832053074250200,1.860250244140625,-0.15820786370635032,0.011915478721261023,0.0984416238639038
1782832053084178200,1.87017822265625,-0.17542612501084803,0.13796572453603148,0.12246698050051927
1782832053094107100,1.880107177734375,-0.14228665647506714,0.1820052111402154,0.12237486350396648
1782832053104036400,1.890036376953125,-0.024724691411852837,0.1567841145135462,0.14897485640156083
1782832053113965300,1.89996533203125,0.12333821037709712,0.052285483032464976,0.1244250831651967
1782832053123894300,1.909894287109375,0.1562298416316509,-0.02267009696960449,0.06346646433356218
1782832053133823200,1.9198232421875,0.02161737304627895,0.019121318446844816,0.04324246360813267
1782832053143751200,1.929751220703125,-0.09161328481435775,0.12987111927717923,0.06710427284664475
1782832053153680400,1.939680419921875,-0.17380524581074713,0.20178791610524058,0.0920834961419925
1782832053163609300,1.949609375,-0.15629764617085457,0.14096826735287904,0.10900716754724271
1782832053173538300,1.959538330078125,-0.04641454517245292,0.05696574980318546,0.08700648513864725
1782832053183467300,1.96946728515625,-0.04721650920510292,0.006711772598326206,0.10158330115680582
1782832053193396200,1.979396240234375,-0.11805763962566852,-0.00813245305120945,0.13486844350728205
1782832053203325200,1.9893251953125,-0.17097265273332596,-0.013995645996183156,0.14745015845177695
1782832053213253400,1.99925341796875,-0.19659575428962706,-0.07892214554548263,0.14408002443155274
1782832053223182000,2.00918212890625,-0.11764321360588073,-0.10609013845622539,0.13302024009102023
1782832053233111000,2.019111083984375,-0.061706806850433345,-0.06074556060284376,0.09431112732989713
1782832053243040300,2.029040283203125,-0.023995208093523977,0.006254822611063718,0.04941477730120532
1782832053252969200,2.03896923828125,-0.02116436858177185,0.09085121440067886,0.06643822841965594
1782832053262898200,2.048898193359375,0.0015033903002738952,0.16049451333880424,0.12305742980749346
1782832053272827100,2.0588271484375,0.06468845300972462,0.15848478095158933,0.07313585376162081
1782832053282755000,2.068755126953125,0.09682429746091366,0.13310308693572878,0.010793589418707415
1782832053292684300,2.078684326171875,-0.005530161598324776,0.09909574952423572,0.020098136722901835
1782832053302613200,2.08861328125,-0.18874504078924656,0.015904109966009855,0.09215797701715492
1782832053312542200,2.098542236328125,-0.2970814968675375,-0.05288125696852803,0.16958596588158978
1782832053322471200,2.10847119140625,-0.29861995848119255,-0.11743994611874221,0.15989727809801696
1782832053332400400,2.118400390625,-0.25007132388949393,-0.1480645092241466,0.09036334868534468
1782832053342328300,2.128328369140625,-0.04452127877175808,-0.03649900809675455,0.1022778227596078
1782832053352257300,2.13825732421875,0.11037117677628994,0.11799889517575501,0.16047885911194607
1782832053362186200,2.148186279296875,0.13491349735856056,0.2017261029154062,0.19651315404009073
1782832053372115200,2.158115234375,0.10299509505033493,0.2069020442485809,0.2050592111271806
1782832053382044400,2.16804443359375,-0.0003144727766513824,0.08963234013020992,0.1409782681570854
1782832053391973400,2.177973388671875,-0.10579846203327178,-0.058853463245928286,0.11338504470475018
1782832053401902000,2.187902099609375,-0.22096622543632982,-0.13889511434063315,0.13430717462901956
1782832053411830300,2.197830322265625,-0.25747487814426423,-0.12500263645797968,0.15807923235800117
1782832053421759200,2.20775927734375,-0.17797522497177123,-0.05407134353592991,0.1708439848523587
1782832053431688200,2.217688232421875,-0.1362754333615303,-0.029403204616904256,0.13399917725892738
1782832053441617200,2.2276171875,-0.14725976871252058,-0.043517216295748944,0.09428665047576651
1782832053451546000,2.237546142578125,-0.10243629212379456,0.007506283976882696,0.09495284103322774
1782832053461475000,2.24747509765625,-0.027032968354225157,0.07715645104721187,0.059062932144990185
1782832053471403300,2.2574033203125,-0.0251227508187294,0.13774389847889543,0.01566030953908339
1782832053481332200,2.267332275390625,-0.03786182088255882,0.1815044220112264,0.036405384129704906
1782832053491261200,2.27726123046875,-0.081437343236804,0.15747954943180084,0.05168474066033959
1782832053501190100,2.287190185546875,-0.10761632511019706,0.10381561765298247,0.05727478835289366
1782832053511119000,2.297119140625,-0.09362988533377647,0.036530718409270045,0.07542144394814967
1782832053521048300,2.30704833984375,-0.08657236803770064,-0.027377251747250555,0.07710937876878306
1782832053530977300,2.316977294921875,-0.11672434519529341,-0.07708411646336316,0.0769013437749818
1782832053540905200,2.3269052734375,-0.12215981424748897,-0.028451749110966918,0.1503606482041534
1782832053550834200,2.336834228515625,-0.0939379283696413,0.036246786901354786,0.21867623306931927
1782832053560763400,2.346763427734375,-0.08014847247004508,-0.00905658215880394,0.1956701090783812
1782832053570692400,2.3566923828125,-0.054499651950597756,-0.033680443544685836,0.1809886545088142
1782832053580621300,2.366621337890625,-0.07262684479355812,0.03570391219630837,0.15361143929418175
1782832053590550300,2.37655029296875,-0.054475102031230925,0.09821838216781616,0.15037771806996314
1782832053600479200,2.386479248046875,-0.04068856874108314,0.1188730476617813,0.17877660448253155
1782832053610407400,2.396407470703125,-0.061439095824956894,0.07752879149094223,0.1750039175434038
1782832053620336400,2.40633642578125,-0.09111644120812415,-0.03609437281861901,0.09135614998182282
1782832053630265300,2.416265380859375,-0.03829436708092689,-0.039004561176896095,0.024596480188611894
1782832053640194300,2.4261943359375,-0.02864800233542919,0.017662644071131942,0.019762949951784684
1782832053650123300,2.436123291015625,-0.07999123608171939,0.06874941883832215,0.023133741559134793
1782832053660052200,2.44605224609375,-0.03802022631466388,0.12021321022436023,0.0723118057613261
1782832053669980200,2.455980224609375,-0.10387421597242355,0.10246478756591677,0.0887794587610755
1782832053679909000,2.4659091796875,-0.16247195089161395,0.04427592570856213,0.0825336505735293
1782832053689838000,2.475838134765625,-0.16329788032174108,0.01760550705641508,0.08135108972545713
1782832053699767300,2.485767333984375,-0.17923720773160456,-0.03016951281428337,0.09644680591803044
1782832053709696300,2.4956962890625,-0.11961012976467608,-0.01224456454515457,0.14907967761605978
1782832053719625200,2.505625244140625,-0.0773462745308876,0.01741276096329093,0.13035815387545152
1782832053729554200,2.51555419921875,-0.07905600105822086,0.022448417042940854,0.050119413872645235
1782832053739482000,2.525482177734375,-0.07572013463377952,0.0752805741727352,0.10185796251287683
1782832053749411300,2.535411376953125,-0.0665840574979782,0.07440276842489839,0.15271270035617052
1782832053759340300,2.54534033203125,-0.07897066086232661,0.01152370292469859,0.1570749872189015
1782832053769269200,2.555269287109375,-0.05130991599857807,-0.03140051591396332,0.15271295608449725
1782832053779198200,2.5651982421875,0.026610359027981756,-0.037028877189755435,0.11518827646812424
1782832053789127400,2.57512744140625,-0.01068038396835327,0.0037688510142266747,0.07847469403892755
1782832053799056400,2.585056396484375,-0.06148118140101432,0.09280819368734955,0.08223545307824387
1782832053808984300,2.594984375,-0.11113865401744842,0.14378887773156165,0.06687442787983454
1782832053818913300,2.604913330078125,-0.20697043330967424,0.10699264025390147,0.09864479088634252
1782832053828842200,2.61484228515625,-0.17678104675114154,0.003388327264040708,0.1759086478307843
1782832053838771500,2.624771484375,-0.09087561818957328,-0.07285641576573253,0.14140599204986357
1782832053848700200,2.6347001953125,-0.04822013328969478,-0.08515402567237615,0.05339741719658486
1782832053858629000,2.644629150390625,-0.06919862391054629,-0.011978753215819597,0.04364349585680757
1782832053868557300,2.654557373046875,-0.11822422836422919,0.0990146471120417,0.11696913200290873
1782832053878486300,2.664486328125,-0.12513152353465556,0.1435468856692314,0.14155951124429703
1782832053888415200,2.674415283203125,-0.06569909135699271,0.12904577436894177,0.12150498533425852
1782832053898344200,2.68434423828125,-0.06679097824692726,0.09119929718598722,0.08237751016374677
1782832053908273200,2.694273193359375,-0.05848550671637058,0.08287059091031551,0.06338751277925912
1782832053918202000,2.7042021484375,0.007898644295334815,0.09117650083228945,0.09243343295766972
1782832053928131300,2.71413134765625,-0.04074234475493431,0.03027984132096171,0.08646129974550568
1782832053938059300,2.724059326171875,-0.20171558152139185,-0.03370090181082487,0.062253010590304615
1782832053947988200,2.73398828125,-0.20845628795325755,-0.04496171601563692,0.16299323481936007
1782832053957916400,2.74391650390625,-0.06501052457094192,-0.009477876310795545,0.20604305279906837
1782832053967845400,2.753845458984375,0.04039280066490173,0.03165302937030792,0.13253462113169953
1782832053977774300,2.7637744140625,0.06209259129762649,0.10895604928135871,0.08105379641246982
1782832053987703600,2.77370361328125,-0.01713584371805191,0.1737672518879175,0.0711675676296465
1782832053997632500,2.783632568359375,-0.08238193061053753,0.1846555795185268,0.12901779951662756
1782832054007560400,2.793560546875,-0.12538228342533111,0.13300634856298565,0.15504174609193577
1782832054017489400,2.803489501953125,-0.14656009601056574,0.017615590059012174,0.1384777931108605
1782832054027418400,2.81341845703125,-0.07424246329665184,-0.06301394392624497,0.1344417607941199
1782832054037347600,2.82334765625,-0.04161094428300857,-0.07838876932114362,0.13219298635348678
1782832054047276500,2.833276611328125,-0.0950228009968996,-0.030221681392937898,0.08974558211318216
1782832054057205500,2.84320556640625,-0.10722411092221737,0.04068213900029659,0.08059511112584732
1782832054067134500,2.853134521484375,-0.09572539630830287,0.04991641581356525,0.09976228714156896
1782832054077062400,2.8630625,-0.10970949799716471,-0.010768062251806258,0.07667527993414551
1782832054086991600,2.87299169921875,-0.12429741079807281,-0.03806596515253186,0.052030380326812155
1782832054096920600,2.882920654296875,-0.15039455960690976,0.0012890168972313403,0.06666081252861768
1782832054106849500,2.892849609375,-0.15817863761186599,0.05813757006153464,0.07230616603840608
1782832054116778500,2.902778564453125,-0.1139893672734499,0.08726166547611355,0.10461831233799457
1782832054126707500,2.91270751953125,-0.12529869679510594,0.07444324656575918,0.12313050417685881
1782832054136636400,2.922636474609375,-0.13160977963805198,0.018742548262327907,0.11031688017263076
1782832054146564600,2.932564697265625,-0.13024199841618536,-0.014373977789282798,0.09295326471384614
1782832054156493300,2.942493408203125,-0.09622633156776428,0.014939502717554568,0.07747345370766706
1782832054166422300,2.95242236328125,-0.10064531705379486,0.06477364707514643,0.10978088273294269
1782832054176351500,2.9623515625,-0.1288508363187313,0.04396437554135919,0.13159697495540604
1782832054186280400,2.972280517578125,-0.09227905524671078,0.032339550329744816,0.10926666786679998
1782832054196209400,2.98220947265625,-0.15117781893908977,0.026444939333200454,0.10570129440226592
1782832054206137300,2.992137451171875,-0.22452011852562426,-0.018784779968857763,0.16930424459706991
1782832054216066300,3.00206640625,-0.12070552378594875,-0.01840352556630969,0.19909078597575425
1782832054225995500,3.01199560546875,0.001146247425675392,0.029973990242183206,0.125902106048353
1782832054235924500,3.021924560546875,-0.06533902587294578,0.09441022205650806,0.07911262661628425
1782832054245853400,3.031853515625,-0.013261048111319541,0.19086349424794316,0.12561505100158973
1782832054255782400,3.041782470703125,0.10998597685098647,0.2092963920392096,0.10560289379539899
1782832054265711600,3.051711669921875,0.0671375997275114,0.10399667330831289,-0.0066728379605803636
1782832054275639600,3.0616396484375,-0.035624855610728264,-0.022623335218429564,-0.010227132908673957
1782832054285568500,3.071568603515625,-0.08530629362463951,-0.024499358223378658,0.05457757145843934
1782832054295497500,3.08149755859375,-0.12787293119728566,0.0007728840686380863,0.04971225784386042
1782832054305426400,3.091426513671875,-0.2081529210925102,0.0048149990662932395,0.027885146470461038
1782832054315355600,3.101355712890625,-0.29030864173173904,0.017667758637666703,0.07753399738902225
1782832054325284600,3.11128466796875,-0.17989070320427417,0.09985328989326954,0.18543071034317835
1782832054335213300,3.12121337890625,0.03475216442942619,0.13535349621102213,0.21952216410785913
1782832054345141500,3.1311416015625,0.13774082973897456,0.054108460675925014,0.1605182047416456
1782832054355070500,3.141070556640625,0.07909107237160205,-0.01649316190034151,0.11544236082704737
1782832054364999400,3.15099951171875,0.033038346248865126,0.011605828250199556,0.13292844275487586
1782832054374928400,3.160928466796875,-0.11626900264322756,-0.00702463793978095,0.04156505018151365
1782832054384857300,3.170857421875,-0.2527040104806423,-0.03110445557683706,0.006948462864453904
1782832054394786300,3.180786376953125,-0.18444003707170487,0.04994301155954599,0.11707955184113233
1782832054404715500,3.190715576171875,-0.11124152987003326,0.10850523677393793,0.17079663857929409
1782832054414643500,3.2006435546875,-0.08295943823754787,0.09045154755860567,0.14451580376662312
1782832054424572400,3.210572509765625,-0.04679682248830795,0.06698679307997227,0.10291802035928703
1782832054434501400,3.22050146484375,-0.07352525493800639,0.05074249137416482,0.10825847720494493
1782832054444430300,3.230430419921875,-0.11556406924426554,0.04657704225778579,0.11157346523813903
1782832054454359600,3.240359619140625,-0.12621639616191385,0.006097293961793184,0.0879262668646872
1782832054464288500,3.25028857421875,-0.042754853621125216,-0.06557575723826885,0.04005354964002035
1782832054474217500,3.260217529296875,-0.013314824125170707,-0.06307707229033112,0.07708480144995264
1782832054484145400,3.2701455078125,-0.012915011152625083,-0.02367562075033784,0.13007157375272363
1782832054494074400,3.280074462890625,0.0030880291432142256,0.017679449075460433,0.11434990768153219
1782832054504003600,3.290003662109375,-0.11817805113494395,0.048226416900008916,0.051914485162449994
1782832054513932500,3.2999326171875,-0.19875322458446024,0.07979527511820196,0.08372570076915435
1782832054523861500,3.309861572265625,-0.14074001155495644,0.11354746872484683,0.13020754815731198
1782832054533790500,3.31979052734375,-0.11787468427419662,0.10150018031746148,0.09744058446204289
1782832054543719400,3.329719482421875,-0.08999182109236717,0.08659604117423296,0.071265995635977
1782832054553647600,3.339647705078125,-0.07596855643689632,0.10269742727801204,0.11637559568970464
1782832054563576600,3.34957666015625,-0.0722965899258852,0.041379473614692686,0.12249108289531431
1782832054573505300,3.35950537109375,-0.09953589450716972,-0.043172640641778705,0.07559095529615878
1782832054583434200,3.369434326171875,-0.13188567396998405,-0.0675372665695846,0.061292362564336504
1782832054593363500,3.379363525390625,-0.11594751560389994,-0.01564341320320964,0.06526039854562841
1782832054603292400,3.38929248046875,-0.14315350243747232,0.017705314169079063,0.08269549007173627
1782832054613220400,3.399220458984375,-0.1098369237691164,0.07303089554980396,0.14668489143401384
1782832054623149300,3.4091494140625,-0.02659282337129116,0.1281486793987453,0.16777619477957487
1782832054633078300,3.419078369140625,-0.04780862987935543,0.15850187821686268,0.121236908982601
1782832054643007500,3.429007568359375,-0.11198328814804553,0.17111396090015768,0.11057437119819223
1782832054652936400,3.4389365234375,-0.13658113830983637,0.13635507446900008,0.14014447508091107
1782832054662865400,3.448865478515625,-0.10479542247056961,0.02400879822745919,0.16470697993468492
1782832054672794400,3.45879443359375,-0.035026889717578884,-0.056368660692870616,0.14221718056858518
1782832054682722600,3.46872265625,0.043669630378484724,-0.08795695426389574,0.10508638650747015
1782832054692651500,3.478651611328125,0.040348961523175235,-0.0792804574638605,0.08354344867058097
1782832054702580500,3.48858056640625,-0.056850598990917205,-0.02159150795266032,0.04090619354713708
1782832054712509400,3.498509521484375,-0.16190321109294892,0.028191344609111546,0.02446320919776335
1782832054722438400,3.5084384765625,-0.1739069526195526,0.07156652208566665,0.08604269987409933
1782832054732367600,3.51836767578125,-0.1015717842489481,0.07646846878305077,0.10061700427476317
1782832054742296600,3.528296630859375,0.016973931154608726,0.03850070330798626,0.07488941943068057
1782832054752224500,3.538224609375,0.06865618759691715,-0.014465309334546327,0.02200425347201526
1782832054762153500,3.548153564453125,-0.039077626413106914,0.008260171084105967,0.01946946516423486
1782832054772082700,3.558082763671875,-0.13232640347480773,0.09616407998651265,0.08106492059468291
1782832054782011400,3.568011474609375,-0.14024316794872282,0.11843465624451636,0.08807005011639557
1782832054791940400,3.5779404296875,-0.13384089969098567,0.08046908272653817,0.10507322563179768
1782832054801869300,3.587869384765625,-0.16816753218472003,0.01363558051213622,0.08310631762864068
1782832054811798300,3.59779833984375,-0.20196809497773646,-0.03968260656893253,0.09850306259440257
1782832054821726500,3.6077265625,-0.18985621690154075,-0.0013153203822672366,0.149968370084092
1782832054831655400,3.617655517578125,-0.15470423949956894,0.07014628002420067,0.18514106148052958
1782832054841584400,3.62758447265625,-0.16122458117902277,0.061600716127455234,0.1921627037456259
1782832054851513300,3.637513427734375,-0.12666472445130347,-0.0022857728496193884,0.14860571256191468
1782832054861442600,3.647442626953125,-0.07044482457935809,-0.03563230826482176,0.1096451640566811
1782832054871371500,3.65737158203125,-0.11472995650768279,-0.01843041357323527,0.11053063252116553
1782832054881300500,3.667300537109375,-0.11356091272830962,0.048573622902482745,0.14177596700657158
1782832054891228400,3.677228515625,-0.02992109101116657,0.11056143865138292,0.12820003512664696
1782832054901157400,3.687157470703125,-0.08555646899342537,0.09817980372309684,0.0550531759138219
1782832054911086600,3.697086669921875,-0.16335516346693038,0.04617006889209151,0.030941392235923557
1782832054921015600,3.707015625,-0.08074702288508415,0.029286154108494517,0.05035878928620368
1782832054930944500,3.716944580078125,0.009284545695781707,0.006909487127512693,0.03653535805176943
1782832054940873500,3.72687353515625,0.05100713365972042,0.008512246149033308,0.1037309624436777
1782832054950802700,3.736802734375,0.028240006056427954,0.01891658965498209,0.14317654538634234
1782832054960730600,3.746730712890625,-0.01867372080981731,0.03289703808203339,0.09893416575435549
1782832054970659800,3.756659912109375,-0.11257073264718055,0.0215434310272336,0.03487622006735764
1782832054980588800,3.7665888671875,-0.1940454852849245,0.02273132563754916,0.027165344295930115
1782832054990517500,3.776517578125,-0.21198504660129547,0.02809606754109263,0.06463182745166123
1782832055000446500,3.786446533203125,-0.13670973312556742,0.01882175097838044,0.10976256162496283
1782832055010375400,3.79637548828125,-0.0613777210265398,0.0005944587618112564,0.12844013662599027
1782832055020304600,3.8063046875,-0.06067103406190872,-0.033265871394425627,0.14210238594934343
1782832055030232600,3.816232666015625,-0.1637117218196392,-0.09921250777170061,0.13087066084169782
1782832055040161500,3.82616162109375,-0.23992343936264512,-0.10515066564902663,0.13504748073546216
1782832055050090500,3.836090576171875,-0.16697160039842127,-0.047133507096767426,0.1397234731898643
1782832055060019700,3.846019775390625,-0.06037000528872013,0.004393997175246477,0.12479655595924705
1782832055069948700,3.85594873046875,-0.025246669459342955,0.03433306223452091,0.08786902025211601
1782832055079877600,3.865877685546875,-0.06482289304435253,0.04783829436525702,0.0714427267426392
1782832055089806600,3.875806640625,-0.10766016425192355,0.05234598104804754,0.09321603470272384
1782832055099734500,3.885734619140625,-0.07047989589273929,0.08207140335664152,0.10811878560646436
1782832055109663700,3.895663818359375,-0.005381693038344383,0.08193637880012393,0.05860094065642915
1782832055119592700,3.9055927734375,-0.016468904241919515,0.11259572095796465,-0.006233665658603422
1782832055129521700,3.915521728515625,-0.05515957716405391,0.17305457357391715,0.017343116093450225
1782832055139450600,3.92545068359375,-0.1209212123632431,0.1637597987450659,0.09284363946006632
1782832055149379800,3.9353798828125,-0.09343523954451084,0.0809438606314361,0.14049085909947753
1782832055159308500,3.94530859375,-0.0041501054167747495,-0.016637392676621676,0.11830370507491751
1782832055169236700,3.95523681640625,0.004586743268370628,-0.06937456499934196,0.06646284683768171
1782832055179165700,3.965165771484375,-0.1364104579180479,-0.035084757384657855,0.07834651934830471
1782832055189094700,3.9750947265625,-0.16103285799920558,0.07150193241685629,0.16839987963587044
1782832055199023600,3.985023681640625,-0.15319558850228784,0.08862579343616962,0.16582484151609242
1782832055208952600,3.99495263671875,-0.09494272149801254,0.004156681288033723,0.10172655468555167
1782832055218881500,4.004881591796875,0.03170154468715191,0.006898381211608648,0.07609458940278273
1782832055228810500,4.014810546875,0.01407411805987358,0.07605959572121501,0.06131637362758629
1782832055238738400,4.024738525390625,-0.0631073212981224,0.16469298794195056,0.07240722439324017
1782832055248667600,4.034667724609375,-0.07029167984426021,0.21210662715435027,0.06637656592687126
1782832055258596600,4.0445966796875,-0.05786942064464092,0.19684885226786136,0.033931148636434226
1782832055268525600,4.054525634765625,-0.0644236645936966,0.11393310704156756,0.055659959867666475
1782832055278454500,4.06445458984375,-0.05249532639086246,0.05016220726817846,0.14111140215061604
1782832055288383700,4.0743837890625,-0.061675827190279954,-0.030369857691973447,0.1805999657184817
1782832055298312700,4.084312744140625,-0.1280406889796257,-0.12789236655011774,0.12044623352894558
1782832055308240600,4.09424072265625,-0.23904665652811527,-0.13886223498433828,0.10874468981930985
1782832055318169600,4.104169677734375,-0.24393559761345385,-0.04581263375654816,0.1365971943954937
1782832055328098600,4.1140986328125,-0.14466916769742966,0.03552344106286764,0.10943094591726549
1782832055338027800,4.12402783203125,-0.03618833471238613,0.0926492037333548,0.07267814115595538
1782832055347956700,4.133956787109375,0.06338146206438541,0.12345526088550686,0.07350684249848127
1782832055357885700,4.1438857421875,0.09161679194569587,0.12402750781551003,0.07076924336128868
1782832055367814700,4.153814697265625,0.03966097925901413,0.11004764391034841,0.03565383511004038
1782832055377742600,4.16374267578125,-0.02422024902105331,0.04844342065155506,0.008088819405459798
1782832055387671800,4.173671875,-0.05180266795158386,-0.0008824819229543209,-0.010733411063533276
1782832055397600800,4.183600830078125,-0.045806057885289186,0.0277238732278347,-0.0025454421325353904
1782832055407529500,4.193529541015625,-0.04784954641163349,0.09715513685047626,0.02462280193995684
1782832055417458400,4.20345849609375,-0.17707096960842608,0.07556275211498141,0.03666442779153585
1782832055427387600,4.2133876953125,-0.3228308551520109,0.012677987526357173,0.08163317633615806
1782832055437316600,4.223316650390625,-0.27126784117519853,0.022686317452043293,0.1689473391844891
1782832055447244500,4.23324462890625,-0.12327449749112128,0.028953853414207694,0.18763698821580035
1782832055457173500,4.243173583984375,-0.07095978836417198,-0.03447247070521116,0.16917269063927232
1782832055467102500,4.2531025390625,-0.13991408212482928,-0.057076955092698334,0.18326045363200827
1782832055477031700,4.26303173828125,-0.1679635340452194,0.029495997466892004,0.26276876503499225
1782832055486960600,4.272960693359375,-0.15365736079514025,0.0520459751881659,0.2368195367968641
1782832055496889600,4.2828896484375,-0.023882395368814466,0.004078793746232986,0.14366062997570261
1782832055506818600,4.292818603515625,0.08945347643196583,-0.02146159796267748,0.03063644533944316
1782832055516747800,4.302747802734375,0.04469546629488468,0.02123728768751025,0.020641778612928464
1782832055526675700,4.31267578125,0.0158335289478302,0.0609625643543899,0.04673903245304245
1782832055536604700,4.322604736328125,-0.05171265158057212,0.06305953663364053,0.03492234706429299
1782832055546533600,4.33253369140625,-0.0673468585640192,0.06057444181963801,0.08410848040850832
1782832055556462600,4.342462646484375,-0.015709610307216643,0.03691431089937687,0.12410433591138571
1782832055566391800,4.352391845703125,0.0065974985688924785,-0.0006081950262188911,0.11412495808554812
1782832055576320800,4.36232080078125,-0.03600128770768642,0.010177987404167652,0.09106545080640353
1782832055586248700,4.372248779296875,-0.10017068527936934,0.027810966989398,0.06256352414446882
1782832055596177700,4.382177734375,-0.18338380601704118,0.05818740055263042,0.026867950518243013
1782832055606106600,4.392106689453125,-0.15065584089159964,0.08418503450974822,0.07201559472715016
1782832055616035600,4.40203564453125,-0.12747896344363688,0.052729281277209515,0.12992141555915585
1782832055625964500,4.411964599609375,-0.1441401753872633,-0.049381432154029604,0.14144701817999594
1782832055635893500,4.4218935546875,-0.09565992985665797,-0.10689604801163077,0.15520541222104803
1782832055645822500,4.431822509765625,-0.11456687490046023,-0.09897840675488113,0.16701551260538397
1782832055655751700,4.441751708984375,-0.21764555658102033,-0.07309417004436254,0.11326326322229578
1782832055665679600,4.4516796875,-0.21729367440342903,0.007077683301270008,0.06618386549951974
1782832055675608600,4.461608642578125,-0.10642623854279518,0.123385995041579,0.09744433818855322
1782832055685537500,4.47153759765625,-0.014051321706175804,0.16765782909691332,0.10475293503571301
1782832055695466500,4.481466552734375,-0.02298515426814556,0.10985592073053121,0.07026378262375947
1782832055705395700,4.491395751953125,-0.041024668827652926,0.09855185190588235,0.09143173596868291
1782832055715324700,4.50132470703125,-0.10959960788190364,0.05351677839308977,0.07550712663733866
1782832055725253600,4.511253662109375,-0.1322498311072588,-0.010358166276663541,0.0814919960334897
1782832055735181600,4.521181640625,-0.09815876093506812,-0.053308104078471655,0.08525411591283046
1782832055745110500,4.531110595703125,-0.07282441319227219,-0.03292334156706929,0.03761610249318182
1782832055755039700,4.541039794921875,-0.04979249717295169,0.031414544439315795,0.049853502078610466
1782832055764968700,4.55096875,-0.06069207684993744,0.05754501099586486,0.07916850325567647
1782832055774897700,4.560897705078125,-0.11222352664470672,0.007560352251678705,0.08972241130014881
1782832055784826600,4.57082666015625,-0.061386488854885096,0.0041489363729953765,0.09405297871720976
1782832055794755600,4.580755615234375,-0.01717851381599903,0.056362230952084064,0.16877030211715027
1782832055804683800,4.590683837890625,-0.05122457580268383,0.02783580916970968,0.14849281763881444
1782832055814612700,4.60061279296875,-0.10789981822669506,-0.03581672492101788,0.049229054603911936
1782832055824541700,4.610541748046875,-0.07361001061201095,0.04230111850425601,0.03178064693850465
1782832055834470400,4.620470458984375,-0.06467383996248245,0.1179407352477312,0.06837402792098
1782832055844399600,4.630399658203125,-0.05611643949747085,0.08584799928590654,0.05686858217217959
1782832055854328600,4.64032861328125,0.05565408268272876,0.0767785576455295,0.07318164739841596
1782832055864257500,4.650257568359375,0.13222235857844353,0.136824299415946,0.11086583755859174
1782832055874185500,4.660185546875,0.014922843843698502,0.13280834177285433,0.10250984141719527
1782832055884114400,4.670114501953125,-0.12640402768850326,0.09889920403882861,0.13339059864021838
1782832055894043600,4.680043701171875,-0.184590843719244,0.09014379678368568,0.215112695368845
1782832055903972600,4.68997265625,-0.22989655086696145,0.018963497536629438,0.2060598760697059
1782832055913901600,4.699901611328125,-0.20213000754117966,-0.06737082396149635,0.1435762761604972
1782832055923830500,4.70983056640625,-0.16253157212436198,-0.0885926218189299,0.12032560282396151
1782832055933759700,4.719759765625,-0.17454583504498003,-0.12522636221125721,0.13628606435339896
1782832055943687700,4.729687744140625,-0.1588975995361805,-0.18129735513180492,0.11367895875056273
1782832055953616600,4.73961669921875,-0.07272738255858421,-0.14362550386339426,0.06453523520939052
1782832055963545600,4.749545654296875,0.027310616251826285,-0.012243249370902777,0.01475451067262329
1782832055973474600,4.759474609375,0.06113280635476112,0.11025368787646293,0.004825228199362755
1782832055983403800,4.76940380859375,0.041453123372793194,0.2120468597911298,0.019104668706143274
1782832055993332700,4.779332763671875,0.0174544081479311,0.2550857910506427,0.02563669169023633
1782832056003261400,4.789261474609375,-0.050394554719328875,0.2044081816062331,0.004119719411665573
1782832056013189600,4.799189697265625,-0.07860650372505187,0.062211687632650135,0.039549746570037674
1782832056023118600,4.80911865234375,-0.07449614579677581,-0.0787869748584926,0.07415768935633822
1782832056033047600,4.819047607421875,-0.12368190924823283,-0.14801760134249925,0.054176119084656235
1782832056042976500,4.8289765625,-0.15589374154508112,-0.10991890296414494,0.06186966926194727
1782832056052905500,4.838905517578125,-0.13646891010701656,0.008569383163750171,0.1534403570435941
1782832056062834400,4.84883447265625,-0.1113835686892271,0.054579439188539976,0.1905741924451664
1782832056072763600,4.858763671875,-0.12961948260366915,0.06954115373790264,0.1619973373834975
1782832056082691600,4.868691650390625,-0.14251812714338302,0.068294660808146,0.13564531876444816
1782832056092620500,4.87862060546875,-0.10658347493112087,0.07189867664948105,0.14043490026169456
1782832056102549500,4.888549560546875,0.02523380997776985,0.08248962876871228,0.14362365896617993
1782832056112478500,4.898478515625,0.031789222970604894,0.03820902688503265,0.09343953212713822
1782832056122407700,4.90840771484375,-0.18777181184291838,-0.03136091455593705,0.05043271303893998
1782832056132336600,4.918336669921875,-0.23687632675170897,-0.058579907001554965,0.07917071347907186
1782832056142265600,4.928265625,-0.13339841662049293,-0.08530059453621507,0.08293219403759576
1782832056152193500,4.938193603515625,-0.08286182308197021,-0.0657610506772995,0.06212896865210495
1782832056162122500,4.94812255859375,-0.10781213994324207,0.0263284733466804,0.09451305224332027
1782832056172051700,4.9580517578125,-0.08627543091773986,0.0824006353110075,0.10862120043695904
1782832056181980700,4.967980712890625,-0.11485796680152416,0.08119520504400134,0.07778729629665612
1782832056191909600,4.97790966796875,-0.07290741530060768,0.04089841209948063,0.05896691529145464
1782832056201838600,4.987838623046875,-0.02863280476629734,0.0018931202702224253,0.02656860224548727
1782832056211767600,4.997767578125,-0.03135667677223682,0.015004092386364937,0.05346563272774219
1782832056221695700,5.00769580078125,-0.0648895285397768,0.025577216587960718,0.07915488572227768
1782832056231624700,5.017624755859375,-0.1178320141762495,0.012637070994079113,0.06330481206502299
1782832056241553700,5.0275537109375,-0.1701473078250885,0.03584755845069885,0.09703056975589133
1782832056251482400,5.037482421875,-0.21621990769207478,0.035136779832839964,0.11380272212754934
1782832056261411600,5.04741162109375,-0.1484568695425987,0.03791267428696155,0.13009047024943865
1782832056271340500,5.057340576171875,-0.058679567983746524,0.04918415601626038,0.14601393336988985
1782832056281269500,5.06726953125,-0.050481063959002495,-0.008670505450665951,0.0985897818966303
1782832056291198500,5.077198486328125,-0.04101356291174888,-0.05029153273627162,0.08892676741043105
1782832056301126400,5.08712646484375,-0.008861936369538307,-0.019490297889709473,0.06694696339308284
1782832056311055600,5.0970556640625,-0.06597790829837322,0.006294423969089985,0.02418270718937274
1782832056320984600,5.106984619140625,-0.1313391460031271,0.03793722420632839,0.026498738179937933
1782832056330913500,5.11691357421875,-0.10830664546191691,0.06186652745679021,0.09697102158837952
1782832056340842500,5.126842529296875,-0.05288987866640091,0.06192191090583801,0.11483308808859437
1782832056350771700,5.136771728515625,-0.007235211950540542,0.0487616928204894,0.07080879905354232
1782832056360700700,5.14670068359375,0.020489245799183844,0.04553454746752977,0.04378099549820181
1782832056370628600,5.156628662109375,-0.09603110125660896,0.0393745635330677,0.04802464725021273
1782832056380557600,5.1665576171875,-0.19864976420998573,0.01987272133603692,0.08160181308351457
1782832056390486500,5.176486572265625,-0.1900800887852907,-0.004969751236587763,0.11359908931422978
1782832056400415700,5.186415771484375,-0.18695289667546747,-0.05033332605138421,0.074126938025048
1782832056410344700,5.1963447265625,-0.06805296100676059,-0.04703735324591398,0.030876998929935506
1782832056420273700,5.206273681640625,0.0563233602464199,0.038525399357825514,0.04954586546812206
1782832056430202400,5.216202392578125,0.0184346513569355,0.09016396278887986,0.07243456449131482
1782832056440130600,5.226130615234375,-0.14463935708105563,0.07395809339731932,0.07982393495710566
1782832056450059800,5.236059814453125,-0.16671674885451793,0.07859525167867541,0.13293869015425444
1782832056459988500,5.245988525390625,-0.0439496163636446,0.054084787539392706,0.14504809314557351
1782832056469917400,5.25591748046875,0.00693944387435913,-0.022702099543064833,0.08014744955673814
1782832056479846400,5.265846435546875,0.06494564264118671,-0.04049772234410047,0.08934925800566561
1782832056489775600,5.275775634765625,0.04905307698249817,0.03377952000498771,0.13875329471714795
1782832056499704600,5.28570458984375,-0.05988426759839058,0.08615458101704716,0.10965789567409083
1782832056509632500,5.295632568359375,-0.11798340534567832,0.11710559959784149,0.1393773540327791
1782832056519561500,5.3055615234375,-0.12353577877581119,0.1028092170894146,0.18566935967095194
1782832056529490400,5.315490478515625,-0.1210690964013338,-0.007179390110075473,0.2014873074571602
1782832056539419600,5.325419677734375,-0.09891279417276382,-0.1201934826105833,0.16894048931859432
1782832056549348600,5.3353486328125,-0.030741759744286536,-0.15233882554247974,0.14329361416106112
1782832056559277600,5.345277587890625,-0.04849661214351654,-0.15062486123144625,0.06674374157171696
1782832056569206500,5.35520654296875,-0.08761281700134277,-0.08932619679048658,0.009066135438438504
1782832056579134500,5.365134521484375,-0.061111179044842714,0.04980228791460395,0.023371541503537444
1782832056589063700,5.375063720703125,-0.12341770535409449,0.11471505119949578,0.0011323741639498622
1782832056598992600,5.38499267578125,-0.1392956579655409,0.14059855725765227,-0.01664451653715223
1782832056608921600,5.394921630859375,-0.044990065327286714,0.1785955488272011,0.007944958521937951
1782832056618850600,5.4048505859375,-0.0670505059659481,0.1497995163232088,0.028204816012037916
1782832056628779800,5.41477978515625,-0.15907178705930708,0.009198036456108092,-0.0011257069611456244
1782832056638708500,5.42470849609375,-0.1966284875154495,-0.09628113049492239,0.04169200559600722
1782832056648636700,5.43463671875,-0.17821897059977054,-0.08033142782151699,0.17986158670764416
1782832056658565600,5.444565673828125,-0.11588146463036536,-0.03489098837822675,0.20117091671805828
1782832056668494300,5.454494384765625,-0.08317688038051128,-0.022343056972324846,0.13416052356678992
1782832056678423600,5.464423583984375,-0.08723521586060523,0.043826720636337996,0.12253527823006734
1782832056688352500,5.4743525390625,-0.103310152348876,0.08386924655884503,0.1519615714616142
1782832056698281500,5.484281494140625,-0.17863398114144802,0.05734890390187502,0.14187736328812314
1782832056708210400,5.49421044921875,-0.17366671412289142,0.03823869137093425,0.14353214475782589
1782832056718139600,5.5041396484375,-0.05374503419101238,0.03238645821139216,0.18326186013780532
1782832056728067600,5.514067626953125,0.012869418445229529,-0.029560441005229948,0.15146268202876673
1782832056737996500,5.52399658203125,0.004828150808811187,-0.09681815998107195,0.09935475665344856
1782832056747925500,5.533925537109375,-0.021288287222385405,-0.0600869505636394,0.10732680411171168
1782832056757854500,5.5438544921875,0.011693944925069808,0.037499855702370403,0.13619729009140283
1782832056767783700,5.55378369140625,-0.01587912165522575,0.061317953663319345,0.011744611099804752
1782832056777712600,5.563712646484375,-0.012895721930265426,0.09898965880125761,-0.02384433294732589
1782832056787641600,5.5736416015625,0.021311083576083183,0.16767214988321064,0.05780769878635183
1782832056797569500,5.583569580078125,-0.04702770863473415,0.14620616800636052,0.06568835990042425
1782832056807498800,5.593498779296875,-0.12114040807187557,0.038391251584142444,0.05319132299812045
1782832056817427700,5.603427734375,-0.10066402175426482,-0.053215018967539066,0.06764136169829871
1782832056827356700,5.613356689453125,-0.1238274551987648,-0.12286445538550615,0.04160907198633067
1782832056837285600,5.62328564453125,-0.232944832521677,-0.11271510955393314,0.04982317087242845
1782832056847214300,5.63321435546875,-0.2113859116643667,0.010151830049604177,0.16760905805174262
1782832056857143600,5.6431435546875,-0.10463117181956767,0.08284194933772086,0.15752232912760228
1782832056867071700,5.65307177734375,-0.20546295135617254,0.027236381971836088,0.042154271079204046
1782832056877000400,5.66300048828125,-0.2051508166670799,0.03340659503936767,0.10387600607071071
1782832056886929400,5.672929443359375,-0.03800912039875984,0.1066248298548162,0.14157171313874423
1782832056896858600,5.682858642578125,-0.033871874463558195,0.08443988605365156,0.058836128518637267
1782832056906787600,5.69278759765625,-0.168753223118186,0.010854133100062608,0.04279295714180916
1782832056916716500,5.702716552734375,-0.18009645490944384,-0.01731003124117851,0.09537582481880671
1782832056926645500,5.7126455078125,-0.07009001979231834,-0.010315203917771578,0.07983983577913605
1782832056936573400,5.722573486328125,0.004107435318827629,-0.0006935352221131325,0.04789618486522231
1782832056946502700,5.732502685546875,0.031198855862021445,0.026178835742920636,0.058350148799712766
1782832056956432100,5.74243212890625,0.008540449330210685,0.07663958756625652,0.06700588593950961
1782832056966361300,5.752361328125,-0.04715104275345802,0.125900023689121,0.0730593270598445
1782832056976290300,5.762290283203125,-0.1387146432071924,0.12136413382515311,0.09954501852854154
1782832056986219300,5.77221923828125,-0.1208428864300251,0.06011018530875444,0.11198323334911837
1782832056996148200,5.782148193359375,-0.017892799565196037,0.017874240995198486,0.12043571213493123
1782832057006076200,5.792076171875,-0.0005985504150390625,-0.021516104628890753,0.09131165325297042
1782832057016005400,5.80200537109375,-0.07119593520760535,-0.03975099563002586,0.025695874531567096
1782832057025934300,5.811934326171875,-0.0934843393832445,0.01395166072398424,0.02515643389262259
1782832057035863000,5.821863037109375,-0.06594049889743328,0.06365428765639662,0.0575889688686002
1782832057045792000,5.8317919921875,-0.06713116998672485,0.06453998444974422,0.07756853897944092
1782832057055721200,5.84172119140625,-0.05611351688802242,0.07272460607960819,0.09017620121594518
1782832057065650200,5.851650146484375,-0.10673077444732189,0.07625000372678041,0.09805549235683865
1782832057075578000,5.861578125,-0.14911679475605488,0.03709989659935236,0.09647366652549244
1782832057085507000,5.871507080078125,-0.08585691324472428,0.011974223171174525,0.10550765325999818
1782832057095436000,5.88143603515625,-0.02366261513829231,0.008732172510027884,0.08576578262886032
1782832057105365200,5.891365234375,-0.06850654999315739,-0.0009475099831819534,0.06310608375568408
1782832057115294200,5.901294189453125,-0.22015140192210672,-0.0014971066899597645,0.08361226698993705
1782832057125223200,5.91122314453125,-0.23561025233864782,0.043621991844475266,0.139129343221616
1782832057135152000,5.921152099609375,-0.0998632267653942,0.11358926203995942,0.19117846021493895
1782832057145081300,5.931081298828125,0.004549333867430686,0.15535861175507307,0.19174217677861452
1782832057155009300,5.94100927734375,-0.04350245711803436,0.14003756237402556,0.15436328057479112
1782832057164938200,5.950938232421875,-0.15538637654483317,0.07386150115504861,0.18965654787728561
1782832057174867200,5.9608671875,-0.17602175281643867,-0.02523556354343891,0.1747713691628538
1782832057184796200,5.970796142578125,-0.15495616843402385,-0.14339242575988173,0.09343329418259673
1782832057194725400,5.980725341796875,-0.11454349402487277,-0.1946624481394887,0.05279148719268851
1782832057204654300,5.990654296875,-0.06969196038544177,-0.12468801755085587,0.03231160287689418
1782832057214583000,6.0005830078125,-0.030880291432142257,0.0042258010014891625,-0.02835748582310043
1782832057224511200,6.01051123046875,0.0008083937734365463,0.17919307632893322,-0.013249741266015917
1782832057234440200,6.020440185546875,0.0046212300598621366,0.27321356841549277,0.014703045346867291
1782832057244369200,6.030369140625,-0.032173838374018666,0.20273703352361916,0.002528404232766479
1782832057254298000,6.040298095703125,-0.09681728319823742,0.07577142642959953,-0.013933723208494484
1782832057264227000,6.05022705078125,-0.09609072248935699,-0.04789937690272927,0.010313322487939149
1782832057274156000,6.060156005859375,-0.07328326287567614,-0.08133826677650213,0.06372542579700238
1782832057284085200,6.070085205078125,-0.0964303297072649,-0.08541267660856247,0.13396323829586618
1782832057294013200,6.08001318359375,-0.11604220815002918,-0.09981953375414013,0.14093003596803172
1782832057303942100,6.089942138671875,-0.16665537405610084,-0.10343670133799314,0.09307943011047318
1782832057313871000,6.09987109375,-0.21010405516028402,-0.03144070179387927,0.11514746953370049
1782832057323800000,6.109800048828125,-0.09810147778987884,0.11573927968069911,0.16233126377929
1782832057333729300,6.119729248046875,-0.01618774921298027,0.17023966228365897,0.1598940632276237
1782832057343658200,6.129658203125,0.02021452051103115,0.13378084006682037,0.14363663717876188
1782832057353587200,6.139587158203125,0.013607085070014,0.07804857758134603,0.11549358869078569
1782832057363515100,6.14951513671875,-0.02789163101017475,0.06350172744318842,0.0788248500503134
1782832057373444400,6.1594443359375,-0.07998889799416065,0.08443652505278587,0.08320643526855856
1782832057383373300,6.169373291015625,-0.14109715442955492,0.06083937636613845,0.04992426119330339
1782832057393302300,6.17930224609375,-0.16733868014514444,0.008048574160039424,0.060157412850810214
1782832057403231200,6.189231201171875,-0.1530938816934824,-0.028974165549874305,0.08190980132045224
1782832057413160200,6.19916015625,-0.14002689484953879,-0.08641980782449245,0.06438175254757515
1782832057423089200,6.209089111328125,-0.08532324475944042,-0.023954437691718337,0.09261939311698078
1782832057433017300,6.219017333984375,-0.004378068953752518,0.10757555470839142,0.12843267483874224
1782832057442946300,6.2289462890625,-0.06551379791796207,0.16495763022750615,0.09466262591499834
1782832057452875300,6.238875244140625,-0.08500409580767154,0.16589476494714617,0.0679670454221312
1782832057462804200,6.24880419921875,-0.061791562524437904,0.14127265712693332,0.04634337963238358
1782832057472733200,6.258733154296875,-0.05436988809108734,0.026834961564093828,0.02758421816197224
1782832057482662100,6.268662109375,-0.09289747940599918,-0.053673868650943035,0.042693803049693814
1782832057492591000,6.278591064453125,-0.11287877568304538,-0.01020092988833785,0.09665075839175842
1782832057502520000,6.28852001953125,-0.1286205346941948,0.03411138230785727,0.13599127352475188
1782832057512448300,6.2984482421875,-0.11349135462343692,0.029952362932264803,0.121857269370649
1782832057522377200,6.308377197265625,-0.10137480037212371,0.02424216859191656,0.1155420766081661
1782832057532306200,6.31830615234375,-0.07369242819845676,0.009996931748837232,0.11293812292115762
1782832057542235100,6.328235107421875,-0.06204582954645157,-0.0044447044491767885,0.11666936360504478
1782832057552164400,6.338164306640625,-0.08065116129517555,-0.002779401585459709,0.07637700937362388
1782832057562093300,6.34809326171875,-0.06215630418360233,0.048034401459246874,0.054826765013113614
1782832057572022300,6.358022216796875,-0.07277122170031071,0.09117124013528227,0.053047425581980494
1782832057581950200,6.3679501953125,-0.06258943490386008,0.09032938248366117,0.09713476078272797
1782832057591879200,6.377879150390625,-0.020070143604278563,0.027203941006958485,0.053246026027156036
1782832057601808400,6.387808349609375,-0.0663747986614704,-0.016568419093638657,-0.018829623757582157
1782832057611737300,6.3977373046875,-0.10649638116955756,0.031028175470232962,-0.02037355156422127
1782832057621666300,6.407666259765625,-0.1106990935564041,0.09849529941305518,0.07490442520356737
1782832057631595000,6.417594970703125,-0.12661504009068011,0.08113251507133246,0.13236711907768622
1782832057641524200,6.427524169921875,-0.05823533134758472,0.034628538049757476,0.10727258057328871
1782832057651452400,6.437452392578125,-0.07793956424891949,0.0007106324873864651,0.0738815301629249
1782832057661381000,6.447381103515625,-0.1323842711418867,0.017301263412833213,0.08434292848519981
1782832057671310000,6.45731005859375,-0.1352642104923725,0.0476410182274878,0.11200825819252058
1782832057681239000,6.467239013671875,-0.12006605683863163,0.025157529871165752,0.08152511285180225
1782832057691168300,6.477168212890625,-0.041352585607767105,-0.009588497078418731,0.03262816257935483
1782832057701097200,6.48709716796875,-0.016515665993094442,-0.015967968982458114,0.028955104656377805
1782832057711026200,6.497026123046875,-0.11333353371322154,-0.002155132207274437,0.016306795315654016
1782832057720954000,6.5069541015625,-0.11225859795808792,0.0605433160290122,0.046159721028013155
1782832057730883000,6.516883056640625,-0.0472346293836832,0.1267161623775959,0.08383999306489713
1782832057740812300,6.526812255859375,-0.05302314965724945,0.09839417712613939,0.049120114336721594
1782832057750741200,6.5367412109375,-0.07387187641859054,0.06118526719436049,0.034998439941229295
1782832057760670200,6.546670166015625,-0.057577744221687314,0.07520546310991048,0.10715595932314172
1782832057770599200,6.55659912109375,-0.0023678981751203538,0.10179653291553259,0.14929565845429896
1782832057780528400,6.5665283203125,-0.028092706540226935,0.08141264718696474,0.16398599045006557
1782832057790457300,6.576457275390625,-0.15090543173849583,-0.010757102466374634,0.12729658348090014
1782832057800385300,6.58638525390625,-0.1791623889297247,-0.07142799039781093,0.13491788127273321
1782832057810314200,6.596314208984375,-0.0970920084863901,-0.0631627047471702,0.16590857427679
1782832057820243200,6.6062431640625,-0.1347106682628393,-0.10372253254204988,0.10122560115978121
1782832057830172400,6.61617236328125,-0.22324936793744563,-0.10610855089575051,0.08455010496247559
1782832057840101000,6.62610107421875,-0.14099544762074948,0.028809914898872375,0.12598245954187587
1782832057850030000,6.636030029296875,-0.04404606247544288,0.09354162252843379,0.07340519505518023
1782832057859959000,6.645958984375,-0.009361702585220337,0.07227744683399796,-0.003315778051060624
1782832057869887200,6.65588720703125,0.010607318732142448,0.06648600395098328,-0.019110778786521405
1782832057879816200,6.665816162109375,0.017865911558270452,0.05667933407723903,-0.01585549418446608
1782832057889745200,6.6757451171875,-0.10756839431524276,-0.008982494009286164,-0.043460229978081764
1782832057899674000,6.685674072265625,-0.2036100169658661,-0.04997326056733727,-0.014872890055016614
1782832057909603000,6.69560302734375,-0.12558043634593485,-0.016774316929280757,0.06644897357595618
1782832057919532300,6.7055322265625,-0.14976678309738636,0.02607902863025665,0.10346225590435787
1782832057929461200,6.715461181640625,-0.20382629006505013,0.015334054993093012,0.12213392175440675
1782832057939389200,6.72538916015625,-0.11502046388685702,-0.003202741564065218,0.16854717915207146
1782832057949318100,6.735318115234375,-0.07896481564342975,-0.009894055896252392,0.13683607205213047
1782832057959247600,6.74524755859375,-0.15784370656907556,-0.0558095655053854,0.09732928784098475
1782832057969176800,6.7551767578125,-0.18848375950455665,-0.029887627132982014,0.14993852293509988
1782832057979105800,6.765105712890625,-0.06410860729515552,0.04911942021697759,0.18824322874695062
1782832057989034800,6.77503466796875,0.01405365979373455,0.06160261582359671,0.1736202628989704
1782832057998963700,6.784963623046875,0.003149403941631317,0.03807458685040474,0.16634382388889787
1782832058008892700,6.794892578125,-0.01132744970023632,0.01265109951943159,0.13254382735146208
1782832058018820900,6.80482080078125,-0.09091127402484417,0.003256809838861227,0.048871413972391746
1782832058028749800,6.814749755859375,-0.173880064612627,0.011755758114904164,0.04036720956591889
1782832058038678500,6.824678466796875,-0.126620885309577,0.05535217712670564,0.08108029169375076
1782832058048607500,6.834607421875,-0.04654547807574272,0.08084273834452033,0.07753951381435617
1782832058058536700,6.84453662109375,-0.012111878076195716,0.11301979158893227,0.08208457336546852
1782832058068465700,6.854465576171875,-0.025860417443513868,0.10440569250062108,0.09701181938964873
1782832058078394600,6.86439453125,-0.12035071899890899,0.04578443057537079,0.09979191509485244
1782832058088322600,6.874322509765625,-0.12789397398531435,0.027668782039731738,0.10338499855021946
1782832058098251800,6.884251708984375,-0.051747138372063635,0.04135696952193975,0.04317385078475345
1782832058108180700,6.8941806640625,-0.09077741851210594,0.04955079737156629,0.029978104728297327
1782832058118109700,6.904109619140625,-0.11331950518786907,0.07551423679813742,0.09254201703183353
1782832058128038700,6.91403857421875,-0.1462175661832094,0.08393471301048994,0.09143146197404711
1782832058137967600,6.923967529296875,-0.20239596500098705,0.025557342843711375,0.06406875477537978
1782832058147896800,6.933896728515625,-0.09583294833600521,0.01613265802487731,0.07846419091122224
1782832058157824800,6.94382470703125,0.0037070378243923186,0.053677375782281156,0.06558447483426426
1782832058167753700,6.953753662109375,-0.04995148712694645,0.0692431937046349,0.003845071755326353
1782832058177682700,6.9636826171875,-0.16077391480207442,0.09632117024436593,0.030676028431160372
1782832058187612000,6.97361181640625,-0.21432196511626242,0.11352627980634569,0.13268743707323447
1782832058197540900,6.983540771484375,-0.14097498935461045,0.037043928628414866,0.16085841474775223
1782832058207469800,6.9934697265625,-0.011909048980474471,-0.07530395504832267,0.0822290507369209
1782832058217398500,7.0033984375,0.0030529578298330307,-0.12201207633987068,0.02037197152848821
1782832058227327500,7.013327392578125,-0.03856207810640335,-0.03445522730946541,0.03837156506956089
1782832058237256000,7.023255859375,-0.03797288004159927,0.08989405980631708,0.06936727217545267
1782832058247184600,7.0331845703125,-0.06788578774631022,0.09578107201829553,0.03673944295623805
1782832058257113600,7.043113525390625,-0.046748307171463964,0.07019815634191036,0.03813169646565802
1782832058267042600,7.05304248046875,0.01925239748060703,0.09943871774300932,0.06603023214065469
1782832058276971800,7.0629716796875,-0.057466100540757174,0.12014540568515658,0.06392744660854804
1782832058286900700,7.072900634765625,-0.13158464519679547,0.10045783165767788,0.06469404250029474
1782832058296829700,7.08282958984375,-0.10925415544509887,0.059839843934774394,0.06406121535631827
1782832058306757600,7.092757568359375,-0.12862228825986385,0.012956950598210096,0.047702904482558366
1782832058316686600,7.1026865234375,-0.1294265903800726,-0.01276376611366868,0.07986872394690289
1782832058326615800,7.11261572265625,-0.07357610834240913,-0.010852087273448704,0.13387617193376644
1782832058336544800,7.122544677734375,-0.05927285770177841,0.00978372738957405,0.14583908825963735
1782832058346473700,7.1324736328125,-0.1010486371576786,0.004963029234856367,0.06762443339638412
1782832058356402700,7.142402587890625,-0.10220832858681678,0.025398499020189046,0.03841817612368613
1782832058366332000,7.152331787109375,-0.05788169560432434,0.06800941412597894,0.07311485663936473
1782832058376259800,7.162259765625,-0.04274199413955211,0.07479279065579175,0.11470444760709068
1782832058386188800,7.172188720703125,-0.010694412493705749,0.034924890647828576,0.08355426232554018
1782832058396117800,7.18211767578125,-0.0385772756755352,0.031631986582279205,0.02830399293703958
1782832058406046700,7.192046630859375,-0.13165771043300628,0.07716244239658117,0.08369984480869025
1782832058415976000,7.201975830078125,-0.12564239566624164,0.09183423408865928,0.1484780036621727
1782832058425904600,7.211904541015625,-0.05121405440866947,0.07199293080419301,0.107874327592412
1782832058435833600,7.22183349609375,0.009192191237211227,0.0667966773353517,0.08917334431633353
1782832058445762600,7.231762451171875,-0.018870120164752004,0.05488324444070458,0.11624231556570157
1782832058455690500,7.2416904296875,-0.07680734534859657,0.04670183768123388,0.1082771819054149
1782832058465619700,7.25161962890625,-0.11400105771124362,0.025835867524147033,0.112152233240474
1782832058475548700,7.261548583984375,-0.10403612853586673,-0.011842705745995044,0.1319096759000793
1782832058485477600,7.2714775390625,-0.0568377395093441,-0.06051029054224491,0.080425700242538
1782832058495406600,7.281406494140625,-0.10077157378196716,-0.09560615384280681,-0.004128774934378452
1782832058505335800,7.291335693359375,-0.18474574202001093,-0.04606529334336519,0.016989366185758262
1782832058515264800,7.3012646484375,-0.1674240203410387,0.05459902067184448,0.07067297534600366
1782832058525192700,7.311192626953125,-0.04941840316355228,0.07533771118745207,0.04470426608927082
1782832058535121700,7.32112158203125,0.04732815288603306,0.06083981475755572,-0.004049585918057709
1782832058545050600,7.331050537109375,0.028984102421998975,0.07809300124496221,0.026525406991154885
1782832058554979800,7.340979736328125,-0.052640287819504736,0.0860056740656495,0.055794509500148706
1782832058564908800,7.35090869140625,-0.07803834844827652,0.05874795704483986,0.005277602476207539
1782832058574837800,7.360837646484375,-0.09338497066199779,0.04506751447767019,-0.0021341579179046674
1782832058584766700,7.3707666015625,-0.165946349003911,0.0176481771543622,0.03228572180025512
1782832058594695700,7.38069580078125,-0.17341303162276744,-0.011025105752795934,0.0878574759447947
1782832058604624000,7.390623779296875,-0.09096446551680565,-0.024066958155483004,0.1099548327940516
1782832058614552800,7.400552734375,-0.125936410176754,-0.06487915327623486,0.09365182317094876
1782832058624481800,7.410481689453125,-0.21081249569058416,-0.05446136576682329,0.1763748588367365
1782832058634410500,7.420410400390625,-0.13352525787055491,0.014690058001130818,0.2568389365945943
1782832058644339700,7.430339599609375,-0.14927812279760835,0.013654723604023455,0.13402019264749251
1782832058654268700,7.4402685546875,-0.16989128723740576,-0.0034660686753690243,0.06036708724584896
1782832058664197600,7.45019775390625,-0.049958501389622684,0.05392828180342912,0.10247405771776102
1782832058674125600,7.46012548828125,-0.005061375042796135,0.07814604660645127,0.08615646244687959
1782832058684054500,7.470054443359375,-0.0788490803092718,0.011909779632836579,0.029770896284980697
1782832058693983700,7.479983642578125,-0.0430956298828125,0.013115502160787582,0.07854788713930175
1782832058703912700,7.48991259765625,0.02802197939157486,0.0009222294114530086,0.12062407431388274
1782832058713841700,7.499841552734375,0.019659224715828896,-0.07579641474038362,0.0905718220705632
1782832058723770600,7.5097705078125,0.003141805157065391,-0.092114512334764,0.049093893050076436
1782832058733699800,7.519699951171875,-0.022638532787561415,-0.0006213467687368392,0.035825602347217496
1782832058743628800,7.52962890625,-0.09893266791701316,0.09069704675227402,0.06414091126271523
1782832058753556700,7.539556640625,-0.09472878648638725,0.09826879718080163,0.07625038731927052
1782832058763485700,7.549485595703125,-0.08406126199960708,0.016357991213351488,0.043913905729446555
1782832058773414700,7.55941455078125,-0.15051672468185423,-0.07007949839830398,0.05228094385466538
1782832058783343900,7.56934375,-0.15558336042165755,-0.046550592642277476,0.0915344930902589
1782832058793272800,7.57927294921875,-0.06215045896470547,0.004048252477496862,0.0961063584499061
1782832058803201800,7.589201904296875,-0.10458382554650306,0.025292408297210932,0.05879397901049815
1782832058813130500,7.599130615234375,-0.24678864895701408,-0.0026272797636687755,0.08756514193471521
1782832058823058700,7.60905859375,-0.23854689031243323,-0.009743103118240833,0.19010014519263058
1782832058832988000,7.61898779296875,-0.04913491004705429,0.00018368600383400916,0.11823885967778042
1782832058842916600,7.62891650390625,0.014074702581763267,-0.00303337634652853,0.0006670856066048145
1782832058852845600,7.638845458984375,-0.07802256635725498,0.0429964072920382,0.054279186733486126
1782832058862774500,7.6487744140625,-0.10326046798825263,0.05736629342809319,0.15245863426355644
1782832058872703700,7.658703857421875,-0.05740589478611946,-0.03268193402662873,0.0915659933402203
1782832058882632700,7.6686328125,-0.0917114844918251,-0.12387597051560878,-0.029645361076015977
1782832058892561700,7.678561767578125,-0.09741524909138678,-0.06314297713339329,0.0007767930587753653
1782832058902489600,7.688489501953125,-0.11769698961973189,0.07635346410125493,0.056673959215800276
1782832058912418600,7.69841845703125,-0.09764730428159236,0.15790551975890993,0.08081742124017327
1782832058922347800,7.70834765625,-0.010418518161773681,0.16684490527883172,0.10208797187646851
1782832058932276700,7.71827685546875,0.0256499895632267,0.10813055824264883,0.0991563206050545
1782832058942205700,7.728205810546875,-0.06887655234932899,-0.03873509658575058,0.041259632927575146
1782832058952134700,7.738134765625,-0.12202654325664043,-0.08245616489052772,-0.004665046368702314
1782832058962062300,7.748062255859375,-0.1223585516899824,0.00547463201880455,0.023301467375434003
1782832058971990300,7.757990234375,-0.1446416951686144,0.04804579963609576,0.06681552816629409
1782832058981919500,7.76791943359375,-0.10545710124969482,0.03475333347320556,0.08650277340020984
1782832058991848400,7.777848388671875,-0.010250760379433631,0.046884208510816094,0.079429309616331
1782832059001777400,7.78777734375,-0.027641455641388892,0.08584829154685139,0.12299971740404143
1782832059011706400,7.797706298828125,-0.08216215038001537,0.0321551336735487,0.10761656257221475
1782832059021635600,7.807635498046875,-0.09948094944953918,-0.0638221915692091,0.05946530240080319
1782832059031564500,7.817564453125,-0.021107669958472252,-0.022873072195798157,0.034133397776843044
1782832059041493500,7.827493408203125,-0.0084440032184124,0.08104629809260368,0.028585846652300094
1782832059051421400,7.83742138671875,-0.062195467150211334,0.08176905940920114,0.030606534258369355
1782832059061350400,7.847350341796875,-0.027896891707181928,0.09042962798774241,0.048576728175021705
1782832059071279600,7.857279541015625,-0.0010053776502609252,0.10963482532575726,0.08069487257273868
1782832059081208600,7.86720849609375,-0.09222411018908024,0.09669263390526175,0.15264879567394962
1782832059091137500,7.877137451171875,-0.14303893614709376,0.05420461452677846,0.17352692205971107
1782832059101066200,7.887066162109375,-0.11309680234789847,-0.012187427530437707,0.1468795828890521
1782832059110995500,7.896995361328125,-0.11462357352375983,-0.1035471759751439,0.0645361302585341
1782832059120923400,7.90692333984375,-0.19694412933588026,-0.09014671939313411,0.09646448770519346
1782832059130852400,7.916852294921875,-0.23830665181577204,-0.04760696982741355,0.14406027855146675
1782832059140781300,7.92678125,-0.07552022814750671,0.020910978342592715,0.1624519675495103
1782832059150710300,7.936710205078125,0.061979194051027295,0.010505319662392138,0.08064524301104248
1782832059160639500,7.946639404296875,0.06669511665701866,-0.03079100571349263,0.0008265778840985149
1782832059170568400,7.956568359375,-0.021190672066807744,-0.011669102744758129,0.023628932064399123
1782832059180497400,7.966497314453125,-0.15942191567122935,0.024426731378585097,0.007612845057318918
1782832059190426400,7.97642626953125,-0.21131810712516308,0.0023535773888230323,0.002723063721763901
1782832059200354300,7.986354248046875,-0.11599135474562644,-0.0008846738800406456,0.014465592462336644
1782832059210283500,7.996283447265625,-0.0152495915800333,0.010719839195907115,0.009273960369685664
1782832059220212500,8.00621240234375,-0.06495967116653918,0.0022816811963915825,0.02579862708656583
1782832059230141400,8.016141357421875,-0.15233341871500014,0.026191256833076475,0.04054930640086531
1782832059240070400,8.0260703125,-0.17879764727056024,0.04808496260270476,0.08292766399295069
1782832059249999600,8.03599951171875,-0.2101268515139818,0.0295135331235826,0.09294663404366
1782832059259928600,8.045928466796875,-0.17927227904498577,-0.020708733768761155,0.08213732646601274
1782832059269856500,8.0558564453125,-0.07309095517396927,-0.005493044458329677,0.14285356964282692
1782832059279785500,8.065785400390626,-0.042696985954046245,0.03466390162408352,0.1688654147883877
1782832059289714400,8.07571435546875,-0.04042378032505512,-0.008912935904413461,0.10591462662569247
1782832059299643400,8.085643310546875,-0.06559037028551101,0.004572860873490571,0.06057636891524307
1782832059309572400,8.095572265625,-0.09263093742430209,0.06085092067345976,0.10750859955255873
1782832059319501300,8.105501220703125,-0.08008592862784862,0.00890489872843027,0.06620376664323266
1782832059329430300,8.11543017578125,-0.04979191265106201,-0.009740911161154508,0.0453355040643597
1782832059339358500,8.1253583984375,-0.015156068077683448,0.03311798735633492,0.07116787359032314
1782832059349287400,8.135287353515626,0.0061585226297378535,0.05859042839556932,0.06822331260498612
1782832059359216400,8.14521630859375,0.0907312412828207,0.06163929457217455,0.061884437572816385
1782832059369145300,8.155145263671875,0.0396796839594841,0.0961664180740714,0.036531595192104575
1782832059379074300,8.16507421875,-0.09037117579877375,0.0726125240072608,0.04481870451548602
1782832059389003500,8.17500341796875,-0.1468757378309965,0.03893734115958213,0.05845500198025256
1782832059398932500,8.184932373046875,-0.0974888988494873,0.06771496122404932,0.08807265306543559
1782832059408861400,8.194861328125,-0.09052081340253353,0.06613382951244712,0.11972907996922731
1782832059418789400,8.204789306640626,-0.10939619426429271,-0.00018178630769252776,0.09758929048404097
1782832059428718600,8.214718505859375,-0.2007896988481283,-0.051857320748269556,-0.0031419878201559186
1782832059438647600,8.2246474609375,-0.3115180184990167,-0.04552709481343627,0.029733920708880757
1782832059448576500,8.234576416015624,-0.21339842053055763,0.04811667291522026,0.1932512113683857
1782832059458505500,8.24450537109375,-0.02269289332330227,0.06853109991252422,0.1772506735568866
1782832059468434400,8.254434326171875,-0.019169979894161224,0.017490502374619243,0.038925061633321455
1782832059478363400,8.26436328125,-0.11248071627616882,0.04174363075196743,0.05730837096208706
1782832059488292400,8.274292236328124,-0.11333236466944217,0.0671126114167273,0.13086129022515378
1782832059498220500,8.284220458984375,-0.08740823433995247,-0.012799714209884405,0.07914683941313996
1782832059508149500,8.2941494140625,-0.10729892972409724,-0.07695391421243548,0.0037566034540068355
1782832059518078500,8.304078369140624,0.004154197070002556,0.0025524609617888928,0.06947382868931162
1782832059528007400,8.31400732421875,0.08642740660905837,0.09859700622186064,0.08586491388808935
1782832059537936400,8.323936279296875,-0.05932137301862239,0.1130928568251431,0.0042528534051962195
1782832059547865300,8.333865234375,-0.21747487618923186,0.0660648559294641,0.018770075590070337
1782832059557794300,8.343794189453124,-0.11684417218267917,0.07557093542143702,0.07497522541745566
1782832059567722500,8.353722412109375,-0.0035100539475679394,0.07830635173469781,0.09039762541428208
1782832059577651500,8.3636513671875,-0.002301262679696083,0.00737169781178236,0.03811128843186889
1782832059587580400,8.373580322265624,-0.015158406165242194,-0.015987696596235036,0.04729890852523967
1782832059597509400,8.38350927734375,-0.05293021067678928,0.05524170248955488,0.07749982112478464
1782832059607438600,8.3934384765625,-0.10539046575427055,0.09001812457740306,0.06307982136984355
1782832059617367600,8.403367431640625,-0.12998188617527484,0.07367781515121459,0.04322186377809848
1782832059627296500,8.413296630859374,-0.12151567112505435,0.035559535289555785,0.044569524660543536
1782832059637225500,8.4232255859375,-0.0893628755390644,0.018519260900467634,0.04650066625305917
1782832059647153400,8.4331533203125,-0.07978665342032909,0.026427403676509857,0.06754850948280655
1782832059657082600,8.44308251953125,-0.088578447163105,0.031630817538499834,0.08902911354005336
1782832059667011600,8.453011474609376,-0.10998130067586898,0.029847733514010905,0.10264092958411201
1782832059676940500,8.4629404296875,-0.06541033754348755,0.04403159555867314,0.07868689375119284
1782832059686869500,8.472869384765625,-0.023739187505841253,0.07649521065950393,0.04272066822373308
1782832059696798500,8.482798583984374,-0.033441081830859185,0.1015988183863461,0.029774773309077133
1782832059706727400,8.4927275390625,-0.017061024916172028,0.144924019241333,0.07218158981066662
1782832059716655600,8.502655517578125,-0.05430149902999401,0.15499840014055372,0.12208159791212528
1782832059726584300,8.512584228515625,-0.07675415385663509,0.09980389779359101,0.15335545523911714
1782832059736513300,8.52251318359375,-0.07565525270402432,-0.006166559805721044,0.13040861455420963
1782832059746442500,8.5324423828125,-0.1609621308505535,-0.10339198541343211,0.08697693025059998
1782832059756371500,8.542371337890625,-0.1767518206566572,-0.13280834177285433,0.05627768534063361
1782832059766300400,8.552300537109375,-0.1473936242252588,-0.10708367953822016,0.06679703809495549
1782832059776229400,8.5622294921875,-0.11029518893063067,-0.07807692689299583,0.0796270972107537
1782832059786158600,8.57215869140625,-0.046318683582544325,-0.011591361333429813,0.06972719609560445
1782832059796086500,8.58208642578125,-0.01883504885137081,0.0479657201372087,0.024029553321120327
1782832059806015500,8.592015380859374,0.0038853170007467266,0.11080606106221676,-0.0002332014010986313
1782832059815944400,8.6019443359375,-0.0329477453559637,0.11501374188512563,-0.011815931903501041
1782832059825873400,8.611873291015625,-0.06339549058973788,0.049209728848934174,-0.022662731080478987
1782832059835802600,8.621802734375,-0.04877192195355892,-0.024853286227583885,-0.04747321477937512
1782832059845731600,8.631731689453124,-0.07125204930901527,-0.04859451956003904,-0.07140892950431443
1782832059855660500,8.64166064453125,-0.12967208957374096,-0.025758710634708405,-0.029948511024343313
1782832059865589500,8.651589599609375,-0.21995441804528235,0.006829992150515317,0.07210055589713156
1782832059875517400,8.661517333984374,-0.256108265966177,0.02296396534964442,0.19743174845604225
1782832059885446700,8.67144677734375,-0.1832259851068258,-0.05317556373998522,0.19358279967661945
1782832059895375600,8.681375732421875,-0.17692951531112194,-0.11711553646996617,0.13452690006061457
1782832059905304300,8.69130419921875,-0.15408172368705272,-0.0467391009517014,0.0708537067743484
1782832059915233300,8.7012333984375,-0.06786649852395057,0.09957885686606169,0.06331907805239316
1782832059925162500,8.71116259765625,-0.04195464315414429,0.15839359553679824,0.1322434926980175
1782832059935091500,8.721091552734375,-0.05432838703691959,0.15264526114314794,0.1999561523671262
1782832059945019400,8.731019287109374,-0.027346856608986853,0.06072481007575988,0.17519982370799406
1782832059954948400,8.7409482421875,0.03045826662778854,-0.034333354495465755,0.03628454336216673
1782832059964877300,8.750877197265625,0.01972644473314285,-0.07117883794233203,0.024619121278682723
1782832059974806300,8.76080615234375,-0.08076865019500255,-0.07592939347028732,0.08519644917515105
1782832059984735200,8.7707353515625,-0.16653788515627382,-0.06019304128661752,0.05294022974730469
1782832059994664400,8.78066455078125,-0.14759177714586258,0.010142039307951926,0.10451475149882025
1782832060004593400,8.790593505859375,-0.11350655219256878,0.002812865463644266,0.17078206206467
1782832060014522400,8.8005224609375,-0.057553778824210165,0.030223142697662114,0.08115998760014773
1782832060024450300,8.8104501953125,-0.011927753680944442,0.12303206703737378,0.02481962826986564
1782832060034379500,8.820379638671875,0.00006838906109333039,0.18362842842787502,0.00235946827349253
1782832060044308500,8.83030859375,-0.017006664380431174,0.20238982752114534,-0.0033304527470958416
1782832060054237400,8.840237548828124,0.030599720925092694,0.13490677535682916,-0.004224538342875894
1782832060064166400,8.85016650390625,0.06980711119771003,0.0308097104139626,-0.04098720462778583
1782832060074095400,8.860095458984375,-0.02494447164237499,-0.01525382936373353,-0.040613731672894206
1782832060084024300,8.8700244140625,-0.2035872206121683,0.028489596903324126,0.05924240776458755
1782832060093953300,8.879953369140624,-0.31821488578915597,0.054494098992645734,0.14814212277131153
1782832060103881500,8.889881591796875,-0.3650175534963608,0.03399696214795112,0.17509616240411996
1782832060113810200,8.89981005859375,-0.20150398459732533,0.024077917940914628,0.2049043676253408
1782832060123739400,8.909739501953124,0.015014613780379294,-0.002202916871756315,0.1754376510518603
1782832060133668400,8.91966845703125,0.16075754818916319,-0.0025261574767529963,0.08939016540478914
1782832060143597300,8.929597412109375,0.15504209315180778,0.0892008168451488,-0.028571758761443196
1782832060153526300,8.9395263671875,0.033440497308969495,0.1889971158541739,-0.05359486686429008
1782832060163455500,8.94945556640625,-0.11243453904688358,0.23370924102291463,0.06044622146324254
1782832060173383400,8.959383544921875,-0.22092238629460334,0.18873247356861828,0.12705540426932274
1782832060183312400,8.9693125,-0.1965291187942028,0.04709975095763802,0.012847740902961232
1782832060193241300,8.979241455078125,-0.15082126058638096,-0.06562368803322315,-0.07671500915633514
1782832060203170300,8.98917041015625,-0.17708616717755793,-0.1312993985146284,-0.10652976284935138
1782832060213099500,8.999099609375,-0.25150807869434355,-0.10598492451608181,0.022291313085355795
1782832060223028500,9.009028564453125,-0.3353086439311504,-0.08215805872678757,0.14228437318643555
1782832060232957400,9.01895751953125,-0.3543441837906837,-0.09161474611908196,0.25569690868631006
1782832060242886400,9.028886474609376,-0.18199439748525617,-0.11902736144065856,0.21015795903829856
1782832060252814300,9.038814453125,-0.007611644047498703,-0.05210661933422088,0.057578520539822056
1782832060262743600,9.04874365234375,0.09761749366521835,0.08636983120292424,-0.02210039818971418
1782832060272672500,9.058672607421874,0.0955155529499054,0.13872706429734824,-0.016027444084733725
1782832060282601500,9.0686015625,0.03425648986697197,0.14753434787020087,0.047394820347498166
1782832060292530200,9.0785302734375,0.03902326587736606,0.11786416288018225,0.12266964519945904
1782832060302459400,9.08845947265625,0.08593699274361133,0.09781915371716023,0.12730665735034272
1782832060312388400,9.098388427734376,0.10852408760488033,0.02801584191173315,0.09487904514465481
1782832060322317300,9.1083173828125,0.07031038454473018,-0.005666939720511436,0.05811265481598675
1782832060332245200,9.118245361328125,-0.08037877409458159,-0.006342208633571863,0.08324985428517684
1782832060342174200,9.12817431640625,-0.18795126006305216,0.08717311040982603,0.11088192104371264
1782832060352103400,9.138103515625,-0.15931377912163733,0.23116847049891948,0.043847599027585234
1782832060362032400,9.148032470703125,-0.1187865384221077,0.3044786213815212,-0.04027560402601957
1782832060371961300,9.15796142578125,-0.15606792906820774,0.26830709167346356,-0.054860210624989116
1782832060381890300,9.167890380859374,-0.13513503115475178,0.17026961903050541,0.016699278931692242
1782832060391819500,9.177819580078125,-0.07334756028354167,0.00971884545981884,0.04836035461113788
1782832060401748500,9.18774853515625,-0.04393324975073337,-0.16691051786094904,0.09412671980685554
1782832060411676400,9.197676513671874,-0.0005149637848138809,-0.24690643011778593,0.165425101608783
1782832060421605400,9.20760546875,-0.05132569808959961,-0.2572314247772097,0.19535938089508562
1782832060431534300,9.217534423828125,-0.12069500239193438,-0.1597778895020485,0.15925645944382993
1782832060441463600,9.227463623046875,-0.14750819051563738,-0.03688186993449926,0.1591184026800096
1782832060451392500,9.237392578125,-0.1814443623870611,0.029140900418907403,0.14410307651357723
1782832060461321500,9.247321533203126,-0.14829144984781742,0.0997882618330419,0.1289685992131941
1782832060471250200,9.257250244140625,-0.13688392064869404,0.11925839371755718,0.09806373046222143
1782832060481178400,9.267178466796874,-0.16928572255969046,0.11490998924970626,0.10964640616569668
1782832060491107600,9.277107666015626,-0.14627192671895026,0.06290887611657381,0.1510178517375607
1782832060501036300,9.287036376953125,-0.14440730189085005,-0.03521437511369586,0.13347645942592062
1782832060510965200,9.29696533203125,-0.1622784741461277,-0.10823591831326485,0.10106488503958098
1782832060520894200,9.306894287109374,-0.21972353189885616,-0.11409063569083809,0.08443720090622082
1782832060530823400,9.316823486328126,-0.30061200908124447,-0.024268618207424878,0.1047080181817524
1782832060540752400,9.32675244140625,-0.27861703489422796,0.10176306903734803,0.17858049738854168
1782832060550681300,9.336681396484375,-0.15830138720870018,0.14287833875790237,0.17420564330518246
1782832060560609300,9.346609375,0.0349392114341259,0.11464929248690604,0.05748354486590251
1782832060570538200,9.356538330078125,0.1868073507249355,0.08484189098328351,-0.018901355553232132
1782832060580467500,9.366467529296875,0.23833529338836668,0.08181172950714827,0.0038311436946736645
1782832060590396400,9.376396484375,0.2044026286482811,0.09385171139091253,0.0054339894811622795
1782832060600325400,9.386325439453126,0.18302140244543552,0.09279781842380762,-0.012674279465619474
1782832060610254300,9.39625439453125,0.07030804645717144,0.07077581009939313,-0.03482619321343954
1782832060620183600,9.40618359375,-0.09905483299195766,0.04965440387651324,-0.04605251606018282
1782832060630112500,9.416112548828124,-0.3521756075799465,-0.015243892491608858,-0.046819445312069725
1782832060640040400,9.42604052734375,-0.54172845762074,-0.052406040672212835,0.0063676444689277556
1782832060649969400,9.435969482421875,-0.5174737218081951,-0.061665744187682864,0.08230011581229045
1782832060659898400,9.4458984375,-0.35350188774764535,-0.06873597483485937,0.16615756233548745
1782832060669827600,9.45582763671875,-0.06026128421723842,-0.10116963318884373,0.15068884811205788
1782832060679756300,9.46575634765625,0.17388766339719294,-0.10263415278345346,0.06586128248164895
1782832060689685200,9.475685302734375,0.2475017656624317,-0.059266281830519435,0.00969406264501158
1782832060699614200,9.4856142578125,0.2041933698117733,0.019637889666855333,0.008537942279293201
1782832060709543400,9.49554345703125,0.1075537812680006,0.08119549730494618,0.02952490846754517
1782832060719471400,9.505471435546875,-0.03531973518431186,0.13286635557040571,0.03381060926299542
1782832060729400300,9.515400390625,-0.1900327425122261,0.1841669192187488,0.03424445236930623
1782832060739329300,9.525329345703126,-0.29431027858853337,0.1480212546043098,0.03816647551809437
1782832060749258200,9.53525830078125,-0.321444953751564,0.030813802067190407,0.06676043697819113
1782832060759187500,9.5451875,-0.24752982271313667,-0.08494739718437194,0.08126257119178772
1782832060769116400,9.555116455078124,-0.16614859357774256,-0.1767538664832711,0.04332732431341428
1782832060779045400,9.56504541015625,-0.06852583921551704,-0.14272490176185965,0.03869401109011378
1782832060788974300,9.574974365234375,-0.020310966622829437,0.005243453611433506,0.10799677579514681
1782832060798902300,9.58490234375,0.028936171627044677,0.10723623975142836,0.14202237951569258
1782832060808831500,9.59483154296875,0.0710065501153469,0.16176497166603804,0.12549084010003134
1782832060818760400,9.604760498046875,0.07996843972802162,0.11340163051337003,0.12341473707887343
1782832060828689400,9.614689453125,0.03872340614795684,0.02730579394623637,0.10441754733519629
1782832060838618400,9.624618408203125,-0.0760831227272749,-0.02097089183628559,0.06411659423878882
1782832060848547600,9.634547607421876,-0.2159878525018692,-0.00024915245547890664,0.06679486897075548
1782832060858476300,9.644476318359375,-0.26259704346358775,0.09638795187026261,0.08900270959031768
1782832060868404500,9.654404541015625,-0.2133347076445818,0.12975289972499013,0.09508446805626153
1782832060878333400,9.66433349609375,-0.10109949056208133,0.0887748465180397,0.07771590242772362
1782832060888262100,9.67426220703125,0.001589315018057823,0.057821489849686616,0.04270114153935574
1782832060898191400,9.68419140625,-0.010372340932488441,0.07114815054312348,-0.018930106723681093
1782832060908120300,9.694120361328125,-0.05067395618259907,0.11574147163778543,-0.019496165941492654
1782832060918049300,9.70404931640625,-0.04738543603122234,0.1570918652884662,0.018650335367652586
1782832060927978200,9.713978271484375,-0.050718964368104934,0.1512961846217513,0.03391984635770787
1782832060937907500,9.723907470703125,-0.007310030752420425,0.110996761328727,0.05071226976583711
1782832060947835400,9.73383544921875,0.05893383500576019,0.05556421244218945,0.035924605742283164
1782832060957764400,9.743764404296876,-0.02600362530648708,0.020798165617883203,-0.009573002681764774
1782832060967693800,9.75369384765625,-0.19996084680855272,0.03467383849620819,0.030219133242825044
1782832060977622800,9.763622802734375,-0.25955109989643094,0.057903030653297896,0.13384341130848043
1782832060987551700,9.7735517578125,-0.20250176346302032,0.039860593484342094,0.1635485854134895
1782832060997480700,9.783480712890626,-0.09796996036469936,0.029808570547401905,0.11057592383446171
1782832061007410000,9.793409912109375,0.006483516800403595,0.03118058955296874,0.14906178576634266
1782832061017339000,9.8033388671875,0.02829728920161724,0.03828209212124348,0.16450807809541002
1782832061027266800,9.813266845703126,-0.055366497913002966,0.006795797619968652,0.1551334612296894
1782832061037195800,9.82319580078125,-0.07281856797337531,-0.008798077353090048,0.18998046433571725
1782832061047124700,9.833124755859375,-0.0030611411362886426,-0.056560530003160234,0.11090496399258262
1782832061057053700,9.8430537109375,0.06326923386156559,-0.12773922181501984,0.016429736708733253
1782832061066982700,9.852982666015626,0.07063479419350624,-0.12110299867093563,0.009181172086275183
1782832061076911600,9.86291162109375,0.0402022465288639,-0.046922640825062985,0.0042501043256837874
1782832061086840600,9.872840576171875,-0.07075754379034042,0.023400895462185142,-0.020555178041709584
1782832061096769800,9.882769775390624,-0.26770927191078664,0.023320962093770502,0.016145517506450414
1782832061106697700,9.89269775390625,-0.35119887150228024,0.04090659540593624,0.08284987691584975
1782832061116626700,9.902626708984375,-0.3324766353756189,0.023272154515981674,0.062148193942382926
1782832061126555600,9.9125556640625,-0.24522622194588184,-0.030405951918661592,0.039011694170581174
1782832061136484600,9.922484619140626,-0.14941840805113316,-0.02620148596614599,0.05843655300810933
1782832061146413800,9.932413818359375,-0.06696048959493636,0.013387597100436686,0.10028054799516685
1782832061156342800,9.9423427734375,-0.04243804275691509,0.028513416170328855,0.09928384684170596
1782832061166271700,9.952271728515624,-0.04217091625332832,0.027496201951801774,0.08326885124659165
1782832061176200700,9.96220068359375,-0.038061142846941946,-0.003335135772079229,0.08090036854958162
1782832061186128600,9.972128662109375,-0.07260346391797065,-0.038203327796608205,0.10625216975067742
1782832061196057900,9.982057861328125,-0.08670563902854919,-0.0448697999484837,0.17448098964784292
1782832061205986800,9.99198681640625,-0.09281973799467086,-0.03157572635039687,0.22532990053854882
1782832061215915800,10.001915771484375,-0.09164484899640082,-0.01082680670171976,0.20333777589574456
1782832061225844700,10.0118447265625,-0.08135434112846851,0.007204086159914732,0.19766038784645495
1782832061235773700,10.021773681640624,-0.03801204300820827,0.01697524632886052,0.17515726320790126
1782832061245702700,10.03170263671875,0.03521569028794765,0.014509879128634929,0.08892297715130261
1782832061255630800,10.041630859375,0.06813713215887546,0.00868117297515273,0.02171972830905579
1782832061265559600,10.0515595703125,0.02374503272473812,0.04282938016206026,-0.003885627528000623
1782832061275488500,10.061488525390626,-0.03781564365327358,0.08442030457034706,0.023053552462393417
1782832061285417700,10.071417724609375,-0.09867547828555107,0.09546557632833719,0.006432197605120018
1782832061295346700,10.0813466796875,-0.07242927639484405,0.06754442696273326,-0.0038067810049746183
1782832061305275600,10.091275634765625,-0.090896660977602,0.02012932644560933,-0.005853082542913034
1782832061315204600,10.10120458984375,-0.0755640672892332,-0.0008757599212229251,-0.018244599544396622
1782832061325133800,10.1111337890625,-0.1156838962316513,-0.035114275740087034,0.038276402165973555
1782832061335061800,10.121061767578125,-0.14112228887081146,-0.01679609036967158,0.12775788998287171
1782832061344990700,10.13099072265625,-0.11200959163308143,0.030781507232785225,0.1372197102080099
1782832061354919700,10.140919677734376,-0.039487960779666896,0.043438890362530944,0.06796917344713584
1782832061364848600,10.1508486328125,0.6137964994877576,0.06809416979998349,-0.01887960037915036
1782832061374777900,10.16077783203125,0.8334615791976452,0.09521627774238586,-0.04275889960858039
1782832061384706800,10.170706787109374,-0.40872810040712354,0.23148747332021594,0.1831996450891718
1782832061394635800,10.1806357421875,-0.7447779180943965,0.21193214737027882,0.2306232942389324
1782832061404564700,10.190564697265625,-0.5830243446052074,0.0394629724688828,-0.03171175555391237
1782832061414492700,10.20049267578125,-0.4075397674053907,-0.13262217155098915,-0.11111032297210767
1782832061424422000,10.210421875,-0.20316168867647647,-0.16470292481407522,0.08546437939633615
