time,seconds_elapsed,z,y,x
1782832051296985600,0.082985595703125,0.05640102177858353,-0.19143442809581757,-0.19920681416988373
1782832051306914600,0.09291455078125,0.06564641743898392,-0.15341193974018097,0.03976268321275711
1782832051316843500,0.102843505859375,0.07059324532747269,-0.06492388248443604,0.23141121864318848
1782832051326772700,0.112772705078125,0.023737335577607155,-0.008114401251077652,0.3282192051410675
1782832051336700700,0.12270068359375,-0.052751313894987106,0.008905061520636082,0.28869709372520447
1782832051346629600,0.132629638671875,-0.10799459367990494,0.013619923032820225,0.1772153079509735
1782832051356558600,0.14255859375,-0.11217955499887466,0.012339468114078045,0.04191160202026367
1782832051366487600,0.152487548828125,-0.06701193749904633,0.005898074246942997,-0.09095713496208191
1782832051376416800,0.162416748046875,-0.006999203935265541,-0.011656684800982475,-0.207993745803833
1782832051386345700,0.172345703125,0.03171606734395027,-0.04654596000909805,-0.2702803909778595
1782832051396274700,0.182274658203125,0.05822517350316048,-0.07314987480640411,-0.24023860692977905
1782832051406202600,0.19220263671875,0.08756202459335327,-0.07705646753311157,-0.1609690934419632
1782832051416131600,0.202131591796875,0.09905969351530075,-0.0632527694106102,-0.10236942768096924
1782832051426060800,0.212060791015625,0.07106713205575943,-0.048277512192726135,-0.07121714949607849
1782832051435989500,0.221989501953125,0.01601160690188408,-0.05406509339809418,-0.07852913439273834
1782832051445918500,0.23191845703125,-0.033897414803504944,-0.04760509729385376,-0.07449930161237717
1782832051455847400,0.241847412109375,-0.047801509499549866,-0.053413450717926025,-0.04713213071227074
1782832051465775600,0.251775634765625,-0.02235151268541813,-0.0534035824239254,-0.001996058039367199
1782832051475704600,0.26170458984375,0.0089345034211874,-0.033210694789886475,0.024074425920844078
1782832051485633500,0.271633544921875,0.024106986820697784,-0.01238213200122118,0.019069543108344078
1782832051495562500,0.2815625,0.01321519073098898,0.017414646223187447,-0.016149431467056274
1782832051505491500,0.291491455078125,0.0009217187762260437,0.024959120899438858,-0.05264822393655777
1782832051515420700,0.301420654296875,-0.011787151917815208,0.02943216636776924,-0.07527603954076767
1782832051525349600,0.311349609375,-0.01881413348019123,0.0505443699657917,-0.05634848400950432
1782832051535277600,0.321277587890625,-0.02711733616888523,0.0466202050447464,-0.014570944011211395
1782832051545206500,0.33120654296875,-0.035934433341026306,0.04998539015650749,0.02871684543788433
1782832051555135500,0.341135498046875,-0.04669147729873657,0.07443161308765411,0.06898117810487747
1782832051565064700,0.351064697265625,-0.0419023260474205,0.13202273845672607,0.1044744923710823
1782832051574993700,0.36099365234375,-0.024343572556972504,0.16409465670585632,0.1160573810338974
1782832051584922600,0.370922607421875,-0.005515123717486858,0.16050150990486145,0.11201845109462738
1782832051594850600,0.3808505859375,-0.0011533983051776886,0.12031014263629913,0.09148441255092621
1782832051604779500,0.390779541015625,-0.017424065619707108,0.06462636590003967,0.06807398051023483
1782832051614708700,0.400708740234375,-0.037385523319244385,0.025346875190734863,0.025402415543794632
1782832051624637700,0.4106376953125,-0.020173925906419754,-0.006812131032347679,-0.05830433964729309
1782832051634566700,0.420566650390625,-0.002409841865301132,-0.05842232704162598,-0.1291888952255249
1782832051644495400,0.430495361328125,0.009587977081537247,-0.0802897959947586,-0.1573033183813095
1782832051654424600,0.440424560546875,0.025090238079428673,-0.06572150439023972,-0.1455334722995758
1782832051664352800,0.450352783203125,0.03748728707432747,-0.0400257408618927,-0.11159207671880722
1782832051674281500,0.460281494140625,0.028816301375627518,-0.03766937553882599,-0.07831002026796341
1782832051684210400,0.47021044921875,0.004825429525226355,-0.043516334146261215,-0.03717580437660217
1782832051694139400,0.480139404296875,-0.02376493811607361,-0.03806164860725403,0.0005625179037451744
1782832051704068600,0.490068603515625,-0.03672056645154953,0.003556651994585991,0.0357406884431839
1782832051713997600,0.49999755859375,-0.02215919829905033,0.03444106504321098,0.0501241534948349
1782832051723925500,0.509925537109375,0.0003017522394657135,0.01847884990274906,0.03504084795713425
1782832051733854500,0.5198544921875,0.01279384270310402,0.022106073796749115,0.030774731189012527
1782832051743783400,0.529783447265625,0.013204550370573997,0.03900596871972084,0.03855487331748009
1782832051753712600,0.539712646484375,0.011507850140333176,0.051053039729595184,0.04361621290445328
1782832051763641600,0.5496416015625,0.004461192060261965,0.04516187310218811,0.02233298309147358
1782832051773570600,0.559570556640625,-0.011356653645634651,0.026002559810876846,-0.014391474425792694
1782832051783499500,0.56949951171875,-0.016605254262685776,0.018260197713971138,-0.06290660798549652
1782832051793427500,0.579427490234375,0.0008592242375016212,0.015654293820261955,-0.09412311762571335
1782832051803356700,0.589356689453125,0.021143432706594467,0.00004285760223865509,-0.10386565327644348
1782832051813285600,0.59928564453125,0.02386385202407837,-0.002623765729367733,-0.08711197227239609
1782832051823214600,0.609214599609375,0.009118881076574326,-0.01956148073077202,-0.05900783836841583
1782832051833143600,0.6191435546875,-0.007627609185874462,-0.003340698778629303,-0.03251977264881134
1782832051843072800,0.62907275390625,-0.012112990021705627,0.030220206826925278,-0.0027566570788621902
1782832051853000700,0.639000732421875,-0.002646517939865589,0.050391785800457,0.028969580307602882
1782832051862929700,0.6489296875,0.004772849380970001,0.04997473955154419,0.04074736684560776
1782832051872858600,0.658858642578125,0.004294012673199177,0.02422969415783882,0.03619842231273651
1782832051882787600,0.66878759765625,0.00045629870146512985,0.02803054265677929,0.022365190088748932
1782832051892716500,0.678716552734375,-0.0021322937682271004,0.03940463811159134,0.019781392067670822
1782832051902645500,0.6886455078125,0.00024813879281282425,0.03120265156030655,0.021510552614927292
1782832051912574500,0.698574462890625,-0.0035607144236564636,0.03672551363706589,0.01987883448600769
1782832051922502400,0.70850244140625,-0.013703130185604095,0.03943393751978874,0.024597670882940292
1782832051932431400,0.718431396484375,-0.022739501670002937,0.04032423347234726,0.037851158529520035
1782832051942360600,0.728360595703125,-0.02138260379433632,0.04583777114748955,0.037175215780735016
1782832051952289000,0.7382890625,-0.018001455813646317,0.033415988087654114,0.02547541633248329
1782832051962218200,0.74821826171875,-0.021078256890177727,0.0301206037402153,-0.003288756590336561
1782832051972147200,0.758147216796875,-0.01977810077369213,0.02675623446702957,-0.04276958853006363
1782832051982075100,0.7680751953125,-0.010984142310917377,-0.0028208401054143906,-0.06614144146442413
1782832051992004000,0.778004150390625,0.0075290873646736145,-0.034742020070552826,-0.07573148608207703
1782832052001933000,0.78793310546875,0.020430566743016243,-0.03113425150513649,-0.05832497030496597
1782832052011862300,0.7978623046875,0.029848303645849228,-0.03408876433968544,-0.035766664892435074
1782832052021791200,0.807791259765625,0.023630831390619278,-0.04153069853782654,-0.015122280456125736
1782832052031720200,0.81772021484375,0.010998126119375229,-0.036085598170757294,-0.008995678275823593
1782832052041649200,0.827649169921875,-0.002344980835914612,-0.03495747968554497,0.0006318213418126106
1782832052051577000,0.8375771484375,-0.020279239863157272,-0.0364144928753376,0.01503765769302845
1782832052061506300,0.84750634765625,-0.03936835378408432,-0.026903819292783737,0.022676998749375343
1782832052071435300,0.857435302734375,-0.034701164811849594,-0.01891433447599411,0.01465049758553505
1782832052081364200,0.8673642578125,-0.011804481036961079,-0.010123495943844318,-0.010677840560674667
1782832052091293200,0.877293212890625,0.01632009819149971,-0.00725953234359622,-0.03758642077445984
1782832052101222400,0.887222412109375,0.030414896085858345,-0.0006769988685846329,-0.05482429265975952
1782832052111150300,0.897150390625,0.03519660234451294,0.00820943620055914,-0.05303145572543144
1782832052121079300,0.907079345703125,0.02057352289557457,0.013891814276576042,-0.055583689361810684
1782832052131008300,0.91700830078125,0.0021074293181300163,0.015039635822176933,-0.04921340569853783
1782832052140937200,0.926937255859375,-0.014296416193246841,0.02106878161430359,-0.031150326132774353
1782832052150866200,0.9368662109375,-0.023268338292837143,0.02131699025630951,0.0037019308656454086
1782832052160795100,0.946795166015625,-0.028708776459097862,0.014483308419585228,0.04437807947397232
1782832052170724000,0.95672412109375,-0.03284253925085068,0.015491316094994545,0.07710859924554825
1782832052180652000,0.966652099609375,-0.03154490515589714,0.00515318475663662,0.07835957407951355
1782832052190581000,0.9765810546875,-0.01842564344406128,-0.001172354444861412,0.04514143615961075
1782832052200510200,0.98651025390625,0.0016525909304618835,-0.020022204145789146,-0.0008264151401817799
1782832052210439200,0.996439208984375,0.013760918751358986,-0.02707691676914692,-0.04372035339474678
1782832052220368100,1.0063681640625,0.019407885149121284,-0.011080640368163586,-0.08004001528024673
1782832052230297000,1.016297119140625,0.014580373652279377,-0.005358838476240635,-0.09670527279376984
1782832052240225300,1.026225341796875,0.0038934098556637764,-0.009112833999097347,-0.08284411579370499
1782832052250154200,1.036154296875,-0.00622527115046978,-0.00723503902554512,-0.05398290976881981
1782832052260083200,1.046083251953125,-0.008346564136445522,-0.0002519506961107254,-0.01104913093149662
1782832052270012200,1.05601220703125,-0.01357115339487791,0.012134145013988018,0.02198684960603714
1782832052279941400,1.06594140625,-0.023985669016838074,0.02857062593102455,0.035815440118312836
1782832052289870300,1.075870361328125,-0.03827965632081032,0.03620271384716034,0.035744063556194305
1782832052299799300,1.08579931640625,-0.0420868843793869,0.05401793494820595,0.04176575317978859
1782832052309727200,1.095727294921875,-0.025025343522429466,0.0659121423959732,0.04124510660767555
1782832052319656200,1.10565625,-0.013604960404336452,0.05940418690443039,0.04638483375310898
1782832052329585400,1.11558544921875,0.0001244349405169487,0.0616241917014122,0.0412241630256176
1782832052339514400,1.125514404296875,0.019022706896066666,0.05091297626495361,0.02491133287549019
1782832052349443000,1.135443115234375,0.03250522539019585,0.016321973875164986,-0.012343093752861023
1782832052359372000,1.1453720703125,0.036845143884420395,-0.01681017503142357,-0.04255072399973869
1782832052369300200,1.15530029296875,0.03026766888797283,-0.03613780066370964,-0.058025021106004715
1782832052379229200,1.165229248046875,0.02107863500714302,-0.0430699922144413,-0.06515093147754669
1782832052389158100,1.175158203125,0.014196493662893772,-0.03147432580590248,-0.053330227732658386
1782832052399087000,1.185087158203125,0.004175153095275164,-0.009336254559457302,-0.03611031919717789
1782832052409016000,1.19501611328125,-0.005538194440305233,0.008580694906413555,-0.005552677437663078
1782832052418945300,1.2049453125,-0.005369329825043678,0.0023968154564499855,0.02561897784471512
1782832052428874200,1.214874267578125,-0.004782902076840401,0.00034138746559619904,0.06571792811155319
1782832052438802200,1.22480224609375,0.006844277493655682,-0.002996843308210373,0.0976349413394928
1782832052448731100,1.234731201171875,0.026207322254776955,0.008485641330480576,0.10372798889875412
1782832052458660000,1.24466015625,0.0359845831990242,0.02615167945623398,0.06182697042822838
1782832052468589300,1.25458935546875,0.03406737372279167,0.022089295089244843,0.0051487768068909645
1782832052478518300,1.264518310546875,0.029064839705824852,0.008388669230043888,-0.03786677122116089
1782832052488447200,1.274447265625,0.012506634928286076,-0.006759657058864832,-0.05496985837817192
1782832052498375200,1.284375244140625,0.00971341785043478,-0.014237292110919952,-0.043187204748392105
1782832052508304100,1.29430419921875,0.016343090683221817,0.008152436465024948,-0.016662918031215668
1782832052518233300,1.3042333984375,0.022689882665872574,0.033004261553287506,0.014647159725427628
1782832052528162300,1.314162353515625,0.013622351922094822,0.033066581934690475,0.03691784664988518
1782832052538091300,1.32409130859375,-0.0041642505675554276,0.021668782457709312,0.049669716507196426
1782832052548020200,1.334020263671875,-0.02445141226053238,0.010526914149522781,0.05186895653605461
1782832052557949200,1.34394921875,-0.02802196517586708,0.0070464350283145905,0.04678667336702347
1782832052567877400,1.35387744140625,-0.01730860210955143,0.022780925035476685,0.030773088335990906
1782832052577806300,1.363806396484375,-0.009215371683239937,0.016820242628455162,0.005940050818026066
1782832052587735300,1.3737353515625,0.0036189351230859756,-0.009955978021025658,-0.0035091107711195946
1782832052597664000,1.3836640625,0.01945425570011139,-0.025468355044722557,-0.012575997970998287
1782832052607593200,1.39359326171875,0.029594775289297104,-0.04052107408642769,-0.017478877678513527
1782832052617522200,1.403522216796875,0.03010159730911255,-0.05212794989347458,-0.015707988291978836
1782832052627450000,1.4134501953125,0.02985818311572075,-0.04633157700300217,-0.017443038523197174
1782832052637379000,1.423379150390625,0.017465010285377502,-0.04315146803855896,-0.014959351159632206
1782832052647308000,1.43330810546875,0.0002809623256325722,-0.03062422387301922,-0.019486991688609123
1782832052657237200,1.4432373046875,-0.009065801277756691,-0.034961193799972534,-0.03253239393234253
1782832052667166200,1.453166259765625,-0.012001138180494308,-0.04619546979665756,-0.03591221570968628
1782832052677095200,1.46309521484375,-0.0029984191060066223,-0.03424641489982605,-0.03451962023973465
1782832052687024000,1.473024169921875,0.009670770727097988,-0.00942628737539053,-0.02429600991308689
1782832052696952000,1.4829521484375,0.019257133826613426,0.018321216106414795,-0.0028140824288129807
1782832052706881300,1.49288134765625,0.02408677712082863,0.04442658647894859,0.015812598168849945
1782832052716810200,1.502810302734375,0.022704999893903732,0.04824557155370712,0.022565487772226334
1782832052726739200,1.5127392578125,0.015731511637568474,0.03618597984313965,0.019729487597942352
1782832052736668200,1.522668212890625,0.00783112458884716,0.017219973728060722,0.022607803344726562
1782832052746597400,1.532597412109375,0.0027599334716796875,-0.017707383260130882,0.028341587632894516
1782832052756525300,1.542525390625,-0.000060969963669776917,-0.04671453312039375,0.03868964686989784
1782832052766454300,1.552454345703125,-0.0001371363177895546,-0.05578339844942093,0.035083457827568054
1782832052776383200,1.56238330078125,0.0030829235911369324,-0.05125974118709564,0.03576524555683136
1782832052786312200,1.572312255859375,0.008622830733656883,-0.027746958658099174,0.014538521878421307
1782832052796241400,1.582241455078125,0.0077425893396139145,-0.026695813983678818,-0.0177964698523283
1782832052806170000,1.592170166015625,0.006730055436491966,-0.04287584871053696,-0.05162766948342323
1782832052816099000,1.60209912109375,0.005521130282431841,-0.059825796633958817,-0.0708552822470665
1782832052826027300,1.61202734375,0.010900715366005898,-0.056636128574609756,-0.06811142712831497
1782832052835956200,1.621956298828125,0.010069000534713268,-0.022792380303144455,-0.049058787524700165
1782832052845885200,1.63188525390625,0.013920463621616364,0.01229183655232191,-0.0061818938702344894
1782832052855814100,1.641814208984375,0.010669687762856483,0.0376133993268013,0.033909037709236145
1782832052865743000,1.6517431640625,0.00599743751809001,0.05397665873169899,0.058170437812805176
1782832052875672000,1.661672119140625,-0.0003600446507334709,0.05094972252845764,0.06140489876270294
1782832052885600000,1.67160009765625,-0.005902881734073162,0.04728708043694496,0.05152430012822151
1782832052895529200,1.681529296875,-0.0070014698430895805,0.03829064220190048,0.037289950996637344
1782832052905458200,1.691458251953125,-0.006117832846939564,0.023579873144626617,0.02137729711830616
1782832052915387100,1.70138720703125,0.0066553386859595776,0.014742700383067131,0.0011360682547092438
1782832052925316000,1.711316162109375,0.024145647883415222,0.003706561401486397,-0.016548387706279755
1782832052935245300,1.721245361328125,0.04001246392726898,-0.014151258394122124,-0.035172607749700546
1782832052945174300,1.73117431640625,0.04306843876838684,-0.02291492372751236,-0.041725315153598785
1782832052955103200,1.741103271484375,0.03402867168188095,-0.035331904888153076,-0.04808446019887924
1782832052965032400,1.751032470703125,0.027896210551261902,-0.041393257677555084,-0.0581195130944252
1782832052974961400,1.76096142578125,0.025321487337350845,-0.02980826050043106,-0.058424293994903564
1782832052984890000,1.77089013671875,0.032779403030872345,-0.02108374424278736,-0.04667655751109123
1782832052994819000,1.780819091796875,0.02754850685596466,-0.009834779426455498,-0.0223090760409832
1782832053004748300,1.790748291015625,0.014205802232027054,0.003185681998729706,0.023164398968219757
1782832053014676200,1.80067626953125,-0.005264436826109886,0.010957550257444382,0.05981136113405228
1782832053024605200,1.810605224609375,-0.019923275336623192,0.01641889475286007,0.08119521290063858
1782832053034534100,1.8205341796875,-0.015388594940304756,0.022993454709649086,0.08439254760742188
1782832053044463000,1.830463134765625,0.0011445749551057816,0.020016571506857872,0.07289861142635345
1782832053054392300,1.840392333984375,0.021452512592077255,0.013216972351074219,0.04202210530638695
1782832053064321300,1.8503212890625,0.02881721779704094,0.016445789486169815,0.0077046118676662445
1782832053074250200,1.860250244140625,0.014240720309317112,0.002484460361301899,-0.029736697673797607
1782832053084178200,1.87017822265625,-0.004282630980014801,-0.016294021159410477,-0.04317847266793251
1782832053094107100,1.880107177734375,-0.017987355589866638,-0.0330950990319252,-0.035591550171375275
1782832053104036400,1.890036376953125,-0.012186991050839424,-0.032885245978832245,-0.005813146475702524
1782832053113965300,1.89996533203125,0.005389204248785973,-0.0061417934484779835,0.025487607344985008
1782832053123894300,1.909894287109375,0.01639285311102867,0.016963524743914604,0.03585236519575119
1782832053133823200,1.9198232421875,0.012615425512194633,0.01808098703622818,0.035086169838905334
1782832053143751200,1.929751220703125,-0.004058360122144222,0.020690886303782463,0.01949096843600273
1782832053153680400,1.939680419921875,-0.014330188743770123,0.007338065654039383,0.0026763351634144783
1782832053163609300,1.949609375,-0.020793680101633072,0.0037638377398252487,-0.01599695160984993
1782832053173538300,1.959538330078125,-0.019583724439144135,0.008180693723261356,-0.03202366828918457
1782832053183467300,1.96946728515625,-0.015593242831528187,-0.009048627689480782,-0.03554303199052811
1782832053193396200,1.979396240234375,-0.013741097413003445,-0.03028867207467556,-0.03157990425825119
1782832053203325200,1.9893251953125,0.0031867530196905136,-0.041029468178749084,-0.023015711456537247
1782832053213253400,1.99925341796875,0.020173758268356323,-0.04381966590881348,-0.010937809944152832
1782832053223182000,2.00918212890625,0.024204187095165253,-0.03913010656833649,-0.003848475404083729
1782832053233111000,2.019111083984375,0.021605059504508972,-0.014120345003902912,-0.007086670026183128
1782832053243040300,2.029040283203125,0.012008892372250557,-0.002437856048345566,-0.00323094567283988
1782832053252969200,2.03896923828125,-0.0007045408710837364,0.003979548811912537,0.00693192332983017
1782832053262898200,2.048898193359375,-0.01670880801975727,0.017551550641655922,0.03224926441907883
1782832053272827100,2.0588271484375,-0.02315327525138855,0.04297833889722824,0.054208215326070786
1782832053282755000,2.068755126953125,-0.02218255028128624,0.061117660254240036,0.055897194892168045
1782832053292684300,2.078684326171875,-0.02545769140124321,0.05066848173737526,0.024180244654417038
1782832053302613200,2.08861328125,-0.025130920112133026,0.018518533557653427,-0.011888277716934681
1782832053312542200,2.098542236328125,0.0012149820104241371,-0.0013078944757580757,-0.0447692796587944
1782832053322471200,2.10847119140625,0.02773953229188919,-0.028604496270418167,-0.05324052646756172
1782832053332400400,2.118400390625,0.037437520921230316,-0.021712474524974823,-0.04322969540953636
1782832053342328300,2.128328369140625,0.022008497267961502,0.01401809137314558,-0.02245677262544632
1782832053352257300,2.13825732421875,-0.004843574948608875,0.03550497069954872,0.008667940273880959
1782832053362186200,2.148186279296875,-0.03425419330596924,0.04331761971116066,0.037948332726955414
1782832053372115200,2.158115234375,-0.039476823061704636,0.03592284023761749,0.04548851400613785
1782832053382044400,2.16804443359375,-0.02764119952917099,0.0210309736430645,0.04801958054304123
1782832053391973400,2.177973388671875,-0.005697302520275116,-0.005038191098719835,0.027113717049360275
1782832053401902000,2.187902099609375,0.011953596957027912,-0.0465100035071373,-0.0031664250418543816
1782832053411830300,2.197830322265625,0.012066248804330826,-0.0653579905629158,-0.029650229960680008
1782832053421759200,2.20775927734375,0.013498763553798199,-0.06004951149225235,-0.05187244713306427
1782832053431688200,2.217688232421875,0.009110789746046066,-0.04593662917613983,-0.06690239906311035
1782832053441617200,2.2276171875,0.0042712935246527195,-0.035005416721105576,-0.06266611814498901
1782832053451546000,2.237546142578125,-0.0017033591866493225,-0.004877602681517601,-0.03657844290137291
1782832053461475000,2.24747509765625,-0.008396681398153305,0.019698578864336014,-0.004070834256708622
1782832053471403300,2.2574033203125,-0.022319339215755463,0.034757424145936966,0.02561454474925995
1782832053481332200,2.267332275390625,-0.029812410473823547,0.054851777851581573,0.04245131462812424
1782832053491261200,2.27726123046875,-0.03401552513241768,0.047167494893074036,0.054046858102083206
1782832053501190100,2.287190185546875,-0.022737305611371994,0.03334622085094452,0.051818858832120895
1782832053511119000,2.297119140625,-0.008538361638784409,0.03982171416282654,0.0314430333673954
1782832053521048300,2.30704833984375,0.0012420974671840668,0.04861653596162796,-0.0005884016864001751
1782832053530977300,2.316977294921875,0.004749366082251072,0.028703821823000908,-0.019196828827261925
1782832053540905200,2.3269052734375,0.006422896403819323,0.012553613632917404,-0.03445114940404892
1782832053550834200,2.336834228515625,0.010626064613461494,-0.00716762337833643,-0.04507572203874588
1782832053560763400,2.346763427734375,0.011011424474418163,-0.02314738929271698,-0.045460280030965805
1782832053570692400,2.3566923828125,0.016207898035645485,-0.0321723148226738,-0.038176409900188446
1782832053580621300,2.366621337890625,0.007188837509602308,-0.030577614903450012,-0.02275058440864086
1782832053590550300,2.37655029296875,-0.0036253463476896286,-0.04071708023548126,-0.00127100246027112
1782832053600479200,2.386479248046875,-0.014908627606928349,-0.03761662542819977,0.010147834196686745
1782832053610407400,2.396407470703125,-0.011839250102639198,-0.008859829977154732,0.00003351923078298569
1782832053620336400,2.40633642578125,-0.0062535349279642105,-0.004813956096768379,-0.010672122240066528
1782832053630265300,2.416265380859375,0.0021544788032770157,0.01255625020712614,-0.018358130007982254
1782832053640194300,2.4261943359375,0.0016207806766033173,0.01873025670647621,-0.015760216861963272
1782832053650123300,2.436123291015625,-0.0010449262335896492,0.02235936000943184,0.0017356285825371742
1782832053660052200,2.44605224609375,-0.00495790783315897,0.022658169269561768,0.01930796355009079
1782832053669980200,2.455980224609375,-0.006912268698215485,0.019245848059654236,0.025585655122995377
1782832053679909000,2.4659091796875,-0.00664941594004631,0.023978818207979202,0.017526932060718536
1782832053689838000,2.475838134765625,-0.0017724018543958664,0.012242808006703854,0.005972340703010559
1782832053699767300,2.485767333984375,0.002467617392539978,0.008682695217430592,0.002684934064745903
1782832053709696300,2.4956962890625,0.0005394406616687775,0.016788838431239128,0.0050206258893013
1782832053719625200,2.505625244140625,-0.0071017006412148476,0.02823404036462307,0.004968960769474506
1782832053729554200,2.51555419921875,-0.012154003605246544,0.021352145820856094,0.004085536114871502
1782832053739482000,2.525482177734375,-0.018726950511336327,0.009818263351917267,-0.005864832084625959
1782832053749411300,2.535411376953125,-0.020467093214392662,-0.004254692234098911,-0.005051254294812679
1782832053759340300,2.54534033203125,-0.014334099367260933,-0.014254595153033733,0.006054393947124481
1782832053769269200,2.555269287109375,-0.0035529742017388344,-0.00009588710963726044,0.029147403314709663
1782832053779198200,2.5651982421875,0.00836227461695671,0.01483193039894104,0.052616775035858154
1782832053789127400,2.57512744140625,0.00038207974284887314,0.012170642614364624,0.057720258831977844
1782832053799056400,2.585056396484375,-0.00962315034121275,0.02863989770412445,0.04999389126896858
1782832053808984300,2.594984375,-0.016251493245363235,0.02695704624056816,0.026011329144239426
1782832053818913300,2.604913330078125,-0.02062200754880905,-0.0008852388709783554,-0.002019505947828293
1782832053828842200,2.61484228515625,-0.00933764223009348,-0.011478250846266747,-0.02352704480290413
1782832053838771500,2.624771484375,0.005845038685947657,-0.007404679898172617,-0.0375421941280365
1782832053848700200,2.6347001953125,0.017126603052020073,-0.006459253374487162,-0.036810748279094696
1782832053858629000,2.644629150390625,0.012629589065909386,-0.005034195724874735,-0.03322213888168335
1782832053868557300,2.654557373046875,0.001719985157251358,-0.014756604097783566,-0.016527913510799408
1782832053878486300,2.664486328125,-0.008040498942136765,-0.02492109127342701,0.006940927356481552
1782832053888415200,2.674415283203125,-0.0061179641634225845,-0.01213205885142088,0.03364790603518486
1782832053898344200,2.68434423828125,-0.007567307911813259,-0.0019968580454587936,0.04274535924196243
1782832053908273200,2.694273193359375,-0.016484228894114494,0.016461284831166267,0.037702929228544235
1782832053918202000,2.7042021484375,-0.01849784515798092,0.02380308508872986,0.012417013756930828
1782832053928131300,2.71413134765625,-0.00992052722722292,0.015249518677592278,-0.028196092694997787
1782832053938059300,2.724059326171875,-0.0009533967822790146,-0.015125697478652,-0.05943417549133301
1782832053947988200,2.73398828125,0.001268628053367138,-0.02086722105741501,-0.05889775604009628
1782832053957916400,2.74391650390625,0.0058993324637413025,-0.004608621820807457,-0.0390755794942379
1782832053967845400,2.753845458984375,0.00429164944216609,0.012455854564905167,-0.014289054088294506
1782832053977774300,2.7637744140625,-0.002069843001663685,0.03207855671644211,-0.0038502616807818413
1782832053987703600,2.77370361328125,-0.018030650913715363,0.0290399007499218,-0.004933381453156471
1782832053997632500,2.783632568359375,-0.02631548047065735,0.0019755251705646515,-0.0067248898558318615
1782832054007560400,2.793560546875,-0.018411632627248764,-0.02270852029323578,0.00043860357254743576
1782832054017489400,2.803489501953125,0.00003581773489713669,-0.027724318206310272,0.01975025050342083
1782832054027418400,2.81341845703125,0.011811317875981331,-0.027722716331481934,0.03255361691117287
1782832054037347600,2.82334765625,0.011892544105648994,-0.02029675804078579,0.02263467386364937
1782832054047276500,2.833276611328125,0.003369412384927273,-0.015541696920990944,0.0019210418686270714
1782832054057205500,2.84320556640625,-0.008666477166116238,-0.009431339800357819,-0.02152409590780735
1782832054067134500,2.853134521484375,-0.013688765466213226,0.009133825078606606,-0.02990202233195305
1782832054077062400,2.8630625,-0.008863385766744614,0.01987462118268013,-0.021346619352698326
1782832054086991600,2.87299169921875,-0.0051305657252669334,0.0315035879611969,-0.014575889334082603
1782832054096920600,2.882920654296875,-0.006693308241665363,0.03013552352786064,-0.007928905077278614
1782832054106849500,2.892849609375,-0.013803982175886631,0.02419852465391159,-0.0028052697889506817
1782832054116778500,2.902778564453125,-0.016160879284143448,0.0047491928562521935,0.012761440128087997
1782832054126707500,2.91270751953125,-0.01061334554105997,-0.008992158807814121,0.02410457283258438
1782832054136636400,2.922636474609375,0.004522731062024832,-0.015128348022699356,0.03753729164600372
1782832054146564600,2.932564697265625,0.007617462892085314,-0.013165050186216831,0.04686599224805832
1782832054156493300,2.942493408203125,0.014745679683983326,-0.0032439762726426125,0.03356536477804184
1782832054166422300,2.95242236328125,0.010188852436840534,0.005398480221629143,0.0036461148411035538
1782832054176351500,2.9623515625,0.00396531168371439,0.005577977746725082,-0.02363823726773262
1782832054186280400,2.972280517578125,0.013538310304284096,-0.0036469465121626854,-0.05162619799375534
1782832054196209400,2.98220947265625,0.021904630586504936,-0.03084021806716919,-0.06890291720628738
1782832054206137300,2.992137451171875,0.03403862565755844,-0.06052807718515396,-0.07295556366443634
1782832054216066300,3.00206640625,0.028118684887886047,-0.051939912140369415,-0.061381466686725616
1782832054225995500,3.01199560546875,0.02175038307905197,-0.05200170353055,-0.03610794246196747
1782832054235924500,3.021924560546875,-0.00030751433223485947,-0.05410533398389816,-0.007440079003572464
1782832054245853400,3.031853515625,-0.024350712075829506,-0.03263251110911369,0.020559072494506836
1782832054255782400,3.041782470703125,-0.028559839352965355,0.015094265341758728,0.026592997834086418
1782832054265711600,3.051711669921875,-0.016169216483831406,0.042700860649347305,0.010905113071203232
1782832054275639600,3.0616396484375,-0.006960537284612656,0.03888268396258354,-0.011069959960877895
1782832054285568500,3.071568603515625,0.0047011785209178925,0.03267831727862358,-0.02948065847158432
1782832054295497500,3.08149755859375,0.015793778002262115,0.026282206177711487,-0.05211539566516876
1782832054305426400,3.091426513671875,0.0210738405585289,0.008833150379359722,-0.059291183948516846
1782832054315355600,3.101355712890625,0.006889845244586468,-0.02575172483921051,-0.04566138982772827
1782832054325284600,3.11128466796875,-0.0061661843210458755,-0.039081115275621414,-0.018155071884393692
1782832054335213300,3.12121337890625,-0.01341823861002922,-0.025244129821658134,0.005871701054275036
1782832054345141500,3.1311416015625,-0.012931345030665398,-0.016947556287050247,0.01847141981124878
1782832054355070500,3.141070556640625,-0.014367321506142616,-0.001934252679347992,0.02360226772725582
1782832054364999400,3.15099951171875,-0.012116835452616215,0.02464728057384491,0.019298987463116646
1782832054374928400,3.160928466796875,-0.005746287293732166,0.030754443258047104,0.016152461990714073
1782832054384857300,3.170857421875,-0.004905520007014275,0.02136256918311119,0.029496321454644203
1782832054394786300,3.180786376953125,-0.00914473831653595,0.00736552570015192,0.04480177164077759
1782832054404715500,3.190715576171875,-0.012530773878097534,0.0067226095125079155,0.04318229481577873
1782832054414643500,3.2006435546875,-0.018247781321406364,0.009609208442270756,0.03312459960579872
1782832054424572400,3.210572509765625,-0.021683556959033012,-0.010362358763813972,0.01733371801674366
1782832054434501400,3.22050146484375,-0.019534386694431305,-0.029652699828147888,0.002567821182310581
1782832054444430300,3.230430419921875,-0.009931878186762333,-0.040913887321949005,-0.01909005641937256
1782832054454359600,3.240359619140625,-0.00008004624396562576,-0.041407905519008636,-0.02596234530210495
1782832054464288500,3.25028857421875,0.01422698050737381,-0.02275509014725685,-0.03780556470155716
1782832054474217500,3.260217529296875,0.02300608903169632,-0.015867089852690697,-0.04998153820633888
1782832054484145400,3.2701455078125,0.024555278941988945,-0.0035358676686882973,-0.05117923021316528
1782832054494074400,3.280074462890625,0.025529995560646057,0.01166705321520567,-0.05634363368153572
1782832054504003600,3.290003662109375,0.02304822765290737,0.003654390573501587,-0.055630236864089966
1782832054513932500,3.2999326171875,0.008741460740566254,-0.009292300790548325,-0.04158685356378555
1782832054523861500,3.309861572265625,-0.0029563233256340027,-0.016929173842072487,-0.01842280477285385
1782832054533790500,3.31979052734375,-0.009456832893192768,-0.02128264307975769,0.018871836364269257
1782832054543719400,3.329719482421875,-0.013920709490776062,-0.009466471150517464,0.043963201344013214
1782832054553647600,3.339647705078125,-0.011929996311664581,0.0014149388298392296,0.046486273407936096
1782832054563576600,3.34957666015625,-0.007191203534603119,0.026465948671102524,0.02048102207481861
1782832054573505300,3.35950537109375,-0.0026454534381628036,0.02674078568816185,-0.01935747265815735
1782832054583434200,3.369434326171875,0.0040917289443314075,0.019240524619817734,-0.050256721675395966
1782832054593363500,3.379363525390625,0.00951099582016468,0.016180019825696945,-0.06094531714916229
1782832054603292400,3.38929248046875,0.016605790704488754,-0.0005400935187935829,-0.031281255185604095
1782832054613220400,3.399220458984375,0.01432798895984888,-0.0023971153423190117,0.005047191865742207
1782832054623149300,3.4091494140625,0.0032751699909567833,0.014913162216544151,0.033919207751750946
1782832054633078300,3.419078369140625,-0.013875854201614857,0.01585938222706318,0.03654908016324043
1782832054643007500,3.429007568359375,-0.022669658064842224,0.006444898433983326,0.023424454033374786
1782832054652936400,3.4389365234375,-0.02649608999490738,-0.014601795934140682,0.014653597958385944
1782832054662865400,3.448865478515625,-0.020681163296103477,-0.034666649997234344,0.008597963489592075
1782832054672794400,3.45879443359375,-0.005859605967998505,-0.03212093561887741,-0.002348959445953369
1782832054682722600,3.46872265625,0.00709665659815073,-0.020812351256608963,-0.015203472226858139
1782832054692651500,3.478651611328125,0.007285474333912134,-0.008894172497093678,-0.04295707494020462
1782832054702580500,3.48858056640625,-0.0002954211086034775,-0.004114026203751564,-0.0685955137014389
1782832054712509400,3.498509521484375,-0.010874827392399311,-0.0277333352714777,-0.06516509503126144
1782832054722438400,3.5084384765625,-0.015017260797321796,-0.03532228618860245,-0.056088656187057495
1782832054732367600,3.51836767578125,-0.019176851958036423,-0.015234330669045448,-0.04382240027189255
1782832054742296600,3.528296630859375,-0.01552952453494072,0.013338709250092506,-0.021078385412693024
1782832054752224500,3.538224609375,-0.009006110951304436,0.03766269236803055,0.0009981542825698853
1782832054762153500,3.548153564453125,-0.004226154647767544,0.03150678426027298,0.014404630288481712
1782832054772082700,3.558082763671875,-0.007979349233210087,0.020769450813531876,0.019157307222485542
1782832054782011400,3.568011474609375,-0.007579820230603218,0.012935242615640163,0.022081978619098663
1782832054791940400,3.5779404296875,0.002046440728008747,0.015133150853216648,0.010225852020084858
1782832054801869300,3.587869384765625,0.007395103108137846,0.01573983021080494,-0.0030757710337638855
1782832054811798300,3.59779833984375,0.00659056194126606,0.005339920520782471,-0.01177099160850048
1782832054821726500,3.6077265625,0.0028606224805116653,-0.0009842878207564354,-0.017649997025728226
1782832054831655400,3.617655517578125,-0.004393295384943485,-0.0035073664039373398,-0.027268003672361374
1782832054841584400,3.62758447265625,-0.007923901081085205,-0.00992213562130928,-0.02643415704369545
1782832054851513300,3.637513427734375,-0.0008404254913330078,-0.013462275266647339,-0.022841021418571472
1782832054861442600,3.647442626953125,0.008103001862764359,-0.0181110892444849,-0.0031016715802252293
1782832054871371500,3.65737158203125,0.013125190511345863,-0.034209366887807846,0.017983373254537582
1782832054881300500,3.667300537109375,0.005789103452116251,-0.03195178508758545,0.02519036829471588
1782832054891228400,3.677228515625,0.0008771689608693123,-0.026647299528121948,0.014657030813395977
1782832054901157400,3.687157470703125,-0.00889867078512907,-0.02607554942369461,-0.020893706008791924
1782832054911086600,3.697086669921875,-0.01741279661655426,-0.008521590381860733,-0.039847422391176224
1782832054921015600,3.707015625,-0.017088722437620163,0.007530090399086475,-0.034813981503248215
1782832054930944500,3.716944580078125,-0.014024754986166954,0.02262888103723526,-0.015914592891931534
1782832054940873500,3.72687353515625,-0.016811490058898926,0.025895755738019943,0.0033317189663648605
1782832054950802700,3.736802734375,-0.015843164175748825,0.02660708874464035,0.017386285588145256
1782832054960730600,3.746730712890625,-0.0108284130692482,0.02973179519176483,0.0270426943898201
1782832054970659800,3.756659912109375,-0.007840879261493683,0.0263487808406353,0.031589772552251816
1782832054980588800,3.7665888671875,-0.006814597174525261,0.025901637971401215,0.027186082676053047
1782832054990517500,3.776517578125,-0.00848945789039135,0.01745196245610714,0.020238161087036133
1782832055000446500,3.786446533203125,-0.008376670069992542,0.014227421954274178,0.010246958583593369
1782832055010375400,3.79637548828125,-0.009957787580788136,0.014276156201958656,-0.001302105374634266
1782832055020304600,3.8063046875,-0.0009731659665703773,0.01133762113749981,-0.012222586199641228
1782832055030232600,3.816232666015625,0.004532387480139732,-0.0024096164852380753,-0.02300785668194294
1782832055040161500,3.82616162109375,0.005959554575383663,-0.027795705944299698,-0.018133077770471573
1782832055050090500,3.836090576171875,0.010760701261460781,-0.029904130846261978,-0.009310025721788406
1782832055060019700,3.846019775390625,0.009542480111122131,-0.020432546734809875,-0.000045670196413993835
1782832055069948700,3.85594873046875,0.0043759471736848354,-0.00521870655938983,0.008346484042704105
1782832055079877600,3.865877685546875,0.002570284530520439,-0.005222455132752657,0.016366835683584213
1782832055089806600,3.875806640625,0.0046001458540558815,-0.0030628973618149757,0.01851121336221695
1782832055099734500,3.885734619140625,0.008969008922576904,0.01400555670261383,0.020237484946846962
1782832055109663700,3.895663818359375,0.007368981372565031,0.02374686673283577,0.027783554047346115
1782832055119592700,3.9055927734375,-0.0028912732377648354,0.028648439794778824,0.03971102833747864
1782832055129521700,3.915521728515625,-0.01007621455937624,0.017944663763046265,0.048973504453897476
1782832055139450600,3.92545068359375,-0.009667111560702324,-0.012706167995929718,0.05104466900229454
1782832055149379800,3.9353798828125,-0.002512529492378235,-0.024682670831680298,0.04212867096066475
1782832055159308500,3.94530859375,0.012987039983272552,0.007688290439546108,0.02057724818587303
1782832055169236700,3.95523681640625,0.015665646642446518,0.02686651423573494,-0.023509785532951355
1782832055179165700,3.965165771484375,0.003932506311684847,0.003970771096646786,-0.04493836313486099
1782832055189094700,3.9750947265625,-0.0017711855471134186,-0.008125306107103825,-0.05383998155593872
1782832055199023600,3.985023681640625,0.0027530761435627937,-0.014499313198029995,-0.0430193692445755
1782832055208952600,3.99495263671875,0.008554239757359028,-0.009882722981274128,-0.020596619695425034
1782832055218881500,4.004881591796875,0.01573909819126129,0.006129796616733074,0.0007873103022575378
1782832055228810500,4.014810546875,0.015285561792552471,0.015498797409236431,0.011886833235621452
1782832055238738400,4.024738525390625,-0.005329085513949394,0.02990570291876793,0.01692279241979122
1782832055248667600,4.034667724609375,-0.02233310230076313,0.05318119749426842,0.015080416575074196
1782832055258596600,4.0445966796875,-0.0358755886554718,0.05667687952518463,0.02072162553668022
1782832055268525600,4.054525634765625,-0.03596560284495354,0.046889230608940125,0.028400849550962448
1782832055278454500,4.06445458984375,-0.023412497714161873,0.03678469359874725,0.03753768280148506
1782832055288383700,4.0743837890625,-0.003593252971768379,0.022187642753124237,0.031078718602657318
1782832055298312700,4.084312744140625,0.016441145911812782,-0.014210610650479794,0.004857974126935005
1782832055308240600,4.09424072265625,0.027409907430410385,-0.05199101194739342,-0.024983011186122894
1782832055318169600,4.104169677734375,0.02526956796646118,-0.06597764790058136,-0.05661308392882347
1782832055328098600,4.1140986328125,0.011546830646693707,-0.06413047760725021,-0.07066471874713898
1782832055338027800,4.12402783203125,-0.008790578693151474,-0.03634442389011383,-0.06586271524429321
1782832055347956700,4.133956787109375,-0.028231121599674225,-0.010558100417256355,-0.034507185220718384
1782832055357885700,4.1438857421875,-0.0354943610727787,0.008068048395216465,-0.0054475716315209866
1782832055367814700,4.153814697265625,-0.0319928377866745,0.028724592179059982,0.006620276719331741
1782832055377742600,4.16374267578125,-0.022355223074555397,0.039922162890434265,0.009667702950537205
1782832055387671800,4.173671875,-0.012844275683164597,0.03429943323135376,0.012384659610688686
1782832055397600800,4.183600830078125,-0.006612059660255909,0.02795787900686264,0.0033504366874694824
1782832055407529500,4.193529541015625,-0.00409350823611021,0.04630493000149727,-0.023332305252552032
1782832055417458400,4.20345849609375,-0.0023751063272356987,0.033487122505903244,-0.03879480063915253
1782832055427387600,4.2133876953125,-0.0039037615060806274,-0.012057993561029434,-0.03676386922597885
1782832055437316600,4.223316650390625,0.0023010196164250374,-0.019099941477179527,-0.03457016870379448
1782832055447244500,4.23324462890625,0.004332744982093573,0.003984072245657444,-0.02766246348619461
1782832055457173500,4.243173583984375,-0.0018311217427253723,0.008496819995343685,-0.025427483022212982
1782832055467102500,4.2531025390625,-0.005984853953123093,-0.024677911773324013,-0.011422984302043915
1782832055477031700,4.26303173828125,0.0008300179615616798,-0.060848135501146317,0.0009609619155526161
1782832055486960600,4.272960693359375,0.0067883082665503025,-0.07335460931062698,-0.00037541240453720093
1782832055496889600,4.2828896484375,0.009262222796678543,-0.045959509909152985,-0.010035465471446514
1782832055506818600,4.292818603515625,0.0024168333038687706,-0.01814226061105728,-0.028477322310209274
1782832055516747800,4.302747802734375,-0.0008546691387891769,0.0021742237731814384,-0.04688945412635803
1782832055526675700,4.31267578125,-0.0038067828863859177,0.011389560997486115,-0.04535787180066109
1782832055536604700,4.322604736328125,-0.010414756834506989,0.0006333040073513985,-0.02589966356754303
1782832055546533600,4.33253369140625,-0.010881608352065086,0.0004037395119667053,0.0038923220708966255
1782832055556462600,4.342462646484375,-0.004023869521915913,0.015354190021753311,0.028019120916724205
1782832055566391800,4.352391845703125,-0.0032968269661068916,0.023094668984413147,0.03612951189279556
1782832055576320800,4.36232080078125,-0.0031926166266202927,0.031957708299160004,0.024814587086439133
1782832055586248700,4.372248779296875,-0.005497848615050316,0.03248181939125061,0.007841727696359158
1782832055596177700,4.382177734375,-0.011780468747019768,0.019214995205402374,-0.0014038048684597015
1782832055606106600,4.392106689453125,-0.011412421241402626,0.013492126949131489,-0.00942258257418871
1782832055616035600,4.40203564453125,-0.006398526951670647,0.005834988318383694,-0.017845384776592255
1782832055625964500,4.411964599609375,0.0033766059204936028,-0.012157861143350601,-0.021208159625530243
1782832055635893500,4.4218935546875,0.021461933851242065,-0.02424110472202301,-0.026926148682832718
1782832055645822500,4.431822509765625,0.037109602242708206,-0.04343956708908081,-0.033048756420612335
1782832055655751700,4.441751708984375,0.04146893322467804,-0.05243736505508423,-0.0362931452691555
1782832055665679600,4.4516796875,0.025690235197544098,-0.04681143909692764,-0.03292984142899513
1782832055675608600,4.461608642578125,0.0038709831424057484,-0.033454589545726776,-0.01459285244345665
1782832055685537500,4.47153759765625,-0.016037479043006897,-0.012035053223371506,0.007986226119101048
1782832055695466500,4.481466552734375,-0.026867065578699112,0.0023459866642951965,0.03146813437342644
1782832055705395700,4.491395751953125,-0.027136046439409256,0.01493954285979271,0.040490392595529556
1782832055715324700,4.50132470703125,-0.024197913706302643,0.00543444138020277,0.041474517434835434
1782832055725253600,4.511253662109375,-0.011564944870769978,-0.0002657882869243622,0.026122726500034332
1782832055735181600,4.521181640625,0.006271461956202984,-0.002035452052950859,0.006053289398550987
1782832055745110500,4.531110595703125,0.012856127694249153,-0.015084674581885338,-0.01125779002904892
1782832055755039700,4.541039794921875,0.011418469250202179,-0.010746119543910027,-0.034019485116004944
1782832055764968700,4.55096875,0.012800917029380798,-0.018189655616879463,-0.04250325262546539
1782832055774897700,4.560897705078125,0.011679246090352535,-0.031352847814559937,-0.028327785432338715
1782832055784826600,4.57082666015625,0.007848555222153664,-0.04281775653362274,-0.001563018187880516
1782832055794755600,4.580755615234375,0.008801464922726154,-0.019878631457686424,0.004559256136417389
1782832055804683800,4.590683837890625,0.012466240674257278,0.0008727200329303741,0.002417542040348053
1782832055814612700,4.60061279296875,0.012087690643966198,-0.0059268539771437645,-0.0052809808403253555
1782832055824541700,4.610541748046875,0.011128686368465424,0.002579815685749054,-0.015220963396131992
1782832055834470400,4.620470458984375,0.005337555427104235,0.020018965005874634,-0.026181742548942566
1782832055844399600,4.630399658203125,-0.005157162435352802,0.0321027934551239,-0.01821649633347988
1782832055854328600,4.64032861328125,-0.015982164070010185,0.05149780586361885,0.006956866011023521
1782832055864257500,4.650257568359375,-0.023121831938624382,0.060924869030714035,0.028517551720142365
1782832055874185500,4.660185546875,-0.02719751000404358,0.047388043254613876,0.05269911140203476
1782832055884114400,4.670114501953125,-0.030424993485212326,0.013447119854390621,0.05040799081325531
1782832055894043600,4.680043701171875,-0.025651514530181885,-0.020229097455739975,0.03965701162815094
1782832055903972600,4.68997265625,-0.021994460374116898,-0.04998725652694702,0.01601026952266693
1782832055913901600,4.699901611328125,-0.01669980399310589,-0.06087588891386986,-0.014549653977155685
1782832055923830500,4.70983056640625,-0.006362743675708771,-0.07162360846996307,-0.047149140387773514
1782832055933759700,4.719759765625,0.008995609357953072,-0.0776899978518486,-0.07521600276231766
1782832055943687700,4.729687744140625,0.02173563838005066,-0.07354878634214401,-0.07912898808717728
1782832055953616600,4.73961669921875,0.033215418457984924,-0.05662757158279419,-0.06639178097248077
1782832055963545600,4.749545654296875,0.029229197651147842,-0.03284900635480881,-0.04013754054903984
1782832055973474600,4.759474609375,0.011587115004658699,-0.015913402661681175,-0.008245592936873436
1782832055983403800,4.76940380859375,-0.01398002915084362,-0.003018110990524292,0.015510602854192257
1782832055993332700,4.779332763671875,-0.028310133144259453,0.019401133060455322,0.02249370515346527
1782832056003261400,4.789261474609375,-0.033150963485240936,0.021685592830181122,0.018528521060943604
1782832056013189600,4.799189697265625,-0.01951012760400772,0.024410825222730637,0.006409487687051296
1782832056023118600,4.80911865234375,-0.00031859055161476135,0.037212908267974854,-0.012509874999523163
1782832056033047600,4.819047607421875,0.01190951094031334,0.02875203639268875,-0.020338725298643112
1782832056042976500,4.8289765625,0.017673123627901077,0.015166186727583408,-0.02212410792708397
1782832056052905500,4.838905517578125,0.013950375840067863,0.005490392446517944,-0.02136065810918808
1782832056062834400,4.84883447265625,0.005775004159659147,-0.00091584213078022,-0.018001878634095192
1782832056072763600,4.858763671875,-0.00328774843364954,-0.004393125884234905,-0.014532811939716339
1782832056082691600,4.868691650390625,-0.006281674839556217,-0.013952009379863739,0.00027090124785900116
1782832056092620500,4.87862060546875,-0.008510062471032143,-0.005846699699759483,0.01149937603622675
1782832056102549500,4.888549560546875,-0.013234777376055717,-0.0016897721216082573,0.020606055855751038
1782832056112478500,4.898478515625,-0.009602830745279789,-0.014229235239326954,0.012976800091564655
1782832056122407700,4.90840771484375,0.00173131562769413,-0.00987763050943613,-0.013833774253726006
1782832056132336600,4.918336669921875,0.008715917356312275,-0.012889142148196697,-0.030521366745233536
1782832056142265600,4.928265625,0.013161798007786274,-0.006191025488078594,-0.041582539677619934
1782832056152193500,4.938193603515625,0.011716211214661598,0.0026887282729148865,-0.03481923043727875
1782832056162122500,4.94812255859375,0.0015099123120307922,0.009583652019500732,-0.014828745275735855
1782832056172051700,4.9580517578125,-0.0073977140709757805,0.016992025077342987,0.002675003372132778
1782832056181980700,4.967980712890625,-0.011154103092849255,0.027137868106365204,0.015119422227144241
1782832056191909600,4.97790966796875,-0.01084610540419817,0.03430524468421936,0.03257422149181366
1782832056201838600,4.987838623046875,-0.005118711851537228,0.03946938365697861,0.035742320120334625
1782832056211767600,4.997767578125,0.0020754532888531685,0.04230538755655289,0.020192231982946396
1782832056221695700,5.00769580078125,0.0017098011448979378,0.03408234566450119,-0.0017050760798156261
1782832056231624700,5.017624755859375,-0.0002815956249833107,0.01984987035393715,-0.016104666516184807
1782832056241553700,5.0275537109375,-0.0007204851135611534,0.005148423835635185,-0.018036257475614548
1782832056251482400,5.037482421875,-0.0019407449290156364,-0.010125869885087013,0.003187805414199829
1782832056261411600,5.04741162109375,-0.0065762437880039215,-0.020189423114061356,0.028189295902848244
1782832056271340500,5.057340576171875,-0.0034671854227781296,-0.006515954155474901,0.03338025137782097
1782832056281269500,5.06726953125,-0.0006628762930631638,0.00006977654993534088,0.01822473481297493
1782832056291198500,5.077198486328125,-0.0006765425205230713,0.007745273411273956,-0.0035238931886851788
1782832056301126400,5.08712646484375,0.0018148450180888176,0.01541198045015335,-0.023127954453229904
1782832056311055600,5.0970556640625,0.006665640510618687,-0.00009854510426521301,-0.02549724653363228
1782832056320984600,5.106984619140625,0.006106376647949219,-0.01970846578478813,-0.00796379242092371
1782832056330913500,5.11691357421875,0.006032782606780529,-0.01389368623495102,0.007223349995911121
1782832056340842500,5.126842529296875,0.0015573399141430855,0.00222589448094368,0.017969205975532532
1782832056350771700,5.136771728515625,-0.008023274131119251,0.01857047714293003,0.013877823948860168
1782832056360700700,5.14670068359375,-0.015023658983409405,0.027815641835331917,-0.003224730957299471
1782832056370628600,5.156628662109375,-0.014948931522667408,0.009697658941149712,-0.01372640673071146
1782832056380557600,5.1665576171875,-0.008444960229098797,-0.011934398673474789,-0.023755338042974472
1782832056390486500,5.176486572265625,-0.0025538047775626183,-0.013281183317303658,-0.028052406385540962
1782832056400415700,5.186415771484375,0.008342784829437733,-0.005608882289379835,-0.018327340483665466
1782832056410344700,5.1963447265625,0.005055348388850689,0.011986677534878254,0.009703957475721836
1782832056420273700,5.206273681640625,0.0024414556100964546,0.026566948741674423,0.024269316345453262
1782832056430202400,5.216202392578125,-0.003435874357819557,0.02457437291741371,0.025777731090784073
1782832056440130600,5.226130615234375,-0.006980822421610355,0.002473028376698494,0.02244655415415764
1782832056450059800,5.236059814453125,-0.008399908430874348,-0.0014745835214853287,0.017433274537324905
1782832056459988500,5.245988525390625,0.0014769574627280235,0.010986879467964172,0.006548936478793621
1782832056469917400,5.25591748046875,0.011463797651231289,0.014925478957593441,-0.005880405660718679
1782832056479846400,5.265846435546875,0.01186167448759079,0.033151354640722275,-0.016884852200746536
1782832056489775600,5.275775634765625,0.006973410956561565,0.029321160167455673,-0.022985685616731644
1782832056499704600,5.28570458984375,-0.0002858331426978111,0.008973546326160431,-0.026657383888959885
1782832056509632500,5.295632568359375,-0.011376538313925266,-0.013962142169475555,-0.031830109655857086
1782832056519561500,5.3055615234375,-0.01918519288301468,-0.04485161602497101,-0.03205328434705734
1782832056529490400,5.315490478515625,-0.011718600988388062,-0.0628308653831482,-0.0256572887301445
1782832056539419600,5.325419677734375,-0.00046940799802541733,-0.06233152747154236,-0.028440561145544052
1782832056549348600,5.3353486328125,0.00833929143846035,-0.04588039591908455,-0.03539813682436943
1782832056559277600,5.345277587890625,0.016685638576745987,-0.030279863625764847,-0.035833295434713364
1782832056569206500,5.35520654296875,0.010271577164530754,-0.015233559533953667,-0.02625521458685398
1782832056579134500,5.365134521484375,0.01025266945362091,0.006724469363689423,-0.024901796132326126
1782832056589063700,5.375063720703125,-0.005806088447570801,0.01450172159820795,-0.015096327289938927
1782832056598992600,5.38499267578125,-0.018469419330358505,0.020813681185245514,0.0034637749195098877
1782832056608921600,5.394921630859375,-0.025995511561632156,0.03545920178294182,0.012070844881236553
1782832056618850600,5.4048505859375,-0.023080948740243912,0.04708150401711464,0.012185360305011272
1782832056628779800,5.41477978515625,-0.012818120419979095,0.0560704804956913,0.007636639289557934
1782832056638708500,5.42470849609375,0.00433077197521925,0.02964339777827263,0.012152028270065784
1782832056648636700,5.43463671875,0.014549897983670235,0.011880096979439259,0.01792619377374649
1782832056658565600,5.444565673828125,0.019742796197533607,0.015975240617990494,0.022162217646837234
1782832056668494300,5.454494384765625,0.015129752457141876,0.01583276316523552,0.019565023481845856
1782832056678423600,5.464423583984375,0.0051785847172141075,0.015430890955030918,0.015144177712500095
1782832056688352500,5.4743525390625,0.00279943086206913,0.006376136094331741,0.005345731973648071
1782832056698281500,5.484281494140625,-0.0024544531479477882,-0.023982301354408264,0.0022173170000314713
1782832056708210400,5.49421044921875,-0.006228814832866192,-0.04212507605552673,-0.005961074028164148
1782832056718139600,5.5041396484375,-0.0007893089205026627,-0.03395849093794823,-0.021252412348985672
1782832056728067600,5.514067626953125,0.007288074586540461,-0.01997157372534275,-0.03022357076406479
1782832056737996500,5.52399658203125,0.01695801317691803,-0.028774384409189224,-0.025279678404331207
1782832056747925500,5.533925537109375,0.016282953321933746,-0.02523956075310707,-0.016731474548578262
1782832056757854500,5.5438544921875,0.0169676523655653,-0.009278968907892704,-0.009208310395479202
1782832056767783700,5.55378369140625,0.008672957308590412,0.007824658416211605,-0.002576471772044897
1782832056777712600,5.563712646484375,-0.00575258769094944,0.025354117155075073,0.003948804922401905
1782832056787641600,5.5736416015625,-0.020731255412101746,0.03682274743914604,0.006118714809417725
1782832056797569500,5.583569580078125,-0.027891431003808975,0.03367249295115471,0.008882010355591774
1782832056807498800,5.593498779296875,-0.012556011788547039,0.03413243591785431,0.012499296106398106
1782832056817427700,5.603427734375,0.005182239692658186,0.03735699504613876,0.007291750051081181
1782832056827356700,5.613356689453125,0.019029248505830765,0.024194058030843735,-0.009290576912462711
1782832056837285600,5.62328564453125,0.01930142194032669,-0.003919866867363453,-0.018846530467271805
1782832056847214300,5.63321435546875,0.010829934850335121,-0.002230105921626091,-0.015899013727903366
1782832056857143600,5.6431435546875,0.003132866695523262,0.017857585102319717,-0.006496456917375326
1782832056867071700,5.65307177734375,-0.001575317233800888,0.00528191402554512,0.007479908876121044
1782832056877000400,5.66300048828125,-0.009364265017211437,0.002862432971596718,0.0412898026406765
1782832056886929400,5.672929443359375,-0.00622768048197031,0.0009057577699422836,0.05541115999221802
1782832056896858600,5.682858642578125,0.0019546151161193848,-0.010976468212902546,0.04214196279644966
1782832056906787600,5.69278759765625,0.003992679063230753,-0.013062801212072372,0.013262121938169003
1782832056916716500,5.702716552734375,0.009148025885224342,-0.019701529294252396,-0.0008523655124008656
1782832056926645500,5.7126455078125,0.019919542595744133,-0.020940661430358887,-0.003246000036597252
1782832056936573400,5.722573486328125,0.021746737882494926,-0.004827472381293774,-0.011560921557247639
1782832056946502700,5.732502685546875,0.012115967459976673,0.006529800593852997,-0.008428669534623623
1782832056956432100,5.74243212890625,-0.000022454187273979187,0.011152781546115875,-0.000017074868083000183
1782832056966361300,5.752361328125,-0.005717729218304157,0.011336315423250198,0.003753132186830044
1782832056976290300,5.762290283203125,-0.0064133452251553535,-0.014970656484365463,0.010788404382765293
1782832056986219300,5.77221923828125,-0.0068300459533929825,-0.02650240808725357,0.011910849250853062
1782832056996148200,5.782148193359375,-0.0016382131725549698,-0.01542738638818264,-0.00010373629629611969
1782832057006076200,5.792076171875,0.001378086395561695,-0.00249271746724844,-0.026076871901750565
1782832057016005400,5.80200537109375,0.0010441252961754799,-0.003539872355759144,-0.0409676730632782
1782832057025934300,5.811934326171875,-0.0015265289694070816,0.005569769069552422,-0.039407577365636826
1782832057035863000,5.821863037109375,-0.006941269151866436,0.0133866798132658,-0.02271435223519802
1782832057045792000,5.8317919921875,-0.015718234702944756,0.01297601405531168,0.009889629669487476
1782832057055721200,5.84172119140625,-0.0262646172195673,0.020979609340429306,0.030168801546096802
1782832057065650200,5.851650146484375,-0.02225804701447487,0.017753448337316513,0.03803776577115059
1782832057075578000,5.861578125,-0.017225205898284912,0.0119831757619977,0.03028317168354988
1782832057085507000,5.871507080078125,-0.007962310686707497,0.019538041204214096,0.01824529841542244
1782832057095436000,5.88143603515625,0.004958814475685358,0.027010072022676468,-0.013761903159320354
1782832057105365200,5.891365234375,0.013279061764478683,0.023087769746780396,-0.038521576672792435
1782832057115294200,5.901294189453125,0.01915239728987217,0.002648807130753994,-0.04596591368317604
1782832057125223200,5.91122314453125,0.01411355659365654,-0.01699015684425831,-0.02565469592809677
1782832057135152000,5.921152099609375,0.0073762922547757626,-0.024116244167089462,0.004681638441979885
1782832057145081300,5.931081298828125,-0.002582618035376072,-0.025282997637987137,0.026238009333610535
1782832057155009300,5.94100927734375,-0.01913762465119362,-0.04478772357106209,0.02145816758275032
1782832057164938200,5.950938232421875,-0.014638081192970276,-0.06720966100692749,0.0019411025568842888
1782832057174867200,5.9608671875,-0.0018573040142655373,-0.08067140728235245,-0.025244180113077164
1782832057184796200,5.970796142578125,0.027020566165447235,-0.08331645280122757,-0.04250957816839218
1782832057194725400,5.980725341796875,0.04422139376401901,-0.05707845464348793,-0.057258427143096924
1782832057204654300,5.990654296875,0.04085277393460274,-0.019885774701833725,-0.05251151695847511
1782832057214583000,6.0005830078125,0.01806863211095333,0.003619285300374031,-0.0316709466278553
1782832057224511200,6.01051123046875,-0.007320333272218704,0.03288501873612404,0.0038561178371310234
1782832057234440200,6.020440185546875,-0.026755550876259804,0.03872213512659073,0.04115661606192589
1782832057244369200,6.030369140625,-0.02645985782146454,0.038214538246393204,0.05601511895656586
1782832057254298000,6.040298095703125,-0.012289708480238914,0.03482300415635109,0.05605693161487579
1782832057264227000,6.05022705078125,0.008686722256243229,0.016027189791202545,0.0400400385260582
1782832057274156000,6.060156005859375,0.023451020941138268,0.003877316601574421,0.0006833141669631004
1782832057284085200,6.070085205078125,0.032103367149829865,-0.006630984600633383,-0.03934452682733536
1782832057294013200,6.08001318359375,0.04230966418981552,-0.0064810486510396,-0.06971149146556854
1782832057303942100,6.089942138671875,0.041934285312891006,-0.026142382994294167,-0.06989569216966629
1782832057313871000,6.09987109375,0.03039560839533806,-0.03260640799999237,-0.05515775829553604
1782832057323800000,6.109800048828125,0.01213142927736044,-0.024193229153752327,-0.020537830889225006
1782832057333729300,6.119729248046875,-0.003063502721488476,-0.01518748328089714,0.010395851917564869
1782832057343658200,6.129658203125,-0.00904899276793003,-0.0014854716137051582,0.04650983586907387
1782832057353587200,6.139587158203125,-0.010491892695426941,0.006707476451992989,0.06916721165180206
1782832057363515100,6.14951513671875,-0.01290531363338232,0.01574540138244629,0.06802622973918915
1782832057373444400,6.1594443359375,-0.014511200599372387,0.027760252356529236,0.0484946109354496
1782832057383373300,6.169373291015625,-0.010040794499218464,0.012156016193330288,0.023944050073623657
1782832057393302300,6.17930224609375,-0.0007724622264504433,0.001009887084364891,-0.004228465259075165
1782832057403231200,6.189231201171875,0.01683243364095688,-0.004993934649974108,-0.0301210917532444
1782832057413160200,6.19916015625,0.02296888828277588,-0.025000132620334625,-0.04171782732009888
1782832057423089200,6.209089111328125,0.016900038346648216,-0.01516558788716793,-0.04759611934423447
1782832057433017300,6.219017333984375,-0.0022166650742292404,-0.004734785296022892,-0.03147946670651436
1782832057442946300,6.2289462890625,-0.01956745609641075,-0.0007246294990181923,0.006599415093660355
1782832057452875300,6.238875244140625,-0.02466341108083725,0.01766609400510788,0.04305090010166168
1782832057462804200,6.24880419921875,-0.01722525991499424,0.03637482970952988,0.05630132928490639
1782832057472733200,6.258733154296875,-0.0029909294098615646,0.03825608640909195,0.048578694462776184
1782832057482662100,6.268662109375,0.003861082252115011,0.03409084677696228,0.02478719688951969
1782832057492591000,6.278591064453125,0.007475258316844702,0.020765988156199455,0.002266441471874714
1782832057502520000,6.28852001953125,0.007753900717943907,0.007276046089828014,-0.012492751702666283
1782832057512448300,6.2984482421875,0.0043344018049538136,0.0025550611317157745,-0.018476076424121857
1782832057522377200,6.308377197265625,0.0011393232271075249,0.0028216391801834106,-0.01267190556973219
1782832057532306200,6.31830615234375,0.006636354606598616,-0.005793153773993254,-0.0016597346402704716
1782832057542235100,6.328235107421875,0.013768328353762627,-0.02159050479531288,0.004206875339150429
1782832057552164400,6.338164306640625,0.015030667185783386,-0.02242833562195301,0.0016763396561145782
1782832057562093300,6.34809326171875,0.010201135650277138,-0.01543004997074604,0.001242225058376789
1782832057572022300,6.358022216796875,0.008421344682574272,-0.013815907761454582,-0.00536880549043417
1782832057581950200,6.3679501953125,0.004582342226058245,-0.002124912105500698,-0.009800562635064125
1782832057591879200,6.377879150390625,0.014399286359548569,0.011953090317547321,-0.006981340236961842
1782832057601808400,6.387808349609375,0.016205471009016037,0.019934039562940598,-0.0026828008703887463
1782832057611737300,6.3977373046875,0.012000339105725288,0.018304981291294098,0.004812932573258877
1782832057621666300,6.407666259765625,-0.0010867146775126457,0.013711034320294857,-0.0013698278926312923
1782832057631595000,6.417594970703125,-0.009286587126553059,0.007579105906188488,-0.005647930316627026
1782832057641524200,6.427524169921875,-0.007174432277679443,0.00644837599247694,-0.008137056604027748
1782832057651452400,6.437452392578125,-0.009963294491171837,-0.003155249170958996,-0.009486746974289417
1782832057661381000,6.447381103515625,-0.014353153295814991,-0.015266824513673782,-0.007064309902489185
1782832057671310000,6.45731005859375,-0.01211556512862444,-0.0181379783898592,-0.007948213256895542
1782832057681239000,6.467239013671875,-0.008395858108997345,-0.008464304730296135,-0.0035423231311142445
1782832057691168300,6.477168212890625,-0.004409106448292732,0.0018221549689769745,0.002084136940538883
1782832057701097200,6.48709716796875,0.0015984373167157173,0.031011737883090973,-0.01545221172273159
1782832057711026200,6.497026123046875,-0.004942284896969795,0.030541423708200455,-0.027349084615707397
1782832057720954000,6.5069541015625,-0.012123214080929756,0.01690288819372654,-0.023117490112781525
1782832057730883000,6.516883056640625,-0.01257355511188507,0.020436104387044907,-0.01419084146618843
1782832057740812300,6.526812255859375,-0.00606217235326767,0.029493752866983414,-0.0045768581330776215
1782832057750741200,6.5367412109375,-0.011574916541576385,0.02525719627737999,0.014206950552761555
1782832057760670200,6.546670166015625,-0.019600043073296547,0.02177802100777626,0.036180585622787476
1782832057770599200,6.55659912109375,-0.021503139287233353,0.022697608917951584,0.042196400463581085
1782832057780528400,6.5665283203125,-0.017413711175322533,0.024099744856357574,0.019216839224100113
1782832057790457300,6.576457275390625,-0.0161372572183609,-0.0015507573261857033,-0.006026465445756912
1782832057800385300,6.58638525390625,-0.009811552241444588,-0.0297277569770813,-0.02618928626179695
1782832057810314200,6.596314208984375,0.0035689687356352806,-0.04016042500734329,-0.046426113694906235
1782832057820243200,6.6062431640625,0.008145385421812534,-0.060565851628780365,-0.04431166872382164
1782832057830172400,6.61617236328125,0.010001608170568943,-0.07225099951028824,-0.028331637382507324
1782832057840101000,6.62610107421875,-0.0015926733613014221,-0.05949391424655914,-0.002125608269125223
1782832057850030000,6.636030029296875,-0.0069765206426382065,-0.03921021521091461,0.013068790547549725
1782832057859959000,6.645958984375,-0.01563926413655281,-0.01697573810815811,0.021005313843488693
1782832057869887200,6.65588720703125,-0.02158050797879696,0.009186357259750366,0.019132845103740692
1782832057879816200,6.665816162109375,-0.014877725392580032,0.032221339643001556,0.005839194171130657
1782832057889745200,6.6757451171875,-0.003575802780687809,0.029794134199619293,0.004465003497898579
1782832057899674000,6.685674072265625,0.0016702190041542053,0.03087509609758854,0.010929381474852562
1782832057909603000,6.69560302734375,0.0002739233896136284,0.04327131062746048,0.015176590532064438
1782832057919532300,6.7055322265625,-0.006030325777828693,0.03532688692212105,0.013480319641530514
1782832057929461200,6.715461181640625,-0.01100697461515665,0.020243007689714432,0.007733219303190708
1782832057939389200,6.72538916015625,-0.007397789508104324,0.016033846884965897,-0.0005746856331825256
1782832057949318100,6.735318115234375,0.002592792734503746,0.0039649344980716705,-0.013094471767544746
1782832057959247600,6.74524755859375,0.010325531475245953,-0.017049798741936684,-0.014863576740026474
1782832057969176800,6.7551767578125,0.004700403194874525,-0.013927774503827095,-0.004138227552175522
1782832057979105800,6.765105712890625,0.003539256751537323,-0.016301212832331657,0.014346417970955372
1782832057989034800,6.77503466796875,0.0007842173799872398,-0.01794305257499218,0.027398303151130676
1782832057998963700,6.784963623046875,0.002155238762497902,-0.013931195251643658,0.033146657049655914
1782832058008892700,6.794892578125,0.009579598903656006,-0.014062222093343735,0.02403438463807106
1782832058018820900,6.80482080078125,0.014554731547832489,-0.015154165215790272,0.0049198707565665245
1782832058028749800,6.814749755859375,0.01049847062677145,-0.018751829862594604,-0.012383485212922096
1782832058038678500,6.824678466796875,0.002478472888469696,-0.01131842378526926,-0.0015626754611730576
1782832058048607500,6.834607421875,-0.0008520763367414474,-0.0021539535373449326,0.01524160522967577
1782832058058536700,6.84453662109375,-0.009926180355250835,0.006493065506219864,0.03199893608689308
1782832058068465700,6.854465576171875,-0.016566772013902664,0.016657019034028053,0.030952315777540207
1782832058078394600,6.86439453125,-0.017930788919329643,0.011970403604209423,0.029470521956682205
1782832058088322600,6.874322509765625,-0.010670213028788567,0.02118121087551117,0.024525564163923264
1782832058098251800,6.884251708984375,0.0005394406616687775,0.02763274312019348,0.011126848869025707
1782832058108180700,6.8941806640625,0.000626525841653347,0.014462877064943314,0.005741938017308712
1782832058118109700,6.904109619140625,0.0025372449308633804,0.0029260683804750443,0.005550035275518894
1782832058128038700,6.91403857421875,0.014863420277833939,-0.012218529358506203,0.008374051190912724
1782832058137967600,6.923967529296875,0.024441145360469818,-0.023380953818559647,0.015968769788742065
1782832058147896800,6.933896728515625,0.026088576763868332,-0.013707021251320839,0.00989330094307661
1782832058157824800,6.94382470703125,0.021232523024082184,0.005117017775774002,0.0009355936199426651
1782832058167753700,6.953753662109375,0.012593762017786503,0.007956478744745255,-0.004194720648229122
1782832058177682700,6.9636826171875,-0.0016598133370280266,-0.009856081567704678,0.00011884421110153198
1782832058187612000,6.97361181640625,-0.008464455604553223,-0.02843083068728447,0.013248761184513569
1782832058197540900,6.983540771484375,-0.0012180181220173836,-0.021740641444921494,0.01207344327121973
1782832058207469800,6.9934697265625,0.01399662159383297,-0.005449020303785801,0.007988420315086842
1782832058217398500,7.0033984375,0.016613760963082314,-0.005386203993111849,-0.007758726365864277
1782832058227327500,7.013327392578125,0.010038682259619236,-0.0028277048841118813,-0.01780310459434986
1782832058237256000,7.023255859375,-0.0004631560295820236,0.009357332251966,-0.026184644550085068
1782832058247184600,7.0331845703125,-0.003005409613251686,0.01625385507941246,-0.019784804433584213
1782832058257113600,7.043113525390625,-0.009445282630622387,0.026812711730599403,-0.000780005007982254
1782832058267042600,7.05304248046875,-0.014789181761443615,0.02540363185107708,0.018776385113596916
1782832058276971800,7.0629716796875,-0.014670472592115402,0.01714383065700531,0.025498783215880394
1782832058286900700,7.072900634765625,-0.011885605752468109,0.014820755459368229,0.024489441886544228
1782832058296829700,7.08282958984375,-0.009523257613182068,0.011737369000911713,0.021015029400587082
1782832058306757600,7.092757568359375,-0.0022498993203043938,0.006523432210087776,0.017420828342437744
1782832058316686600,7.1026865234375,0.0073640309274196625,-0.009591843001544476,0.019568074494600296
1782832058326615800,7.11261572265625,0.012055722065269947,-0.01898028515279293,0.019745707511901855
1782832058336544800,7.122544677734375,0.011854205280542374,-0.00613532355055213,0.0017434600740671158
1782832058346473700,7.1324736328125,0.007573706563562155,0.003901330754160881,-0.01575217768549919
1782832058356402700,7.142402587890625,-0.003602982498705387,0.0031137950718402863,-0.01767115667462349
1782832058366332000,7.152331787109375,-0.0010727131739258766,0.012643118388950825,-0.015650084242224693
1782832058376259800,7.162259765625,-0.00464954599738121,0.03177341818809509,-0.016759034246206284
1782832058386188800,7.172188720703125,-0.005940381437540054,0.03403071314096451,-0.014307859353721142
1782832058396117800,7.18211767578125,-0.0014474745839834213,0.018718572333455086,-0.009908033534884453
1782832058406046700,7.192046630859375,0.0007901135832071304,0.0035963449627161026,-0.004770529456436634
1782832058415976000,7.201975830078125,-0.0006869742646813393,0.00046314019709825516,0.0042403871193528175
1782832058425904600,7.211904541015625,-0.004521393217146397,0.014671371318399906,0.021083548665046692
1782832058435833600,7.22183349609375,-0.0019886987283825874,0.016956394538283348,0.03179564327001572
1782832058445762600,7.231762451171875,-0.004636945202946663,0.017413925379514694,0.02670740708708763
1782832058455690500,7.2416904296875,-0.007309076376259327,-0.0017323782667517662,0.010263247415423393
1782832058465619700,7.25161962890625,-0.005700527690351009,-0.026104561984539032,-0.017024565488100052
1782832058475548700,7.261548583984375,0.00311883632093668,-0.027937065809965134,-0.038641687482595444
1782832058485477600,7.2714775390625,0.00687948614358902,-0.018977126106619835,-0.06318111717700958
1782832058495406600,7.281406494140625,0.010155035182833672,-0.03049447014927864,-0.07022709399461746
1782832058505335800,7.291335693359375,0.00870041735470295,-0.041589997708797455,-0.054301124066114426
1782832058515264800,7.3012646484375,0.003569910302758217,-0.02799641340970993,-0.021619919687509537
1782832058525192700,7.311192626953125,-0.0012948866933584213,0.003519168123602867,0.010376895777881145
1782832058535121700,7.32112158203125,-0.014232398942112923,0.028763514012098312,0.029515787959098816
1782832058545050600,7.331050537109375,-0.022321749478578568,0.04327135160565376,0.02822308987379074
1782832058554979800,7.340979736328125,-0.016967859119176865,0.05040859803557396,0.027712613344192505
1782832058564908800,7.35090869140625,-0.010342180728912354,0.046889498829841614,0.019826993346214294
1782832058574837800,7.360837646484375,-0.005758669227361679,0.025188758969306946,0.008116145618259907
1782832058584766700,7.3707666015625,-0.0028856508433818817,0.006676593795418739,-0.006068649236112833
1782832058594695700,7.38069580078125,0.0005418499931693077,0.0024892957881093025,-0.012195552699267864
1782832058604624000,7.390623779296875,0.0032891668379306793,0.01501680538058281,-0.01869579590857029
1782832058614552800,7.400552734375,0.005207189824432135,0.01148251909762621,-0.02757374197244644
1782832058624481800,7.410481689453125,-0.0038329102098941803,-0.008358564227819443,-0.01703588292002678
1782832058634410500,7.420410400390625,0.0006657447665929794,-0.016790106892585754,-0.006739807780832052
1782832058644339700,7.430339599609375,0.008123661391437054,-0.03072882443666458,0.008193600922822952
1782832058654268700,7.4402685546875,0.0052189393900334835,-0.02925582230091095,0.015257137827575207
1782832058664197600,7.45019775390625,-0.003947927616536617,-0.00487511558458209,0.0062897419556975365
1782832058674125600,7.46012548828125,-0.008347359485924244,0.0014426428824663162,-0.0047972723841667175
1782832058684054500,7.470054443359375,-0.011620384640991688,-0.009966605342924595,-0.00797176081687212
1782832058693983700,7.479983642578125,-0.002972261980175972,-0.008958843536674976,-0.005825228989124298
1782832058703912700,7.48991259765625,0.004991921596229076,-0.00967070646584034,-0.00012047123163938522
1782832058713841700,7.499841552734375,0.014345367439091206,0.002539859153330326,-0.002934346441179514
1782832058723770600,7.5097705078125,0.014811420813202858,0.01745063066482544,-0.005958099849522114
1782832058733699800,7.519699951171875,0.0031989123672246933,0.002508988603949547,-0.004208002705127001
1782832058743628800,7.52962890625,-0.004098414443433285,-0.004339862614870071,0.0014059413224458694
1782832058753556700,7.539556640625,-0.00410330668091774,0.013948602601885796,-0.004312553443014622
1782832058763485700,7.549485595703125,0.003117854706943035,0.01927838660776615,-0.0157654769718647
1782832058773414700,7.55941455078125,0.010282699018716812,0.00844302773475647,-0.012486539781093597
1782832058783343900,7.56934375,0.010110925883054733,0.01446523331105709,-0.00498175248503685
1782832058793272800,7.57927294921875,0.011679932475090027,0.01961207389831543,-0.002329596783965826
1782832058803201800,7.589201904296875,0.008542196825146675,0.008236116729676723,-0.005957354791462421
1782832058813130500,7.599130615234375,0.00015632249414920807,-0.02146477811038494,-0.0021869726479053497
1782832058823058700,7.60905859375,-0.0008143996819853783,-0.02241392806172371,0.016667407006025314
1782832058832988000,7.61898779296875,0.0004664827138185501,-0.0062264311127364635,0.033726129680871964
1782832058842916600,7.62891650390625,-0.00898401066660881,-0.0016710944473743439,0.023677758872509003
1782832058852845600,7.638845458984375,-0.017027823254466057,-0.006718583405017853,0.0006635207682847977
1782832058862774500,7.6487744140625,-0.013087941333651543,-0.007544429507106543,-0.02279653213918209
1782832058872703700,7.658703857421875,0.004958631936460733,-0.00011395290493965149,-0.0339982770383358
1782832058882632700,7.6686328125,0.018927710130810738,-0.0067787799052894115,-0.026734504848718643
1782832058892561700,7.678561767578125,0.020003966987133026,-0.010248375125229359,-0.02004401385784149
1782832058902489600,7.688489501953125,0.000817490741610527,-0.014119812287390232,-0.003769436851143837
1782832058912418600,7.69841845703125,-0.015531165525317192,-0.01970493048429489,0.020538264885544777
1782832058922347800,7.70834765625,-0.021924616768956184,-0.004659135825932026,0.029435086995363235
1782832058932276700,7.71827685546875,-0.010231757536530495,0.013906785286962986,0.033220939338207245
1782832058942205700,7.728205810546875,-0.005159500986337662,0.024168208241462708,0.028690636157989502
1782832058952134700,7.738134765625,0.002367601729929447,0.024219371378421783,0.0243825800716877
1782832058962062300,7.748062255859375,0.009475578553974628,0.006559419445693493,0.008425983600318432
1782832058971990300,7.757990234375,0.006181514821946621,-0.010611312463879585,-0.009714937768876553
1782832058981919500,7.76791943359375,-0.0015034480020403862,-0.01896321028470993,-0.01919180527329445
1782832058991848400,7.777848388671875,-0.011420621536672115,-0.02878553792834282,-0.016686363145709038
1782832059001777400,7.78777734375,-0.009454409591853619,-0.027251023799180984,-0.014630137011408806
1782832059011706400,7.797706298828125,-0.004867536015808582,-0.010335437022149563,-0.009192109107971191
1782832059021635600,7.807635498046875,-0.0038864267989993095,0.004038441926240921,0.006057684309780598
1782832059031564500,7.817564453125,-0.003606218844652176,0.021958880126476288,0.011158465407788754
1782832059041493500,7.827493408203125,-0.005697332322597504,0.029453545808792114,0.011214124970138073
1782832059051421400,7.83742138671875,-0.015001844614744186,0.04002067819237709,0.011865164153277874
1782832059061350400,7.847350341796875,-0.023880822584033012,0.046189092099666595,0.019073273986577988
1782832059071279600,7.857279541015625,-0.030154278501868248,0.031242381781339645,0.016901079565286636
1782832059081208600,7.86720849609375,-0.03281530737876892,0.0069524869322776794,0.011620563454926014
1782832059091137500,7.877137451171875,-0.022717246785759926,-0.009029394015669823,0.0006231870502233505
1782832059101066200,7.887066162109375,-0.00025428086519241333,-0.02646058239042759,-0.006221669260412455
1782832059110995500,7.896995361328125,0.013306381180882454,-0.023270394653081894,-0.025951310992240906
1782832059120923400,7.90692333984375,0.016366086900234222,-0.055832866579294205,-0.03784498944878578
1782832059130852400,7.916852294921875,0.0034279758110642433,-0.07464221864938736,-0.03689824044704437
1782832059140781300,7.92678125,0.002758190967142582,-0.046928033232688904,-0.027331901714205742
1782832059150710300,7.936710205078125,0.0007018353790044785,-0.01960136741399765,-0.021011903882026672
1782832059160639500,7.946639404296875,-0.00855824165046215,0.000538255088031292,-0.007303283084183931
1782832059170568400,7.956568359375,-0.010016433894634247,0.0183955617249012,-0.0027350159361958504
1782832059180497400,7.966497314453125,-0.007038487121462822,0.020102914422750473,-0.00017811497673392296
1782832059190426400,7.97642626953125,-0.003478061407804489,0.011032216250896454,0.013257027603685856
1782832059200354300,7.986354248046875,0.00115157850086689,0.020307738333940506,0.018938083201646805
1782832059210283500,7.996283447265625,0.004245396703481674,0.029749158769845963,0.013081721030175686
1782832059220212500,8.00621240234375,0.0017723850905895233,0.01800355315208435,0.009183119051158428
1782832059230141400,8.016141357421875,-0.0030756574124097824,-0.005626922473311424,0.008206875063478947
1782832059240070400,8.0260703125,-0.0020601944997906685,-0.005045820493251085,0.0030041243880987167
1782832059249999600,8.03599951171875,-0.003006909042596817,0.005814523436129093,0.004334800876677036
1782832059259928600,8.045928466796875,-0.007501792162656784,-0.002754463814198971,0.024853922426700592
1782832059269856500,8.0558564453125,-0.005767988972365856,-0.0027702152729034424,0.046147022396326065
1782832059279785500,8.065785400390626,0.0007857829332351685,0.008284566923975945,0.04472702741622925
1782832059289714400,8.07571435546875,-0.0004890458658337593,0.0026786401867866516,0.0316951721906662
1782832059299643400,8.085643310546875,-0.0008019674569368362,-0.01210483256727457,0.002320772036910057
1782832059309572400,8.095572265625,0.009704416617751122,-0.018348317593336105,-0.024420687928795815
1782832059319501300,8.105501220703125,0.015484008938074112,-0.0364074781537056,-0.034411802887916565
1782832059329430300,8.11543017578125,0.018254492431879044,-0.039407044649124146,-0.033896878361701965
1782832059339358500,8.1253583984375,0.01792745664715767,-0.02961539849638939,-0.021671371534466743
1782832059349287400,8.135287353515626,0.010590232908725739,-0.0032979631796479225,-0.002781407907605171
1782832059359216400,8.14521630859375,-0.00206697266548872,0.016259491443634033,0.015442335978150368
1782832059369145300,8.155145263671875,-0.006748011335730553,0.03724227473139763,0.01925518363714218
1782832059379074300,8.16507421875,-0.007118456065654755,0.03966628387570381,0.018741194158792496
1782832059389003500,8.17500341796875,-0.009577292948961258,0.017781175673007965,0.026946749538183212
1782832059398932500,8.184932373046875,-0.003547629341483116,0.001487690955400467,0.020286448299884796
1782832059408861400,8.194861328125,0.0005112579092383385,0.009648974984884262,0.0026681460440158844
1782832059418789400,8.204789306640626,0.0041992031037807465,0.024697965011000633,-0.016938844695687294
1782832059428718600,8.214718505859375,0.014024250209331512,0.01007833518087864,-0.030247429385781288
1782832059438647600,8.2246474609375,0.019325006753206253,-0.024478308856487274,-0.016994476318359375
1782832059448576500,8.234576416015624,0.0175265334546566,-0.027196645736694336,0.004019127227365971
1782832059458505500,8.24450537109375,0.009106416255235672,-0.017061453312635422,0.0013786032795906067
1782832059468434400,8.254434326171875,0.006233058869838715,-0.019220756366848946,-0.011161383241415024
1782832059478363400,8.26436328125,-0.0009678620845079422,-0.02706989087164402,-0.027345413342118263
1782832059488292400,8.274292236328124,0.00458670174703002,-0.018955828621983528,-0.026826530694961548
1782832059498220500,8.284220458984375,0.015885163098573685,-0.019843459129333496,-0.012837743386626244
1782832059508149500,8.2941494140625,0.01379090454429388,-0.009174223989248276,0.011949256993830204
1782832059518078500,8.304078369140624,0.004413648042827845,0.0027463510632514954,0.03585405647754669
1782832059528007400,8.31400732421875,-0.0023551788181066513,0.024079255759716034,0.029749207198619843
1782832059537936400,8.323936279296875,-0.0018491782248020172,0.018370501697063446,0.0072004906833171844
1782832059547865300,8.333865234375,-0.00753766018897295,-0.013809284195303917,0.009375426918268204
1782832059557794300,8.343794189453124,-0.0011735046282410622,-0.005281310062855482,0.01134376972913742
1782832059567722500,8.353722412109375,0.006698724813759327,0.004116017371416092,0.013694084249436855
1782832059577651500,8.3636513671875,0.009864157997071743,0.004352506250143051,0.016249388456344604
1782832059587580400,8.373580322265624,0.010962191969156265,-0.0018691802397370338,0.014714570716023445
1782832059597509400,8.38350927734375,0.011748889461159706,-0.02016269974410534,0.006894997321069241
1782832059607438600,8.3934384765625,0.007853629067540169,-0.025002771988511086,-0.013353802263736725
1782832059617367600,8.403367431640625,0.0036823200061917305,-0.02064237743616104,-0.026769209653139114
1782832059627296500,8.413296630859374,0.0007908539846539497,-0.008185386657714844,-0.028304042294621468
1782832059637225500,8.4232255859375,-0.0013135755434632301,-0.0023453403264284134,-0.014854013919830322
1782832059647153400,8.4331533203125,0.0015362324193120003,0.0000897655263543129,-0.0020020627416670322
1782832059657082600,8.44308251953125,0.0023362459614872932,0.0028069885447621346,-0.003017792012542486
1782832059667011600,8.453011474609376,0.006374354474246502,0.007609222084283829,-0.011821300722658634
1782832059676940500,8.4629404296875,0.007305928040295839,0.028269492089748383,-0.014582732692360878
1782832059686869500,8.472869384765625,0.008350186981260777,0.029864761978387833,-0.005736979655921459
1782832059696798500,8.482798583984374,-0.0006606178358197212,0.031619250774383545,0.005860021337866783
1782832059706727400,8.4927275390625,-0.010026357136666775,0.02721460908651352,0.02345481887459755
1782832059716655600,8.502655517578125,-0.015768401324748993,0.0087141627445817,0.038169316947460175
1782832059726584300,8.512584228515625,-0.014776245690882206,0.002710314467549324,0.041218988597393036
1782832059736513300,8.52251318359375,-0.002770981751382351,-0.0038634324446320534,0.017585566267371178
1782832059746442500,8.5324423828125,0.00918581336736679,-0.020707346498966217,-0.016997314989566803
1782832059756371500,8.542371337890625,0.020931685343384743,-0.0350351557135582,-0.053945478051900864
1782832059766300400,8.552300537109375,0.02696564979851246,-0.04448007792234421,-0.07901551574468613
1782832059776229400,8.5622294921875,0.018139135092496872,-0.025446999818086624,-0.08018810302019119
1782832059786158600,8.57215869140625,0.006648549344390631,-0.0004968959838151932,-0.058549776673316956
1782832059796086500,8.58208642578125,-0.010098738595843315,0.029232237488031387,-0.012309577316045761
1782832059806015500,8.592015380859374,-0.02040877565741539,0.047049298882484436,0.033366382122039795
1782832059815944400,8.6019443359375,-0.01861726865172386,0.0614338293671608,0.06732089072465897
1782832059825873400,8.611873291015625,-0.009729022160172462,0.08247177302837372,0.07047554850578308
1782832059835802600,8.621802734375,0.00027514342218637466,0.09856392443180084,0.06642566621303558
1782832059845731600,8.631731689453124,0.012752531096339226,0.10474186390638351,0.05427594855427742
1782832059855660500,8.64166064453125,0.01597575470805168,0.07563936710357666,0.05205540359020233
1782832059865589500,8.651589599609375,0.009654317051172256,0.05383077263832092,0.04886464774608612
1782832059875517400,8.661517333984374,0.007409272715449333,0.053474172949790955,0.042873598635196686
1782832059885446700,8.67144677734375,0.011483868584036827,0.056618060916662216,0.019494079053401947
1782832059895375600,8.681375732421875,0.011224210262298584,0.05874193087220192,-0.007576152682304382
1782832059905304300,8.69130419921875,0.011264647357165813,0.058756280690431595,-0.019457604736089706
1782832059915233300,8.7012333984375,0.0017675487324595451,0.03783528879284859,-0.011032961308956146
1782832059925162500,8.71116259765625,-0.008471997454762459,0.01008943933993578,0.009166075848042965
1782832059935091500,8.721091552734375,-0.008635781705379486,-0.002148052677512169,0.018562238663434982
1782832059945019400,8.731019287109374,0.001172095537185669,-0.003949939273297787,0.022950634360313416
1782832059954948400,8.7409482421875,0.013821577653288841,0.004943154752254486,0.02081930637359619
1782832059964877300,8.750877197265625,0.026236219331622124,0.009996533393859863,0.023125899955630302
1782832059974806300,8.76080615234375,0.03733893856406212,-0.005953403655439615,0.03309304267168045
1782832059984735200,8.7707353515625,0.0503525510430336,-0.00017279945313930511,0.017717070877552032
1782832059994664400,8.78066455078125,0.03931108117103577,0.003999840468168259,0.003215095028281212
1782832060004593400,8.790593505859375,0.028817269951105118,0.013842668384313583,-0.01533166691660881
1782832060014522400,8.8005224609375,0.022245388478040695,0.029967840760946274,-0.012883955612778664
1782832060024450300,8.8104501953125,0.009627330116927624,0.03670830279588699,-0.0006653731688857079
1782832060034379500,8.820379638671875,-0.0006399545818567276,0.04077734425663948,0.015742629766464233
1782832060044308500,8.83030859375,-0.005653586238622665,0.04812045395374298,0.03199872374534607
1782832060054237400,8.840237548828124,0.0021505411714315414,0.06161735579371452,0.041057467460632324
1782832060064166400,8.85016650390625,0.01739368960261345,0.0780692920088768,0.03469487279653549
1782832060074095400,8.860095458984375,0.027765369042754173,0.07455898076295853,0.02993953227996826
1782832060084024300,8.8700244140625,0.031216319650411606,0.050736986100673676,0.024744432419538498
1782832060093953300,8.879953369140624,0.0317995548248291,0.010125376284122467,0.006940669380128384
1782832060103881500,8.889881591796875,0.030672451481223106,-0.01402919553220272,-0.005644757766276598
1782832060113810200,8.89981005859375,0.030850084498524666,-0.01649767905473709,-0.017578382045030594
1782832060123739400,8.909739501953124,0.03076319396495819,0.006370340473949909,-0.028834722936153412
1782832060133668400,8.91966845703125,0.025013163685798645,0.028641823679208755,-0.03688066452741623
1782832060143597300,8.929597412109375,0.0052458373829722404,0.060408815741539,-0.04184822738170624
1782832060153526300,8.9395263671875,-0.009065990336239338,0.042272426187992096,-0.02742481231689453
1782832060163455500,8.94945556640625,-0.017562445253133774,-0.0039702244102954865,0.005744884721934795
1782832060173383400,8.959383544921875,-0.00029397569596767426,-0.017582707107067108,0.0388178825378418
1782832060183312400,8.9693125,0.018746575340628624,-0.0006103431805968285,0.052521806210279465
1782832060193241300,8.979241455078125,0.03502408415079117,0.03335960581898689,0.0480000264942646
1782832060203170300,8.98917041015625,0.04296662285923958,0.043747786432504654,0.036312784999608994
1782832060213099500,8.999099609375,0.04975688457489014,0.02519700676202774,0.013052736409008503
1782832060223028500,9.009028564453125,0.04764566197991371,-0.016391150653362274,-0.001263934187591076
1782832060232957400,9.01895751953125,0.0445268340408802,-0.03127715364098549,-0.008005193434655666
1782832060242886400,9.028886474609376,0.0312536247074604,-0.019419953227043152,-0.017758186906576157
1782832060252814300,9.038814453125,0.010355534963309765,0.014783023856580257,-0.03200077265501022
1782832060262743600,9.04874365234375,-0.001984969712793827,0.015194181352853775,-0.03617222234606743
1782832060272672500,9.058672607421874,-0.008135007694363594,0.0007531903684139252,-0.04146605357527733
1782832060282601500,9.0686015625,-0.006214845925569534,-0.021831966936588287,-0.045576274394989014
1782832060292530200,9.0785302734375,0.0004414580762386322,-0.013295736163854599,-0.0446135438978672
1782832060302459400,9.08845947265625,0.011371301487088203,0.020923178642988205,-0.02376824989914894
1782832060312388400,9.098388427734376,0.02627674862742424,0.05921570956707001,0.02065540850162506
1782832060322317300,9.1083173828125,0.052809156477451324,0.07506127655506134,0.07488131523132324
1782832060332245200,9.118245361328125,0.057075805962085724,0.04873061180114746,0.12042643874883652
1782832060342174200,9.12817431640625,0.03982634097337723,0.03383154794573784,0.1194891557097435
1782832060352103400,9.138103515625,0.01303680520504713,0.03071644902229309,0.08273086696863174
1782832060362032400,9.148032470703125,-0.019369203597307205,0.01944272592663765,0.02571743354201317
1782832060371961300,9.15796142578125,-0.038620926439762115,-0.0002750549465417862,-0.022863151505589485
1782832060381890300,9.167890380859374,-0.04459737613797188,-0.02308312989771366,-0.04924667999148369
1782832060391819500,9.177819580078125,-0.0305342860519886,-0.025994498282670975,-0.05349229276180267
1782832060401748500,9.18774853515625,-0.009342946112155914,-0.011900808662176132,-0.04747924953699112
1782832060411676400,9.197676513671874,0.014676368795335293,-0.00508977472782135,-0.03399273380637169
1782832060421605400,9.20760546875,0.02803223393857479,-0.007178772706538439,-0.01967519521713257
1782832060431534300,9.217534423828125,0.03379611298441887,-0.009381473064422607,-0.0015031145885586739
1782832060441463600,9.227463623046875,0.02554025501012802,-0.006464795675128698,0.020192600786685944
1782832060451392500,9.237392578125,0.007468311116099358,-0.003145698457956314,0.03947148844599724
1782832060461321500,9.247321533203126,-0.01084134355187416,0.016423065215349197,0.04630269855260849
1782832060471250200,9.257250244140625,-0.03068935126066208,0.02409536764025688,0.041032567620277405
1782832060481178400,9.267178466796874,-0.03433335945010185,0.007341875694692135,0.04578160494565964
1782832060491107600,9.277107666015626,-0.020579729229211807,0.004791366867721081,0.048650361597537994
1782832060501036300,9.287036376953125,0.0025141602382063866,-0.0008689342066645622,0.050224486738443375
1782832060510965200,9.29696533203125,0.027637090533971786,-0.0034593911841511726,0.03400183841586113
1782832060520894200,9.306894287109374,0.035697631537914276,-0.026523925364017487,-0.0023520300164818764
1782832060530823400,9.316823486328126,0.02836967632174492,-0.06683805584907532,-0.029010804370045662
1782832060540752400,9.32675244140625,0.015216154977679253,-0.08816599100828171,-0.038814544677734375
1782832060550681300,9.336681396484375,0.0060042813420295715,-0.08198586106300354,-0.03457586094737053
1782832060560609300,9.346609375,-0.003670050762593746,-0.04819384217262268,-0.008815588429570198
1782832060570538200,9.356538330078125,-0.006298324093222618,-0.002822897396981716,0.030990682542324066
1782832060580467500,9.366467529296875,-0.005934787914156914,0.021187085658311844,0.0727977454662323
1782832060590396400,9.376396484375,-0.00795958936214447,0.04831590875983238,0.1082441508769989
1782832060600325400,9.386325439453126,-0.006857298314571381,0.07330653816461563,0.1171610876917839
1782832060610254300,9.39625439453125,-0.0034854691475629807,0.07868213206529617,0.10721231251955032
1782832060620183600,9.40618359375,0.0008799601346254349,0.057204488664865494,0.06719741970300674
1782832060630112500,9.416112548828124,0.007737333420664072,-0.004012797959148884,0.01304443646222353
1782832060640040400,9.42604052734375,0.013386467471718788,-0.049261197447776794,-0.028372712433338165
1782832060649969400,9.435969482421875,0.00858159177005291,-0.08727036416530609,-0.05157763510942459
1782832060659898400,9.4458984375,0.013834580779075623,-0.0784803256392479,-0.04419444128870964
1782832060669827600,9.45582763671875,0.01508173905313015,-0.025361184030771255,-0.020523197948932648
1782832060679756300,9.46575634765625,0.015148897655308247,0.03134280443191528,0.010977860540151596
1782832060689685200,9.475685302734375,0.017081286758184433,0.0739525854587555,0.04588284716010094
1782832060699614200,9.4856142578125,0.014490228146314621,0.0910477414727211,0.07895126938819885
1782832060709543400,9.49554345703125,0.005891680251806974,0.07713858038187027,0.09216374158859253
1782832060719471400,9.505471435546875,-0.006804167293012142,0.05065631866455078,0.08057702332735062
1782832060729400300,9.515400390625,-0.020691223442554474,0.014956645667552948,0.04919113591313362
1782832060739329300,9.525329345703126,-0.021315185353159904,-0.019635887816548347,0.006739958189427853
1782832060749258200,9.53525830078125,-0.009404728189110756,-0.03456397354602814,-0.028904058039188385
1782832060759187500,9.5451875,0.010289707221090794,-0.04525237902998924,-0.0555892176926136
1782832060769116400,9.555116455078124,0.03221151977777481,-0.044184453785419464,-0.05809285491704941
1782832060779045400,9.56504541015625,0.04091208800673485,-0.03801199421286583,-0.050843097269535065
1782832060788974300,9.574974365234375,0.02991509810090065,-0.04585287719964981,-0.02685866877436638
1782832060798902300,9.58490234375,0.009650329127907753,-0.02806643769145012,-0.002804536372423172
1782832060808831500,9.59483154296875,-0.005153383128345013,-0.005539558827877045,0.01850501261651516
1782832060818760400,9.604760498046875,-0.00986050721257925,0.008287564851343632,0.043470513075590134
1782832060828689400,9.614689453125,-0.000048090703785419464,0.024040959775447845,0.05367947369813919
1782832060838618400,9.624618408203125,0.01206868514418602,0.016241881996393204,0.050619013607501984
1782832060848547600,9.634547607421876,0.008348248898983002,-0.0031299516558647156,0.03487227484583855
1782832060858476300,9.644476318359375,0.003390365280210972,-0.007521193940192461,0.01512172818183899
1782832060868404500,9.654404541015625,-0.0007817428559064865,-0.012952444143593311,-0.0018340861424803734
1782832060878333400,9.66433349609375,-0.0039675114676356316,-0.003290291875600815,-0.013267096132040024
1782832060888262100,9.67426220703125,0.0016381768509745598,0.013114514760673046,-0.022781770676374435
1782832060898191400,9.68419140625,0.00214528851211071,0.013711092062294483,-0.022930879145860672
1782832060908120300,9.694120361328125,-0.0055997176095843315,0.00953685399144888,-0.01901203766465187
1782832060918049300,9.70404931640625,-0.012127282097935677,0.009579448960721493,-0.012835517525672913
1782832060927978200,9.713978271484375,-0.016520965844392776,0.008460921235382557,0.00454240757972002
1782832060937907500,9.723907470703125,-0.016979489475488663,0.03200354427099228,0.02493738755583763
1782832060947835400,9.73383544921875,-0.013149596750736237,0.059223975986242294,0.034710656851530075
1782832060957764400,9.743764404296876,-0.00652657076716423,0.05872649326920509,0.029754210263490677
1782832060967693800,9.75369384765625,-0.0074770525097846985,0.02710438147187233,0.020970307290554047
1782832060977622800,9.763622802734375,-0.010708440095186234,0.00425826758146286,0.012205409817397594
1782832060987551700,9.7735517578125,-0.01050550863146782,0.00510062463581562,0.0019719479605555534
1782832060997480700,9.783480712890626,-0.014123236760497093,0.008131224662065506,0.003757231868803501
1782832061007410000,9.793409912109375,-0.018393881618976593,0.016611529514193535,0.009586358442902565
1782832061017339000,9.8033388671875,-0.016797231510281563,-0.0006082020699977875,0.011179117485880852
1782832061027266800,9.813266845703126,-0.017043307423591614,-0.041879210621118546,0.021479425951838493
1782832061037195800,9.82319580078125,-0.006249092519283295,-0.05460803955793381,0.021068647503852844
1782832061047124700,9.833124755859375,0.005206227768212557,-0.03633502498269081,0.008018359541893005
1782832061057053700,9.8430537109375,0.018113359808921814,-0.01069227047264576,-0.008605540730059147
1782832061066982700,9.852982666015626,0.012993432581424713,0.02378448098897934,-0.023680631071329117
1782832061076911600,9.86291162109375,0.007556383963674307,0.06364962458610535,-0.03339158743619919
1782832061086840600,9.872840576171875,-0.002254967577755451,0.058119840919971466,-0.03495166823267937
1782832061096769800,9.882769775390624,-0.00717554334551096,0.018590500578284264,-0.008790090680122375
1782832061106697700,9.89269775390625,-0.0008726399391889572,-0.0028016073629260063,0.00920409057289362
1782832061116626700,9.902626708984375,0.008586506359279156,-0.009447496384382248,0.019492894411087036
1782832061126555600,9.9125556640625,0.014335738494992256,-0.007690343074500561,0.023219723254442215
1782832061136484600,9.922484619140626,0.010520000010728836,0.011702771298587322,0.019937805831432343
1782832061146413800,9.932413818359375,0.0025883065536618233,0.02513708546757698,0.021866466850042343
1782832061156342800,9.9423427734375,0.0048375907354056835,0.03743884712457657,0.025250788778066635
1782832061166271700,9.952271728515624,0.0032692551612854004,0.03768252581357956,0.01740378886461258
1782832061176200700,9.96220068359375,0.012051999568939209,0.03402894735336304,0.014833417721092701
1782832061186128600,9.972128662109375,0.01765289343893528,0.01834345981478691,0.012256010435521603
1782832061196057900,9.982057861328125,0.02530529908835888,0.0023822644725441933,0.021398387849330902
1782832061205986800,9.99198681640625,0.02783876284956932,-0.007974502630531788,0.019809812307357788
1782832061215915800,10.001915771484375,0.02684582769870758,-0.013728246092796326,0.012276943773031235
1782832061225844700,10.0118447265625,0.020068615674972534,-0.018970413133502007,0.008330406621098518
1782832061235773700,10.021773681640624,0.01806647703051567,-0.013071529567241669,0.0004183482378721237
1782832061245702700,10.03170263671875,0.019580749794840813,0.004364718683063984,-0.00486989039927721
1782832061255630800,10.041630859375,0.013973391614854336,0.01619819924235344,-0.011158637702465057
1782832061265559600,10.0515595703125,0.010725666768848896,0.019114091992378235,-0.009269656613469124
1782832061275488500,10.061488525390626,0.005929519422352314,0.01550156157463789,-0.01643284782767296
1782832061285417700,10.071417724609375,0.010373003780841827,0.007489173673093319,-0.01818520948290825
1782832061295346700,10.0813466796875,0.014900431036949158,0.013830196112394333,-0.01702004298567772
1782832061305275600,10.091275634765625,0.019639525562524796,0.02861979603767395,-0.023367419838905334
1782832061315204600,10.10120458984375,0.02422100491821766,0.02983495406806469,-0.03194773942232132
1782832061325133800,10.1111337890625,0.02357625402510166,0.011457543820142746,-0.04380360245704651
1782832061335061800,10.121061767578125,0.019620470702648163,-0.0069963508285582066,-0.048702433705329895
1782832061344990700,10.13099072265625,0.011887182481586933,-0.0008023707196116447,-0.04898073151707649
1782832061354919700,10.140919677734376,0.006212479900568724,0.09096911549568176,0.017589611932635307
1782832061364848600,10.1508486328125,-0.0014699408784508705,0.20489409565925598,0.1311793029308319
1782832061374777900,10.16077783203125,-0.017987241968512535,0.1507302075624466,0.10458192229270935
1782832061384706800,10.170706787109374,-0.03956656903028488,0.023918461054563522,0.0368763729929924
1782832061394635800,10.1806357421875,-0.025068417191505432,-0.05876016616821289,-0.021294407546520233
1782832061404564700,10.190564697265625,0.012603062205016613,-0.09481324255466461,-0.06858363002538681
1782832061414492700,10.20049267578125,0.034805215895175934,-0.11565301567316055,-0.09220285713672638
1782832061424422000,10.210421875,0.034811876714229584,-0.100332111120224,-0.0967526063323021
