time,seconds_elapsed,z,y,x
1782831849332588800,0.0715888671875,-0.08090250570774078,-0.03320591680153739,0.027429260495700873
1782831849342517500,0.081517578125,-0.07551730553805827,-0.025842080352513584,0.02580105650566984
1782831849352446700,0.09144677734375,-0.0779126762419939,-0.01844749257219955,0.024350606535607947
1782831849362375700,0.101375732421875,-0.08360007422864436,-0.03250025960007915,0.026242735858564264
1782831849372305700,0.1113056640625,-0.07926175276339054,-0.02623870357084088,0.027086086780950425
1782831849382235000,0.12123486328125,-0.0767190825432539,-0.03387705067888601,0.026891500357189214
1782831849392163800,0.131163818359375,-0.08225684292614459,-0.033749111166992224,0.02602110159767326
1782831849402092800,0.1410927734375,-0.07492576938569545,-0.02697736570946872,0.027632304220553485
1782831849412021800,0.151021728515625,-0.0828577314287424,-0.022468889008811672,0.02197547033552546
1782831849421951700,0.16095166015625,-0.07911854490041732,-0.025509307017480023,0.025414861066523006
1782831849431880700,0.170880615234375,-0.07912029846608638,-0.03325590255626011,0.028119069390767252
1782831849441809700,0.1808095703125,-0.07313654788136482,-0.03183713093267288,0.028029756272654048
1782831849451739000,0.19073876953125,-0.08017126882374286,-0.026243194799579213,0.0296092211835552
1782831849461668600,0.200668701171875,-0.08301496781706809,-0.023390360368438994,0.022143492979346775
1782831849471597600,0.21059765625,-0.06984919677376747,-0.0235539009166765,0.019129725515586324
1782831849481526500,0.220526611328125,-0.08271978426277637,-0.028389604844280984,0.02414012842297088
1782831849491455700,0.230455810546875,-0.08466682667732238,-0.0296450665317825,0.03038159379553981
1782831849501384700,0.240384765625,-0.0761392368286848,-0.02181769052450545,0.030560503159556537
1782831849511314700,0.250314697265625,-0.08811199869513511,-0.024326958515250588,0.014245761999464594
1782831849521244000,0.260243896484375,-0.0988870752096176,-0.020119126995292027,0.018002059492794795
1782831849531172900,0.2701728515625,-0.08512216922938823,-0.03101697365620639,0.022529053664254024
1782831849541101600,0.2801015625,-0.07839023062586783,-0.019354188771091865,0.030347152669820934
1782831849551031800,0.29003173828125,-0.08647124575078487,-0.027379539602459407,0.02743846214888617
1782831849560960800,0.299960693359375,-0.08422785073816776,-0.0217278682330274,0.028289937012223525
1782831849570889700,0.3098896484375,-0.07540157020390033,-0.02139756541629322,0.03489412105022929
1782831849580818700,0.319818603515625,-0.07884440413415432,-0.026211139710480346,0.022657739811530336
1782831849590748000,0.329747802734375,-0.08019289613366126,-0.016851373354019598,0.01994362658120226
1782831849600677600,0.339677734375,-0.0743576141089201,-0.018978030668769498,0.017437584877293556
1782831849610606600,0.349606689453125,-0.08453472473025321,-0.014239414457068778,0.01096402778190095
1782831849620535600,0.35953564453125,-0.08214227663576602,-0.02136991935754195,0.020723725841916164
1782831849630464800,0.36946484375,-0.07900105600059032,-0.024394352062500547,0.018929691165150142
1782831849640393700,0.379393798828125,-0.0863350521504879,-0.023871883107954635,0.01208313147232402
1782831849650323700,0.38932373046875,-0.07990180423259735,-0.022811391436704433,0.009000070765172131
1782831849660253000,0.3992529296875,-0.08977905512452125,-0.016431319027754944,0.01806137933144346
1782831849670181600,0.409181640625,-0.0869365251749754,-0.02576494629596127,0.023821162134292535
1782831849680110600,0.419110595703125,-0.07825871320068836,-0.029443977301998527,0.025381018162425606
1782831849690040800,0.429040771484375,-0.07646364647746086,-0.02124069207085995,0.019174596703774294
1782831849699969800,0.4389697265625,-0.08035480869710444,-0.030750975097203627,0.009136515527218579
1782831849709898800,0.448898681640625,-0.07841010437011718,-0.023969884139311032,0.01816273908037692
1782831849719827700,0.45882763671875,-0.07736322566568851,-0.019368132814764974,0.025941410257853566
1782831849729757000,0.4687568359375,-0.07945990568399429,-0.024419596101611384,0.026233840166055594
1782831849739686700,0.478686767578125,-0.0805091224759817,-0.017985987424117045,0.017056709500658324
1782831849749616600,0.48861669921875,-0.08095920433104038,-0.023449750989035237,0.019433818462118505
1782831849759545600,0.498545654296875,-0.07482523162066936,-0.015631250124669167,0.02659717988600023
1782831849769474800,0.508474853515625,-0.08604980546832085,-0.022470343463669995,0.021054670262755825
1782831849779404500,0.518404541015625,-0.08949205487668514,-0.024678614647267384,0.01723416669310536
1782831849789333500,0.52833349609375,-0.07527823608517646,-0.013946114615898113,0.017890064185415392
1782831849799262700,0.5382626953125,-0.06345803443193436,-0.018452296611480415,0.021315252861124463
1782831849809191700,0.548191650390625,-0.07962123372554779,-0.020136954912927465,0.025978956656111402
1782831849819120600,0.55812060546875,-0.08321312073767184,-0.018326042166596744,0.017033205327484757
1782831849829051000,0.56805078125,-0.07019581825435162,-0.019690939594921655,0.017278503591753543
1782831849838979800,0.577979736328125,-0.07782733604609966,-0.023839006034948398,0.0169092866868712
1782831849848908500,0.587908447265625,-0.07887538379430771,-0.027063646620279175,0.007643948015058413
1782831849858837500,0.59783740234375,-0.08186930491328238,-0.021800696007220538,0.015228439194150269
1782831849868766700,0.6077666015625,-0.08695815248489379,-0.018351240539934952,0.02227529353231657
1782831849878696700,0.61769677734375,-0.07947802586257458,-0.012602753165946341,0.013804913763632066
1782831849888625700,0.627625732421875,-0.07933014182448386,-0.017332179140904916,0.013885828946158288
1782831849898554600,0.6375546875,-0.07873276045322418,-0.02287317494378658,0.010414919698890298
1782831849908483800,0.64748388671875,-0.08097790903151035,-0.015254740395897533,0.007651797961373813
1782831849918413600,0.65741357421875,-0.06810965963006019,-0.016889097848790696,0.017794577054842373
1782831849928342500,0.667342529296875,-0.07095335862338542,-0.02478340846230276,0.026139604277652686
1782831849938271700,0.677271728515625,-0.07738777558505534,-0.014441218356194439,0.014483986635552719
1782831849948200700,0.68720068359375,-0.07903495827019213,-0.013373554875352418,0.010375094578578136
1782831849958129700,0.697129638671875,-0.07364858905673026,-0.018593762325227726,0.021022713355068116
1782831849968060000,0.707059814453125,-0.06886077025830745,-0.019358136577135882,0.017061075148521922
1782831849977988600,0.716988525390625,-0.0754465783894062,-0.025811258239275773,0.021549970365874468
1782831849987917600,0.72691748046875,-0.08981354191601276,-0.02004000876091886,0.023688658328424206
1782831849997846500,0.736846435546875,-0.08397825989127158,-0.022709794225753283,0.01447708653730806
1782831850007775700,0.746775634765625,-0.08383037585318089,-0.016537866408459376,0.010551775452890433
1782831850017705700,0.756705810546875,-0.0845785638719797,-0.023812307540979235,0.02347911179754883
1782831850027634700,0.766634765625,-0.0802396578848362,-0.0165482553717331,0.020854023990966378
1782831850037563600,0.776563720703125,-0.074853873193264,-0.018859722068323752,0.015244942804379389
1782831850047492900,0.786492919921875,-0.07275953126251697,-0.0188066264744848,0.016220578336925244
1782831850057422600,0.796422607421875,-0.07635200279653072,-0.016453980667423457,0.009638966890331358
1782831850067351600,0.8063515625,-0.07680383821725845,-0.01649271209248109,0.012423250146885402
1782831850077280800,0.81628076171875,-0.07186696633696556,-0.01687619498473359,0.00960580440624617
1782831850087209700,0.826209716796875,-0.07680617630481719,-0.02285708917537704,0.003691904187342152
1782831850097138700,0.836138671875,-0.08563713301420212,-0.023306762321770657,0.01078267073247116
1782831850107068700,0.846068603515625,-0.07980302003324032,-0.01980624567081686,0.021861360702873207
1782831850116997600,0.85599755859375,-0.08204933765530585,-0.015368699331500101,0.020560616835230028
1782831850126926600,0.865926513671875,-0.0860907220005989,-0.023238318461750167,0.0020918759790249167
1782831850136855600,0.87585546875,-0.0798076962083578,-0.013680654913012404,0.0018783291264669968
1782831850146785800,0.885785888671875,-0.07905950818955898,-0.01993193614340853,0.016515382865304126
1782831850156714800,0.89571484375,-0.08130465676784515,-0.014851340376911683,0.012719799107778818
1782831850166643700,0.905643798828125,-0.08310147705674172,-0.01515694942709524,0.009303159064706414
1782831850176572700,0.91557275390625,-0.07981003429591656,-0.01000661974250106,0.01892617946723476
1782831850186501600,0.925501708984375,-0.08190612979233264,-0.014259811074414755,0.01173816765928641
1782831850196431600,0.935431640625,-0.07607026324570179,-0.015684599163546226,0.01802697930491995
1782831850206360600,0.945360595703125,-0.07906359984278678,-0.014708248961658682,0.02308130355242174
1782831850216289800,0.955289794921875,-0.07173077273666859,-0.016458467329584527,0.006134424801520072
1782831850226218800,0.96521875,-0.07966273477971553,-0.00897363028281834,0.0157017283948604
1782831850236147700,0.975147705078125,-0.07337970898747444,-0.011188495603983755,0.009778850285056978
1782831850246077700,0.98507763671875,-0.07577449516952037,-0.021626049543078986,0.011346163533860816
1782831850256006700,0.995006591796875,-0.08206161261498927,-0.017118974781641736,0.011570551440841518
1782831850265935600,1.004935546875,-0.08670037833154201,-0.02479928645144682,0.012382333614607341
1782831850275864600,1.014864501953125,-0.07607727750837802,-0.009659838431712704,0.011548248277488163
1782831850285794800,1.024794921875,-0.08520575585961342,-0.01516766033406602,0.010239421568089165
1782831850295723800,1.034723876953125,-0.08086684987246989,-0.014061217479105107,0.01161318043959327
1782831850305652700,1.04465283203125,-0.08849836766421794,-0.009994079921336378,0.011728312985552474
1782831850315581400,1.05458154296875,-0.08011983089745044,-0.008042281416570768,0.006622815673239529
1782831850325510700,1.0645107421875,-0.0823655639976263,-0.0030464847065624777,0.021655161473131738
1782831850335440600,1.074440673828125,-0.0757820939540863,-0.00939539250897942,0.011494275900814682
1782831850345369600,1.08436962890625,-0.07653203553855419,-0.021291102517268155,0.0167217053926317
1782831850355298800,1.094298828125,-0.08401508477032184,-0.015837280391051898,0.010767021072190254
1782831850365227800,1.104227783203125,-0.07997603851258754,-0.021384797266265375,0.013294324759836308
1782831850375156700,1.11415673828125,-0.07833119391500949,-0.01236659033949254,0.009993990873079747
1782831850385086700,1.124086669921875,-0.07668634931743144,-0.01915866163241444,0.012959498748322949
1782831850395015700,1.134015625,-0.066362523701787,-0.022538387748179955,0.007868545984593219
1782831850404944600,1.143944580078125,-0.08357143265604973,-0.016478407289204185,0.0046882445811992505
1782831850414873600,1.15387353515625,-0.09344809902608395,-0.014203817987302317,0.006689620132022537
1782831850424803800,1.163803955078125,-0.07773790419697761,-0.02049314793945523,0.016679542184760792
1782831850434732800,1.17373291015625,-0.08103110052347183,-0.01429587333506206,0.010600843325583264
1782831850444661500,1.18366162109375,-0.07983516873717307,-0.01396924204644747,0.009769488801667467
1782831850454590500,1.193590576171875,-0.076692779058218,-0.01497235467438586,0.016213449909817428
1782831850464519700,1.203519775390625,-0.07474807473123073,-0.011268253159173763,0.014144237853749655
1782831850474449700,1.21344970703125,-0.08417582828998565,-0.005896254964359104,0.018596682651387527
1782831850484378600,1.223378662109375,-0.0838771376043558,-0.015157330736296716,0.0076687901953700925
1782831850494307800,1.233307861328125,-0.07145838553607463,-0.010910101071000098,0.009071501166722737
1782831850504236800,1.24323681640625,-0.0668196198195219,-0.013835114822362084,0.01060111275364179
1782831850514165800,1.253165771484375,-0.07549976988136768,-0.018842937613592948,0.001027475317637436
1782831850524095700,1.263095703125,-0.0892670139491558,-0.01837390902946936,-0.00026782975648529826
1782831850534024700,1.273024658203125,-0.07924187901914119,-0.013869055907870641,0.007523545638937502
1782831850543953700,1.28295361328125,-0.07939151662290096,-0.015154403560271021,0.018121365890372543
1782831850553882600,1.292882568359375,-0.08118716786801815,-0.0177891793605173,0.005651842616079375
1782831850563812600,1.3028125,-0.08418050446510314,-0.008188341107044835,0.002270757943578064
1782831850573741600,1.312741455078125,-0.08328384788632393,-0.016169832247088196,0.00881077700445894
1782831850583670500,1.32267041015625,-0.0846311708420515,-0.018218592886882833,0.0055202886582817875
1782831850593599500,1.332599609375,-0.0737082102894783,-0.009707568297267426,0.0073118071509758005
1782831850603528700,1.34252880859375,-0.08268646651506424,-0.010797000651923008,0.010691357453516685
1782831850613458700,1.352458740234375,-0.07984393656551837,-0.008500450679962523,0.015149177112593315
1782831850623387600,1.3623876953125,-0.07385960145890712,-0.010496460502501576,0.01394615343180485
1782831850633316900,1.37231689453125,-0.07460778947770595,-0.008974187405244447,0.00495322936004959
1782831850643245800,1.382245849609375,-0.07415946118831634,-0.007025437090802006,0.006660170275252312
1782831850653174500,1.392174560546875,-0.07505787133276462,-0.010716574093163945,0.016889696070412172
1782831850663104800,1.402104736328125,-0.07775251724421978,-0.019392397323052864,0.01129462970944587
1782831850673033700,1.41203369140625,-0.07580781291723251,-0.014182135878456755,0.0033346106156939637
1782831850682962700,1.421962646484375,-0.081045713570714,-0.0061408385592862024,0.013004264905233867
1782831850692891600,1.4318916015625,-0.08463760058283805,-0.010594603097753133,0.004608850068901665
1782831850702821600,1.441821533203125,-0.07805296149551869,-0.014942945916811003,0.009598260420607402
1782831850712750600,1.45175048828125,-0.07386369311213493,-0.008842427951470017,0.012760665407706982
1782831850722679600,1.461679443359375,-0.07386310859024524,-0.012528340789442882,0.011200512552051805
1782831850732608500,1.4716083984375,-0.08598492353856563,-0.012768987994769122,0.008991681962739676
1782831850742537700,1.481537841796875,-0.08014905699193477,-0.015130687041254713,0.005048474462027662
1782831850752466700,1.491466796875,-0.07895254068374634,-0.007184134783851914,0.00911902096972335
1782831850762395600,1.501395751953125,-0.07925181589126587,-0.015982575179834382,0.0089985866275616
1782831850772324600,1.51132470703125,-0.07760697129368782,-0.00899831491621444,0.01583509528383147
1782831850782253800,1.52125390625,-0.07685878327488899,-0.005521491951390635,0.004174527471978217
1782831850792182800,1.531182861328125,-0.08538871121108531,-0.009174520866491365,0.008914721436123364
1782831850802112500,1.541112548828125,-0.0880821880787611,-0.011890476710745133,0.010498154702666214
1782831850812041700,1.551041748046875,-0.07237140872776508,-0.010860953283205162,0.006261631377763114
1782831850821970700,1.560970703125,-0.08105038974583148,-0.010098579192138276,0.0018842017448274418
1782831850831899600,1.570899658203125,-0.07042611987888812,-0.006515948632126674,0.0029084073931444437
1782831850841830000,1.580829833984375,-0.08494213648736476,-0.011680724683892913,0.0056101634653983636
1782831850851758600,1.590758544921875,-0.07312193483412266,-0.0071599935731501314,0.008473873200290836
1782831850861687600,1.6006875,-0.07716215013563632,-0.009715404543851036,0.0018683739880332722
1782831850871616500,1.610616455078125,-0.07656476876437664,-0.011397069453902077,-0.00045162535817362367
1782831850881545700,1.620545654296875,-0.07402034497857093,-0.006949602225481066,0.009808217943436465
1782831850891475700,1.630475830078125,-0.08554360951185226,-0.005977393909171224,0.011827727372571826
1782831850901404700,1.64040478515625,-0.08030629338026046,-0.007753906628978438,0.007115864453767426
1782831850911333600,1.650333740234375,-0.08569266259372234,-0.009772632890113164,0.009770922706928104
1782831850921262800,1.660262939453125,-0.08030687790215014,-0.006133716982044279,0.011999211481958627
1782831850931191800,1.67019189453125,-0.0834504366248846,-0.009303782402502838,0.01267592800001148
1782831850941121500,1.68012158203125,-0.08225392031669616,-0.014892656484700274,0.005134193683834746
1782831850951050800,1.69005078125,-0.07372574594616889,-0.014147815767035353,0.008934604313527234
1782831850960979700,1.699979736328125,-0.0822562584042549,-0.011690061051107477,0.005441501500760205
1782831850970908700,1.70990869140625,-0.0743266344487667,-0.004442571857594885,0.004823826260142959
1782831850980838700,1.719838623046875,-0.07866846304535866,-0.012591487419838085,0.005104917357000522
1782831850990767600,1.729767578125,-0.07612520830333233,-0.007250135525036603,0.002935784023837186
1782831851000696600,1.739696533203125,-0.08480418932139873,-0.016334352326148653,0.004166860188753344
1782831851010625500,1.74962548828125,-0.0758253485739231,-0.015409917257877532,0.005560150311212055
1782831851020554800,1.7595546875,-0.08570084590017794,-0.015055822573602199,0.010703221421246417
1782831851030484700,1.769484619140625,-0.08285831595063209,-0.007944063472794369,0.007696495619625784
1782831851040413700,1.77941357421875,-0.07687281180024147,-0.0044285752982832485,0.00523878656947054
1782831851050342700,1.7893427734375,-0.0783697723597288,-0.011227576372202019,0.008672510178084484
1782831851060271600,1.799271728515625,-0.07103811429738997,-0.011794286327273584,0.0037323594953166317
1782831851070200600,1.80920068359375,-0.08330839780569076,-0.005981238967226818,0.009080460791313088
1782831851080130600,1.819130615234375,-0.07986673291921616,-0.010818317434587514,0.015098880830616689
1782831851090059800,1.829059814453125,-0.07328267835378646,-0.006039535892568528,0.017772182559943756
1782831851099988700,1.83898876953125,-0.06655015522837639,-0.013040231267758644,0.0075507624394260345
1782831851109917700,1.848917724609375,-0.07986790196299552,-0.014001294852257705,0.005151304648839868
1782831851119847700,1.85884765625,-0.07537877385020256,-0.01514310356483329,0.011353821683931163
1782831851129776600,1.868776611328125,-0.07268588150441646,-0.0122805057915044,0.01166218894678168
1782831851139705600,1.87870556640625,-0.07418225754201412,-0.0014570144248777068,-0.003963286740938201
1782831851149634600,1.888634521484375,-0.08166530677378177,-0.011330002416926435,-0.002322547496319748
1782831851159563800,1.898563720703125,-0.0783744485348463,-0.007027939575142227,0.008663669284502976
1782831851169493800,1.90849365234375,-0.08361118014454841,-0.004387594833923504,0.00313146642614156
1782831851179422700,1.918422607421875,-0.08465864337086677,-0.011062985511193982,-0.00005144705944694578
1782831851189351700,1.9283515625,-0.07867255469858646,-0.006586442885338328,0.011216404240927659
1782831851199280600,1.93828076171875,-0.08241291027069092,-0.00401890765200369,0.008594197944598272
1782831851209210600,1.948210693359375,-0.078522332572937,-0.01266185380888637,0.007270159966335631
1782831851219139600,1.9581396484375,-0.07223755321502685,-0.01237530108562205,0.0037106271541211752
1782831851229068800,1.96806884765625,-0.07777414455413818,-0.006401309276511892,0.006821178656397387
1782831851238997800,1.977997802734375,-0.08166530677378177,-0.0028992057399591428,0.007066796581074595
1782831851248926700,1.9879267578125,-0.08480769645273685,-0.003243890991783701,0.0028069837121292946
1782831851258856700,1.997856689453125,-0.08286182308197021,-0.0041638645140687,0.0026678035703022033
1782831851268785700,2.00778564453125,-0.08570552207529544,-0.015117019275506027,0.003988649511057883
1782831851278714600,2.017714599609375,-0.08390987083017826,-0.013974333780095912,0.009244172586197964
1782831851288643600,2.0276435546875,-0.0843605372071266,-0.009336020154692232,0.011969665727065875
1782831851298572800,2.03757275390625,-0.08121873205006122,-0.004214969080220908,0.012176705207023769
1782831851308502800,2.047502685546875,-0.0795727184087038,-0.006388230599230155,0.005826916055195033
1782831851318431500,2.057431396484375,-0.0686497578561306,-0.012170156735228374,-0.00018906086527276783
1782831851328360400,2.0673603515625,-0.08421206864714623,-0.010776925978274085,0.006888905563787556
1782831851338289700,2.07728955078125,-0.08451192837655544,-0.010195975152007304,0.007540816434146836
1782831851348218600,2.087218505859375,-0.07194295418262481,-0.0063895914392545815,0.009029045697906985
1782831851358148600,2.097148681640625,-0.06401216118335723,-0.010409129278920591,0.0039151276171207425
1782831851368077800,2.107077880859375,-0.08062135067880154,-0.016382554832450113,0.007438054745993576
1782831851378006800,2.1170068359375,-0.0782265644967556,-0.010324894194724038,0.00651227710400708
1782831851387935700,2.126935791015625,-0.07134323472380638,-0.009919975788798182,0.006562746915919706
1782831851397865700,2.13686572265625,-0.0752326433777809,-0.014998831689357757,0.008126479968149214
1782831851407794700,2.146794677734375,-0.0831628518551588,-0.013694749653735197,0.007604556719586253
1782831851417723600,2.1567236328125,-0.08495850310027599,-0.003408561767893843,-0.0015389822034630924
1782831851427652600,2.166652587890625,-0.06715221277475357,-0.0015782182353083042,0.009175381666305474
1782831851437581800,2.176581787109375,-0.08151859177947043,-0.014549169959407299,0.0055434366384288294
1782831851447511600,2.186511474609375,-0.081368369653821,-0.003926685624173842,0.007211073023127392
1782831851457440500,2.1964404296875,-0.07253975103199481,-0.0051123106455896045,0.0054230251291533926
1782831851467369500,2.206369384765625,-0.07298866384327411,-0.006216399429971352,0.014084744485164991
1782831851477298700,2.216298583984375,-0.07807634237110614,-0.01541543596650008,0.012541876124450936
1782831851487228700,2.226228759765625,-0.08226619527637959,-0.008867014403454958,0.009833443716238252
1782831851497157600,2.23615771484375,-0.07074351526498794,-0.008550135040585882,0.011570802602590993
1782831851507086800,2.2460869140625,-0.07882394586801529,-0.011641812879033386,0.011022977727791294
1782831851517015800,2.256015869140625,-0.08510930974781512,-0.005467818685527891,0.011211960961250588
1782831851526944500,2.265944580078125,-0.07403554254770278,-0.004258557060197927,0.016415639684721827
1782831851536874800,2.275874755859375,-0.07553250310719013,-0.013567095552920364,0.009860939077939838
1782831851546803700,2.2858037109375,-0.07164250993132591,-0.009403884059400297,0.0012762304808944464
1782831851556732700,2.295732666015625,-0.07972294053435325,-0.0010586970063857734,-0.006075305892270989
1782831851566661600,2.30566162109375,-0.08107026349008083,-0.001084233306441456,-0.0004787279942305758
1782831851576590800,2.3155908203125,-0.07927519676685332,-0.008458155041350982,0.0058290349470451475
1782831851586520600,2.3255205078125,-0.07553601023852825,-0.014165614001918583,0.006505559668852947
1782831851596449500,2.335449462890625,-0.07314063953459263,-0.009412738652713597,0.009045115483296104
1782831851606378800,2.345378662109375,-0.0888531724512577,-0.005076928804954513,0.00592848130010534
1782831851616307700,2.3553076171875,-0.07957622554004191,-0.010079143839306198,0.011280487019661813
1782831851626237700,2.36523779296875,-0.09259352802336215,-0.007277589787542819,0.00521858859823551
1782831851636166700,2.375166748046875,-0.07388941207528114,0.0015566639906261115,0.005330396675947122
1782831851646096000,2.385095947265625,-0.07748013004362583,-0.006180223004892468,0.00474172376752831
1782831851656024600,2.395024658203125,-0.08241817096769809,-0.006044673291989602,0.006387481680558994
1782831851665953500,2.40495361328125,-0.08421323769092559,-0.007703455083374865,0.013322194580873473
1782831851675883800,2.4148837890625,-0.08181903603076934,-0.010045328334672376,0.012889324155519716
1782831851685812700,2.424812744140625,-0.07448679344654083,-0.006948138637468218,0.0024803273073397574
1782831851695741700,2.43474169921875,-0.0788274529993534,-0.0034797958066221323,0.003801990665425546
1782831851705670700,2.444670654296875,-0.0879559313505888,-0.009859290543547831,0.008608906889962964
1782831851715600000,2.454599853515625,-0.0744879624903202,-0.001881676427600905,0.010853164985682815
1782831851725529600,2.464529541015625,-0.07463760009407996,-0.00923592991423793,0.007402800769521854
1782831851735458600,2.47445849609375,-0.07508651290535927,-0.012276055661961436,0.009072359683248214
1782831851745387800,2.4843876953125,-0.07104805116951465,-0.010433619832783006,0.0022424542977008965
1782831851755317000,2.49431689453125,-0.06850421190559863,-0.0016689606921048833,0.008043231264641508
1782831851765247200,2.504247314453125,-0.07972703218758105,-0.000560154633410275,0.004684267092403024
1782831851775176000,2.514176025390625,-0.08451485098600386,-0.011296138963231351,0.0035520527586573735
1782831851785105000,2.52410498046875,-0.08062368876636028,-0.012171079183835535,0.00009324950771406292
1782831851795034000,2.5340341796875,-0.07942717245817184,-0.013877282596810255,-0.001471419692854397
1782831851804963000,2.543963134765625,-0.08047522020637989,-0.009909271731693297,0.012143551856093109
1782831851814893000,2.55389306640625,-0.08361819440722465,-0.013373000036214944,0.003755836269026622
1782831851824822300,2.563822265625,-0.08586334298551082,-0.011276982171612325,0.008619332385854795
1782831851834751200,2.573751220703125,-0.08436755146980285,-0.012884310053684747,0.007827711650705897
1782831851844680200,2.58368017578125,-0.07673544915616512,-0.0176396696209209,0.00800505011214409
1782831851854610200,2.593610107421875,-0.07509060455858707,-0.016230355378845707,0.005488898006174713
1782831851864539100,2.6035390625,-0.08242343166470527,-0.008373399367346428,0.0159180060606217
1782831851874468000,2.613468017578125,-0.07733575313687324,-0.00688889643063303,0.015738064650143494
1782831851884397000,2.62339697265625,-0.0831716196835041,-0.010580841717170551,-0.0008927841212600469
1782831851894326300,2.633326171875,-0.07404489489793777,-0.00959193114452064,0.006033987501193769
1782831851904256000,2.643256103515625,-0.08496785545051097,-0.008711198220658115,0.008277099386020562
1782831851914185000,2.65318505859375,-0.08287468256354331,0.0018527973929885774,-0.0010141546117607503
1782831851924114000,2.663114013671875,-0.0879641146570444,-0.013162117781490087,0.007496739830402657
1782831851934043100,2.673043212890625,-0.0762923815637827,-0.01505654409280978,0.005705061507504433
1782831851943972000,2.68297216796875,-0.07988426857590675,-0.011292355553968809,0.006641643671295605
1782831851953902000,2.692902099609375,-0.07509586525559425,-0.014977441841457039,0.002506973285670392
1782831851963831300,2.702831298828125,-0.08332651798427104,-0.006723746163910254,0.002918280333187431
1782831851973760300,2.71276025390625,-0.06806231335699559,-0.012612219680612905,-0.004308899007947184
1782831851983689000,2.72268896484375,-0.08018354378342628,-0.01118488115807995,0.00668943746893201
1782831851993619200,2.732619140625,-0.08078267872035502,-0.010135203141788951,0.005506497594946995
1782831852003548200,2.742548095703125,-0.08377543079555035,-0.0037523245711112395,0.004287828820454888
1782831852013477000,2.75247705078125,-0.08377601531744003,-0.012049996387702412,-0.00210411440609023
1782831852023406000,2.762406005859375,-0.07554594711065292,-0.008294516311702319,0.005108881146064959
1782831852033335300,2.772335205078125,-0.07659399485886097,-0.009751606085104867,0.003427736825821921
1782831852043265000,2.78226513671875,-0.07644377273321151,-0.008548340375721454,0.007177974471123888
1782831852053194000,2.792194091796875,-0.08362637771368026,-0.00503948743797373,0.0022831059684976936
1782831852063123000,2.802123046875,-0.08048457255661487,-0.013913191877119242,0.008466511877742595
1782831852073052200,2.81205224609375,-0.07764204260706901,-0.005979298171889968,-0.00013126626343000678
1782831852082981000,2.821981201171875,-0.08063479468226432,-0.006466241438616998,0.011929886272526346
1782831852092911000,2.8319111328125,-0.08661971431076526,-0.008542577355215325,0.0014278362794546409
1782831852102840000,2.841840087890625,-0.08003507522344588,-0.011029402902000583,-0.005811170496791601
1782831852112769000,2.85176904296875,-0.08407529052495956,-0.017508519805211106,0.007309829823020845
1782831852122698000,2.861697998046875,-0.07659399485886097,-0.013241742905939463,0.002780931388842873
1782831852132628200,2.871628173828125,-0.07824000850021838,-0.01202725026635453,0.0052495910912752144
1782831852142557200,2.88155712890625,-0.07599485992193221,-0.011894817242433782,0.000983293682616204
1782831852152486100,2.891486083984375,-0.07943594028651714,-0.010021061543095856,-0.0019148160787997766
1782831852162415000,2.9014150390625,-0.08826514343023299,-0.006733792633889243,0.009111550049320793
1782831852172344300,2.91134423828125,-0.07943652480840682,-0.013952774968836455,-0.0036712130257626993
1782831852182274000,2.921274169921875,-0.07449789936244487,-0.007539859736210201,0.0030228595190914345
1782831852192203000,2.931203125,-0.08452420333623886,-0.009679705326096154,-0.002387456825538538
1782831852202132000,2.941132080078125,-0.07868892131149768,-0.010112210425268858,0.0035287358151515945
1782831852212061200,2.951061279296875,-0.0851233382731676,-0.009175728726177475,0.004281554343295284
1782831852221991200,2.9609912109375,-0.08302841182053089,-0.009315242228144779,0.005579288836522028
1782831852231920000,2.970920166015625,-0.08063362563848495,-0.0010785730339237488,0.0015645596027141437
1782831852241849000,2.98084912109375,-0.08063421016037464,-0.0076946735552977765,-0.003210143985808827
1782831852251778000,2.990778076171875,-0.08766834658086299,-0.011785527632082812,-0.005195742012187838
1782831852261707000,3.00070703125,-0.07824117754399776,-0.008590266121574677,-0.0026324628288624807
1782831852271637200,3.01063720703125,-0.07779226473271847,-0.007082587805250659,0.002472965984791517
1782831852281566200,3.020566162109375,-0.08228139284551143,-0.010174279343429952,0.0051586340053472665
1782831852291495200,3.0304951171875,-0.09096037386357783,-0.008828426825581118,0.005470293770404532
1782831852301424000,3.040424072265625,-0.07868950583338737,-0.01038527804587502,0.0009679910822072997
1782831852311353000,3.05035302734375,-0.07749123595952988,-0.006449493516504298,-0.004667562552774325
1782831852321283000,3.060282958984375,-0.08601941033005714,-0.013082109064550604,0.001708726446912624
1782831852331212000,3.0702119140625,-0.08616846341192722,-0.0164676598496153,0.008253385150292888
1782831852341141000,3.08014111328125,-0.08856266507208346,-0.003247245142783504,-0.0030029766416875643
1782831852351070200,3.0900703125,-0.07150514728724956,-0.007133400110458024,0.008004739584890194
1782831852361000000,3.1,-0.08272855209112166,-0.012190898129157721,0.0050892174643697215
1782831852370929000,3.109928955078125,-0.08317804942429065,-0.013628296821401454,0.005747882302501239
1782831852380858000,3.119858154296875,-0.07719371431767941,0.0018206030232831834,-0.0016637045616749674
1782831852390787000,3.129787109375,-0.08347732463181018,-0.008974059541081077,0.007481455496302805
1782831852400716000,3.139716064453125,-0.0864700767070055,-0.009653525138646363,0.01221664449176751
1782831852410646300,3.149646240234375,-0.07225508887171744,-0.014443570143484975,0.009013674598839134
1782831852420575200,3.1595751953125,-0.07973580001592635,-0.002924968085589353,-0.0002452617316506803
1782831852430504200,3.169504150390625,-0.08422434360682964,-0.011225503146124537,0.007818706360342912
1782831852440433200,3.17943310546875,-0.0900602101534605,-0.011747618190932552,0.005687726780213415
1782831852450362000,3.189362060546875,-0.09155717071294785,-0.015859211378358305,0.003478539997874759
1782831852460292000,3.1992919921875,-0.07988543761968613,-0.00947587158337701,0.009878680230607279
1782831852470221000,3.209220947265625,-0.07898761199712753,-0.01553498895925004,0.012497808653861284
1782831852480150000,3.21914990234375,-0.08272913661301136,-0.016827462755469605,0.006916684053279459
1782831852490079200,3.229079345703125,-0.09051087653040886,-0.012563211173424496,-0.007891675698431208
1782831852500009000,3.239009033203125,-0.07450023745000361,-0.008641261089872568,0.0025327105151256545
1782831852509938000,3.24893798828125,-0.08093465441167354,-0.010846196388779207,0.005600098729110323
1782831852519867100,3.2588671875,-0.0715074853748083,-0.013128763501159846,0.002934372951462865
1782831852529796000,3.268796142578125,-0.0779430713802576,-0.00905929927227553,0.003467466048011556
1782831852539725000,3.27872509765625,-0.08288169682621956,-0.0031578521095681935,-0.0005429112376645207
1782831852549655300,3.2886552734375,-0.08362988484501838,-0.00551810583434999,0.0062032842200715095
1782831852559584300,3.298584228515625,-0.08363046936690807,-0.0032118747185915708,-0.0016599097359692677
1782831852569513000,3.308512939453125,-0.0749503193050623,-0.009665950795379467,0.007443918231199495
1782831852579442000,3.31844189453125,-0.0779430713802576,-0.007424610742530785,0.008892655734787695
1782831852589372200,3.3283720703125,-0.07749357404708862,-0.0030711556402267886,0.0006871009147493168
1782831852599301000,3.338301025390625,-0.07973813810348511,-0.00017711469915229826,0.0010198673999169841
1782831852609230000,3.34822998046875,-0.06686930418014526,-0.006086407241597772,0.0085440066938987
1782831852619159000,3.358158935546875,-0.07345335874557495,-0.00883632243766915,0.001125177238183096
1782831852629088300,3.368088134765625,-0.08063654824793338,-0.006802368924650363,-0.0022836585243465376
1782831852639018000,3.37801806640625,-0.07929039433598518,-0.01472203317512758,0.00007484620134346186
1782831852648947000,3.387947021484375,-0.0713596013367176,-0.0064103921986883505,0.003341757309110835
1782831852658876200,3.397876220703125,-0.08437690382003783,-0.006638816959969699,0.009955471793864853
1782831852668805000,3.40780517578125,-0.07824059302210808,-0.004590017504268326,0.0032002208134159446
1782831852678735000,3.417735107421875,-0.081681673386693,-0.012959717944031581,0.00144300188254565
1782831852688664300,3.427664306640625,-0.0730021078467369,-0.011399756884621456,-0.0020815646475646644
1782831852698593000,3.437593017578125,-0.07943652480840682,-0.011147681819694116,-0.0013736447070725262
1782831852708522000,3.44752197265625,-0.07644260368943213,-0.008882577298767864,0.0022136209288612005
1782831852718451000,3.457450927734375,-0.07913666507899761,-0.010358358072908594,-0.001991233182721771
1782831852728381200,3.467381103515625,-0.07838789253830909,-0.016976881163520738,-0.0006290916837751865
1782831852738310100,3.47731005859375,-0.07704173862636089,-0.005056137178675271,0.0025999761982122434
1782831852748239000,3.487239013671875,-0.08272855209112166,-0.006070300923590548,0.0023477824022760615
1782831852758168300,3.497168212890625,-0.07554594711065292,-0.016788080593151972,0.0030319150418043135
1782831852768097300,3.50709716796875,-0.08153086673915386,-0.018825984195503406,-0.001514519049064256
1782831852778027300,3.51702734375,-0.08227905475795269,-0.01917437065819977,0.002530609889584593
1782831852787956200,3.526956298828125,-0.07599427540004253,-0.005810229781875387,-0.002220014137029648
1782831852797885400,3.536885498046875,-0.08123217605352401,-0.013500430374743883,0.0001622230906970799
1782831852807814400,3.546814453125,-0.07928805624842643,-0.022573920285864732,0.004898608529404737
1782831852817743400,3.556743408203125,-0.07749298952519894,-0.014890475944057105,0.005740237852162681
1782831852827673000,3.566673095703125,-0.08527472944259643,-0.009995324313640594,-0.0024969953143503514
1782831852837602300,3.576602294921875,-0.0792892252922058,-0.007121627474273555,0.0036235607920214533
1782831852847531300,3.58653125,-0.08093465441167354,-0.008740670910314656,0.0024634446711977944
1782831852857460200,3.596460205078125,-0.08407645956873894,-0.00856338724780362,0.0014578204257646576
1782831852867390500,3.606390380859375,-0.07569733828008174,-0.007160123720602132,0.0031756389280082654
1782831852877319400,3.6163193359375,-0.08243044592738151,-0.00810536868146155,0.007076523390645161
1782831852887248400,3.626248291015625,-0.07869009035527706,-0.01142221987817902,-0.0014503769048256798
1782831852897177300,3.63617724609375,-0.08377835340499877,-0.007674845476821065,0.0063209329501027235
1782831852907106300,3.646106201171875,-0.0779430713802576,-0.003283012859197333,-0.00161550433866214
1782831852917036300,3.656036376953125,-0.08707038068771361,-0.014156247951951808,0.001101312305405736
1782831852926965200,3.66596533203125,-0.08617197054326534,-0.007030063033569604,0.008307033299980685
1782831852936894500,3.67589453125,-0.08228080832362175,-0.011297018029354513,0.008375563924969173
1782831852946823400,3.685823486328125,-0.07988777570724487,-0.015150195459323003,-0.0007664543278515339
1782831852956753200,3.695753173828125,-0.08168284243047237,-0.012080989747587591,0.00460851214218419
1782831852966682000,3.70568212890625,-0.07539806307256221,-0.011376743618503679,-0.007780904233758337
1782831852976611300,3.715611328125,-0.07973755358159541,-0.019373003069416153,0.007128956830780952
1782831852986540300,3.725540283203125,-0.08722060281336307,-0.01560859761815518,0.005299960438488051
1782831852996469200,3.73546923828125,-0.07869125939905643,-0.008673861884954386,-0.005664341338048689
1782831853006399500,3.7453994140625,-0.07809329350590706,-0.01574543510584626,-0.0038786863305605946
1782831853016328400,3.755328369140625,-0.07584931397140025,-0.01236690771661233,0.0024188885768409818
1782831853026257200,3.765257080078125,-0.0777951873421669,-0.0025851256889523936,-0.0029250571338459846
1782831853036186000,3.77518603515625,-0.08018997352421284,-0.010787794432160444,0.004622992758685723
1782831853046115300,3.785115234375,-0.08557809630334377,-0.009844517666101456,0.013051241285540163
1782831853056045300,3.79504541015625,-0.07106383326053618,-0.007575175361474976,-0.0033215273718349633
1782831853065974300,3.804974365234375,-0.07974339880049228,-0.003312668211944401,0.004366684476635419
1782831853075903500,3.814903564453125,-0.07375789465010166,-0.010421098277927376,-0.004240414048731327
1782831853085832400,3.82483251953125,-0.08123919031620025,-0.013608436776883899,0.0018100724961142985
1782831853095762200,3.83476220703125,-0.08901976118981837,-0.00863142924902495,0.006675509408279321
1782831853105691100,3.844691162109375,-0.09021744654178619,-0.006233528661285527,-0.0007497726211091503
1782831853115620400,3.854620361328125,-0.08109013723433017,-0.006967464392445981,0.0029507806635694577
1782831853125549300,3.86454931640625,-0.07794833207726479,-0.016014365407451988,0.006869634607736952
1782831853135478300,3.874478271484375,-0.08767419179975985,-0.011845619222288951,0.005910954776569269
1782831853145408500,3.884408447265625,-0.07794774755537509,-0.016319924225285647,0.006549147648829966
1782831853155337200,3.894337158203125,-0.07345920396447181,-0.012429734686599112,-0.0005899743829388171
1782831853165266200,3.90426611328125,-0.07480711144208908,-0.006762534671183675,0.002642121139774099
1782831853175195100,3.914195068359375,-0.07854805153608321,-0.005813586216163821,0.0007359587248880416
1782831853185124400,3.924124267578125,-0.08812485817670822,-0.00844388905398082,0.00030353125752881165
1782831853195054300,3.934054443359375,-0.08318681725263595,-0.017903115463233553,0.00338148653130047
1782831853204983300,3.9439833984375,-0.08438333356082439,-0.014155896325502544,-0.0025815546255325895
1782831853214912500,3.95391259765625,-0.09306231457889079,-0.008010128146060742,0.010432094595977104
1782831853224841500,3.963841552734375,-0.07630290295779704,-0.010511397776729426,0.009059427136438898
1782831853234771200,3.973771240234375,-0.07764964139163494,-0.006002569449623115,-0.0028267478585243225
1782831853244700200,3.9837001953125,-0.09036883771121501,-0.008510917275049722,0.0050998256233520806
1782831853254629400,3.99362939453125,-0.07211305005252361,-0.00767223796120379,0.00989034326893743
1782831853264558300,4.003558349609375,-0.07884732674360274,-0.005159643218922428,0.007860732570895925
1782831853274487300,4.0134873046875,-0.07570669063031674,-0.00826294756308198,0.00005694521847181022
1782831853284417300,4.023417236328125,-0.07555880659222602,-0.008137467153044416,0.003278660911065526
1782831853294346200,4.03334619140625,-0.06658055036664008,-0.006960482095810584,-0.003034207463590428
1782831853304275200,4.043275146484375,-0.08633212954103946,-0.008109711496438831,-0.002237965352251194
1782831853314204200,4.0532041015625,-0.08558335700035094,-0.010149377797613851,-0.0007719250874128192
1782831853324134400,4.063134521484375,-0.0861824919372797,-0.008307183997030369,0.001957006686134264
1782831853334063400,4.0730634765625,-0.07750467996299266,-0.010220255643315612,0.004695012248703279
1782831853343992300,4.082992431640625,-0.0737649089127779,-0.011885686371196061,0.007400371350417844
1782831853353921500,4.092921630859375,-0.07780512421429157,-0.008833386128488928,0.005207080823532305
1782831853363850200,4.102850341796875,-0.07660860790610313,-0.010906817701947874,0.007215781164285727
1782831853373780200,4.1127802734375,-0.07915303169190883,-0.009410606061131694,0.005711258352850563
1782831853383709200,4.122709228515625,-0.07915361621379852,-0.009778544324380346,0.003694141810201108
1782831853393638400,4.132638427734375,-0.08139876479208469,-0.006748844072548672,-0.0032361460767453536
1782831853403567400,4.1425673828125,-0.08633622119426727,-0.009896827808651141,-0.007883519791439175
1782831853413496300,4.152496337890625,-0.07930325381755829,-0.01167729975094553,0.0064056794909527525
1782831853423426300,4.16242626953125,-0.08319324699342251,-0.008546267149643972,-0.004476127067324706
1782831853433355300,4.172355224609375,-0.0766097769498825,-0.005456479874183424,-0.00862201296670828
1782831853443284200,4.1822841796875,-0.07182195815145968,-0.00920093623267021,0.005994025383563712
1782831853453213200,4.192213134765625,-0.08139876479208469,-0.010631087766797281,0.011853350437595509
1782831853463142400,4.202142333984375,-0.0752636230379343,-0.00924574805535376,0.004813884821441025
1782831853473072400,4.212072265625,-0.07870528792440891,-0.008496587355597876,0.006296862521348521
1782831853483001300,4.22200146484375,-0.08020107944011688,-0.012013751463964582,-0.006799674644065089
1782831853492930300,4.231930419921875,-0.07496434783041477,-0.017716438351292163,0.0012145131891826168
1782831853502859300,4.241859375,-0.07765724017620086,-0.008957825358910486,0.0004376790312118828
1782831853512789200,4.251789306640625,-0.09157353732585906,-0.007552226027438882,0.003453798282262869
1782831853522718200,4.26171826171875,-0.0822960058927536,-0.00487612955282675,-0.004505398827581666
1782831853532647400,4.2716474609375,-0.08843173216879367,-0.0044580114553216844,0.004741696368064731
1782831853542576400,4.281576416015625,-0.08319500055909157,-0.014300067736278288,-0.001477607405046001
1782831853552505300,4.29150537109375,-0.07915536977946758,-0.007213137116050347,0.0035392389428569003
1782831853562435300,4.301435302734375,-0.07960428259074688,-0.0019226751582697033,0.004750304366205819
1782831853572364300,4.3113642578125,-0.08184826212525367,-0.008327281503565608,0.002078372610057704
1782831853582293200,4.321293212890625,-0.07675941455364227,-0.008670222322875632,0.002493305519921705
1782831853592222200,4.33122216796875,-0.07885492552816867,-0.01531843729885295,0.007871555359009652
1782831853602151400,4.3411513671875,-0.07960369806885718,-0.01432642145366408,0.00803200661772862
1782831853612081400,4.351081298828125,-0.07272153733968734,-0.00671758585118223,0.008184201504755765
1782831853622010000,4.361010009765625,-0.06748422120809555,-0.004387161009083502,0.007610904261982068
1782831853631939300,4.370939208984375,-0.09082827191650866,-0.006925611711828969,-0.002647532533830963
1782831853641868300,4.380868408203125,-0.07092763966023921,-0.002009001734852791,0.006381010840577073
1782831853651798300,4.39079833984375,-0.07257423782348632,-0.012902434798842295,0.0011722677829209714
1782831853661727200,4.400727294921875,-0.07975684280395508,-0.008283707223320379,-0.0010790913404431193
1782831853671656400,4.410656494140625,-0.09367255543172359,-0.008895007522078231,0.004683271578559652
1782831853681585400,4.42058544921875,-0.07003039855957031,-0.010340224194596521,-0.003635698754386976
1782831853691514400,4.430514404296875,-0.07691372833251953,-0.00029762210655026133,0.0028262866342207414
1782831853701444400,4.4404443359375,-0.09501987838745117,-0.013302060541720128,-0.0030667077939724547
1782831853711373300,4.450373291015625,-0.0869400323063135,-0.01042681106608361,-0.01208032759388443
1782831853721302300,4.46030224609375,-0.08364858954548836,-0.010865618041879497,-0.0038881163126090537
1782831853731231200,4.470231201171875,-0.0851455501049757,-0.008956396020227112,0.00019996585177723317
1782831853741160400,4.480160400390625,-0.08350012098550796,-0.0075946792129660025,-0.0034169597034808246
1782831853751090200,4.490090087890625,-0.08215396707355975,-0.010665496926475315,0.0009177678654668852
1782831853761019000,4.500018798828125,-0.08275310201048851,-0.005942619423312135,0.005051584301143885
1782831853770947800,4.50994775390625,-0.08410100948810577,-0.012899082931131125,-0.0034624336798675355
1782831853780877000,4.519876953125,-0.07886369335651397,-0.014535278431372716,0.0028372098870342597
1782831853790807000,4.52980712890625,-0.08410042496621609,-0.012925738042616285,0.0026063191740307956
1782831853800736000,4.539736083984375,-0.07766600800454616,-0.005648244153195992,-0.0009155028431443497
1782831853810665200,4.549665283203125,-0.07542144394814967,-0.009813770901388488,0.0001546608387492597
1782831853820594200,4.55959423828125,-0.0848486129850149,-0.012388882086402736,0.003500610265787691
1782831853830523100,4.569523193359375,-0.07991115658283234,-0.014006290687783621,0.0010570621717255562
1782831853840453000,4.579453125,-0.07991115658283234,-0.009405473228287883,-0.00029180885369423776
1782831853850382000,4.589382080078125,-0.08395078736245631,-0.016880151923932135,-0.0013704892021836712
1782831853860311000,4.59931103515625,-0.07811433629393577,-0.008538526801182889,-0.0010863430651370436
1782831853870240000,4.609239990234375,-0.08200432946979999,-0.011272943034023045,0.002846539404382929
1782831853880169200,4.619169189453125,-0.08724047655761241,-0.011191178468125871,-0.0013969433842692524
1782831853890099000,4.629098876953125,-0.08080722863972187,-0.004782352605438791,0.00793834611806087
1782831853900028000,4.63902783203125,-0.07721651067137718,-0.0023974804626312107,0.004704725358542054
1782831853909956900,4.648956787109375,-0.08769231197834014,-0.007559594199853017,0.0018835167582379653
1782831853919886000,4.658885986328125,-0.08784194958209991,-0.006904701354540884,0.0032470099640544503
1782831853929816000,4.668816162109375,-0.07901391548216342,-0.00035885990764945744,0.007882460345514118
1782831853939745000,4.6787451171875,-0.08963701630532742,-0.0066744088631588965,-0.004458550311438739
1782831853949674200,4.68867431640625,-0.0914326675504446,-0.006376699991640635,-0.008989964929688721
1782831853959603000,4.69860302734375,-0.07811433629393577,-0.012839580429391935,-0.004019816400879062
1782831853969532000,4.708531982421875,-0.0764700762182474,-0.010229320299183019,0.00031375125744380057
1782831853979462100,4.718462158203125,-0.07676993594765663,-0.002808641379675828,0.005573932241392321
1782831853989391000,4.72839111328125,-0.07362754626870155,-0.004584418880543672,-0.00764673362718895
1782831853999320000,4.738320068359375,-0.07826689650714397,-0.0057439413463231176,0.0023798580409726128
1782831854009249000,4.7482490234375,-0.07961363494098186,-0.0046156999347964295,0.002282603644998744
1782831854019178200,4.75817822265625,-0.07093348487913607,-0.010383602112019434,0.0008674304842948913
1782831854029108000,4.76810791015625,-0.07632043861448765,-0.0073169080177787685,0.00016128694235812872
1782831854039037000,4.778036865234375,-0.07916472212970256,-0.004593232374661602,0.0043732923139352346
1782831854048966000,4.7879658203125,-0.07392740599811076,-0.00546038429774344,-0.0025383456714684143
1782831854058895000,4.79789501953125,-0.07766893061399459,-0.008540517828869634,0.003597572400816716
1782831854068824000,4.807823974609375,-0.07901566904783248,-0.011361502666887827,0.00029207828175276514
1782831854078754000,4.817754150390625,-0.07093640748858451,-0.0077010028313845395,-0.00011077146467287093
1782831854088683000,4.82768310546875,-0.08111176454424858,-0.010349535445636137,0.006795044134720228
1782831854098612000,4.837612060546875,-0.0870972686946392,-0.005720140345627442,0.010957954234140924
1782831854108541000,4.847541015625,-0.07916589117348194,-0.012046676486032084,0.00911174641214311
1782831854118471200,4.85747119140625,-0.0758738638907671,0.0018979654086986556,0.002676443534484133
1782831854128400100,4.867400146484375,-0.08799392527341843,-0.0044199307675240555,0.0016576629799557848
1782831854138329000,4.8773291015625,-0.09083645522296428,-0.006532954565854743,0.004568043134477921
1782831854148258000,4.887258056640625,-0.07512509135007858,-0.009477058893465437,0.0028940455076517536
1782831854158187300,4.897187255859375,-0.070187634947896,0.0013495651451637968,-0.0023164465490961446
1782831854168117000,4.907116943359375,-0.07751929301023483,-0.007099534373474307,0.013693639975460246
1782831854178046000,4.9170458984375,-0.08021218535602093,-0.010698796407878398,0.00326098369047977
1782831854187975200,4.92697509765625,-0.08006313227415085,-0.002112918767053634,-0.0002234152260236442
1782831854197904100,4.936904052734375,-0.0784177031546831,-0.01416802515471354,-0.0016129196559311822
1782831854207833000,4.9468330078125,-0.07856675623655318,-0.0146286740695592,-0.005781780005525797
1782831854217763000,4.95676318359375,-0.08021335439980029,-0.005931116215186193,0.0010954533867770806
1782831854227692000,4.966692138671875,-0.08230769633054733,-0.01149391514121089,-0.0013563830450177192
1782831854237621000,4.97662109375,-0.08515081080198288,-0.009178244910249485,0.0020592249515932054
1782831854247550000,4.986550048828125,-0.08410276305377483,-0.0061405029158573595,0.008486166426283307
1782831854257480200,4.996480224609375,-0.08006254775226115,-0.0054547765408642585,0.005785794026940129
1782831854267409200,5.0064091796875,-0.07273088968992233,-0.007141811745776794,-0.001574610639270395
1782831854277338000,5.016338134765625,-0.08545067053139209,-0.01152125980586279,-0.004428095807670615
1782831854287267000,5.02626708984375,-0.08126140214800834,-0.014779951074556447,-0.007438118678075261
1782831854297196000,5.036196044921875,-0.08096212694048881,-0.013406913722259923,-0.0013039222054183482
1782831854307126000,5.0461259765625,-0.0674947426021099,-0.010497232254059054,-0.002105315415910445
1782831854317055000,5.056054931640625,-0.07811901246905327,-0.008791633912571706,-0.004667768048751167
1782831854326984200,5.065984130859375,-0.076771104991436,-0.010281516277301124,0.005866197752812877
1782831854336913200,5.0759130859375,-0.08589782977700233,-0.0012359076036605984,0.0059965004684403534
1782831854346842000,5.085842041015625,-0.08155775474607944,-0.008007639361452311,0.005260939035774208
1782831854356771800,5.095771728515625,-0.07422492763996123,-0.007200442031258717,-0.000851219135010615
1782831854366701000,5.105701171875,-0.07168225741982459,-0.0059228096111444755,-0.000713116705417633
1782831854376630000,5.115630126953125,-0.07691957355141639,-0.007105119297467172,0.0064660542089492075
1782831854386559000,5.12555908203125,-0.07961363494098186,-0.010783095424156635,0.005529599909321404
1782831854396489200,5.1354892578125,-0.08081248933672905,-0.007501493637333624,0.004722640041145496
1782831854406418200,5.145418212890625,-0.0752764825195074,-0.003425709265517071,0.00885814611040987
1782831854416347100,5.15534716796875,-0.06973930665850639,-0.00855795302086044,-0.0064692279801471155
1782831854426276000,5.165276123046875,-0.07362988435626029,-0.006926538727013394,0.0028094359641196204
1782831854436205000,5.175205078125,-0.07512567587196826,-0.009744157997588626,0.005379190554004162
1782831854446135000,5.185135009765625,-0.08604922094643115,-0.006759315234213136,0.005061818000790663
1782831854456064000,5.19506396484375,-0.09457856436073779,-0.01011025593020022,-0.006591895378590561
1782831854465993200,5.2049931640625,-0.07826923459470271,-0.008813453018735162,-0.00329465306464117
1782831854475922200,5.214922119140625,-0.0817120685249567,-0.009483913325937465,-0.0008742529507260769
1782831854485851100,5.22485107421875,-0.07557692677080631,-0.007826483241422101,-0.0013193800694542004
1782831854495780900,5.23478076171875,-0.07692424972653389,-0.012677142709563485,-0.003915269181015901
1782831854505710000,5.2447099609375,-0.08141337783932685,-0.00672164097179193,0.004162768535525538
1782831854515639000,5.25463916015625,-0.07812135055661201,-0.0002940373433986679,-0.0006442161876708269
1782831854525568000,5.264568115234375,-0.08994213673174381,-0.0017437703608302398,-0.0016605033910134807
1782831854535497000,5.2744970703125,-0.08709843773841858,-0.008525795183773152,-0.0054995198648888615
1782831854545427200,5.28442724609375,-0.08141337783932685,-0.01889133191613946,-0.00588444579555653
1782831854555356000,5.29435595703125,-0.07871931644976139,-0.013805891011166386,-0.008715467970399186
1782831854565284900,5.304284912109375,-0.07872048549354076,-0.012012660051998681,-0.003510894197784364
1782831854575214000,5.314214111328125,-0.07348375388383865,-0.015886619975091887,0.004716730890166945
1782831854585144000,5.32414404296875,-0.07737316253781318,-0.009377726704836822,-0.0006912610666360706
1782831854595073000,5.334072998046875,-0.07827098816037177,-0.008716267121420242,-0.0008857607254292815
1782831854605002200,5.344002197265625,-0.07916822926104068,-0.0051288096892414614,-0.009413428205880335
1782831854614931200,5.35393115234375,-0.08096388050615787,-0.008226118117454462,0.002003311779582873
1782831854624860200,5.363860107421875,-0.07812135055661201,-0.007425788919464685,-0.0008692799480864777
1782831854634790000,5.373789794921875,-0.08156359996497631,-0.011079311024909838,-0.00148811509932857
1782831854644719000,5.383718994140625,-0.06899521029293537,-0.011184579763980582,-0.0008479357659583911
1782831854654648000,5.39364794921875,-0.08500701841711998,-0.010039679478597827,-0.004773137252521701
1782831854664577000,5.403576904296875,-0.08874912755489349,-0.012604022674425504,0.000781186106102541
1782831854674506000,5.413506103515625,-0.08455985917150974,-0.005688146905321627,0.00155214764571283
1782831854684436000,5.42343603515625,-0.09249065217077732,-0.004449914913834073,-0.0125280530950753
1782831854694365000,5.433364990234375,-0.08800093953609466,-0.009720156067493371,-0.01142213311321102
1782831854704294000,5.4432939453125,-0.09548223520219326,-0.008577571036783046,-0.0009007756314706057
1782831854714223000,5.45322314453125,-0.08575637547969818,-0.005171516319806687,0.0004093753853347152
1782831854724153000,5.463153076171875,-0.08485796533524989,-0.008063315071444957,0.0027827534531708804
1782831854734082000,5.47308203125,-0.079921093454957,-0.004828749030432664,0.001933073254697956
1782831854744011300,5.48301123046875,-0.07618015336096286,-0.004847010772908106,-0.008541956300707533
1782831854753940000,5.49293994140625,-0.07887421475052833,-0.007992432659165933,-0.0037676545709837226
1782831854763869000,5.502868896484375,-0.089497900095582,-0.0053649610992521045,-0.002278849918488413
1782831854773799000,5.512798828125,-0.08740297364294529,-0.009192204936943017,-0.0033309071215335277
1782831854783727900,5.522727783203125,-0.07333703888952732,-0.00787196635096334,0.0024919812125153836
1782831854793656800,5.53265673828125,-0.07453413971960544,-0.003544148013414815,-0.00026091139193158594
1782831854803585800,5.542585693359375,-0.08201543538570404,-0.01132119805596303,-0.004562065484840423
1782831854813515000,5.552514892578125,-0.07288812607824802,-0.004862121577071957,-0.003160354593908414
1782831854823444700,5.56244482421875,-0.0847094967752695,-0.00621822149429936,-0.004914532184321433
1782831854833373700,5.572373779296875,-0.07483283040523529,-0.010833400839287787,-0.006332258061715401
1782831854843302700,5.582302734375,-0.09054536332190036,-0.00016827380557078868,-0.0022110042800894004
1782831854853231900,5.59223193359375,-0.08874912755489349,-0.004887246885173954,0.007710172518528997
1782831854863160800,5.602160888671875,-0.07992050893306732,-0.017594469639169982,-0.001626400192012079
1782831854873090800,5.6120908203125,-0.06585340513586997,-0.014483794839307665,0.003920776473195292
1782831854883020000,5.62202001953125,-0.07213818449378014,-0.0035620215968228874,-0.0007641619060654193
1782831854892949000,5.631948974609375,-0.07378419813513755,-0.005380049070529639,-0.003817384597379714
1782831854902877700,5.641877685546875,-0.08246317915320396,-0.01335545752965845,0.003236858462798409
1782831854912808000,5.651807861328125,-0.08111702524125576,-0.009492831851332447,-0.0031928503577131778
1782831854922737000,5.66173681640625,-0.08620528829097747,-0.012264196260808966,-0.0030740554167889055
1782831854932665900,5.671665771484375,-0.08740355816483497,-0.010546131163393146,0.004952937099104747
1782831854942594800,5.6815947265625,-0.08066928147375584,-0.007223238384956494,-0.001768982433900237
1782831854952524000,5.69152392578125,-0.08410977731645107,-0.005761965626780875,-0.0037209384855814275
1782831854962453800,5.701453857421875,-0.08799860144853591,-0.014132264288165606,-0.004015797812887467
1782831854972382700,5.7113828125,-0.08739888198971747,-0.00967578720280435,-0.0023144463882548735
1782831854982311700,5.721311767578125,-0.08410743922889233,-0.01431163030990865,0.002708313677203841
1782831854992241000,5.731240966796875,-0.08440788348019122,-0.005766614402434788,0.007809897432802244
1782831855002169900,5.741169921875,-0.08156476900875569,-0.014831548831053077,-0.0028525535866385323
1782831855012099800,5.751099853515625,-0.07258592826128006,-0.010837392027815803,-0.003340652197413146
1782831855022028800,5.76102880859375,-0.074531217110157,-0.005635868728812784,-0.005301060983608477
1782831855031957800,5.770957763671875,-0.07378361361324787,-0.008329546525888144,0.006874776573735289
1782831855041886700,5.78088671875,-0.080517890304327,-0.013313618548773228,0.0007739800471812487
1782831855051815700,5.790815673828125,-0.07408464238643646,-0.008383980126865209,-0.004250570116564632
1782831855061746000,5.800745849609375,-0.0734860919713974,-0.011639182530529797,-0.0020483199650887397
1782831855071675000,5.8106748046875,-0.0752805741727352,-0.011993361696484498,-0.00044056054146494715
1782831855081603800,5.820603759765625,-0.08770049528479576,-0.011817534772120416,-0.00007849032999947667
1782831855091533000,5.830532958984375,-0.080517890304327,-0.009390750583191401,0.008910574983968399
1782831855101461800,5.840461669921875,-0.07991992441117764,-0.011265453847311436,0.0010087797503219916
1782831855111391700,5.850391845703125,-0.0721399380594492,-0.014322201936272903,0.0031138029052875933
1782831855121320700,5.86032080078125,-0.09368716847896576,-0.01026867049545981,0.005249750921479426
1782831855131250000,5.87025,-0.07139175004065036,-0.012236764831189066,0.0017172020143130793
1782831855141179000,5.880178955078125,-0.07109247483313083,-0.0036684639462502672,0.0027719260984798893
1782831855151108900,5.89010888671875,-0.0760305157572031,-0.014009099132800474,-0.0016643804151099174
1782831855161037800,5.900037841796875,-0.07677870377600192,-0.008016763382824137,0.001729645937355235
1782831855170966800,5.909966796875,-0.08186521326005458,-0.011990685682208277,0.00018142098151147364
1782831855180895700,5.919895751953125,-0.0787234081029892,-0.017010071047069503,0.0013185215529287232
1782831855190824700,5.92982470703125,-0.08426116848587989,-0.015061444030213169,0.006472936040884815
1782831855200755000,5.9397548828125,-0.07588146267533302,-0.014422757967608049,0.008135814052075148
1782831855210684000,5.949683837890625,-0.08979775982499122,-0.01937828888259828,-0.004779923186334781
1782831855220612900,5.95961279296875,-0.08740355816483497,-0.004007472942536697,0.000600532309571281
1782831855230541800,5.969541748046875,-0.0863560949385166,-0.009253853729995898,0.0009196492952993139
1782831855240470800,5.979470703125,-0.07872399262487888,-0.01188561330595985,-0.005606912062386982
1782831855250400800,5.98940087890625,-0.07782616700232028,-0.007912312061083502,0.00021706311705056578
1782831855260329700,5.999329833984375,-0.0787228235810995,-0.010314909373538102,0.000060219454369507724
1782831855270259000,6.009259033203125,-0.0701923111230135,-0.011332310821732972,0.0011968542349059133
1782831855280188000,6.01918798828125,-0.06749883425533772,-0.006893609138368628,-0.003122278472688049
1782831855290116900,6.029116943359375,-0.07737433158159256,-0.007290746096638031,0.006623957317555323
1782831855300046800,6.039046875,-0.07902151426672935,-0.007794649631320498,-0.0006160815051523968
1782831855309975800,6.048975830078125,-0.06720072809159755,-0.014976172332977876,-0.006794674241961911
1782831855319904800,6.05890478515625,-0.08336275834143161,-0.013233867843449114,0.0008020918968133628
1782831855329833700,6.068833740234375,-0.08306406765580177,-0.006035873497603461,-0.007986244946974329
1782831855339764000,6.078763916015625,-0.07633037548661231,-0.0031962113585788754,0.00580536181051284
1782831855349693000,6.08869287109375,-0.07528291226029396,-0.014271992419264279,-0.0014231920703779905
1782831855359622000,6.098621826171875,-0.0850099410265684,-0.004812574213766492,0.0004683390309568494
1782831855369550800,6.10855078125,-0.07438625568151473,-0.011951225888077168,-0.005937778851413168
1782831855379479800,6.118479736328125,-0.0859083511710167,-0.008613829660252667,-0.0013260472722584381
1782831855389409800,6.128409912109375,-0.07812719577550888,-0.005289502976555377,0.007525600598705932
1782831855399338800,6.1383388671875,-0.0675035104304552,-0.006962865849141963,-0.0003422101669479161
1782831855409268000,6.14826806640625,-0.07992284702062606,-0.010603053548978641,-0.0027623591191135344
1782831855419197000,6.158197021484375,-0.0745358932852745,-0.009366273729060777,0.0070082119613653045
1782831855429126000,6.1681259765625,-0.08396364684402942,-0.013818321234476752,-0.0005211332306964322
1782831855439056000,6.178055908203125,-0.08037234435379505,-0.007433218740671873,-0.0017837781442329287
1782831855448984800,6.18798486328125,-0.07962415633499621,-0.007522467926703393,-0.0014379192820517346
1782831855458913800,6.197913818359375,-0.08740531173050403,-0.007724392840126529,-0.008350771977007388
1782831855468842800,6.2078427734375,-0.08650865515172482,-0.013651832960615866,-0.005595975109841674
1782831855478772000,6.21777197265625,-0.09399111986160277,-0.0043372209201334045,0.0008198147831717505
1782831855488701700,6.22770166015625,-0.07723229276239872,-0.01783928384624887,-0.008397652459191158
1782831855498630700,6.237630615234375,-0.0772328772842884,-0.009397961208689957,-0.0024305835812119766
1782831855508560000,6.247559814453125,-0.07872808427810668,-0.0077880098279798395,0.007344736739620566
1782831855518488800,6.25748876953125,-0.08441431322097778,-0.006726084251469,0.008706385048222728
1782831855528418800,6.267418701171875,-0.07932605017125606,-0.010649153146450407,-0.010559269206179306
1782831855538348000,6.27734814453125,-0.07019815634191036,-0.013609993979730643,-0.0012427757358644156
1782831855548277000,6.287277099609375,-0.07214344519078732,-0.012103425341681576,-0.004434676245506853
1782831855558206000,6.2972060546875,-0.07378945883214473,-0.004905371630331501,0.0010440976588753984
1782831855568135000,6.307135009765625,-0.08665887727737426,-0.004516591508453712,0.003321472572907805
1782831855578065000,6.31706494140625,-0.08246902437210082,-0.004516984234098345,0.002805052049946971
1782831855587993900,6.326993896484375,-0.08845394400060176,-0.010824943538196385,0.00013881024906877427
1782831855597922800,6.3369228515625,-0.09099836778640746,-0.007455202243616804,0.003959784176177345
1782831855607851800,6.346851806640625,-0.08725801221430302,-0.004817862310237251,-0.0007136555615346879
1782831855617781000,6.356781005859375,-0.0764835202217102,-0.010112411354668439,0.0028554853292414918
1782831855627710700,6.366710693359375,-0.08202011156082153,-0.009257922550337389,0.003907880459004081
1782831855637639700,6.3766396484375,-0.08112287046015262,-0.005233991663344204,-0.00916252218473237
1782831855647569000,6.38656884765625,-0.07438917829096317,-0.010669734710175544,0.001110294762882404
1782831855657497900,6.396497802734375,-0.0903998173713684,-0.006565578193822875,-0.0016618642310379072
1782831855667426800,6.4064267578125,-0.09204524649083613,-0.005908539057197049,-0.0027811140519334
1782831855677357000,6.416357177734375,-0.08216916464269161,-0.004681426681345328,-0.001971998759289272
1782831855687286000,6.4262861328125,-0.08186988943517208,-0.01129689929834567,0.0068807131241774185
1782831855697214700,6.436214599609375,-0.08755728742182255,-0.0028393653115024787,-0.0031532672659959644
1782831855707143700,6.446143798828125,-0.07453940041661263,-0.002793946134042926,-0.0033253587301587686
1782831855717074000,6.456073974609375,-0.08097440190017223,-0.01104433560965117,0.005876303588296286
1782831855727003000,6.4660029296875,-0.084117376101017,-0.013811439402541145,-0.0018845853373175485
1782831855736931800,6.475931884765625,-0.08681143749058245,-0.005562853724951856,-0.00942371213787701
1782831855746860800,6.48586083984375,-0.07723521537184715,-0.002440319523937069,-0.0011990735914558172
1782831855756790300,6.495790283203125,-0.08561433666050433,-0.00738895034068264,0.003098290242324583
1782831855766720000,6.505719970703125,-0.08337035712599754,-0.007749266986479051,0.001773517045122571
1782831855776649000,6.51564892578125,-0.08052548908889293,-0.005179653960489668,0.0002448370399652049
1782831855786578000,6.525577880859375,-0.07723346180617809,-0.011146951167332008,-0.005965438609896227
1782831855796507100,6.535507080078125,-0.08336918808221816,-0.010081673723109997,-0.005846355974604376
1782831855806436000,6.54543603515625,-0.08247136245965957,-0.00872951932863798,-0.002128143735649064
1782831855816366000,6.555365966796875,-0.07499006679356097,-0.006189821950299665,-0.0005362212019739672
1782831855826295000,6.565294921875,-0.061523851498961446,-0.007993551470595411,-0.005519165280275047
1782831855836224000,6.57522412109375,-0.07813362551629544,-0.017589651900157332,-0.003918141558114439
1782831855846153000,6.585153076171875,-0.08337094164788722,-0.020313007882866076,-0.007304217499564401
1782831855856082000,6.59508203125,-0.07544073317050934,-0.012294874526862986,0.001954659465420991
1782831855866012200,6.60501220703125,-0.0708019674539566,-0.006517807229072786,0.0030151602698257193
1782831855875941000,6.614941162109375,-0.0737953040510416,-0.0029761343005346133,-0.0040673544701887296
1782831855885870000,6.6248701171875,-0.0794815329939127,-0.010466869081836193,0.002646340657165274
1782831855895799000,6.634799072265625,-0.07738602201938628,-0.010950880605960264,-0.0043164247272768986
1782831855905729000,6.64472900390625,-0.08067863382399082,-0.007942501703370361,-0.0018114424692932515
1782831855915658000,6.654657958984375,-0.08157587492465973,-0.005867681890423409,0.003594855287345126
1782831855925587000,6.6645869140625,-0.0865133313268423,-0.009648593235202133,0.010756143485149368
1782831855935516200,6.67451611328125,-0.0734948597997427,-0.003787181255361065,-0.002202985370415263
1782831855945445000,6.684445068359375,-0.06975333518385887,-0.013114515780098736,-0.004484862929629162
1782831855955374800,6.694374755859375,-0.08606383399367332,-0.010142824759241192,0.0011176606520079077
1782831855965304000,6.704303955078125,-0.06960428210198878,-0.01112225511749275,0.001573213266627863
1782831855975233000,6.71423291015625,-0.07888181353509426,-0.007717908300412819,0.0000027079803170636293
1782831855985162000,6.724161865234375,-0.08172551252841949,-0.008125507287192158,-0.006875196698843501
1782831855995091000,6.734091064453125,-0.08247311602532863,-0.0097736763530178,-0.0022025150129571557
1782831856005021200,6.744021240234375,-0.0829231978803873,-0.010609172762511297,0.001999306891323067
1782831856014950100,6.7539501953125,-0.09279927972853183,-0.006561934065166861,0.001456464152317494
1782831856024879000,6.763879150390625,-0.07589023050367832,-0.006720449095126241,-0.004703638513153419
1782831856034808000,6.77380810546875,-0.08187690369784832,-0.008589243208267726,-0.0020410134414676575
1782831856044737000,6.783737060546875,-0.07963292416334151,-0.005780437431810424,-0.0030939337276155126
1782831856054667000,6.7936669921875,-0.08412263679802418,-0.008288885721936822,-0.009806820570793934
1782831856064596000,6.803595947265625,-0.07649170352816581,-0.009365839904220774,-0.0068419017840176816
1782831856074525200,6.813525146484375,-0.08232815459668635,-0.0009806268014945088,0.0023841962893726303
1782831856084454100,6.8234541015625,-0.0865180075019598,-0.007989816010394134,-0.0007143907804740593
1782831856094383000,6.833383056640625,-0.07978489985466003,-0.012533231593691744,0.004457792259613052
1782831856104313000,6.84331298828125,-0.07858662998080253,-0.0159549496706808,-0.004600018308474682
1782831856114242000,6.853241943359375,-0.07783785744011401,-0.009853541222773491,-0.009583286613761446
1782831856124171000,6.8631708984375,-0.071703884729743,-0.0019505221464205533,-0.0019797025751322507
1782831856134100000,6.873099853515625,-0.08636895442008971,-0.004142556864558719,-0.003364147237432189
1782831856144030200,6.8830302734375,-0.08128186041414737,-0.00797721682372503,-0.0025401403363328424
1782831856153959000,6.892958984375,-0.07065875959098339,-0.010561337865679523,-0.005376546505768783
1782831856163887900,6.902887939453125,-0.07993570650219917,-0.01502579276151955,-0.0009920889104250818
1782831856173817000,6.912817138671875,-0.08367489303052425,-0.007539642823790199,0.001494796001864597
1782831856183746000,6.92274609375,-0.0805313343077898,-0.009659566720365546,-0.0024731988802319392
1782831856193676000,6.932676025390625,-0.07783902648389339,-0.01428376962202601,-0.0022625837702769784
1782831856203605000,6.94260498046875,-0.08008359054028988,-0.013670007938123308,-0.0023148710799403486
1782831856213534200,6.9525341796875,-0.07888765875399112,-0.006188241914566606,0.004736627467302606
1782831856223463200,6.962463134765625,-0.07709259203076362,-0.007742421687161549,-0.0026668582888087254
1782831856233392000,6.97239208984375,-0.08696984292268753,-0.0064476235031150275,-0.00288794456042815
1782831856243322000,6.982322021484375,-0.08322948735058307,-0.007145743568800389,-0.008897126413928345
1782831856253251000,6.9922509765625,-0.09370411961376666,-0.010130189039953984,-0.008637612394639291
1782831856263180000,7.002179931640625,-0.07859072163403034,-0.005968977707275189,0.005894697761512361
1782831856273109000,7.01210888671875,-0.0775426738858223,-0.004092274282313883,-0.01697160676678177
1782831856283038200,7.0220380859375,-0.08442600365877151,-0.007258154434710741,0.0012872359320987015
1782831856292968000,7.031968017578125,-0.0763444040119648,-0.012311122408765368,0.0035906403365312143
1782831856302897000,7.04189697265625,-0.07379998022615909,-0.012423259280039928,-0.007325251154438592
1782831856312826000,7.051826171875,-0.07574468455314635,-0.0020087642728351053,-0.008189151674509048
1782831856322755000,7.061755126953125,-0.08113163828849793,-0.009565769223379901,-0.0032244236729107793
1782831856332684000,7.07168408203125,-0.07873802115023136,-0.0013790880671702324,0.004230321912979707
1782831856342614000,7.081614013671875,-0.07574585359692573,-0.010262724811863154,0.004123158044344745
1782831856352543200,7.091543212890625,-0.07589432215690613,-0.005555282339849509,-0.0032509463536553084
1782831856362472000,7.101471923828125,-0.0799339529365301,-0.005400160276796668,-0.00428235349431634
1782831856372401000,7.11140087890625,-0.07649170352816581,-0.006179898777906783,-0.003282693198788911
1782831856382331100,7.1213310546875,-0.07125380287468433,-0.009692003118665889,-0.0024506947874790054
1782831856392260000,7.131260009765625,-0.07409691734611988,-0.012172974313399754,0.0026304718011757357
1782831856402189000,7.14118896484375,-0.075294018176198,-0.01152194935902953,0.010356709538516588
1782831856412118000,7.151117919921875,-0.07918518039584159,-0.005294005621736869,-0.007049891112046316
1782831856422047200,7.161047119140625,-0.0809802471190691,-0.01431432002391666,-0.0008879892151337117
1782831856431977000,7.17097705078125,-0.06841068840324878,-0.0019104093317408113,-0.0032991511432453988
1782831856441906000,7.180906005859375,-0.07409750186800956,-0.008729816156160086,5.297229625284672e-7
1782831856451835100,7.190835205078125,-0.0830757580935955,-0.0063801934232469645,0.003911446955846622
1782831856461764000,7.20076416015625,-0.07499649653434753,-0.012820629133749753,0.002141857167170383
1782831856471693000,7.210693115234375,-0.08562076640129089,-0.015067389713809824,-0.00492821364980191
1782831856481623000,7.220623046875,-0.0820300484329462,-0.005005489270249381,-0.004204936309973709
1782831856491552000,7.230552001953125,-0.07888707423210144,-0.010335196393029763,-0.0027097475824644788
1782831856501481000,7.24048095703125,-0.07380056474804877,-0.00560445067724213,-0.006973871300346218
1782831856511410000,7.250409912109375,-0.07709259203076362,-0.01334307753869798,0.0033542925636982543
1782831856521339000,7.2603388671875,-0.08547171331942081,-0.0123697389945155,-0.0005517932304413989
1782831856531269000,7.27026904296875,-0.06751461634635925,-0.007911627074494026,-0.0019765836028615012
1782831856541198000,7.280197998046875,-0.06990764896273613,-0.009240144865051843,0.0032582483106991275
1782831856551127000,7.290126953125,-0.08756605525016783,-0.00978617050840985,-0.004621289425366558
1782831856561056300,7.30005615234375,-0.07409925543367862,-0.009500448902207427,-0.005567858693632297
1782831856570985000,7.30998486328125,-0.08247954576611519,-0.00831562303181272,0.0017450901016592979
1782831856580915000,7.3199150390625,-0.0709586193203926,-0.01634629164240323,-0.00361608073846437
1782831856590844200,7.32984423828125,-0.07978782246410847,-0.007170352853671647,-0.01232202282869257
1782831856600773000,7.339773193359375,-0.08562310448884963,-0.005045282424520701,-0.011985077925329097
1782831856610702000,7.3497021484375,-0.07754092032015324,-0.011281765661295502,0.0019979003855260086
1782831856620631800,7.3596318359375,-0.08023381266593933,-0.012988236219040118,0.006711119577777571
1782831856630561000,7.36956103515625,-0.07828910833895206,-0.007793695216672495,0.00046879568868316707
1782831856640490000,7.379489990234375,-0.08532266023755072,-0.0009473638527095317,-0.004514367585326545
1782831856650419000,7.3894189453125,-0.0857727420926094,-0.0048667520864168175,-0.006582803323259577
1782831856660348000,7.399347900390625,-0.08337795591056346,-0.010879751598509027,-0.007775556771783158
1782831856670278100,7.409278076171875,-0.08337912495434284,-0.015247874546982346,0.0011688063173554838
1782831856680207000,7.41920703125,-0.07619768901765346,-0.008835824680747464,-0.0015339361355872824
1782831856690136000,7.429135986328125,-0.07963993842601776,-0.008167140772100538,-0.008899669997463933
1782831856700065000,7.43906494140625,-0.08128595206737518,-0.018220501716178842,-0.004458089087135159
1782831856709994000,7.448993896484375,-0.08801905971467494,-0.013003945244825444,0.0002485177012393251
1782831856719924000,7.458924072265625,-0.08757014690339565,-0.013747922879387624,0.002494986020354554
1782831856729853200,7.468853271484375,-0.08532441380321978,-0.011329856286454014,-0.002590906975767575
1782831856739782100,7.4787822265625,-0.07260521748363971,-0.01003350089956075,0.0026435641781892625
1782831856749711000,7.488711181640625,-0.07649579518139361,-0.0049091390565736215,-0.0021452547006541862
1782831856759639800,7.498639892578125,-0.08502572311758995,-0.0012559229118051006,-0.00047218865558970715
1782831856769569800,7.50856982421875,-0.07036123794913292,-0.008423111127433366,-0.006909916385775432
1782831856779498800,7.518498779296875,-0.07320435242056846,-0.002246189757902175,-0.00599610774279572
1782831856789427700,7.528427734375,-0.08308043426871299,-0.012273443579766898,-0.0029876055426197126
1782831856799356700,7.538356689453125,-0.07829086190462112,-0.0037346016847528514,-0.00030388745055533943
1782831856809286000,7.548285888671875,-0.08098492329418659,-0.008324290395458228,-0.002710044409986585
1782831856819216000,7.5582158203125,-0.08038637287914753,-0.010825706156599335,-0.0035980062256567177
1782831856829144800,7.568144775390625,-0.07589666024446487,-0.008738241491210646,-0.011026653822488151
1782831856839073800,7.57807373046875,-0.07739245176017284,-0.007494109481899067,-0.0001846678179455921
1782831856849002800,7.588002685546875,-0.08262801432609558,-0.012365693007060325,-0.0049742721480783075
1782831856858932700,7.5979326171875,-0.07753975127637386,-0.0036921827485552057,-0.00009773845316376536
1782831856868862000,7.607862060546875,-0.08247837672233581,-0.009547790608694776,-0.003660750997252762
1782831856878791000,7.617791015625,-0.08053308787345886,-0.007965220425254665,0.0016401090569561347
1782831856888720000,7.627719970703125,-0.07424772399365902,-0.0013021184073993936,0.005417129677906632
1782831856898648800,7.63764892578125,-0.07948504012525082,-0.013940787703520618,-0.00024106504714582115
1782831856908578800,7.647578857421875,-0.08726619552075862,-0.010382638564216904,-0.00565314409059938
1782831856918507800,7.6575078125,-0.07903554279208183,-0.008100076018413529,-0.00008890212615951896
1782831856928436700,7.667436767578125,-0.06975742683708668,-0.008158181147510185,-0.003185242439992726
1782831856938365700,7.67736572265625,-0.07544365577995776,-0.014246542884176596,-0.006887476225104183
1782831856948295000,7.687294921875,-0.08277589836418628,-0.00786056817411445,-0.007918769201333635
1782831856958225000,7.697224853515625,-0.08068155643343924,-0.006267266534105875,-0.005906885956227779
1782831856968153600,7.707153564453125,-0.08756605525016783,-0.009748149186116642,-0.01118607303474564
1782831856978082800,7.717082763671875,-0.08217910151481628,-0.007349796507228165,0.005840250460803508
1782831856988011800,7.72701171875,-0.08846446539461612,-0.001237040114821866,-0.009471948893507942
1782831856997940700,7.736940673828125,-0.09295417802929877,-0.008817540105385706,-0.008834888532408512
1782831857007871000,7.74687109375,-0.08397533728182316,-0.007367259098682552,-0.0028031934530008584
1782831857017800000,7.756800048828125,-0.08023322814404964,-0.003113538043806329,0.00021084343881811946
1782831857027729000,7.76672900390625,-0.06781272251009941,-0.010110086966841481,-0.009091868101316503
1782831857037657900,7.776657958984375,-0.08816285209953785,-0.01368799568596296,-0.002034264040272683
1782831857047586800,7.7865869140625,-0.08232873911857605,-0.007784685359732248,-0.0015464485572883858
1782831857057516800,7.796516845703125,-0.07499708105623722,-0.016017032288573683,0.001559390237252228
1782831857067445800,7.80644580078125,-0.07499708105623722,-0.012407367591164073,-0.011484626723057589
1782831857077374700,7.816374755859375,-0.0808323630809784,-0.004320014057005756,-0.0036511109526501965
1782831857087304000,7.826303955078125,-0.07020750869214534,0.001161129900976084,-0.0009573600903386249
1782831857097233000,7.83623291015625,-0.0886135184764862,-0.009897147469059564,0.004079775560344569
1782831857107162600,7.84616259765625,-0.07409750186800956,-0.007638376790797337,-0.004164435336226597
1782831857117091800,7.856091796875,-0.08142974445223808,-0.0005929472247371449,-0.009052723401016555
1782831857127020800,7.866020751953125,-0.07694003181755542,-0.0007536633449373766,0.0019763324411120266
1782831857136949800,7.87594970703125,-0.07813654812574386,-0.010642590974923222,-0.00006289090206846595
1782831857146878700,7.885878662109375,-0.08277589836418628,-0.012514111334690823,-0.0005225580028025434
1782831857156809000,7.89580908203125,-0.0821785169929266,-0.012368802846176549,-0.0030990985265001653
1782831857166738000,7.905738037109375,-0.078287354773283,-0.013662742513697593,-0.0017264949990436435
1782831857176666600,7.91566650390625,-0.08053074978590011,-0.006340496167098171,-0.004859299432323314
1782831857186595800,7.925595947265625,-0.07604162167310714,-0.0078391326604411,-0.005483714940981008
1782831857196524800,7.93552490234375,-0.07798574147820472,-0.011980515914643183,0.000007562251947820186
1782831857206454800,7.945454833984375,-0.07349602884352206,-0.011574601994873954,-0.0022429840206634253
1782831857216383700,7.9553837890625,-0.06960545114576816,-0.014970240349113009,-0.002310446066572331
1782831857226313000,7.96531298828125,-0.07768646627068519,-0.014056130312033928,0.0002468509005382657
1782831857236242000,7.975241943359375,-0.07963175511956215,-0.004725745313684456,-0.000840661208378151
1782831857246171600,7.985171630859375,-0.09384732747673988,-0.003128475318034179,-0.004342920008557848
1782831857256100900,7.995100830078125,-0.08501812433302403,-0.002579285036632791,0.009937785440124572
1782831857266029800,8.00502978515625,-0.07274725630283355,-0.010616209858073853,-0.006058546553715132
1782831857275958800,8.014958740234375,-0.07693594016432762,-0.010562853969330899,-0.0032733362819766625
1782831857285887700,8.0248876953125,-0.0782832631200552,-0.011301712470781057,-0.004981628904049284
1782831857295817700,8.034817626953124,-0.08531798406243324,-0.0023719395959982646,-0.006364621394779533
1782831857305746700,8.04474658203125,-0.0910053820490837,-0.010936285825027153,0.007052238332759589
1782831857315675600,8.054675537109375,-0.07544365577995776,-0.01298020360963419,-0.0010712596604367716
1782831857325604900,8.06460498046875,-0.06915887642204761,-0.0062152029867284,0.00035026560924015935
1782831857335533800,8.074533935546874,-0.07649111900627613,-0.010139742319588549,-0.0015999916756991295
1782831857345463800,8.0844638671875,-0.0787362675845623,-0.008712344431551174,0.00009556932896375655
1782831857355392800,8.094392822265625,-0.07813771716952324,-0.002925061700423248,-0.0003601339827058837
1782831857365322000,8.104322021484375,-0.07679097873568534,-0.0024352688894839956,-0.00043090223055332897
1782831857375251000,8.1142509765625,-0.08083119403719902,-0.009091219647345133,-0.0016489362508058548
1782831857385179600,8.1241796875,-0.0814285754084587,-0.008289570708526298,-0.003741835143137723
1782831857395110000,8.13410986328125,-0.08038111218214035,-0.005057356454804539,0.004705624974262901
1782831857405038800,8.144038818359375,-0.0761918437987566,-0.00949443015337456,0.0013342442784458398
1782831857414967800,8.1539677734375,-0.08561959735751151,-0.016148321384890005,0.0009465281690703704
1782831857424896800,8.163896728515626,-0.08277765192985534,-0.010562031985423527,-0.00087668693640735
1782831857434826000,8.173825927734375,-0.0754465783894062,-0.008502569571812637,-0.001073360285977833
1782831857444755700,8.183755615234375,-0.08831599683463573,-0.007032081460719927,-0.004439763412578031
1782831857454684700,8.1936845703125,-0.08607143277823924,-0.012106891373824327,0.0019483210561797022
1782831857464614000,8.20361376953125,-0.08622107038199901,-0.00531938209158834,-0.0038318241146858777
1782831857474542800,8.21354296875,-0.07170622281730174,-0.01308362745149061,-0.005922480817581527
1782831857484471800,8.223471923828125,-0.08053484143912791,-0.014282536646164953,0.0005276908356463536
1782831857494401800,8.23340185546875,-0.0754465783894062,-0.0021156724131433293,-0.0009125711005413905
1782831857504330800,8.243330810546874,-0.08367723111808299,-0.0009365045319776981,0.00392888214783743
1782831857514259700,8.253259765625,-0.08367840016186237,-0.0031312426638556642,-0.00010068846207577735
1782831857524188700,8.263188720703125,-0.08667232128083706,-0.0036697380213066935,-0.002562954956339672
1782831857534117600,8.27311767578125,-0.08697159648835659,-0.005151765873143449,0.0020874144330387933
1782831857544047900,8.2830478515625,-0.08158288918733596,-0.0016593389138113705,-0.0005683014072477817
1782831857553976800,8.292976806640626,-0.07335165193676949,-0.011421365928230806,-0.0026638808804331344
1782831857563905800,8.30290576171875,-0.08023556623160838,-0.013786798151629046,-0.0061102904406841844
1782831857573835000,8.3128349609375,-0.07903846540153026,-0.007017157886223867,0.0028469184302957725
1782831857583764700,8.3227646484375,-0.07844049950838089,-0.017163818570366127,-0.00608266721481923
1782831857593693700,8.332693603515626,-0.0808358702123165,-0.006255594362621195,-0.002976179966307245
1782831857603623000,8.342622802734375,-0.07619651997387408,-0.0024144635634729635,0.000426166689931415
1782831857613551900,8.3525517578125,-0.086670567715168,-0.011041490632016211,-0.0024661480849375948
1782831857623480800,8.362480712890624,-0.08412731297314166,-0.01320688850497827,-0.0014581583524821324
1782831857633410800,8.372410888671874,-0.07664426374137401,-0.016560811175918205,-0.00189153110133484
1782831857643339800,8.38233984375,-0.08397533728182316,-0.01889613595542032,-0.006610161687643267
1782831857653268700,8.392268798828125,-0.08337795591056346,-0.011634131896076724,-0.0042971948704216625
1782831857663197700,8.40219775390625,-0.08951426670849323,-0.009517007311363703,0.005001178421312943
1782831857673126700,8.412126708984376,-0.07021101582348346,-0.007426309509272686,-0.00044696288278792053
1782831857683057000,8.422056884765626,-0.07185761398673057,-0.006989064302900806,-0.0028231082964455707
1782831857692985900,8.43198583984375,-0.07290507721304892,-0.0064684425288578495,-0.007623955539800226
1782831857702914800,8.441914794921875,-0.08337912495434284,-0.010616045461292379,-0.00591781377561856
1782831857712843800,8.45184375,-0.08682078984081745,-0.003359996218699962,-0.008265239984868094
1782831857722772700,8.461772705078126,-0.0808358702123165,-0.006164628143538721,-0.0037461962244240564
1782831857732702700,8.47170263671875,-0.07500000366568566,-0.008066831335937604,0.003358238086453639
1782831857742632000,8.4816318359375,-0.06542319702506065,-0.008684785137767903,-0.003510948996711522
1782831857752561000,8.491560791015624,-0.08278174358308314,-0.01587897552475333,-0.005976334463246166
1782831857762490600,8.50149072265625,-0.07514964126944541,-0.005909530004463158,-0.0037783083957387133
1782831857772419300,8.51141943359375,-0.07275602413117885,-0.00623566125286743,-0.005739114474155939
1782831857782349300,8.521349365234375,-0.07305529933869838,-0.006414342288020998,-0.0033468901419546455
1782831857792278500,8.531278564453125,-0.07559972312450408,-0.012153972785407677,0.001040490062837489
1782831857802207500,8.54120751953125,-0.0769458770364523,-0.008559391492698342,0.0007781082330271601
1782831857812136400,8.551136474609375,-0.08323007187247276,-0.015619630468823014,-0.010819879204011522
1782831857822065400,8.5610654296875,-0.0814332515835762,-0.014017538167582824,0.006740089943935163
1782831857831995400,8.570995361328125,-0.09175766172111034,-0.0056740681476192545,-0.00002969188536517322
1782831857841924400,8.58092431640625,-0.07873860567212104,-0.005357028954545967,0.0003154317578766495
1782831857851853300,8.590853271484375,-0.07918693396151065,-0.008377180493320337,-0.0004967522746883332
1782831857861782300,8.6007822265625,-0.08232873911857605,-0.020324867284018545,0.004864761058730073
1782831857871711500,8.61071142578125,-0.07634323496818542,-0.009292158180079422,0.0026245946162380277
1782831857881641500,8.620641357421874,-0.07589373763501643,-0.01073019619314,-0.005909534571040422
1782831857891570400,8.6305703125,-0.0708060591071844,-0.008345305784023366,-0.004243953146110289
1782831857901499400,8.64049951171875,-0.07739069819450378,-0.006085407161177136,-0.0005563415413955226
1782831857911428400,8.650428466796875,-0.07903729635775089,-0.009262658090959303,-0.0028700983764836565
1782831857921358300,8.6603583984375,-0.07110533431470394,-0.011113870881637558,-0.010152930594724602
1782831857931287600,8.67028759765625,-0.07394727974236011,-0.014259023339836857,-0.005890939468424767
1782831857941216500,8.680216552734375,-0.07933364895582198,-0.010253354195319116,-0.004717877101060003
1782831857951145500,8.6901455078125,-0.0866658915400505,-0.0001461304724216461,-0.0037820438559399918
1782831857961074400,8.700074462890624,-0.07469429871737956,-0.0007803778219269589,-0.0014711593979503958
1782831857971004400,8.71000439453125,-0.07678980969190598,-0.0005796036859741434,-0.004978395767346955
1782831857980933400,8.719933349609375,-0.08232698555290699,-0.00889549614584539,-0.003973246445949189
1782831857990862300,8.7298623046875,-0.08142974445223808,-0.0033725680059054864,0.0020696687137940896
1782831858000791300,8.739791259765624,-0.07709142298698425,-0.012717205291893333,-0.00951947326308582
1782831858010720500,8.749720458984376,-0.0808317785590887,-0.0032542342892847953,-0.00306927421039436
1782831858020650500,8.759650390625,-0.07110416527092456,-0.004819255116302519,-0.0023913429827895015
1782831858030579500,8.769579345703125,-0.07634089688062667,-0.010955903840949759,0.0037981136413291093
1782831858040508400,8.77950830078125,-0.0761912592768669,-0.0050276143370894715,0.007475916238082573
1782831858050437400,8.789437255859376,-0.07918459587395191,-0.006655713295843452,-0.0016393007727805524
1782831858060366300,8.799366455078125,-0.07813830169141292,-0.004741783133032732,0.0015354842052794993
1782831858070296600,8.809296630859375,-0.08008417506217956,-0.005842844276688993,-0.0003641160380793735
1782831858080225500,8.8192255859375,-0.08577157304883003,-0.00756185465559829,0.0014565235178219153
1782831858090154500,8.829154541015624,-0.07783961100578307,-0.002975997303216718,-0.0035541259847348553
1782831858100083500,8.83908349609375,-0.07679156325757502,-0.005838990085478872,-0.0039020991721889003
1782831858110012400,8.849012451171875,-0.07843699237704277,-0.010007759103528224,0.004204863244737498
1782831858119942400,8.8589423828125,-0.07200315993726253,-0.0018018937562359497,0.0007101621299283579
1782831858129871400,8.868871337890624,-0.08157938205599784,-0.00724584750898648,-0.000024088695063255728
1782831858139800300,8.87880029296875,-0.07334989837110042,-0.004235390813741833,-0.006144891396607272
1782831858149729500,8.8887294921875,-0.07828910833895206,-0.014890823003929108,-0.0032820767108583822
1782831858159658500,8.898658447265625,-0.09085866705477237,-0.007780675904895179,0.011721006461931392
1782831858169588200,8.908588134765624,-0.07065875959098339,-0.012979733252176082,-0.007367519393586553
1782831858179517400,8.918517333984376,-0.07739186723828315,-0.008708700302895158,-0.006308018669602461
1782831858189446400,8.9284462890625,-0.08861468752026558,-0.010947921463893727,-0.001526935572642833
1782831858199375400,8.938375244140625,-0.07499708105623722,-0.0036134503899607805,-0.008550418168376199
1782831858209304300,8.94830419921875,-0.08981061930656432,-0.00908578085382469,0.0011706649143015965
1782831858219234600,8.958234619140624,-0.07933657156527042,-0.010183695625746622,0.0031223424047697335
1782831858229163500,8.96816357421875,-0.09011047903597354,-0.008499350134842097,-0.00015920001654885709
1782831858239092200,8.97809228515625,-0.07784019552767277,0.0013272756815422325,-0.010449634819244965
1782831858249021400,8.988021484375,-0.0729021546036005,-0.004614603956253268,-0.0033862540379632263
1782831858258950400,8.997950439453126,-0.08083294760286808,-0.011952486263401806,-0.0004246094870846718
1782831858268880400,9.00788037109375,-0.0715560006916523,0.0012111110891215502,-0.0069387497546151275
1782831858278809300,9.017809326171875,-0.08008475958406924,-0.006392482082662172,-0.0003725870389025658
1782831858288738600,9.027738525390625,-0.08247954576611519,-0.0056603912487160415,-0.0006337678588926791
1782831858298667500,9.03766748046875,-0.07903788087964057,-0.003795122533221729,0.0035312748321099205
1782831858308596500,9.047596435546875,-0.07858896806836128,-0.0035393576738657426,-0.004404166942811571
1782831858318526500,9.0575263671875,-0.0749976655781269,-0.012600004086433908,-0.005665980739286169
1782831858328455400,9.067455322265625,-0.08427519701123237,-0.011535196999670006,-0.0017437383947893977
1782831858338384400,9.07738427734375,-0.08262918336987495,-0.010428500699670985,-0.004427351455576717
1782831858348313300,9.087313232421875,-0.07828910833895206,-0.014612951344042084,0.0017913495293352753
1782831858358242600,9.09724267578125,-0.09145780199170112,-0.015020440732967108,0.0001304716789862141
1782831858368172300,9.10717236328125,-0.06706745710074902,-0.008460803656163625,-0.0031047473825747147
1782831858378101200,9.117101318359374,-0.08113339185416699,-0.004136072324845009,0.0021059547367272896
1782831858388030500,9.127030517578126,-0.08083294760286808,-0.006713713393663056,0.005153802566602826
1782831858397959400,9.13695947265625,-0.08247896124422549,-0.007958005233178847,-0.0026432490843581033
1782831858407888400,9.146888427734375,-0.08532266023755072,-0.009489954907656646,-0.010508511699899099
1782831858417818400,9.156818359375,-0.09220657453238963,-0.014514943462819792,-0.005349147042189724
1782831858427747600,9.16674755859375,-0.07948737821280956,-0.008498802145570515,-0.0016849300127942115
1782831858437676500,9.176676513671875,-0.07275427056550979,-0.00032704913043417035,-0.0037715407282346855
1782831858447605200,9.186605224609375,-0.07739186723828315,-0.006153193434071727,-0.0022239231271669268
1782831858457535500,9.196535400390625,-0.07963643129467964,-0.009519788356916978,0.00006715608523227274
1782831858467464400,9.20646435546875,-0.08711831148266792,-0.009319626142317428,-0.004901878198725171
1782831858477393400,9.216393310546875,-0.08577215757071971,-0.010840077175246552,-0.004144862986076623
1782831858487322400,9.226322265625,-0.0775426738858223,-0.011812210143031552,-0.00047068168509285894
1782831858497251600,9.23625146484375,-0.07948796273469924,-0.0035605557255214077,-0.00045296336531173433
1782831858507181300,9.246181396484374,-0.07784136457145213,-0.00707091563376598,-0.00013590133935213088
1782831858517110300,9.2561103515625,-0.071107087880373,-0.008079914579796604,-0.009981606315542011
1782831858527039500,9.26603955078125,-0.08128244493603706,-0.006922807833389379,-0.008401246355497279
1782831858536968400,9.275968505859375,-0.0808323630809784,-0.0037484018812421705,0.0028018782787490636
1782831858546897400,9.2858974609375,-0.07768938888013363,-0.010434231754136271,-0.006626683564181439
1782831858556827400,9.295827392578126,-0.08038286574780941,-0.004812076456844806,0.0015835337312426418
1782831858566756600,9.305756591796875,-0.08891279368400573,-0.010556223299144766,0.0034391350026708096
1782831858576685300,9.315685302734375,-0.07619359736442566,-0.010885578551096842,-0.0028622940959408876
1782831858586614300,9.3256142578125,-0.06916121450960636,-0.002685444258269854,-0.004720512016140856
1782831858596543200,9.335543212890625,-0.07724281415641307,-0.006748286950122565,0.000031728578824549914
1782831858606473500,9.345473388671875,-0.0775420893639326,-0.007386338258488103,0.0025217141970759254
1782831858616402400,9.35540234375,-0.07110884144604206,-0.009424735051183962,-0.0034702790596056726
1782831858626331400,9.365331298828124,-0.08562368901073932,-0.009004705841094255,0.000625712416600436
1782831858636260600,9.375260498046876,-0.0856248580545187,-0.009648305540834554,0.0014043275397038087
1782831858646189600,9.385189453125,-0.07559972312450408,-0.007089702532626688,0.00029985059625469145
1782831858656119300,9.395119384765625,-0.06931435924470425,-0.006889805179508403,-0.0025194811407942322
1782831858666048500,9.405048583984374,-0.08008885123729706,-0.011908327461266889,-0.011930059802462346
1782831858675977500,9.4149775390625,-0.07574877620637416,-0.011102856297278776,-0.002740887072822079
1782831858685906400,9.424906494140625,-0.0803875419229269,-0.0002552853687433526,-0.007712807433609851
1782831858695835400,9.43483544921875,-0.07739595889151096,-0.003642621685517952,0.0005205761082703247
1782831858705765400,9.444765380859375,-0.08577508018016815,-0.013453520209807902,-0.006944731970829889
1782831858715694300,9.4546943359375,-0.0690156685590744,-0.008893884144071489,-0.010174105813493952
1782831858725623300,9.464623291015625,-0.08457797935009002,-0.0008749836030881852,-0.006283039491972886
1782831858735552300,9.47455224609375,-0.07769406505525112,-0.007781173661816865,-0.0026793524442007763
1782831858745481500,9.4844814453125,-0.07365268070995808,-0.011787705889437347,0.0014029073341749608
1782831858755411500,9.494411376953124,-0.07544774743318557,-0.007504955102899112,-0.0018363485816866158
1782831858765340400,9.50434033203125,-0.086670567715168,-0.007964188378793187,-0.004158069527521729
1782831858775269400,9.514269287109375,-0.07769289601147174,-0.01103455856773071,-0.007156141665228642
1782831858785198300,9.5241982421875,-0.08218143960237502,-0.0070850765898590904,-0.007734439310105517
1782831858795127300,9.534127197265626,-0.07828969286084175,-0.010538167052646166,-0.006077036625053733
1782831858805057300,9.544057373046876,-0.07484744345247744,-0.010234788775455672,0.0035541488176211713
1782831858814986200,9.553986328125,-0.07559563147127628,-0.014572240307740866,0.0006431247757049277
1782831858824915500,9.56391552734375,-0.08218027055859566,0.001964733334863558,-0.00958579366467893
1782831858834844400,9.573844482421874,-0.08517360715568065,-0.014360241524875163,-0.011476936606946401
1782831858844773400,9.5837734375,-0.08218085508048534,-0.011497586669330484,-0.0008590234155533835
1782831858854703400,9.593703369140625,-0.077690557923913,-0.01219517929534195,-0.006177199930744245
1782831858864632300,9.60363232421875,-0.081280691370368,-0.012256661408324725,-0.008162665526382624
1782831858874561300,9.613561279296874,-0.07768938888013363,-0.013120064171473494,-0.007118175141862593
1782831858884490200,9.623490234375,-0.08636836989820003,-0.006100269086880143,-0.005946386849554256
1782831858894419500,9.63341943359375,-0.0755950469493866,-0.010385513224604074,-0.005079760082857683
1782831858904349400,9.643349365234375,-0.07664192565381527,-0.012509015034465118,-0.012214986824220977
1782831858914278100,9.653278076171874,-0.07903495827019213,-0.0012829593324917368,-0.007818706360342912
1782831858924207400,9.663207275390626,-0.08636778537631035,-0.007175371522083878,-0.008694534780224784
1782831858934136300,9.67313623046875,-0.07978373081088065,-0.007478222359600477,0.00226389437795151
1782831858944065300,9.683065185546875,-0.07589315311312675,-0.005844209683290682,-0.0008876969541888683
1782831858953995300,9.692995361328125,-0.08532032214999198,-0.006777229916816577,-0.007982002596696838
1782831858963924500,9.702924560546874,-0.08786357689201832,-0.010034747575153597,-0.008242589761642738
1782831858973853400,9.712853515625,-0.08068038738965988,-0.00851178949130699,-0.003993517482420429
1782831858983782400,9.722782470703125,-0.0754424867361784,-0.006700844778935425,-0.002994989698054269
1782831858993711400,9.73271142578125,-0.0754419022142887,-0.005024285302264616,-0.0005177037311717867
1782831859003641300,9.742641357421874,-0.08037994313836097,-0.00886708746869117,-0.006657156334258616
1782831859013570300,9.7525703125,-0.07439443898797035,-0.016141288855904712,-0.002945255105081014
1782831859023499300,9.762499267578125,-0.08292378240227699,-0.012687339876592159,0.0057513574677985155
1782831859033428500,9.772428466796875,-0.07933189539015292,-0.004956110870302654,-0.002579175438778475
1782831859043357400,9.782357421875,-0.07738602201938628,-0.009724128989712335,0.0015398087539477273
1782831859053287200,9.792287109375,-0.0826227536290884,-0.00483478147899732,-0.008075727028446271
1782831859063216400,9.80221630859375,-0.08501637076735497,-0.007116999248217325,0.006519501429237425
1782831859073145300,9.812145263671875,-0.07933014182448386,-0.003830819467687979,0.008656951849348843
1782831859083074300,9.82207421875,-0.07947919490635394,-0.013986028784466907,-0.005342023181659169
1782831859093003300,9.832003173828125,-0.08337035712599754,-0.01425300459100399,-0.007811819961830042
1782831859102933500,9.84193359375,-0.08681260653436183,-0.008501665389514529,-0.000978818436898291
1782831859112862500,9.851862548828125,-0.07020283251702784,-0.008206627965695224,-0.005733935975539498
1782831859122791200,9.861791259765624,-0.06960428210198878,-0.011866614061256404,-0.0018865306992316617
1782831859132720000,9.87172021484375,-0.07319441554844379,-0.018600100734469015,-0.007929080532793887
1782831859142649300,9.8816494140625,-0.07828150955438613,-0.007295878929481841,-0.006679628460970707
1782831859152579300,9.891579345703125,-0.07977671654820442,-0.013416188440681435,0.008482147838291711
1782831859162508300,9.90150830078125,-0.08067395764887332,-0.011466280498902779,0.0031586558271665126
1782831859172437500,9.9114375,-0.08621113350987433,-0.012873941640008706,-0.004331941956817172
1782831859182366500,9.921366455078125,-0.07872808427810668,-0.003353386098111514,0.00016614121398888528
1782831859192295400,9.93129541015625,-0.06541384467482567,-0.0033484747442649675,0.0055570815712912
1782831859202225400,9.941225341796875,-0.041326866644620895,-0.010072008562332485,-0.004093315461929888
1782831859212154400,9.951154296875,-0.13769640607535838,-0.011070721293077804,-0.004259808302368037
1782831859222083300,9.961083251953125,-0.06796528272330761,-0.010273378636618145,-0.006856213437160477
1782831859232012300,9.97101220703125,-0.1043248823493719,-0.005323505710856989,0.001665535759157501
1782831859241941500,9.98094140625,-0.08696165961623191,-0.008744077576952987,-0.003904889350896701
1782831859251871200,9.990871337890624,-0.08202069608271122,-0.007808399595459922,-0.002732731165830046
1782831859261800200,10.00080029296875,-0.051344402790069577,-0.010668341904110274,0.0027505773497745393
1782831859271729200,10.010729248046875,-0.07513736630976199,-0.014059132836584467,-0.0004007171548437327
1782831859281658400,10.020658447265625,-0.07229425183832645,-0.004291461532667745,-0.004727969236811623
