time,seconds_elapsed,z,y,x
1782831849332588800,0.0715888671875,-0.00012907478958368301,0.0029839910566806793,-0.000867258757352829
1782831849342517500,0.081517578125,-0.0008635753765702248,-0.000646430067718029,-0.000882705207914114
1782831849352446700,0.09144677734375,0.00021047797054052353,0.0006904769688844681,-0.0029115015640854836
1782831849362375700,0.101375732421875,-0.0005128365010023117,-0.00008929707109928131,0.000660330057144165
1782831849372305700,0.1113056640625,-0.0010981978848576546,0.0009925710037350655,-0.0010917112231254578
1782831849382235000,0.12123486328125,0.0016810772940516472,-0.000006913207471370697,-0.0012320601381361485
1782831849392163800,0.131163818359375,0.00009510014206171036,0.0036969296634197235,-0.0010603494010865688
1782831849402092800,0.1410927734375,-0.0011195680126547813,-0.00017157848924398422,0.0007165111601352692
1782831849412021800,0.151021728515625,0.0003417758271098137,0.0022004079073667526,0.003519074060022831
1782831849421951700,0.16095166015625,-0.0005932599306106567,0.0008147647604346275,-0.00011321157217025757
1782831849431880700,0.170880615234375,-0.0013989023864269257,0.00013143662363290787,-0.003949368838220835
1782831849441809700,0.1808095703125,0.00013028457760810852,-0.0006547290831804276,0.0001716064289212227
1782831849451739000,0.19073876953125,-0.0023910673335194588,-0.00032192468643188477,-0.00034970231354236603
1782831849461668600,0.200668701171875,-0.00203793216496706,-0.0006377752870321274,0.00005802791565656662
1782831849471597600,0.21059765625,-0.00047275517135858536,0.000523674301803112,0.0022020600736141205
1782831849481526500,0.220526611328125,-0.0006543826311826706,0.0020163757726550102,-0.0006541800685226917
1782831849491455700,0.230455810546875,0.001505042426288128,0.0016604922711849213,0.0003426671028137207
1782831849501384700,0.240384765625,0.000879199244081974,-0.001434367150068283,-0.0011564260348677635
1782831849511314700,0.250314697265625,-0.0009820172563195229,-0.0007564164698123932,0.0021204473450779915
1782831849521244000,0.260243896484375,0.0019115069881081581,0.001080365851521492,0.00043280236423015594
1782831849531172900,0.2701728515625,-0.000992635264992714,0.0012653237208724022,0.00022596213966608047
1782831849541101600,0.2801015625,0.0011453498154878616,0.0002645077183842659,0.000922112725675106
1782831849551031800,0.29003173828125,-0.0011245645582675934,0.00021536927670240402,-0.000903744250535965
1782831849560960800,0.299960693359375,-0.0014366870746016502,0.0031485743820667267,-0.001957823522388935
1782831849570889700,0.3098896484375,0.0008219396695494652,0.003724883310496807,-0.00005100015550851822
1782831849580818700,0.319818603515625,0.0013700183480978012,-0.001242978498339653,0.00045793037861585617
1782831849590748000,0.329747802734375,-0.0020544063299894333,0.0011985190212726593,-0.0007588420994579792
1782831849600677600,0.339677734375,0.0019672326743602753,0.0005321968346834183,0.0011463835835456848
1782831849610606600,0.349606689453125,-0.0017848284915089607,-0.0014439579099416733,0.002177945338189602
1782831849620535600,0.35953564453125,-0.00019358936697244644,-0.0006218394264578819,-0.000492938794195652
1782831849630464800,0.36946484375,0.000505189411342144,0.0003000125288963318,0.00012829061597585678
1782831849640393700,0.379393798828125,-0.0004807133227586746,-0.001636638306081295,-0.0014256644062697887
1782831849650323700,0.38932373046875,-0.0003380328416824341,-0.0001273350790143013,-0.0013560093939304352
1782831849660253000,0.3992529296875,-0.0011412417516112328,-0.001245063729584217,-0.0007919520139694214
1782831849670181600,0.409181640625,-0.0013954723253846169,0.00007786508649587631,-0.0007253787480294704
1782831849680110600,0.419110595703125,0.00021227821707725525,0.0036433041095733643,-0.0004899553023278713
1782831849690040800,0.429040771484375,-0.00023949053138494492,-0.0025594886392354965,0.0010019103065133095
1782831849699969800,0.4389697265625,0.001415664330124855,-0.0011392254382371902,0.00020935386419296265
1782831849709898800,0.448898681640625,-0.0005578761920332909,0.0005516828969120979,0.0005135564133524895
1782831849719827700,0.45882763671875,-0.0013749347999691963,-0.00007549114525318146,0.0012800144031643867
1782831849729757000,0.4687568359375,-0.0004456927999854088,0.0011046426370739937,-0.00037880148738622665
1782831849739686700,0.478686767578125,0.0014502117410302162,-0.000861569307744503,0.000750378705561161
1782831849749616600,0.48861669921875,0.00023195520043373108,0.0011597909033298492,0.00012451689690351486
1782831849759545600,0.498545654296875,0.0010607307776808739,0.0005161045119166374,-0.0009186435490846634
1782831849769474800,0.508474853515625,0.0002262284979224205,0.002514529973268509,0.00018461793661117554
1782831849779404500,0.518404541015625,-0.000008928589522838593,0.00030517205595970154,0.0011883629485964775
1782831849789333500,0.52833349609375,-0.0006898343563079834,0.0018813125789165497,-0.0013756630942225456
1782831849799262700,0.5382626953125,0.00012802239507436752,0.0012546712532639503,-0.00015726685523986816
1782831849809191700,0.548191650390625,0.00023278407752513885,-0.00027820002287626266,-0.0003866245970129967
1782831849819120600,0.55812060546875,0.00039363931864500046,0.00004883576184511185,-0.0019962391816079617
1782831849829051000,0.56805078125,-0.0023684222251176834,-0.002659454010426998,-0.004122069105505943
1782831849838979800,0.577979736328125,0.0008310992270708084,-0.0009574275463819504,-0.001831218134611845
1782831849848908500,0.587908447265625,-0.0012797247618436813,-0.00015547312796115875,-0.0003796406090259552
1782831849858837500,0.59783740234375,-0.001367342658340931,-0.0020734816789627075,0.0010632602497935295
1782831849868766700,0.6077666015625,-0.00013896171003580093,0.00020573846995830536,0.00017639994621276855
1782831849878696700,0.61769677734375,-0.0009128758683800697,0.001593777909874916,0.0018499307334423065
1782831849888625700,0.627625732421875,-0.0011383788660168648,0.0012597283348441124,0.0005717333406209946
1782831849898554600,0.6375546875,-0.0024909982457756996,-0.002437272109091282,-0.0017745113000273705
1782831849908483800,0.64748388671875,0.0008933451026678085,0.002255660481750965,0.0011341404169797897
1782831849918413600,0.65741357421875,-0.0013935118913650513,-0.00035769958049058914,-0.0015119765885174274
1782831849928342500,0.667342529296875,0.0017572073265910149,-0.0008012950420379639,-0.0011038342490792274
1782831849938271700,0.677271728515625,-0.0013594897463917732,0.002482648938894272,-0.00010275188833475113
1782831849948200700,0.68720068359375,-0.0023755477741360664,0.0014235461130738258,-0.00039066607132554054
1782831849958129700,0.697129638671875,-0.00006871763616800308,-0.0011506648734211922,0.0016546417027711868
1782831849968060000,0.707059814453125,-0.00021644309163093567,0.0016487957909703255,0.002074155956506729
1782831849977988600,0.716988525390625,0.0006264476105570793,0.0014735599979758263,0.0012997090816497803
1782831849987917600,0.72691748046875,-0.0009196503087878227,-0.0008976729586720467,0.00012905802577733994
1782831849997846500,0.736846435546875,-0.00007462967187166214,-0.0005285581573843956,0.003385305404663086
1782831850007775700,0.746775634765625,0.00023332051932811737,-0.0004908507689833641,-0.0016651824116706848
1782831850017705700,0.756705810546875,-0.0006332723423838615,-0.0012637004256248474,-0.0008726255036890507
1782831850027634700,0.766634765625,0.0005739117041230202,-0.0017303777858614922,-0.00031615281477570534
1782831850037563600,0.776563720703125,0.0010450249537825584,-0.0015154602006077766,0.0009877309203147888
1782831850047492900,0.786492919921875,0.0003700796514749527,-0.0033016419038176537,-0.00045740464702248573
1782831850057422600,0.796422607421875,0.0017442712560296059,-0.00020145531743764877,-0.0015732692554593086
1782831850067351600,0.8063515625,-0.002696520648896694,0.002573535777628422,0.0025682207196950912
1782831850077280800,0.81628076171875,0.0009650597348809242,-0.002336001954972744,0.0022273361682891846
1782831850087209700,0.826209716796875,0.0011555515229701996,0.00036053452640771866,0.001203928142786026
1782831850097138700,0.836138671875,0.0007097385823726654,0.0026828115805983543,-0.0007702726870775223
1782831850107068700,0.846068603515625,0.0011846711859107018,0.00286857970058918,-0.0013013286516070366
1782831850116997600,0.85599755859375,-0.002184228040277958,0.003931713290512562,0.0017993897199630737
1782831850126926600,0.865926513671875,0.0016514500603079796,0.0019731875509023666,-0.0016749799251556396
1782831850136855600,0.87585546875,0.0015300093218684196,0.000500991940498352,0.0013165492564439774
1782831850146785800,0.885785888671875,-0.0007892157882452011,-0.0003299787640571594,-0.00168305030092597
1782831850156714800,0.89571484375,0.000757814384996891,0.0004239622503519058,0.0018373820930719376
1782831850166643700,0.905643798828125,-0.0032082637771964073,0.0005594752728939056,0.001952911727130413
1782831850176572700,0.91557275390625,0.0008051199838519096,-0.0006131147965788841,-0.0008463370613753796
1782831850186501600,0.925501708984375,0.0011790171265602112,-0.0003107544034719467,-0.0005051675252616405
1782831850196431600,0.935431640625,0.0006349338218569756,-0.000781601294875145,-0.0024146540090441704
1782831850206360600,0.945360595703125,0.0015197861939668655,-0.0018458710983395576,-0.00033396994695067406
1782831850216289800,0.955289794921875,0.002463344484567642,-0.0007555736228823662,-0.0019172192551195621
1782831850226218800,0.96521875,-0.002367960289120674,0.00028417352586984634,0.0009988928213715553
1782831850236147700,0.975147705078125,-0.0013793949037790298,-0.001204533502459526,0.0008505545556545258
1782831850246077700,0.98507763671875,-0.0012381281703710556,0.0017216624692082405,0.0018753381446003914
1782831850256006700,0.995006591796875,0.000635138712823391,0.0019328510388731956,0.0018297983333468437
1782831850265935600,1.004935546875,-0.001040029339492321,-0.0009232377633452415,-0.000497783999890089
1782831850275864600,1.014864501953125,-0.003286939114332199,-0.0006167078390717506,0.001562703400850296
1782831850285794800,1.024794921875,-0.003323715180158615,0.001421058550477028,-0.0009006205946207047
1782831850295723800,1.034723876953125,0.0006952611729502678,0.0007028039544820786,0.0003047259524464607
1782831850305652700,1.04465283203125,0.0007860912010073662,0.0017618443816900253,0.0013655656948685646
1782831850315581400,1.05458154296875,0.00026331283152103424,0.0006129574030637741,-0.0003950502723455429
1782831850325510700,1.0645107421875,-0.0006742021068930626,-0.0007137348875403404,-0.0001993696205317974
1782831850335440600,1.074440673828125,0.0006350083276629448,0.0007494054734706879,0.0006288737058639526
1782831850345369600,1.08436962890625,-0.00008665956556797028,-0.00006461329758167267,0.00003070756793022156
1782831850355298800,1.094298828125,-0.0020621931180357933,-0.0013682302087545395,0.002060302533209324
1782831850365227800,1.104227783203125,-0.0011856621131300926,-0.0006285300478339195,-0.0018283254466950893
1782831850375156700,1.11415673828125,0.001586422324180603,-0.0017467914149165154,0.001202351413667202
1782831850385086700,1.124086669921875,-0.0003067338839173317,-0.0007515177130699158,0.0010289521887898445
1782831850395015700,1.134015625,0.00006637442857027054,0.00010948255658149719,-0.0009108944796025753
1782831850404944600,1.143944580078125,-0.0005780663341283798,0.0012572230771183968,-0.0005556307733058929
1782831850414873600,1.15387353515625,-0.00015062838792800903,0.00038423947989940643,0.0009647682309150696
1782831850424803800,1.163803955078125,0.001810598187148571,0.0007580835372209549,0.0008813049644231796
1782831850434732800,1.17373291015625,-0.0004285871982574463,-0.00003287568688392639,0.0016272561624646187
1782831850444661500,1.18366162109375,-0.001032453030347824,-0.0001111375167965889,-0.0011751847341656685
1782831850454590500,1.193590576171875,-0.0004095397889614105,-0.0013236748054623604,0.00010579545050859451
1782831850464519700,1.203519775390625,-0.0005044536665081978,-0.00037423986941576004,0.0003273896872997284
1782831850474449700,1.21344970703125,0.00026147160679101944,0.0009024795144796371,0.0003180690109729767
1782831850484378600,1.223378662109375,0.0007786732167005539,0.0007353406399488449,0.002031579613685608
1782831850494307800,1.233307861328125,0.001556582748889923,-0.0009041009470820427,0.001417454332113266
1782831850504236800,1.24323681640625,0.0007405746728181839,-0.0004359884187579155,-0.0015565622597932816
1782831850514165800,1.253165771484375,0.0007517598569393158,0.001805594190955162,0.0020064814016222954
1782831850524095700,1.263095703125,0.00282236747443676,-0.00012519769370555878,0.0010820981115102768
1782831850534024700,1.273024658203125,0.00011481437832117081,0.0002993578091263771,-0.00044703856110572815
1782831850543953700,1.28295361328125,0.0010080793872475624,-0.001602192409336567,0.0008470769971609116
1782831850553882600,1.292882568359375,0.0001670531928539276,-0.0007766121998429298,0.0011059362441301346
1782831850563812600,1.3028125,0.0010982956737279892,0.002602902241051197,-0.0027373735792934895
1782831850573741600,1.312741455078125,-0.00025725364685058594,0.0011541424319148064,-0.0009429357014596462
1782831850583670500,1.32267041015625,-0.00012234598398208618,-0.0006768805906176567,-0.002188012469559908
1782831850593599500,1.332599609375,-0.0003487151116132736,0.0013638995587825775,-0.0017294161953032017
1782831850603528700,1.34252880859375,-0.0015644319355487823,-0.0005425969138741493,0.00029177404940128326
1782831850613458700,1.352458740234375,0.0003791423514485359,0.0013517094776034355,-0.0010270229540765285
1782831850623387600,1.3623876953125,0.000177101232111454,-0.0009899558499455452,0.00029842741787433624
1782831850633316900,1.37231689453125,0.0006695203483104706,0.0016135508194565773,-0.00013540126383304596
1782831850643245800,1.382245849609375,0.0008229939267039299,0.0001682611182332039,-0.0009331284090876579
1782831850653174500,1.392174560546875,0.000665600411593914,0.0027579190209507942,0.0024328408762812614
1782831850663104800,1.402104736328125,0.0014411984011530876,0.0019830456003546715,-0.0019470243714749813
1782831850673033700,1.41203369140625,0.00034264475107192993,0.0005816901102662086,0.0020146938040852547
1782831850682962700,1.421962646484375,-0.0006311489269137383,0.0019038133323192596,-0.00042771222069859505
1782831850692891600,1.4318916015625,0.004583586938679218,-0.0016885250806808472,-0.0012378459796309471
1782831850702821600,1.441821533203125,0.0010326532647013664,0.000491088256239891,0.0007655639201402664
1782831850712750600,1.45175048828125,0.00032531749457120895,-0.0020636823028326035,-0.0005178134888410568
1782831850722679600,1.461679443359375,0.0003513628616929054,-0.0004361225292086601,-0.0006947340443730354
1782831850732608500,1.4716083984375,0.0005111526697874069,0.0006688237190246582,0.0020744213834404945
1782831850742537700,1.481537841796875,0.00009432714432477951,-0.0003207651898264885,-0.0006149467080831528
1782831850752466700,1.491466796875,0.00030445121228694916,0.0005325116217136383,-0.0013643600977957249
1782831850762395600,1.501395751953125,-0.003039853647351265,-0.00013399682939052582,-0.0010473718866705894
1782831850772324600,1.51132470703125,0.0013106856495141983,0.0018471293151378632,-0.0006513600237667561
1782831850782253800,1.52125390625,-0.0011400794610381126,-0.003335152752697468,-0.0003115884028375149
1782831850792182800,1.531182861328125,-0.0004340754821896553,-0.0007241889834403992,-0.0009888303466141224
1782831850802112500,1.541112548828125,0.000415043905377388,-0.0006025535985827446,-0.000611091498285532
1782831850812041700,1.551041748046875,0.0016355710104107857,-0.0005921674892306328,-0.0023003346286714077
1782831850821970700,1.560970703125,-0.000093887560069561,0.0010041529312729836,-0.001070681493729353
1782831850831899600,1.570899658203125,-0.0005434295162558556,0.0009346446022391319,-0.000535386148840189
1782831850841830000,1.580829833984375,0.0009046588093042374,0.0017451532185077667,0.0015350179746747017
1782831850851758600,1.590758544921875,-0.0007030917331576347,-0.0006607463583350182,-0.0017233598046004772
1782831850861687600,1.6006875,0.0013727834448218346,0.000609230250120163,0.001983456313610077
1782831850871616500,1.610616455078125,0.00021963473409414291,0.0005522388964891434,0.0018055569380521774
1782831850881545700,1.620545654296875,0.00035004038363695145,-0.0007606782019138336,-0.0006614872254431248
1782831850891475700,1.630475830078125,-0.0008505126461386681,7.189810276031494e-7,-0.0006710742600262165
1782831850901404700,1.64040478515625,0.0005960967391729355,-0.001693052239716053,0.0002741534262895584
1782831850911333600,1.650333740234375,0.0006914380937814713,-0.0015052994713187218,0.000564970076084137
1782831850921262800,1.660262939453125,-0.000040125101804733276,0.0006848378106951714,-0.0012800167314708233
1782831850931191800,1.67019189453125,0.0001878412440419197,0.0002273060381412506,-0.0020169136114418507
1782831850941121500,1.68012158203125,-0.0008044429123401642,0.000535961240530014,0.002063928171992302
1782831850951050800,1.69005078125,-0.0012047160416841507,0.0001822933554649353,0.0009557865560054779
1782831850960979700,1.699979736328125,0.0001889904960989952,0.0021485108882188797,-0.00010677520185709
1782831850970908700,1.70990869140625,-0.0008030375465750694,0.0026718219742178917,0.0028573228046298027
1782831850980838700,1.719838623046875,-0.0003296881914138794,-0.00016252882778644562,0.0004491778090596199
1782831850990767600,1.729767578125,-0.0002892082557082176,0.0002316189929842949,0.0015077851712703705
1782831851000696600,1.739696533203125,0.0003761732950806618,0.0008372841402888298,-0.001786218024790287
1782831851010625500,1.74962548828125,0.0002829628065228462,0.00007002800703048706,-0.0014035217463970184
1782831851020554800,1.7595546875,0.0004133004695177078,0.0008116224780678749,-0.001872252207249403
1782831851030484700,1.769484619140625,-0.0024264277890324593,0.0016771499067544937,0.0005203317850828171
1782831851040413700,1.77941357421875,0.001167522743344307,0.0005903476849198341,0.0003771325573325157
1782831851050342700,1.7893427734375,-0.0007315771654248238,0.000446537509560585,0.0019036568701267242
1782831851060271600,1.799271728515625,0.00033784564584493637,0.0011539766564965248,-0.0030497671104967594
1782831851070200600,1.80920068359375,-0.0001883944496512413,-0.0029587429016828537,0.003148207440972328
1782831851080130600,1.819130615234375,-0.0006008241325616837,-0.0022210106253623962,0.00039585772901773453
1782831851090059800,1.829059814453125,-0.0008194688707590103,0.0006181858479976654,0.0008065169677138329
1782831851099988700,1.83898876953125,-0.00011458992958068848,-0.001084490679204464,0.0011505046859383583
1782831851109917700,1.848917724609375,-0.0023093009367585182,-0.0019247187301516533,-0.0010082535445690155
1782831851119847700,1.85884765625,-0.0012509757652878761,-0.0007501337677240372,-0.0000632554292678833
1782831851129776600,1.868776611328125,0.000038526952266693115,0.0014762692153453827,-0.003910457715392113
1782831851139705600,1.87870556640625,0.00013045687228441238,0.0009288480505347252,0.0018361620604991913
1782831851149634600,1.888634521484375,-0.0009630369022488594,0.001100088469684124,0.000552518293261528
1782831851159563800,1.898563720703125,-0.0013700025156140327,0.0005280608311295509,0.0008023642003536224
1782831851169493800,1.90849365234375,0.0005799643695354462,-0.0012983353808522224,-0.0009702355600893497
1782831851179422700,1.918422607421875,0.003228059969842434,-0.003109489567577839,0.0010596951469779015
1782831851189351700,1.9283515625,-0.000754430890083313,-0.0002950606867671013,0.0005401130765676498
1782831851199280600,1.93828076171875,0.0013416623696684837,0.0008165854960680008,0.00022320915013551712
1782831851209210600,1.948210693359375,0.0006713448092341423,-0.00039249006658792496,0.0004461156204342842
1782831851219139600,1.9581396484375,0.0006111795082688332,0.00093124620616436,-0.0018506012856960297
1782831851229068800,1.96806884765625,0.0004069143906235695,0.0008827764540910721,-0.0020796330645680428
1782831851238997800,1.977997802734375,-0.00284772552549839,0.0010991832241415977,0.0007692761719226837
1782831851248926700,1.9879267578125,0.0007155835628509521,-0.0013743611052632332,0.001005498692393303
1782831851258856700,1.997856689453125,-0.001239289529621601,0.0005227522924542427,0.0018298281356692314
1782831851268785700,2.00778564453125,0.00020733941346406937,-0.0013126982375979424,0.0008385991677641869
1782831851278714600,2.017714599609375,0.0005866056308150291,0.000016012229025363922,-0.00036085909232497215
1782831851288643600,2.0276435546875,0.0001868652179837227,0.0007803402841091156,0.0012958934530615807
1782831851298572800,2.03757275390625,0.00005334243178367615,-0.0008914107456803322,-0.002072539646178484
1782831851308502800,2.047502685546875,0.00004668440669775009,0.0009070225059986115,0.0004729097709059715
1782831851318431500,2.057431396484375,-0.002121850848197937,-0.0005501778796315193,0.00013560522347688675
1782831851328360400,2.0673603515625,0.0004696706309914589,0.0001374501734972,0.0001891348510980606
1782831851338289700,2.07728955078125,-0.000123513862490654,0.000019252300262451172,0.00001216493546962738
1782831851348218600,2.087218505859375,-0.0010534897446632385,0.0005822442471981049,0.0019384296610951424
1782831851358148600,2.097148681640625,-0.0004235683009028435,0.0012274058535695076,-0.001618670765310526
1782831851368077800,2.107077880859375,0.00009415019303560257,0.0006279284134507179,-0.0007102666422724724
1782831851378006800,2.1170068359375,-0.0011074123904109001,0.0018012085929512978,0.0007227491587400436
1782831851387935700,2.126935791015625,0.00018954742699861526,-0.001668090932071209,-0.0019073891453444958
1782831851397865700,2.13686572265625,0.00013209320604801178,0.00037977658212184906,-0.002647407352924347
1782831851407794700,2.146794677734375,0.0005448833107948303,0.00003116857260465622,-0.001266025472432375
1782831851417723600,2.1567236328125,-0.00019554700702428818,-0.0009369570761919022,0.0009846491739153862
1782831851427652600,2.166652587890625,0.00011417921632528305,0.0008436320349574089,-0.00022256188094615936
1782831851437581800,2.176581787109375,-0.00014429166913032532,-0.0012484267354011536,0.0009175771847367287
1782831851447511600,2.186511474609375,0.0008216369897127151,-0.0005115307867527008,0.0013679172843694687
1782831851457440500,2.1964404296875,0.0013680728152394295,-0.0007151709869503975,-0.0020477590151131153
1782831851467369500,2.206369384765625,0.0005419598892331123,-0.0015711113810539246,-0.0009356229566037655
1782831851477298700,2.216298583984375,-0.002856583334505558,0.0015140930190682411,0.0007982486858963966
1782831851487228700,2.226228759765625,-0.0002496149390935898,-0.0014920840039849281,-0.00047927023842930794
1782831851497157600,2.23615771484375,0.0013947859406471252,-0.0016133766621351242,-0.001679589506238699
1782831851507086800,2.2460869140625,0.000054416246712207794,0.0007882621139287949,0.004144211299717426
1782831851517015800,2.256015869140625,-0.0016042664647102356,-0.0008353451266884804,-0.002088767010718584
1782831851526944500,2.265944580078125,-0.002257806248962879,-0.000177810899913311,-0.0024948990903794765
1782831851536874800,2.275874755859375,-0.00043647177517414093,0.000025190412998199463,-0.0010813605040311813
1782831851546803700,2.2858037109375,0.0009020324796438217,0.0004528947174549103,0.000875263474881649
1782831851556732700,2.295732666015625,-0.0024753110483288765,0.00398633349686861,-0.0027306508272886276
1782831851566661600,2.30566162109375,-0.00046409107744693756,0.001432628370821476,-0.0006845444440841675
1782831851576590800,2.3155908203125,-0.0009648213163018227,0.00327321607619524,-0.0019113668240606785
1782831851586520600,2.3255205078125,-0.00028544943779706955,0.000853734090924263,-0.001995522528886795
1782831851596449500,2.335449462890625,-0.0002828361466526985,-0.0018983613699674606,-0.0002808384597301483
1782831851606378800,2.345378662109375,0.0008010705932974815,0.0010289857164025307,-0.00023449864238500595
1782831851616307700,2.3553076171875,0.00026703905314207077,-0.0009873425588011742,-0.0001980867236852646
1782831851626237700,2.36523779296875,0.00041164830327033997,-0.0005255499854683876,-0.001962697133421898
1782831851636166700,2.375166748046875,0.0006030360236763954,0.0013974504545331001,0.0010671177878975868
1782831851646096000,2.385095947265625,0.0003372523933649063,-0.0015014000236988068,-0.001918818335980177
1782831851656024600,2.395024658203125,-0.001083914190530777,0.0007710866630077362,0.0018721967935562134
1782831851665953500,2.40495361328125,0.000035412609577178955,-0.0007738126441836357,0.0004093218594789505
1782831851675883800,2.4148837890625,0.0003138333559036255,-0.00012877024710178375,-0.0019898531027138233
1782831851685812700,2.424812744140625,0.0011990685015916824,0.00160894263535738,0.00006184633821249008
1782831851695741700,2.43474169921875,-0.000007700175046920776,0.001750793308019638,0.0019907914102077484
1782831851705670700,2.444670654296875,0.0014000460505485535,0.0001941761001944542,-0.002577594481408596
1782831851715600000,2.454599853515625,-0.0006289510056376457,-0.000042605213820934296,-0.0015509380027651787
1782831851725529600,2.464529541015625,0.0003103455528616905,0.0016655465587973595,-0.00014372356235980988
1782831851735458600,2.47445849609375,0.0006459951400756836,0.0017325133085250854,-0.00046301959082484245
1782831851745387800,2.4843876953125,-0.001391323283314705,0.0008512735366821289,-0.0004827268421649933
1782831851755317000,2.49431689453125,-0.0008860118687152863,-0.0006035482510924339,-0.0025891615077853203
1782831851765247200,2.504247314453125,-0.000025277957320213318,0.0028646858409047127,-0.0040879882872104645
1782831851775176000,2.514176025390625,-0.0005592117086052895,-0.0022278018295764923,-0.0014490224421024323
1782831851785105000,2.52410498046875,0.00014466140419244766,0.0018249964341521263,-0.001562739722430706
1782831851795034000,2.5340341796875,0.000896623358130455,-0.0014255493879318237,-0.0005023912526667118
1782831851804963000,2.543963134765625,0.0005269767716526985,-0.000356823205947876,0.0034156516194343567
1782831851814893000,2.55389306640625,-0.002334785647690296,0.0014482010155916214,-0.00280937273055315
1782831851824822300,2.563822265625,-0.0012269113212823868,-0.00034623686224222183,0.0006593950092792511
1782831851834751200,2.573751220703125,-0.0011720191687345505,-0.000860137864947319,-0.0011643115431070328
1782831851844680200,2.58368017578125,-0.0013403315097093582,-0.0024628276005387306,0.001903650350868702
1782831851854610200,2.593610107421875,0.000518561340868473,0.00048038549721241,-0.0005913516506552696
1782831851864539100,2.6035390625,0.0023923618718981743,-0.0020264480262994766,0.0008773813024163246
1782831851874468000,2.613468017578125,0.0003047352656722069,-0.0012909835204482079,0.0012586284428834915
1782831851884397000,2.62339697265625,0.0010291151702404022,0.0002491232007741928,-0.0009999987669289112
1782831851894326300,2.633326171875,0.000928402878344059,0.0003502732142806053,0.0005368664860725403
1782831851904256000,2.643256103515625,0.0007214751094579697,0.0011705271899700165,-0.002395540475845337
1782831851914185000,2.65318505859375,0.0009607551619410515,0.004960593767464161,-0.0006659440696239471
1782831851924114000,2.663114013671875,0.001497914083302021,-0.00022271648049354553,0.0005255537107586861
1782831851934043100,2.673043212890625,-0.0006316527724266052,0.0012476081028580666,-0.001668174285441637
1782831851943972000,2.68297216796875,0.0016892924904823303,0.0004436001181602478,-0.0006423243321478367
1782831851953902000,2.692902099609375,0.0007112110033631325,0.0027788346633315086,-0.001346541102975607
1782831851963831300,2.702831298828125,0.0013370532542467117,-0.00024944543838500977,0.00029875990003347397
1782831851973760300,2.71276025390625,0.0003343932330608368,-0.0006949026137590408,-0.0009606448002159595
1782831851983689000,2.72268896484375,-0.0023324964568018913,0.0012337584048509598,-0.0002850010059773922
1782831851993619200,2.732619140625,0.000010127201676368713,0.0023081479594111443,-0.0018034488894045353
1782831852003548200,2.742548095703125,-0.002286849543452263,-0.0007142731919884682,0.000023213215172290802
1782831852013477000,2.75247705078125,-0.0023496607318520546,0.000805513933300972,-0.002363923005759716
1782831852023406000,2.762406005859375,-0.000040966086089611053,-0.0011239470914006233,-0.0003212783485651016
1782831852033335300,2.772335205078125,-0.0022695697844028473,0.0007224874570965767,-0.0010171937756240368
1782831852043265000,2.78226513671875,-0.00023038778454065323,-0.0002650124952197075,0.00004487484693527222
1782831852053194000,2.792194091796875,-0.00011757668107748032,-0.0012871436774730682,-0.002145475707948208
1782831852063123000,2.802123046875,-0.0006877593696117401,0.0005427142605185509,-0.0005771401338279247
1782831852073052200,2.81205224609375,-0.0006803246214985847,0.0003696149215102196,-0.0003020064905285835
1782831852082981000,2.821981201171875,0.0016605937853455544,0.0014005247503519058,0.0016825813800096512
1782831852092911000,2.8319111328125,-0.0010915063321590424,-0.0012817811220884323,-0.00041963206604123116
1782831852102840000,2.841840087890625,0.0014339694753289223,-0.0009805774316191673,0.0002986220642924309
1782831852112769000,2.85176904296875,0.0026267683133482933,0.001159047707915306,-0.0032019075006246567
1782831852122698000,2.861697998046875,-0.0011195000261068344,0.0016173776239156723,-0.0027598231099545956
1782831852132628200,2.871628173828125,-0.0004986710846424103,0.001260395161807537,-0.00041616614907979965
1782831852142557200,2.88155712890625,-0.000864855945110321,0.00091604795306921,0.0009982390329241753
1782831852152486100,2.891486083984375,-0.0029955198988318443,-0.000984962098300457,-0.0004900842905044556
1782831852162415000,2.9014150390625,0.0026557082310318947,-0.0009165182709693909,0.0014417730271816254
1782831852172344300,2.91134423828125,-0.0011199349537491798,0.0004970105364918709,0.001970544457435608
1782831852182274000,2.921274169921875,-0.0012365812435746193,-0.00233632605522871,-0.0008018058724701405
1782831852192203000,2.931203125,-0.0012057255953550339,-0.00023984070867300034,0.001563948579132557
1782831852202132000,2.941132080078125,-0.0031418437138199806,-0.00016846787184476852,-0.0010523409582674503
1782831852212061200,2.951061279296875,-0.0004058126360177994,-0.0000074729323387146,0.0013468917459249496
1782831852221991200,2.9609912109375,0.0009529320523142815,-0.00019442662596702576,-0.002899518236517906
1782831852231920000,2.970920166015625,0.0007978035137057304,-0.003708401694893837,-0.0007059415802359581
1782831852241849000,2.98084912109375,0.00028461217880249023,0.0006868792697787285,0.0027953162789344788
1782831852251778000,2.990778076171875,-0.0016142930835485458,0.000193033367395401,0.0018310844898223877
1782831852261707000,3.00070703125,0.001407063566148281,0.000021792016923427582,0.0000664740800857544
1782831852271637200,3.01063720703125,0.0005713775753974915,0.0020143436267971992,0.0009920326992869377
1782831852281566200,3.020566162109375,0.000597742386162281,0.0024439115077257156,-0.0008767079561948776
1782831852291495200,3.0304951171875,0.00000489410012960434,0.0010675080120563507,-0.002588536124676466
1782831852301424000,3.040424072265625,-0.002023102715611458,0.0016741761937737465,-0.002347786445170641
1782831852311353000,3.05035302734375,0.001136372797191143,-0.0013540061190724373,-0.0016596773639321327
1782831852321283000,3.060282958984375,-0.0010311733931303024,-0.0010839607566595078,0.0005819052457809448
1782831852331212000,3.0702119140625,0.002405100502073765,0.0020349612459540367,-0.0018446282483637333
1782831852341141000,3.08014111328125,0.0004492746666073799,-0.0012654941529035568,0.00023503415286540985
1782831852351070200,3.0900703125,0.003116792067885399,-0.0012558512389659882,0.0007733702659606934
1782831852361000000,3.1,0.0012118332087993622,0.0008171536028385162,-0.0011270614340901375
1782831852370929000,3.109928955078125,0.0014160173013806343,0.000797763466835022,0.00017668958753347397
1782831852380858000,3.119858154296875,0.0011936435475945473,-0.0013362281024456024,-0.0015927143394947052
1782831852390787000,3.129787109375,0.0020035160705447197,-0.0013648411259055138,-0.0010055569000542164
1782831852400716000,3.139716064453125,0.0028333570808172226,-0.0005091680213809013,-0.0003216569311916828
1782831852410646300,3.149646240234375,-0.002451019361615181,-0.0003165481612086296,-0.001100161112844944
1782831852420575200,3.1595751953125,0.0010544992983341217,-0.0013016518205404282,0.0019960300996899605
1782831852430504200,3.169504150390625,0.0014099366962909698,-0.0002464093267917633,-0.003129759803414345
1782831852440433200,3.17943310546875,-0.0001434851437807083,0.0015504257753491402,0.0006021279841661453
1782831852450362000,3.189362060546875,0.002438455820083618,0.001076030544936657,0.0018080007284879684
1782831852460292000,3.1992919921875,-0.00007476937025785446,0.0003809463232755661,-0.0016586361452937126
1782831852470221000,3.209220947265625,-0.0007110210135579109,-0.0005984436720609665,0.0010733036324381828
1782831852480150000,3.21914990234375,0.001652267761528492,0.0020253024995326996,0.0003838110715150833
1782831852490079200,3.229079345703125,-0.0018825074657797813,0.002666199579834938,-0.0017847889102995396
1782831852500009000,3.239009033203125,-0.0010747713968157768,0.0021205181255936623,-0.0005898289382457733
1782831852509938000,3.24893798828125,-0.0007141847163438797,-0.0005051214247941971,0.0005614729598164558
1782831852519867100,3.2588671875,0.001455492340028286,-0.0005780914798378944,0.0011231331154704094
1782831852529796000,3.268796142578125,-0.00007977336645126343,-0.00005561951547861099,0.000858980230987072
1782831852539725000,3.27872509765625,0.0009287651628255844,-0.0009973132982850075,0.0009412718936800957
1782831852549655300,3.2886552734375,-0.00029867328703403473,-0.0015028519555926323,-0.001371270976960659
1782831852559584300,3.298584228515625,0.0010339729487895966,0.0007389970123767853,-0.0018341285176575184
1782831852569513000,3.308512939453125,-0.0008803829550743103,-0.0005193278193473816,-0.001162238884717226
1782831852579442000,3.31844189453125,0.0015092715620994568,0.0009438125416636467,-0.0026072701439261436
1782831852589372200,3.3283720703125,0.002306709997355938,-0.0019670818001031876,0.00274770800024271
1782831852599301000,3.338301025390625,-0.0002395380288362503,-0.0016749333590269089,-0.002008431125432253
1782831852609230000,3.34822998046875,0.0003887126222252846,-0.0017520440742373466,-0.00013134069740772247
1782831852619159000,3.358158935546875,0.0009399866685271263,0.0009329551830887794,0.0008031623438000679
1782831852629088300,3.368088134765625,0.0003100084140896797,-0.00012618862092494965,0.00007771328091621399
1782831852639018000,3.37801806640625,0.0015345299616456032,0.0007028533145785332,0.001315549947321415
1782831852648947000,3.387947021484375,0.00019675493240356445,-0.0002761008217930794,0.00006958469748497009
1782831852658876200,3.397876220703125,0.000026312656700611115,0.00018435996025800705,-0.00014266930520534515
1782831852668805000,3.40780517578125,-0.0006996253505349159,0.0007193349301815033,-0.001962308306246996
1782831852678735000,3.417735107421875,-0.002263966016471386,-0.0024277223274111748,0.0003298744559288025
1782831852688664300,3.427664306640625,0.000645780935883522,0.0012983661144971848,-0.0036137565039098263
1782831852698593000,3.437593017578125,0.000010350719094276428,-0.00177039485424757,-0.0009804228320717812
1782831852708522000,3.44752197265625,-0.0012350799515843391,0.000667717307806015,-0.0015202034264802933
1782831852718451000,3.457450927734375,0.0025548646226525307,-0.000649748370051384,-0.0007074065506458282
1782831852728381200,3.467381103515625,0.0004114322364330292,-0.0005808677524328232,0.001284714788198471
1782831852738310100,3.47731005859375,0.00034085847437381744,-0.0003651510924100876,-0.0002817567437887192
1782831852748239000,3.487239013671875,0.00007842294871807098,-0.0010213889181613922,-0.0007729572243988514
1782831852758168300,3.497168212890625,-0.0011064177379012108,-0.0001974068582057953,-0.0012267595157027245
1782831852768097300,3.50709716796875,0.002582564949989319,0.0015037097036838531,-0.0015978594310581684
1782831852778027300,3.51702734375,-0.000800183042883873,0.0005090190097689629,-0.0021256981417536736
1782831852787956200,3.526956298828125,-0.0009100018069148064,-0.0002140374854207039,0.0010221060365438461
1782831852797885400,3.536885498046875,-0.00031025800853967667,0.0006895735859870911,0.00019466131925582886
1782831852807814400,3.546814453125,-0.003588315099477768,0.0021698791533708572,0.0007516127079725266
1782831852817743400,3.556743408203125,0.000394708476960659,0.0005418891087174416,0.001256016083061695
1782831852827673000,3.566673095703125,0.002055888995528221,0.00021245423704385757,0.000975986011326313
1782831852837602300,3.576602294921875,-0.00045280810445547104,0.0002382863312959671,0.0003709159791469574
1782831852847531300,3.58653125,0.0010776063427329063,0.0010374588891863823,-0.0016427058726549149
1782831852857460200,3.596460205078125,-0.000700053758919239,-0.001016637310385704,0.0008611986413598061
1782831852867390500,3.606390380859375,-0.0013369396328926086,-0.000835995189845562,-0.0015496243722736835
1782831852877319400,3.6163193359375,-0.00007806345820426941,0.0014703022316098213,-0.0002673119306564331
1782831852887248400,3.626248291015625,-0.0006010252982378006,0.00027278345078229904,-0.0002832072786986828
1782831852897177300,3.63617724609375,0.00019765645265579224,-0.0008199112489819527,0.001995127648115158
1782831852907106300,3.646106201171875,0.00039870012551546097,-0.0010264450684189796,0.0007029948756098747
1782831852917036300,3.656036376953125,-0.00041809119284152985,0.000367186963558197,-0.0004538828507065773
1782831852926965200,3.66596533203125,0.00027793459594249725,-0.0016346126794815063,-0.002443679142743349
1782831852936894500,3.67589453125,-0.0011950591579079628,-0.00011208374053239822,0.001051187515258789
1782831852946823400,3.685823486328125,-0.0016555264592170715,0.0012644324451684952,-0.0016934331506490707
1782831852956753200,3.695753173828125,-0.0015870826318860054,-0.0021705133840441704,-0.0016657360829412937
1782831852966682000,3.70568212890625,-0.0018641892820596695,0.0008329190313816071,-0.0023894859477877617
1782831852976611300,3.715611328125,0.0010314658284187317,0.0003050807863473892,0.0006992481648921967
1782831852986540300,3.725540283203125,0.0017714407294988632,0.0004314081743359566,0.000031997449696063995
1782831852996469200,3.73546923828125,0.0003264099359512329,0.0008002566173672676,-0.0005360543727874756
1782831853006399500,3.7453994140625,0.0016114376485347748,0.0005903597921133041,0.0014875084161758423
1782831853016328400,3.755328369140625,-0.001143336296081543,0.0007235174998641014,0.0005825664848089218
1782831853026257200,3.765257080078125,-0.00007977616041898727,0.0028665950521826744,0.0032674428075551987
1782831853036186000,3.77518603515625,0.0008248994126915932,0.0005581667646765709,-0.0005129147320985794
1782831853046115300,3.785115234375,0.0005283141508698463,0.0010616229847073555,0.0007691793143749237
1782831853056045300,3.79504541015625,-0.000689283013343811,0.0023982636630535126,-0.001391176600009203
1782831853065974300,3.804974365234375,-0.00004612002521753311,-0.0011066803708672523,0.0011000940576195717
1782831853075903500,3.814903564453125,-0.00038567371666431427,-0.0008171945810317993,-0.0008477424271404743
1782831853085832400,3.82483251953125,0.00037703849375247955,-0.0028434153646230698,-0.00014317408204078674
1782831853095762200,3.83476220703125,0.001023121178150177,0.00045916996896266937,0.00015589874237775803
1782831853105691100,3.844691162109375,0.0003271205350756645,-0.0005452688783407211,0.001699528656899929
1782831853115620400,3.854620361328125,0.0006541572511196136,0.0002512820065021515,-0.0018664440140128136
1782831853125549300,3.86454931640625,-0.00013618450611829758,-0.0003122864291071892,-0.002497355453670025
1782831853135478300,3.874478271484375,0.0006017778068780899,0.0005782749503850937,-0.0000722808763384819
1782831853145408500,3.884408447265625,0.001462634652853012,0.0006682267412543297,-0.00010331626981496811
1782831853155337200,3.894337158203125,-0.0011643068864941597,0.0020440155640244484,-0.0018287780694663525
1782831853165266200,3.90426611328125,-0.0006702691316604614,0.00110602006316185,0.0016433261334896088
1782831853175195100,3.914195068359375,-0.00273741502314806,-0.000531291589140892,-0.000821962021291256
1782831853185124400,3.924124267578125,-0.00043239817023277283,0.00032593682408332825,0.0012012450024485588
1782831853195054300,3.934054443359375,0.0015053171664476395,-0.0013635726645588875,-0.0015982696786522865
1782831853204983300,3.9439833984375,0.002318267710506916,0.0018156478181481361,0.0010640043765306473
1782831853214912500,3.95391259765625,-0.0004242556169629097,0.0012260247021913528,-0.0001842188648879528
1782831853224841500,3.963841552734375,0.0030891094356775284,0.0031706420704722404,-0.0032286271452903748
1782831853234771200,3.973771240234375,-0.00020282436162233353,0.001089382916688919,0.000030549243092536926
1782831853244700200,3.9837001953125,-0.000005020759999752045,-0.00001994706690311432,0.0008422648534178734
1782831853254629400,3.99362939453125,-0.0010737478733062744,0.0011478494852781296,-0.001579880714416504
1782831853264558300,4.003558349609375,-0.001953507773578167,0.0013187993317842484,0.0007146475836634636
1782831853274487300,4.0134873046875,0.00001004151999950409,0.0003083962947130203,0.0010792342945933342
1782831853284417300,4.023417236328125,0.0013045473024249077,0.0027515674009919167,-0.0018123802728950977
1782831853294346200,4.03334619140625,0.0006219791248440742,-0.0018604947254061699,-0.0009889309294521809
1782831853304275200,4.043275146484375,-0.0000012740492820739746,-0.001956610009074211,-0.0018011010251939297
1782831853314204200,4.0532041015625,0.0008948799222707748,-0.001542755402624607,0.0010894937440752983
1782831853324134400,4.063134521484375,-0.0016240812838077545,0.001509740948677063,-0.0014515728689730167
1782831853334063400,4.0730634765625,0.00243244506418705,0.0018080146983265877,-0.0009612850844860077
1782831853343992300,4.082992431640625,0.00030794553458690643,0.0006364304572343826,-0.0014471476897597313
1782831853353921500,4.092921630859375,0.0010552285239100456,0.0014340467751026154,0.002932952716946602
1782831853363850200,4.102850341796875,-0.0021011540666222572,0.0015295939520001411,-0.001140638254582882
1782831853373780200,4.1127802734375,-0.00006490200757980347,0.0003285082057118416,0.00016777310520410538
1782831853383709200,4.122709228515625,0.0018705958500504494,0.000522376038134098,0.00046575814485549927
1782831853393638400,4.132638427734375,0.00010518636554479599,0.0011972207576036453,-0.0026000728830695152
1782831853403567400,4.1425673828125,0.0016151368618011475,0.002177281305193901,-0.0012995279394090176
1782831853413496300,4.152496337890625,-0.0002967463806271553,-0.00029093679040670395,-0.0018840916454792023
1782831853423426300,4.16242626953125,-0.0019905297085642815,0.000977151095867157,0.00037501752376556396
1782831853433355300,4.172355224609375,-0.0011875871568918228,0.0026871664449572563,-0.0018974575214087963
1782831853443284200,4.1822841796875,-0.002414877526462078,0.00017878133803606033,-0.0013507185503840446
1782831853453213200,4.192213134765625,-0.001324312761425972,-0.0023341774940490723,0.000596318393945694
1782831853463142400,4.202142333984375,0.0014074910432100296,-0.000004325062036514282,0.00014970265328884125
1782831853473072400,4.212072265625,0.00047431979328393936,-0.002422208897769451,0.00086209736764431
1782831853483001300,4.22200146484375,-0.0000510532408952713,-0.0006190836429595947,0.00024256203323602676
1782831853492930300,4.231930419921875,0.00027917884290218353,-0.0006057675927877426,-0.003189187031239271
1782831853502859300,4.241859375,0.00030127912759780884,-0.003014535643160343,-0.0006809234619140625
1782831853512789200,4.251789306640625,-0.000854000449180603,-0.0008563101291656494,-0.0011757388710975647
1782831853522718200,4.26171826171875,0.0011762455105781555,-0.0005322648212313652,0.002226896584033966
1782831853532647400,4.2716474609375,-0.0016778642311692238,-0.00014397595077753067,-0.0004626302979886532
1782831853542576400,4.281576416015625,0.00020838622003793716,0.0017600255087018013,0.0015581510961055756
1782831853552505300,4.29150537109375,-0.0028313463553786278,0.0014148801565170288,0.000700613483786583
1782831853562435300,4.301435302734375,-0.0008366527035832405,0.0013938946649432182,-0.000260199885815382
1782831853572364300,4.3113642578125,-0.0023221634328365326,0.00010678917169570923,0.000254056416451931
1782831853582293200,4.321293212890625,-0.0015893736854195595,-0.0012318938970565796,-0.00247093103826046
1782831853592222200,4.33122216796875,-0.0010836385190486908,-0.0004888717085123062,0.0030074575915932655
1782831853602151400,4.3411513671875,0.0027235420420765877,0.004133967682719231,-0.00235926965251565
1782831853612081400,4.351081298828125,-0.0007912982255220413,0.00008836016058921814,0.0018613077700138092
1782831853622010000,4.361010009765625,0.0008549429476261139,0.0004402175545692444,-0.0010481136851012707
1782831853631939300,4.370939208984375,0.0023154206573963165,0.0011880332604050636,0.0010717622935771942
1782831853641868300,4.380868408203125,-0.00007059518247842789,0.0006853649392724037,0.0024905363097786903
1782831853651798300,4.39079833984375,0.00015284400433301926,-0.0014933673664927483,-0.001920989714562893
1782831853661727200,4.400727294921875,0.0001360718160867691,0.00047507602721452713,0.001356963999569416
1782831853671656400,4.410656494140625,0.0016130609437823296,-0.002107391133904457,-0.0008515953086316586
1782831853681585400,4.42058544921875,-0.0004580216482281685,0.0006259912624955177,-0.0012522260658442974
1782831853691514400,4.430514404296875,-0.0011634929105639458,-0.0004392731934785843,0.0005880184471607208
1782831853701444400,4.4404443359375,-0.00028963759541511536,-0.0012258738279342651,-0.0016110651195049286
1782831853711373300,4.450373291015625,0.0031346548348665237,0.0010500643402338028,0.001864093355834484
1782831853721302300,4.46030224609375,-0.0023020105436444283,0.0009830659255385399,0.0031042778864502907
1782831853731231200,4.470231201171875,0.0048680175095796585,-0.0014667762443423271,0.0007873279973864555
1782831853741160400,4.480160400390625,0.00006358232349157333,0.001749764196574688,0.0015744734555482864
1782831853751090200,4.490090087890625,0.0010231193155050278,0.0004365602508187294,0.0003656642511487007
1782831853761019000,4.500018798828125,0.0001350659877061844,0.002834959886968136,0.0011112140491604805
1782831853770947800,4.50994775390625,-0.0006809262558817863,0.0005411794409155846,0.0012760637328028679
1782831853780877000,4.519876953125,-0.0000013327226042747498,0.00001816917210817337,-0.0018696426413953304
1782831853790807000,4.52980712890625,-0.004543619230389595,-0.00020926538854837418,0.00017566513270139694
1782831853800736000,4.539736083984375,-0.00014223717153072357,0.0012995097786188126,-0.0019871550612151623
1782831853810665200,4.549665283203125,0.0006825439631938934,-0.0020350348204374313,0.000918620266020298
1782831853820594200,4.55959423828125,-0.002588125877082348,0.00029135867953300476,0.0006728693842887878
1782831853830523100,4.569523193359375,-0.0011998200789093971,0.0006948281079530716,-0.00010237656533718109
1782831853840453000,4.579453125,-0.0016289399936795235,-0.0019415803253650665,-0.0028462139889597893
1782831853850382000,4.589382080078125,-0.0025613121688365936,-0.0027842046692967415,0.0009538503363728523
1782831853860311000,4.59931103515625,0.001415167935192585,-0.00045767519623041153,0.00015648361295461655
1782831853870240000,4.609239990234375,-0.00020749587565660477,-0.00141188595443964,-0.00010637007653713226
1782831853880169200,4.619169189453125,-0.0016443179920315742,-0.00016415026038885117,0.0003489376977086067
1782831853890099000,4.629098876953125,0.000004711560904979706,0.001444132998585701,0.0006546685472130775
1782831853900028000,4.63902783203125,-0.0012181811034679413,0.0006918869912624359,0.00011207815259695053
1782831853909956900,4.648956787109375,-0.0007241647690534592,-0.0005693864077329636,0.0007166154682636261
1782831853919886000,4.658885986328125,0.002607520669698715,0.000023731030523777008,0.001170055940747261
1782831853929816000,4.668816162109375,-0.0025432994589209557,0.00039284490048885345,-0.0012406371533870697
1782831853939745000,4.6787451171875,-0.0003879265859723091,0.0008283378556370735,-0.001788584515452385
1782831853949674200,4.68867431640625,-0.003599165938794613,-0.00012294389307498932,0.00038828328251838684
1782831853959603000,4.69860302734375,-0.001057131215929985,0.001593765802681446,-0.0014976286329329014
1782831853969532000,4.708531982421875,4.0978193283081055e-7,0.0030920589342713356,0.002357030287384987
1782831853979462100,4.718462158203125,-0.0011082682758569717,0.0016544852405786514,0.0008808821439743042
1782831853989391000,4.72839111328125,-0.0008736439049243927,0.0012281127274036407,-0.00005308818072080612
1782831853999320000,4.738320068359375,0.0011436473578214645,-0.0020513273775577545,-0.00008039269596338272
1782831854009249000,4.7482490234375,0.000025119632482528687,-0.0006683478131890297,0.0009409300982952118
1782831854019178200,4.75817822265625,0.00014680344611406326,-0.0024559134617447853,-0.002015909645706415
1782831854029108000,4.76810791015625,-0.0023802705109119415,-0.00032618362456560135,0.00047574378550052643
1782831854039037000,4.778036865234375,-0.00012652575969696045,0.0017608227208256721,-0.0005270964466035366
1782831854048966000,4.7879658203125,-0.0004397137090563774,-0.001633642241358757,-0.0007673138752579689
1782831854058895000,4.79789501953125,-0.0012743789702653885,0.000948476605117321,-0.0009375535883009434
1782831854068824000,4.807823974609375,-0.00008154939860105515,-0.00041159987449645996,0.0009415727108716965
1782831854078754000,4.817754150390625,0.0011900682002305984,-0.0007409919053316116,0.0003938358277082443
1782831854088683000,4.82768310546875,0.0001101568341255188,-0.000929810106754303,-0.00009645242244005203
1782831854098612000,4.837612060546875,0.0006014294922351837,0.0006447285413742065,0.00004112068563699722
1782831854108541000,4.847541015625,0.002117566764354706,0.0002239486202597618,0.0004983851686120033
1782831854118471200,4.85747119140625,-0.00020840298384428024,0.001115407794713974,-0.00039131008088588715
1782831854128400100,4.867400146484375,0.0023096157237887383,0.00040727294981479645,-0.0010722801089286804
1782831854138329000,4.8773291015625,-0.00211383868008852,0.00022696051746606827,-0.0018950523808598518
1782831854148258000,4.887258056640625,-0.0015015779063105583,0.0007334938272833824,0.00026849936693906784
1782831854158187300,4.897187255859375,-0.000269521027803421,0.0020257849246263504,-0.001825940329581499
1782831854168117000,4.907116943359375,0.0014732517302036285,-0.001064014621078968,-0.001353762112557888
1782831854178046000,4.9170458984375,0.0006489511579275131,0.0007256725803017616,-0.0018356437794864178
1782831854187975200,4.92697509765625,-0.0006642527878284454,0.0002172747626900673,-0.0015658657066524029
1782831854197904100,4.936904052734375,0.0006033703684806824,-0.0003734603524208069,0.00016408786177635193
1782831854207833000,4.9468330078125,-0.00003205984830856323,0.0007687695324420929,0.0016213702037930489
1782831854217763000,4.95676318359375,-0.0023939190432429314,0.0006549181416630745,-0.001374212559312582
1782831854227692000,4.966692138671875,0.00007243454456329346,0.0012304270640015602,-0.0008919141255319118
1782831854237621000,4.97662109375,0.002309253439307213,-0.00030343327671289444,-0.0009491597302258015
1782831854247550000,4.986550048828125,-0.0011153053492307663,-0.0006275400519371033,0.0009214449673891068
1782831854257480200,4.996480224609375,-0.0003902362659573555,-0.00035805627703666687,0.0008451147004961967
1782831854267409200,5.0064091796875,-0.00027785077691078186,-0.00016657542437314987,0.0019157053902745247
1782831854277338000,5.016338134765625,-0.001437954604625702,0.0004447260871529579,0.0026001697406172752
1782831854287267000,5.02626708984375,0.00281404796987772,0.0017856275662779808,0.002145567908883095
1782831854297196000,5.036196044921875,0.00022846832871437073,-0.0002167103812098503,-0.001218719407916069
1782831854307126000,5.0461259765625,-0.0015814155340194702,0.0005303071811795235,-0.0011862288229167461
1782831854317055000,5.056054931640625,0.00009414926171302795,0.0017416831105947495,-0.0021484121680259705
1782831854326984200,5.065984130859375,-0.0005314275622367859,-0.0021401401609182358,-0.0019502732902765274
1782831854336913200,5.0759130859375,-0.0014641759917140007,0.001238647848367691,-0.0017279675230383873
1782831854346842000,5.085842041015625,-0.002373378723859787,0.000246354378759861,-0.002559139858931303
1782831854356771800,5.095771728515625,0.0006176335737109184,0.000791606493294239,-0.00043313344940543175
1782831854366701000,5.105701171875,0.0007574493065476418,-0.0010835258290171623,0.0007043024525046349
1782831854376630000,5.115630126953125,-0.0009330352768301964,-0.0020522037521004677,0.0009490344673395157
1782831854386559000,5.12555908203125,0.0005053384229540825,0.0025888867676258087,0.0012949788942933083
1782831854396489200,5.1354892578125,0.000260351225733757,0.003775857388973236,-0.0006544841453433037
1782831854406418200,5.145418212890625,0.001559707336127758,-0.000466824509203434,-0.0010126791894435883
1782831854416347100,5.15534716796875,-0.0010097483173012733,-0.0027530668303370476,0.0003162538632750511
1782831854426276000,5.165276123046875,0.00016363989561796188,-0.0009999079629778862,-0.0012749847956001759
1782831854436205000,5.175205078125,0.000020585954189300537,0.0007279571145772934,-0.0018834806978702545
1782831854446135000,5.185135009765625,-0.0002017877995967865,-0.0015328004956245422,0.0004776781424880028
1782831854456064000,5.19506396484375,0.0006665075197815895,-0.00006861425936222076,-0.0014524003490805626
1782831854465993200,5.2049931640625,0.00023294519633054733,0.0027567334473133087,0.0014134272933006287
1782831854475922200,5.214922119140625,0.001409820280969143,0.002477766014635563,0.0010787835344672203
1782831854485851100,5.22485107421875,0.0008726613596081734,0.00047453679144382477,0.00012324098497629166
1782831854495780900,5.23478076171875,0.0011706743389368057,0.0016134167090058327,0.00019327644258737564
1782831854505710000,5.2447099609375,0.0000050086528062820435,0.0006861044093966484,-0.0012016869150102139
1782831854515639000,5.25463916015625,-0.0010915454477071762,0.0005143964663147926,-0.0009205900132656097
1782831854525568000,5.264568115234375,-0.0006310846656560898,0.002147447317838669,0.0010794438421726227
1782831854535497000,5.2744970703125,0.0011797090992331505,0.00008559413254261017,-0.00041084084659814835
1782831854545427200,5.28442724609375,-0.0009825117886066437,0.00048160646110773087,0.00018757116049528122
1782831854555356000,5.29435595703125,-0.0008913958445191383,-0.0009792149066925049,-0.0008869459852576256
1782831854565284900,5.304284912109375,-0.0005683545023202896,-0.00011688284575939178,0.003399411216378212
1782831854575214000,5.314214111328125,-0.002124759368598461,0.0005228491500020027,0.0011905338615179062
1782831854585144000,5.32414404296875,-0.0013002445921301842,0.0005822377279400826,-0.000691522378474474
1782831854595073000,5.334072998046875,-0.0011309701949357986,-0.0016756393015384674,-0.0025673117488622665
1782831854605002200,5.344002197265625,-0.0008803671225905418,-0.001331559382379055,0.000051108188927173615
1782831854614931200,5.35393115234375,-0.00020669400691986084,0.002123665064573288,-0.002350532915443182
1782831854624860200,5.363860107421875,-0.0013755559921264648,-0.00035680271685123444,0.002175775356590748
1782831854634790000,5.373789794921875,-0.00093840342015028,0.00036746449768543243,0.003023887053132057
1782831854644719000,5.383718994140625,-0.0007719555869698524,-0.002409946173429489,-0.0018781935796141624
1782831854654648000,5.39364794921875,0.0001174435019493103,0.0004477938637137413,0.0008164802566170692
1782831854664577000,5.403576904296875,-0.0005544712767004967,0.0027772607281804085,-0.0006170994602143764
1782831854674506000,5.413506103515625,-0.0003415048122406006,0.003947182558476925,-0.0003320546820759773
1782831854684436000,5.42343603515625,0.0013450747355818748,-0.0002960311248898506,0.0014429418370127678
1782831854694365000,5.433364990234375,-0.0022657811641693115,-0.000039828941226005554,-0.0003692563623189926
1782831854704294000,5.4432939453125,0.0006210850551724434,0.00037961918860673904,-0.00026965420693159103
1782831854714223000,5.45322314453125,0.000050683505833148956,0.0019536446779966354,-0.0029042065143585205
1782831854724153000,5.463153076171875,-0.0010851547122001648,0.003002929501235485,0.0015312880277633667
1782831854734082000,5.47308203125,0.00032653380185365677,-0.0002197790890932083,0.0033992454409599304
1782831854744011300,5.48301123046875,0.0007531726732850075,0.0003991397097706795,-0.0005632722750306129
1782831854753940000,5.49293994140625,-0.0019087130203843117,0.0005124351009726524,-0.001038908027112484
1782831854763869000,5.502868896484375,0.0013011954724788666,-0.0003879796713590622,-0.0009440998546779156
1782831854773799000,5.512798828125,-0.002239830791950226,0.002616211771965027,0.000018127262592315674
1782831854783727900,5.522727783203125,0.00037805642932653427,-0.0018951836973428726,0.0017675580456852913
1782831854793656800,5.53265673828125,0.0014700759202241898,0.00021925289183855057,-0.0001351507380604744
1782831854803585800,5.542585693359375,-0.002763817086815834,-0.0005237692967057228,-0.00021850783377885818
1782831854813515000,5.552514892578125,-0.0009347973391413689,-0.001018185168504715,0.00035584066063165665
1782831854823444700,5.56244482421875,-0.0008820667862892151,-0.0021324511617422104,0.0010416042059659958
1782831854833373700,5.572373779296875,-0.0019334033131599426,0.0030285529792308807,-0.0014978083781898022
1782831854843302700,5.582302734375,-0.00035734474658966064,-0.0015145335346460342,-0.0009430716745555401
1782831854853231900,5.59223193359375,0.0005766274407505989,0.0000230567529797554,-0.001488848589360714
1782831854863160800,5.602160888671875,-0.00005747191607952118,0.0012073647230863571,-0.0016236044466495514
1782831854873090800,5.6120908203125,0.0022388333454728127,0.00173281691968441,-0.00023257732391357422
1782831854883020000,5.62202001953125,-0.00045841652899980545,0.001688607968389988,-0.0015106280334293842
1782831854892949000,5.631948974609375,0.0006004758179187775,0.001278512179851532,-0.002650586888194084
1782831854902877700,5.641877685546875,0.0016164714470505714,0.0002633156254887581,0.002199828624725342
1782831854912808000,5.651807861328125,0.0006401585415005684,0.0001971665769815445,-0.0012307316064834595
1782831854922737000,5.66173681640625,0.0019514989107847214,0.0015156976878643036,0.0025602784007787704
1782831854932665900,5.671665771484375,-0.00031567085534334183,-0.0005759568884968758,-0.0029814252629876137
1782831854942594800,5.6815947265625,-0.0020778849720954895,0.00015667825937271118,-0.0009867176413536072
1782831854952524000,5.69152392578125,0.0008098762482404709,-0.003619999624788761,0.0012457827106118202
1782831854962453800,5.701453857421875,0.0006940290331840515,-0.0039254650473594666,-0.0004557105712592602
1782831854972382700,5.7113828125,-0.00020890776067972183,-0.000543440692126751,-0.0008505112491548061
1782831854982311700,5.721311767578125,0.0005753934383392334,-0.0009272024035453796,-0.0008779419586062431
1782831854992241000,5.731240966796875,-0.0008936244994401932,-0.0003792177885770798,0.00010413490235805511
1782831855002169900,5.741169921875,0.0009327707812190056,-0.00044313445687294006,0.0004934892058372498
1782831855012099800,5.751099853515625,0.0006836354732513428,-0.0002948762848973274,-0.0007440512999892235
1782831855022028800,5.76102880859375,-0.001302284188568592,0.00009181536734104156,-0.0007709492929279804
1782831855031957800,5.770957763671875,0.0018578404560685158,-0.00003379210829734802,-0.000869004987180233
1782831855041886700,5.78088671875,-0.00015684030950069427,0.00028445571660995483,0.0018434245139360428
1782831855051815700,5.790815673828125,-0.00019798800349235535,0.00013211369514465332,-0.0012260498479008675
1782831855061746000,5.800745849609375,0.00043850764632225037,0.0004210658371448517,-0.0018961010500788689
1782831855071675000,5.8106748046875,-0.002023770473897457,0.0010093795135617256,-0.0029118689708411694
1782831855081603800,5.820603759765625,-0.0002517029643058777,0.0008170995861291885,-0.0028740521520376205
1782831855091533000,5.830532958984375,0.0006792405620217323,-0.0006362972781062126,-0.00025048013776540756
1782831855101461800,5.840461669921875,-0.0028494475409388542,0.00018395669758319855,0.0013841679319739342
1782831855111391700,5.850391845703125,-0.000027602538466453552,0.001654881052672863,-0.0006595109589397907
1782831855121320700,5.86032080078125,0.0005878536030650139,0.0012535424903035164,0.0006190724670886993
1782831855131250000,5.87025,-0.0006054630503058434,-0.000012007541954517365,0.001063014380633831
1782831855141179000,5.880178955078125,0.0014086859300732613,-0.00040588900446891785,-0.002267534378916025
1782831855151108900,5.89010888671875,-0.0007498143240809441,-0.0009126700460910797,-0.0013868720270693302
1782831855161037800,5.900037841796875,0.0005293022841215134,-0.0013587502762675285,-0.0028199185617268085
1782831855170966800,5.909966796875,-0.000921269878745079,-0.0013464922085404396,-0.0006333561614155769
1782831855180895700,5.919895751953125,-0.00031566713005304337,0.0005595320835709572,0.0021688221022486687
1782831855190824700,5.92982470703125,0.00221420731395483,4.591420292854309e-7,0.0006828112527728081
1782831855200755000,5.9397548828125,-0.0018223458901047707,-0.001987590454518795,-0.0007520997896790504
1782831855210684000,5.949683837890625,-0.0005574366077780724,0.0005667302757501602,0.0008590817451477051
1782831855220612900,5.95961279296875,0.0002119503915309906,-0.000254322774708271,0.0005490891635417938
1782831855230541800,5.969541748046875,-0.002070395275950432,0.0011866549029946327,-0.0017951373010873795
1782831855240470800,5.979470703125,0.0014588255435228348,0.000464671291410923,-0.00279036071151495
1782831855250400800,5.98940087890625,0.0022711893543601036,0.000643446110188961,-0.0024041240103542805
1782831855260329700,5.999329833984375,8.44709575176239e-7,0.001544126309454441,-0.005924556404352188
1782831855270259000,6.009259033203125,-0.00029516033828258514,-0.0019007641822099686,0.001647130586206913
1782831855280188000,6.01918798828125,-0.0010738680139183998,0.0009059421718120575,-0.0001915162429213524
1782831855290116900,6.029116943359375,-0.00022311322391033173,-0.00032772868871688843,-0.001315962988883257
1782831855300046800,6.039046875,-0.0010881079360842705,-0.00048086047172546387,0.0008675632998347282
1782831855309975800,6.048975830078125,0.0016041677445173264,0.00019267387688159943,-0.0006343242712318897
1782831855319904800,6.05890478515625,0.0007716631516814232,-0.001080317422747612,0.0043772123754024506
1782831855329833700,6.068833740234375,0.00008267257362604141,-0.0019034799188375473,0.0011087805032730103
1782831855339764000,6.078763916015625,0.00020624324679374695,-0.0000019827857613563538,-0.00034503964707255363
1782831855349693000,6.08869287109375,-0.001401449553668499,-0.0006328066810965538,-0.0005501396954059601
1782831855359622000,6.098621826171875,-0.0005058282986283302,0.0009083645418286324,-0.0006526713259518147
1782831855369550800,6.10855078125,-0.0010301629081368446,0.00031450018286705017,-0.0009154207073152065
1782831855379479800,6.118479736328125,0.00033710431307554245,-0.000961952842772007,0.0002526417374610901
1782831855389409800,6.128409912109375,-0.001464572735130787,0.0015694256871938705,-0.000804513692855835
1782831855399338800,6.1383388671875,-0.0005274061113595963,-0.0005405973643064499,-0.0004372638650238514
1782831855409268000,6.14826806640625,-0.0003712764009833336,0.0008401805534958839,-0.0019022123888134956
1782831855419197000,6.158197021484375,-0.0003345245495438576,0.0007898462936282158,-0.00014878716319799423
1782831855429126000,6.1681259765625,0.00036542490124702454,0.002828199416399002,-0.0006610597483813763
1782831855439056000,6.178055908203125,0.0023750457912683487,0.000666511245071888,-0.00012123677879571915
1782831855448984800,6.18798486328125,-0.0006826743483543396,-0.0004693055525422096,-0.00045345351099967957
1782831855458913800,6.197913818359375,0.0010031061246991158,0.0003261808305978775,-0.0003826133906841278
1782831855468842800,6.2078427734375,-0.0012998422607779503,-0.0005971118807792664,0.001170753501355648
1782831855478772000,6.21777197265625,0.00013906322419643402,0.001439141109585762,0.0020815543830394745
1782831855488701700,6.22770166015625,0.0026958873495459557,0.0005536312237381935,-0.0008687227964401245
1782831855498630700,6.237630615234375,-0.000015476718544960022,-0.0001449156552553177,0.00021491758525371552
1782831855508560000,6.247559814453125,-0.0006616506725549698,-0.0010946495458483696,-0.0006079487502574921
1782831855518488800,6.25748876953125,-0.0011996086686849594,-0.002042734995484352,0.00011190399527549744
1782831855528418800,6.267418701171875,0.0005631446838378906,-0.0005804859101772308,0.0009340420365333557
1782831855538348000,6.27734814453125,-0.00036416761577129364,-0.001163451001048088,-0.0016763880848884583
1782831855548277000,6.287277099609375,0.0010105641558766365,0.0009522447362542152,-0.00016072019934654236
1782831855558206000,6.2972060546875,-0.0010171663016080856,-0.0012637712061405182,-0.0002323593944311142
1782831855568135000,6.307135009765625,0.0019600167870521545,-0.0015743253752589226,0.0022572726011276245
1782831855578065000,6.31706494140625,0.0005844933912158012,-0.0015495587140321732,0.00043939799070358276
1782831855587993900,6.326993896484375,0.001475246623158455,0.000288533978164196,0.0010489989072084427
1782831855597922800,6.3369228515625,-0.0011391788721084595,0.0022640665993094444,0.00038267672061920166
1782831855607851800,6.346851806640625,0.0002577938139438629,0.0002899589017033577,0.0006799129769206047
1782831855617781000,6.356781005859375,0.0016176039353013039,0.001482255756855011,0.0002641938626766205
1782831855627710700,6.366710693359375,0.00013901665806770325,0.003112739883363247,0.00038661248981952667
1782831855637639700,6.3766396484375,0.0009097354486584663,0.000423479825258255,-0.0002504158765077591
1782831855647569000,6.38656884765625,-0.0004384806379675865,0.0005512246862053871,0.0005786027759313583
1782831855657497900,6.396497802734375,-0.0025940435007214546,-0.00012575089931488037,0.0005714129656553268
1782831855667426800,6.4064267578125,0.0014642812311649323,-0.0003183893859386444,-0.00022411905229091644
1782831855677357000,6.416357177734375,0.00040407758206129074,-0.0024766158312559128,-0.0003367708995938301
1782831855687286000,6.4262861328125,-0.0020756106823682785,0.0015150541439652443,0.0010580746456980705
1782831855697214700,6.436214599609375,-0.0013030273839831352,0.0005552507936954498,-0.0008780430071055889
1782831855707143700,6.446143798828125,-0.00030719954520463943,-0.0009145913645625114,0.0016722874715924263
1782831855717074000,6.456073974609375,-0.0007514143362641335,-0.0009079333394765854,-0.0013045934028923512
1782831855727003000,6.4660029296875,0.0006998321041464806,0.0008513210341334343,0.0001006200909614563
1782831855736931800,6.475931884765625,-0.0014264360070228577,-0.001392924226820469,0.0021760212257504463
1782831855746860800,6.48586083984375,0.002203078009188175,0.0013118702918291092,0.002720652148127556
1782831855756790300,6.495790283203125,-0.0013162894174456596,-0.0019880523905158043,-0.0007683555595576763
1782831855766720000,6.505719970703125,-0.002288355492055416,-0.0008491715416312218,0.0002239113673567772
1782831855776649000,6.51564892578125,0.00017506815493106842,-0.0013977829366922379,-0.002597441431134939
1782831855786578000,6.525577880859375,-0.000500410795211792,0.002261815592646599,-0.0023880009539425373
1782831855796507100,6.535507080078125,-0.000883638858795166,0.0016333097591996193,-0.003009849227964878
1782831855806436000,6.54543603515625,0.0016281651332974434,0.0000753253698348999,0.0007117092609405518
1782831855816366000,6.555365966796875,0.00041296426206827164,0.0036942949518561363,-0.0007583559490740299
1782831855826295000,6.565294921875,-0.00028191134333610535,0.0025485502555966377,-0.0010579442605376244
1782831855836224000,6.57522412109375,0.001705339178442955,-0.0013508498668670654,0.0002925451844930649
1782831855846153000,6.585153076171875,-0.0003004223108291626,0.0005787098780274391,0.0029178261756896973
1782831855856082000,6.59508203125,-0.0013603605329990387,0.000012522563338279724,0.00020726118236780167
1782831855866012200,6.60501220703125,-0.001892073079943657,-0.0018529342487454414,0.001496727578341961
1782831855875941000,6.614941162109375,-0.0008297385647892952,0.0005263332277536392,0.0026038028299808502
1782831855885870000,6.6248701171875,0.0015275916084647179,0.00021061953157186508,-0.002431018278002739
1782831855895799000,6.634799072265625,-0.002419212833046913,-0.002388625405728817,0.0002475893124938011
1782831855905729000,6.64472900390625,-0.0022305166348814964,-0.0009500095620751381,-0.0005272957496345043
1782831855915658000,6.654657958984375,0.0003274492919445038,0.00002710428088903427,0.00013529881834983826
1782831855925587000,6.6645869140625,-0.0003363117575645447,-0.003291560336947441,0.00003607012331485748
1782831855935516200,6.67451611328125,0.000890607014298439,-0.00030961912125349045,0.0014257077127695084
1782831855945445000,6.684445068359375,-0.0007351599633693695,-0.001998898573219776,0.0013329079374670982
1782831855955374800,6.694374755859375,-0.001936245709657669,0.0019311290234327316,0.0008210483938455582
1782831855965304000,6.704303955078125,-0.001131356693804264,0.0010530352592468262,-0.0012384536676108837
1782831855975233000,6.71423291015625,-0.00006209779530763626,0.0016562407836318016,-0.0024038529954850674
1782831855985162000,6.724161865234375,0.001368112862110138,-0.0015861773863434792,-0.000055913813412189484
1782831855995091000,6.734091064453125,0.001270906999707222,0.002169945277273655,0.0004735225811600685
1782831856005021200,6.744021240234375,-0.004313640296459198,0.000208352692425251,0.000053233467042446136
1782831856014950100,6.7539501953125,-0.00012608617544174194,-0.0002081654965877533,0.00113021582365036
1782831856024879000,6.763879150390625,0.0008222414180636406,0.0016551753506064415,0.00021560490131378174
1782831856034808000,6.77380810546875,-0.0005080075934529305,0.0011965790763497353,0.001967698335647583
1782831856044737000,6.783737060546875,-0.0010217083618044853,0.0013460945338010788,-0.00393418874591589
1782831856054667000,6.7936669921875,0.0006827143952250481,0.0008930908516049385,-0.0017999317497015
1782831856064596000,6.803595947265625,0.0017910264432430267,0.00008745864033699036,0.0006398782134056091
1782831856074525200,6.813525146484375,0.001270645298063755,0.0006848052144050598,-0.0006791851483285427
1782831856084454100,6.8234541015625,-0.002955830655992031,-0.0010216208174824715,-0.002172911074012518
1782831856094383000,6.833383056640625,0.0003797793760895729,0.00046841707080602646,-0.00009111780673265457
1782831856104313000,6.84331298828125,0.00007679685950279236,-0.0014799898490309715,-0.0027613509446382523
1782831856114242000,6.853241943359375,0.0002269987016916275,0.0001168418675661087,-0.001506203319877386
1782831856124171000,6.8631708984375,0.0005300138145685196,-0.00010959338396787643,0.0010858895257115364
1782831856134100000,6.873099853515625,0.0003337385132908821,-0.0004760436713695526,-0.0019264118745923042
1782831856144030200,6.8830302734375,-0.00016057491302490234,0.003288891166448593,0.0030563492327928543
1782831856153959000,6.892958984375,0.0012615537270903587,0.00009682681411504745,-0.0018201651982963085
1782831856163887900,6.902887939453125,-0.0006133485585451126,0.0019844239577651024,-0.002463490702211857
1782831856173817000,6.912817138671875,-0.0024003302678465843,-0.001407111994922161,-0.0012679975479841232
1782831856183746000,6.92274609375,0.00020272843539714813,0.0007460853084921837,-0.0009005307219922543
1782831856193676000,6.932676025390625,-0.000550147145986557,0.0005849637091159821,0.0021168310195207596
1782831856203605000,6.94260498046875,0.002178889699280262,0.00225946307182312,-0.0025323680602014065
1782831856213534200,6.9525341796875,-0.000873626209795475,0.00274096243083477,-0.000306498259305954
1782831856223463200,6.962463134765625,-0.002350395545363426,-0.00014938320964574814,0.0006227921694517136
1782831856233392000,6.97239208984375,0.0011580530554056168,0.00015368498861789703,-0.000657123513519764
1782831856243322000,6.982322021484375,0.0003453008830547333,-0.00028855353593826294,0.0003270525485277176
1782831856253251000,6.9922509765625,-0.0013348869979381561,-0.0023924503475427628,0.000787246972322464
1782831856263180000,7.002179931640625,-0.0013344530016183853,-0.003371761180460453,-0.000958496704697609
1782831856273109000,7.01210888671875,0.0018181968480348587,-0.0009426921606063843,-0.0006586248055100441
1782831856283038200,7.0220380859375,0.00218835286796093,-0.0003438657149672508,-0.0005520801059901714
1782831856292968000,7.031968017578125,0.0020751692354679108,-0.0010211076587438583,-0.0018431809730827808
1782831856302897000,7.04189697265625,0.0006453413516283035,-0.0027056345716118813,-0.0005728569813072681
1782831856312826000,7.051826171875,0.0002549225464463234,0.0001122569665312767,0.0007035955786705017
1782831856322755000,7.061755126953125,0.0002823770046234131,0.0007057348266243935,-0.00027789128944277763
1782831856332684000,7.07168408203125,0.0029047923162579536,0.0024322615936398506,-0.00003820657730102539
1782831856342614000,7.081614013671875,-0.0014372505247592926,0.001719864085316658,-0.002263820730149746
1782831856352543200,7.091543212890625,0.0006021978333592415,-0.00034248828887939453,-0.0009626001119613647
1782831856362472000,7.101471923828125,0.0006642844527959824,-0.000019470229744911194,-0.0028082160279154778
1782831856372401000,7.11140087890625,-0.0018731746822595596,0.0018340898677706718,-0.002797030843794346
1782831856382331100,7.1213310546875,0.0005102520808577538,0.0002216612920165062,0.00029958877712488174
1782831856392260000,7.131260009765625,0.0021409057080745697,-0.00009472202509641647,0.00074034184217453
1782831856402189000,7.14118896484375,0.0005351779982447624,-0.001107427291572094,-0.00036180391907691956
1782831856412118000,7.151117919921875,-0.00007415376603603363,-0.00019422918558120728,-0.0008060191757977009
1782831856422047200,7.161047119140625,-0.00011840835213661194,-0.0011891629546880722,-0.0012193061411380768
1782831856431977000,7.17097705078125,-0.0005311984568834305,0.002711835317313671,0.00005581509321928024
1782831856441906000,7.180906005859375,0.0004028966650366783,0.0007414612919092178,-0.002970662899315357
1782831856451835100,7.190835205078125,0.002614385448396206,-0.00002446398138999939,-0.002267322037369013
1782831856461764000,7.20076416015625,-0.0006340751424431801,0.00011564046144485474,-0.0004952782765030861
1782831856471693000,7.210693115234375,0.000525464303791523,-0.002621023915708065,-0.00028222566470503807
1782831856481623000,7.220623046875,-0.0023493655025959015,-0.00002377200871706009,-0.0005770199932157993
1782831856491552000,7.230552001953125,-0.0008340273052453995,-0.00110661331564188,-0.0007061832584440708
1782831856501481000,7.24048095703125,0.001749708317220211,0.0011756336316466331,0.002046177163720131
1782831856511410000,7.250409912109375,-0.0007251668721437454,-0.0009948424994945526,0.0023971814662218094
1782831856521339000,7.2603388671875,0.00029692240059375763,-0.0008622482419013977,-0.0018844837322831154
1782831856531269000,7.27026904296875,-0.00028844084590673447,-0.00022948067635297775,0.0012332787737250328
1782831856541198000,7.280197998046875,-0.0006164973601698875,-0.0012141317129135132,0.000026782043278217316
1782831856551127000,7.290126953125,-0.000258568674325943,0.0029076430946588516,0.0004278542473912239
1782831856561056300,7.30005615234375,0.0006099576130509377,0.0019277911633253098,0.00045950058847665787
1782831856570985000,7.30998486328125,0.0007582958787679672,0.0011147279292345047,-0.000673940870910883
1782831856580915000,7.3199150390625,0.0011692438274621964,0.002489820122718811,-0.0008680839091539383
1782831856590844200,7.32984423828125,-0.0015146899968385696,-0.0011533843353390694,0.0008224910125136375
1782831856600773000,7.339773193359375,-0.0012383423745632172,-0.0013789637014269829,-0.0036106915213167667
1782831856610702000,7.3497021484375,0.0005076257511973381,-0.0013643158599734306,-0.0018910886719822884
1782831856620631800,7.3596318359375,0.00036059971898794174,0.0006258757784962654,-0.0018601859919726849
1782831856630561000,7.36956103515625,0.0004527457058429718,-0.0008556405082345009,0.0012866053730249405
1782831856640490000,7.379489990234375,0.0006953887641429901,-0.00008978787809610367,0.0009076287969946861
1782831856650419000,7.3894189453125,0.0010298825800418854,-0.00036249589174985886,-0.004858381114900112
1782831856660348000,7.399347900390625,0.0004964368417859077,0.0011865440756082535,0.00225740484893322
1782831856670278100,7.409278076171875,-0.0012687062844634056,0.0015362175181508064,-0.00033864472061395645
1782831856680207000,7.41920703125,-0.0013776076957583427,0.0026005925610661507,-0.001235966570675373
1782831856690136000,7.429135986328125,-0.00031580496579408646,-0.0003826804459095001,-0.00030306121334433556
1782831856700065000,7.43906494140625,0.0006334399804472923,0.000836309976875782,0.0018366314470767975
1782831856709994000,7.448993896484375,0.0009668674319982529,0.0005942285060882568,0.0012707095593214035
1782831856719924000,7.458924072265625,-0.0005863867700099945,-0.0014041969552636147,0.0031376220285892487
1782831856729853200,7.468853271484375,0.0012163063511252403,0.0007449733093380928,-0.0007607131265103817
1782831856739782100,7.4787822265625,-0.0009134132415056229,0.002212667837738991,-0.0012054098770022392
1782831856749711000,7.488711181640625,-0.003116646781563759,0.0024797823280096054,0.0012047505006194115
1782831856759639800,7.498639892578125,0.0002656644210219383,0.0006961189210414886,0.0008889725431799889
1782831856769569800,7.50856982421875,0.0009831208735704422,0.0028130654245615005,-0.0015185247175395489
1782831856779498800,7.518498779296875,0.0010136403143405914,0.0010332902893424034,0.00017389561980962753
1782831856789427700,7.528427734375,-0.0010601626709103584,0.00009159650653600693,0.00038295425474643707
1782831856799356700,7.538356689453125,-0.0005468335002660751,-0.001989845186471939,0.0006978800520300865
1782831856809286000,7.548285888671875,-0.000563611276447773,0.00041871797293424606,-0.00046964921057224274
1782831856819216000,7.5582158203125,0.002484656870365143,-0.0030472613871097565,0.00200260104611516
1782831856829144800,7.568144775390625,-0.0032280897721648216,-0.0003755781799554825,-0.0025838944129645824
1782831856839073800,7.57807373046875,0.0006691822782158852,-0.002367207780480385,-0.0015546511858701706
1782831856849002800,7.588002685546875,0.000015908852219581604,-0.0001298859715461731,0.0008086380548775196
1782831856858932700,7.5979326171875,-0.001369871199131012,-0.001776362769305706,0.000021999236196279526
1782831856868862000,7.607862060546875,0.0011063357815146446,-0.0019670454785227776,0.0028614611364901066
1782831856878791000,7.617791015625,0.002849574200809002,0.0013088947162032127,-0.0013676430098712444
1782831856888720000,7.627719970703125,-0.0006780484691262245,0.000005544163286685944,-0.0007655024528503418
1782831856898648800,7.63764892578125,-0.0021346379071474075,0.0035034585744142532,-0.0016249497421085835
1782831856908578800,7.647578857421875,-0.00031250249594449997,-0.00043615512549877167,0.0005561793223023415
1782831856918507800,7.6575078125,0.000445343554019928,0.00204439926892519,-0.00017583882436156273
1782831856928436700,7.667436767578125,0.000975312665104866,-0.00027840957045555115,0.0001543937250971794
1782831856938365700,7.67736572265625,0.0016464386135339737,-0.000269545242190361,-0.000437811017036438
1782831856948295000,7.687294921875,0.0012917052954435349,0.0011499198153614998,0.0007366430945694447
1782831856958225000,7.697224853515625,-0.0008224602788686752,0.002191956155002117,-0.0007626507431268692
1782831856968153600,7.707153564453125,-0.0003630649298429489,-0.00011354219168424606,0.00034362636506557465
1782831856978082800,7.717082763671875,0.0007131733000278473,0.0004879077896475792,-0.000010820571333169937
1782831856988011800,7.72701171875,0.0006172992289066315,0.00040694791823625565,0.002399073913693428
1782831856997940700,7.736940673828125,-0.0007281647995114326,-0.000580931082367897,0.001392426434904337
1782831857007871000,7.74687109375,0.00031446292996406555,-0.0009583011269569397,-0.0005985526368021965
1782831857017800000,7.756800048828125,-0.0028415191918611526,-0.0027007684111595154,-0.000585298053920269
1782831857027729000,7.76672900390625,-0.0013243164867162704,-0.0022682705894112587,0.0009068707004189491
1782831857037657900,7.776657958984375,-0.0013111988082528114,-0.000059830956161022186,0.00128153245896101
1782831857047586800,7.7865869140625,0.0005594054237008095,0.0007143504917621613,0.0004775235429406166
1782831857057516800,7.796516845703125,0.0011151563376188278,-0.0005878647789359093,-0.0015877480618655682
1782831857067445800,7.80644580078125,0.001362297683954239,0.0010289400815963745,0.0017521227709949017
1782831857077374700,7.816374755859375,0.0013230443000793457,0.00012644100934267044,-0.000773970503360033
1782831857087304000,7.826303955078125,0.0016660597175359726,-0.00017902348190546036,0.002748326398432255
1782831857097233000,7.83623291015625,-0.002629544585943222,-0.0003936374559998512,0.002417203038930893
1782831857107162600,7.84616259765625,0.00015851855278015137,-0.0012663546949625015,-0.0018353327177464962
1782831857117091800,7.856091796875,-0.002383628860116005,0.0001824731007218361,-0.00030964193865656853
1782831857127020800,7.866020751953125,-0.0009274128824472427,-0.00041247718036174774,-0.0009016622789204121
1782831857136949800,7.87594970703125,0.0016648564487695694,-0.000018093734979629517,-0.00009026471525430679
1782831857146878700,7.885878662109375,-0.00023850519210100174,-0.0006431378424167633,0.001792323775589466
1782831857156809000,7.89580908203125,0.0012051379308104515,-0.00032692309468984604,-0.0025978009216487408
1782831857166738000,7.905738037109375,-0.0003184564411640167,-0.0012686168774962425,0.0005697621963918209
1782831857176666600,7.91566650390625,0.001041472889482975,-0.0019182059913873672,-0.000036185141652822495
1782831857186595800,7.925595947265625,-0.0007250020280480385,0.0011548157781362534,-0.00029238080605864525
1782831857196524800,7.93552490234375,0.0002768607810139656,-0.002516556531190872,-0.002889756578952074
1782831857206454800,7.945454833984375,-0.0018464773893356323,0.0011567417532205582,0.0002660895697772503
1782831857216383700,7.9553837890625,0.0025487691164016724,-0.0021495837718248367,0.0024182526394724846
1782831857226313000,7.96531298828125,0.000709855929017067,-0.0012800609692931175,0.0022235754877328873
1782831857236242000,7.975241943359375,-0.002172352746129036,-0.0021490976214408875,0.001414759550243616
1782831857246171600,7.985171630859375,0.0008298279717564583,0.00005307048559188843,0.00007598800584673882
1782831857256100900,7.995100830078125,-0.000040141865611076355,0.0005403934046626091,0.0010445630177855492
1782831857266029800,8.00502978515625,-0.0007117912173271179,-0.001048714853823185,-0.0012795771472156048
1782831857275958800,8.014958740234375,0.0018350696191191673,0.002237691543996334,-0.0018658582121133804
1782831857285887700,8.0248876953125,0.0012132208794355392,0.0016536600887775421,0.0015541729517281055
1782831857295817700,8.034817626953124,-0.00024316366761922836,0.002911207266151905,0.000768992118537426
1782831857305746700,8.04474658203125,0.0010932106524705887,0.001420636661350727,0.0031314827501773834
1782831857315675600,8.054675537109375,-0.0024598846212029457,-0.0010615671053528786,0.000003178603947162628
1782831857325604900,8.06460498046875,-0.0006715720519423485,0.0007421914488077164,-0.0006535574793815613
1782831857335533800,8.074533935546874,0.0005901167169213295,-0.00035389140248298645,0.0024617640301585197
1782831857345463800,8.0844638671875,-0.0009222924709320068,-0.0006974395364522934,-0.00010818615555763245
1782831857355392800,8.094392822265625,-0.00030996929854154587,-0.0007123444229364395,-0.001989563927054405
1782831857365322000,8.104322021484375,-0.0018061334267258644,-0.00040208548307418823,-0.0011352216824889183
1782831857375251000,8.1142509765625,0.001710435375571251,-0.0017610453069210052,-0.0007074284367263317
1782831857385179600,8.1241796875,-0.00011862441897392273,-0.00164067093282938,-0.0009604287333786488
1782831857395110000,8.13410986328125,-0.0013108840212225914,-0.0022155167534947395,0.002912323921918869
1782831857405038800,8.144038818359375,0.0025512324646115303,-0.0008999155834317207,0.0020353449508547783
1782831857414967800,8.1539677734375,-0.001393364742398262,0.001583644188940525,-0.0009367470629513264
1782831857424896800,8.163896728515626,0.000681770034134388,0.0025541000068187714,0.00009203236550092697
1782831857434826000,8.173825927734375,0.001124657690525055,0.000565853901207447,-0.001017685979604721
1782831857444755700,8.183755615234375,-0.0011640628799796104,0.0013067452237010002,-0.0007955781184136868
1782831857454684700,8.1936845703125,0.0016900869086384773,-0.00040464475750923157,0.0008309083059430122
1782831857464614000,8.20361376953125,0.00008846167474985123,0.00044357217848300934,-0.00027057481929659843
1782831857474542800,8.21354296875,0.00040121935307979584,0.0011390456929802895,-0.00040447898209095
1782831857484471800,8.223471923828125,-0.0008826898410916328,-0.0012799035757780075,0.001148143783211708
1782831857494401800,8.23340185546875,-0.0007701264694333076,0.0008372226729989052,0.0014963550493121147
1782831857504330800,8.243330810546874,0.0010155225172638893,0.001937374472618103,-0.0028592445887625217
1782831857514259700,8.253259765625,0.0010797139257192612,0.0004643388092517853,-0.00018635857850313187
1782831857524188700,8.263188720703125,-0.0019115488976240158,0.0015900572761893272,-0.0012484272010624409
1782831857534117600,8.27311767578125,0.00021073874086141586,-0.0030467044562101364,-0.0006635789759457111
1782831857544047900,8.2830478515625,0.0024701645597815514,-0.0018309708684682846,-0.000729625578969717
1782831857553976800,8.292976806640626,0.00020710192620754242,0.00228765606880188,-0.002760129515081644
1782831857563905800,8.30290576171875,-0.00036467891186475754,-0.0007097311317920685,-0.0008772746659815311
1782831857573835000,8.3128349609375,-0.0003589894622564316,-0.0008552027866244316,-0.0009348257444798946
1782831857583764700,8.3227646484375,-0.00031185150146484375,0.0014140773564577103,-0.00017715618014335632
1782831857593693700,8.332693603515626,0.00009123701602220535,-0.0012615500018000603,0.0032483143731951714
1782831857603623000,8.342622802734375,0.0006427774205803871,-0.0043548112735152245,0.0002530571073293686
1782831857613551900,8.3525517578125,0.0009054131805896759,-0.0011866744607686996,0.0014267144724726677
1782831857623480800,8.362480712890624,-0.0013417620211839676,0.0004338594153523445,-0.0005253823474049568
1782831857633410800,8.372410888671874,0.0004306985065340996,-0.0021668002009391785,-0.001350920181721449
1782831857643339800,8.38233984375,0.002429933287203312,0.0007328493520617485,-0.0003120214678347111
1782831857653268700,8.392268798828125,0.0002229185774922371,0.0019942792132496834,-0.000020110979676246643
1782831857663197700,8.40219775390625,0.0017023049294948578,0.0009162323549389839,-0.000032627955079078674
1782831857673126700,8.412126708984376,0.00012104213237762451,-0.0006602099165320396,-0.00047314492985606194
1782831857683057000,8.422056884765626,-0.0013173315674066544,-0.0008138734847307205,0.001179613173007965
1782831857692985900,8.43198583984375,-0.000023883767426013947,0.0016811741515994072,0.00036053266376256943
1782831857702914800,8.441914794921875,0.0005361791700124741,-0.0023969244211912155,-0.0009151212871074677
1782831857712843800,8.45184375,-0.0010950583964586258,0.0025413259863853455,-0.0002136649563908577
1782831857722772700,8.461772705078126,-0.00013205967843532562,-0.00003315135836601257,-0.0013678791001439095
1782831857732702700,8.47170263671875,-0.0021949978545308113,0.0002901889383792877,-0.001033226028084755
1782831857742632000,8.4816318359375,-0.00013078190386295319,-0.0006893221288919449,-0.00020951032638549805
1782831857752561000,8.491560791015624,0.0002065831795334816,-0.0029049189761281013,0.00024961866438388824
1782831857762490600,8.50149072265625,-0.0010810550302267075,-0.002479878254234791,0.0010624155402183533
1782831857772419300,8.51141943359375,0.00011076871305704117,0.000038030557334423065,-0.00039302511140704155
1782831857782349300,8.521349365234375,0.0012910813093185425,0.00037278980016708374,-0.001032716128975153
1782831857792278500,8.531278564453125,-0.0007968191057443619,-0.0000036517158150672913,-0.0006160340271890163
1782831857802207500,8.54120751953125,0.0016018906608223915,-0.00005025696009397507,-0.001191809307783842
1782831857812136400,8.551136474609375,0.0011174008250236511,-0.0008303169161081314,-0.0026978771202266216
1782831857822065400,8.5610654296875,0.0014950372278690338,0.0022371122613549232,-0.0004262006841599941
1782831857831995400,8.570995361328125,-0.00002763979136943817,0.000193694606423378,0.00017780624330043793
1782831857841924400,8.58092431640625,0.0014858348295092583,0.00019316282123327255,-0.0018366086296737194
1782831857851853300,8.590853271484375,-0.0013144658878445625,0.0009835762903094292,-0.0006894227117300034
1782831857861782300,8.6007822265625,0.002590261399745941,-0.001045485958456993,0.0013968972489237785
1782831857871711500,8.61071142578125,-0.001126796007156372,-0.00021817535161972046,0.00047001149505376816
1782831857881641500,8.620641357421874,0.0008428776636719704,0.00010380055755376816,0.000350436195731163
1782831857891570400,8.6305703125,-0.0011533387005329132,-0.0003426540642976761,-0.00044741900637745857
1782831857901499400,8.64049951171875,-0.0011301692575216293,-0.0012417370453476906,0.001741698943078518
1782831857911428400,8.650428466796875,-0.0022097546607255936,0.0009493110701441765,-0.002403268590569496
1782831857921358300,8.6603583984375,-0.0009167902171611786,-0.0021207816898822784,-0.00376387732103467
1782831857931287600,8.67028759765625,-0.00038907304406166077,-0.0021994411945343018,-0.0031654229387640953
1782831857941216500,8.680216552734375,-0.001056993380188942,-0.0006545418873429298,0.0009488947689533234
1782831857951145500,8.6901455078125,-0.0013412050902843475,-0.0031325099989771843,0.0006021270528435707
1782831857961074400,8.700074462890624,0.00038532260805368423,0.00006754416972398758,0.00012728478759527206
1782831857971004400,8.71000439453125,-0.0012157382443547249,-0.0002783751115202904,-0.000542293768376112
1782831857980933400,8.719933349609375,-0.0016391808167099953,-0.00015826616436243057,-0.0005292445421218872
1782831857990862300,8.7298623046875,0.00022352952510118484,0.0013832291588187218,0.0012208344414830208
1782831858000791300,8.739791259765624,0.0009841285645961761,0.0006468659266829491,-0.0002441704273223877
1782831858010720500,8.749720458984376,-0.00006414670497179031,0.0002546822652220726,-0.0029328144155442715
1782831858020650500,8.759650390625,-0.00069425068795681,0.0012882547453045845,-0.00043077440932393074
1782831858030579500,8.769579345703125,-0.0012637265026569366,0.0010921843349933624,-0.0002897139638662338
1782831858040508400,8.77950830078125,-0.00015878025442361832,-0.0015520686283707619,0.0018360214307904243
1782831858050437400,8.789437255859376,0.0019480381160974503,0.0018077204003930092,0.0003338446840643883
1782831858060366300,8.799366455078125,-0.0007151225581765175,0.0021661827340722084,0.00030002277344465256
1782831858070296600,8.809296630859375,0.0016519669443368912,0.0012059630826115608,0.0006655445322394371
1782831858080225500,8.8192255859375,-0.00046418048441410065,0.00021659862250089645,-0.0007464629597961903
1782831858090154500,8.829154541015624,0.00116792693734169,-0.0006334120407700539,-0.002726145088672638
1782831858100083500,8.83908349609375,0.00028988253325223923,0.0001575462520122528,0.0009506149217486382
1782831858110012400,8.849012451171875,-0.003201248124241829,0.0006485749036073685,-0.004308057017624378
1782831858119942400,8.8589423828125,0.0021032365038990974,-0.0019884873181581497,0.0008321097120642662
1782831858129871400,8.868871337890624,-0.0005409922450780869,-0.000036803074181079865,-0.0016921618953347206
1782831858139800300,8.87880029296875,0.000009482726454734802,0.0013722758740186691,0.0016551651060581207
1782831858149729500,8.8887294921875,0.0015588803216814995,0.000047856010496616364,0.0012102602049708366
1782831858159658500,8.898658447265625,-0.0001402171328663826,0.000400458462536335,0.0007023951038718224
1782831858169588200,8.908588134765624,-0.003138692118227482,0.0010330434888601303,-0.0024029063060879707
1782831858179517400,8.918517333984376,-0.001101374626159668,0.001133977435529232,-0.00024175085127353668
1782831858189446400,8.9284462890625,-0.0004233065992593765,0.0003952477127313614,-0.0014338907785713673
1782831858199375400,8.938375244140625,-0.00006511155515909195,0.0008820733055472374,-0.0032917121425271034
1782831858209304300,8.94830419921875,0.0001766849309206009,0.0001384969800710678,-0.0006792191416025162
1782831858219234600,8.958234619140624,-0.0010116174817085266,-0.00009532831609249115,0.0022625084966421127
1782831858229163500,8.96816357421875,0.0006907107308506966,-0.0006676008924841881,0.0011702002957463264
1782831858239092200,8.97809228515625,-0.0007098456844687462,0.0007015299052000046,-0.0001528579741716385
1782831858249021400,8.988021484375,0.00002321135252714157,0.00008116662502288818,0.0010247286409139633
1782831858258950400,8.997950439453126,0.002017918974161148,-0.0010903580114245415,-0.00026610586792230606
1782831858268880400,9.00788037109375,-0.0013993587344884872,0.0013893190771341324,0.00060249213129282
1782831858278809300,9.017809326171875,0.0008747149258852005,-0.0014120601117610931,-0.00006915675476193428
1782831858288738600,9.027738525390625,0.0018374845385551453,-0.0012924745678901672,-0.0023157414980232716
1782831858298667500,9.03766748046875,-0.001029408536851406,0.0004985006526112556,-0.0015735183842480183
1782831858308596500,9.047596435546875,0.0025878017768263817,-0.0003625694662332535,0.00011963210999965668
1782831858318526500,9.0575263671875,0.0017446447163820267,0.0011240076273679733,0.0005390793085098267
1782831858328455400,9.067455322265625,0.0003383299335837364,-0.0002445857971906662,0.0004325350746512413
1782831858338384400,9.07738427734375,-0.0010821996256709099,-0.0016805622726678848,0.002294350415468216
1782831858348313300,9.087313232421875,0.00016988161951303482,-0.000610928051173687,-0.0013669528998434544
1782831858358242600,9.09724267578125,-0.0017590466886758804,0.001795504242181778,-0.0001485566608607769
1782831858368172300,9.10717236328125,-0.0001081293448805809,-0.0007319347932934761,0.002095310017466545
1782831858378101200,9.117101318359374,-0.0008327756077051163,0.00024091731756925583,-0.0008562714792788029
1782831858388030500,9.127030517578126,-0.0006519472226500511,-0.0003739893436431885,-0.00018470082432031631
1782831858397959400,9.13695947265625,0.0004399493336677551,0.002045491710305214,0.00002062879502773285
1782831858407888400,9.146888427734375,-0.003121582791209221,0.0008448818698525429,-0.000956039410084486
1782831858417818400,9.156818359375,0.0017312290146946907,-0.00006352271884679794,0.0014573168009519577
1782831858427747600,9.16674755859375,-0.0007746387273073196,-0.0011475784704089165,-0.00031925179064273834
1782831858437676500,9.176676513671875,-0.0002966020256280899,-0.0010852599516510963,0.0019968990236520767
1782831858447605200,9.186605224609375,-0.0003344584256410599,-0.0006364881992340088,-0.003576885908842087
1782831858457535500,9.196535400390625,-0.000570148229598999,-0.0022884467616677284,0.0004665916785597801
1782831858467464400,9.20646435546875,-0.0012226765975356102,0.0011417688801884651,0.0007941573858261108
1782831858477393400,9.216393310546875,0.0012298282235860825,0.0012437673285603523,-0.0038450690917670727
1782831858487322400,9.226322265625,-0.00030781421810388565,-0.002858527936041355,0.0003683120012283325
1782831858497251600,9.23625146484375,-0.00029449816793203354,-0.0023141782730817795,-0.0012053493410348892
1782831858507181300,9.246181396484374,0.001952693797647953,0.002329743467271328,-0.0028244834393262863
1782831858517110300,9.2561103515625,0.0006591957062482834,-0.001197613775730133,-0.0006856988184154034
1782831858527039500,9.26603955078125,0.000010009855031967163,-0.0019545936957001686,0.0006180442869663239
1782831858536968400,9.275968505859375,0.00014396756887435913,-0.001127682626247406,-0.0028491253033280373
1782831858546897400,9.2858974609375,0.0017158333212137222,0.001722722314298153,0.0008386056870222092
1782831858556827400,9.295827392578126,0.0009754747152328491,-0.0003068726509809494,0.0007363399490714073
1782831858566756600,9.305756591796875,-0.003200031816959381,0.0016173627227544785,0.0002307174727320671
1782831858576685300,9.315685302734375,0.001498316414654255,0.0004953732714056969,0.0007923776283860207
1782831858586614300,9.3256142578125,-0.0009067058563232422,0.002850842662155628,0.0003657704219222069
1782831858596543200,9.335543212890625,-0.0009083040058612823,0.0018068831413984299,-0.002043058630079031
1782831858606473500,9.345473388671875,-0.000126643106341362,0.0012903930619359016,0.0014210036024451256
1782831858616402400,9.35540234375,-0.0008073467761278152,0.001504777930676937,0.0020164866000413895
1782831858626331400,9.365331298828124,-0.0016488004475831985,-0.0006433175876736641,0.0013181045651435852
1782831858636260600,9.375260498046876,0.0006311312317848206,0.0006762780249118805,-0.0002092183567583561
1782831858646189600,9.385189453125,-0.00204511359333992,-0.001463419757783413,-0.0016945963725447655
1782831858656119300,9.395119384765625,0.0017307158559560776,0.001490558497607708,-0.0016115056350827217
1782831858666048500,9.405048583984374,0.0000985264778137207,-0.0008488399907946587,-0.0014547738246619701
1782831858675977500,9.4149775390625,-0.0013057580217719078,-0.0015021134167909622,-0.0007578246295452118
1782831858685906400,9.424906494140625,0.000010222196578979492,0.0021221674978733063,-0.0009255879558622837
1782831858695835400,9.43483544921875,-0.0019493317231535912,-0.0008270172402262688,-0.00237727677449584
1782831858705765400,9.444765380859375,0.0003297841176390648,0.000554126687347889,-0.0017893621698021889
1782831858715694300,9.4546943359375,-0.0007786238566040993,-0.0009572170674800873,-0.000995740294456482
1782831858725623300,9.464623291015625,-0.00024804752320051193,-0.001383453607559204,-0.001206795684993267
1782831858735552300,9.47455224609375,0.00000708363950252533,0.0011508101597428322,-0.0005295537412166595
1782831858745481500,9.4844814453125,0.0007122652605175972,0.00005741789937019348,-0.001752991694957018
1782831858755411500,9.494411376953124,0.0010044137015938759,0.0003405120223760605,-0.00030982494354248047
1782831858765340400,9.50434033203125,0.0008340310305356979,0.0028742803260684013,-0.0018630367703735828
1782831858775269400,9.514269287109375,0.00031364988535642624,0.0019536251202225685,0.00023553427308797836
1782831858785198300,9.5241982421875,-0.0011355327442288399,0.0011804867535829544,-0.0028735282830893993
1782831858795127300,9.534127197265626,0.0006059082224965096,-0.00027999095618724823,-0.0010372786782681942
1782831858805057300,9.544057373046876,-0.002003176137804985,-0.0014089392498135567,0.002169486600905657
1782831858814986200,9.553986328125,-0.00034349411725997925,0.0004307720810174942,0.000059996265918016434
1782831858824915500,9.56391552734375,-0.00002362951636314392,0.00031091831624507904,0.00019112741574645042
1782831858834844400,9.573844482421874,-0.0007629226893186569,-0.0003932211548089981,0.00047661876305937767
1782831858844773400,9.5837734375,-0.0004935180768370628,-0.0009241942316293716,-0.00211003003641963
1782831858854703400,9.593703369140625,-0.0024059340357780457,-0.0039751119911670685,-0.00010440358892083168
1782831858864632300,9.60363232421875,-0.0008120769634842873,-0.0016851956024765968,0.0010473686270415783
1782831858874561300,9.613561279296874,0.0010832948610186577,-0.0023227566853165627,-0.0008277627639472485
1782831858884490200,9.623490234375,0.00038222409784793854,-0.000418858602643013,-0.002072432544082403
1782831858894419500,9.63341943359375,0.0006788996979594231,0.000585152767598629,0.0006509157828986645
1782831858904349400,9.643349365234375,-0.0020875437185168266,-0.0033970000222325325,0.0018072784878313541
1782831858914278100,9.653278076171874,-0.0013104332610964775,-0.0003586001694202423,0.0009681168012320995
1782831858924207400,9.663207275390626,-0.00025240518152713776,-0.0015215082094073296,0.0023316568695008755
1782831858934136300,9.67313623046875,0.00029780343174934387,0.001077471300959587,-0.000423382967710495
1782831858944065300,9.683065185546875,-0.0014967219904065132,0.0013568559661507607,0.0006179842166602612
1782831858953995300,9.692995361328125,0.0026554130017757416,0.0012665754184126854,0.00017510028555989265
1782831858963924500,9.702924560546874,0.0015049465000629425,0.000055291689932346344,-0.0015898044221103191
1782831858973853400,9.712853515625,0.0013590054586529732,0.002261454239487648,0.000022206921130418777
1782831858983782400,9.722782470703125,-0.00032267533242702484,-0.00125160813331604,0.0007270071655511856
1782831858993711400,9.73271142578125,-0.0004007052630186081,-0.0011069988831877708,0.0010423250496387482
1782831859003641300,9.742641357421874,-0.0007837815210223198,-0.00001618172973394394,-0.00004603154957294464
1782831859013570300,9.7525703125,-0.0016535697504878044,0.0006259065121412277,0.00014544976875185966
1782831859023499300,9.762499267578125,0.00022071599960327148,0.0005107959732413292,-0.0007397276349365711
1782831859033428500,9.772428466796875,-0.0014136666432023048,-0.001031174324452877,-0.0021530669182538986
1782831859043357400,9.782357421875,-0.0010305903851985931,-0.0022708596661686897,-0.00018398556858301163
1782831859053287200,9.792287109375,-0.0003602728247642517,-0.0005824156105518341,-0.002836494240909815
1782831859063216400,9.80221630859375,-0.0027332203462719917,-0.00032541994005441666,-0.0026128236204385757
1782831859073145300,9.812145263671875,-0.0012370562180876732,-0.0006979955360293388,-0.0006189150735735893
1782831859083074300,9.82207421875,0.0010144012048840523,-0.00002226792275905609,-0.0018235612660646439
1782831859093003300,9.832003173828125,0.00024661142379045486,-0.00011974014341831207,0.002466791309416294
1782831859102933500,9.84193359375,0.0016594650223851204,-0.00016856472939252853,0.00024095922708511353
1782831859112862500,9.851862548828125,0.0002597076818346977,0.0009931065142154694,-0.000871709082275629
1782831859122791200,9.861791259765624,-0.0023024724796414375,0.00004340521991252899,-0.0013005323708057404
1782831859132720000,9.87172021484375,0.00009224191308021545,-0.001822139136493206,-0.0010438035242259502
1782831859142649300,9.8816494140625,-0.0007362952455878258,-0.0003901226446032524,-0.0025163572281599045
1782831859152579300,9.891579345703125,0.00002883095294237137,-0.0010777506977319717,-0.0007903627119958401
1782831859162508300,9.90150830078125,0.001324426382780075,0.0015083644539117813,-0.0002601523883640766
1782831859172437500,9.9114375,-0.0011286120861768723,0.0003791842609643936,-0.000680132769048214
1782831859182366500,9.921366455078125,-0.003463946282863617,0.001701301895081997,-0.0015665735118091106
1782831859192295400,9.93129541015625,0.0017294837161898613,0.008407674729824066,0.0045333970338106155
1782831859202225400,9.941225341796875,0.000029428862035274506,0.001611185260117054,0.0011605732142925262
1782831859212154400,9.951154296875,-0.0011311769485473633,0.004565163515508175,0.0002465769648551941
1782831859222083300,9.961083251953125,0.0009094355627894402,-0.001666054129600525,-0.0017613722011446953
1782831859232012300,9.97101220703125,-0.0006887279450893402,-0.005097803194075823,-0.002418107818812132
1782831859241941500,9.98094140625,0.0009300988167524338,-0.00722636329010129,-0.0020049395971000195
1782831859251871200,9.990871337890624,-0.0004576742649078369,-0.004564001224935055,0.0019826116040349007
1782831859261800200,10.00080029296875,-0.00039501115679740906,-0.0012673791497945786,-0.0002990858629345894
1782831859271729200,10.010729248046875,-0.0011484194546937943,0.000011737458407878876,0.002350493334233761
1782831859281658400,10.020658447265625,-0.0003601387143135071,0.00008517224341630936,-0.0000171661376953125
