time,seconds_elapsed,z,y,x
1782836931985455900,0.082455810546875,-0.24002105451822278,-0.7750807018995285,0.6707644412480295
1782836931995384600,0.092384521484375,-0.29278233836889267,-0.6527413663666695,0.5722546018529683
1782836932005313500,0.1023134765625,-0.4719850593090057,-0.6440875928550959,0.5172201854385435
1782836932015242800,0.11224267578125,-0.5013543616563081,-0.7362166451718658,0.5421373306825756
1782836932025171700,0.122171630859375,-0.29657179377973075,-0.7210113311249763,0.5851717318974435
1782836932035100700,0.1321005859375,-0.28149755876660343,-0.6240829157024621,0.6511597231984139
1782836932045029600,0.142029541015625,-0.24706220520138739,-0.6005475071404129,0.6378438761599362
1782836932054958800,0.151958740234375,-0.11883330017328261,-0.5737710708305239,0.533310611756891
1782836932064887800,0.1618876953125,-0.10577449663579463,-0.4401916716199368,0.3861284383252263
1782836932074816800,0.171816650390625,-0.19101415476500988,-0.3342184375416487,0.369333845792897
1782836932084745700,0.181745849609375,-0.2060398744612932,-0.37320955471508205,0.45420898145865646
1782836932094674700,0.1916748046875,-0.09208440945744514,-0.3599936609197408,0.3751709544485435
1782836932104603600,0.201603759765625,0.0017658406287431715,-0.17999591714441776,0.2411971856255084
1782836932114532600,0.21153271484375,0.06421031410396098,0.01360796185284853,0.1623784639218822
1782836932124461600,0.221461669921875,0.0953629927366972,0.1306795130506158,0.07297858084067702
1782836932134390500,0.231390625,-0.023783611169457434,0.18218714357838034,0.013938545514084398
1782836932144319700,0.24131982421875,0.1412082135885954,0.19273169927261768,0.05949899460785091
1782836932154248700,0.251248779296875,0.18174656020402907,0.2079612709779292,0.10721311460416763
1782836932164177700,0.261177734375,0.12490180643200874,0.2155490957584232,0.15894341143928467
1782836932174106600,0.271106689453125,0.19975918675661086,0.21569946401454507,0.09079488110356032
1782836932184035800,0.281035888671875,0.292654912596941,0.2460893415812403,-0.0017550635064020753
1782836932193964800,0.29096484375,0.3088882545173168,0.2721663974501192,-0.016310023885779082
1782836932203893800,0.300893798828125,0.4171428775310516,0.22521116952970624,-0.03952153425570577
1782836932213822700,0.31082275390625,0.48314884288012977,0.22612265835143625,-0.06321162192281335
1782836932223751700,0.320751708984375,0.394665088263154,0.24872246656380592,0.024980127477645872
1782836932233680600,0.3306806640625,0.3268096956551075,0.2215486284341663,0.08221433722497895
1782836932243609600,0.340609619140625,0.33222646000683304,0.22558519047386943,0.06471930480571464
1782836932253538600,0.35053857421875,0.15098141958415506,0.28767500529251994,0.032339970454853026
1782836932263467800,0.3604677734375,-0.018439327532052994,0.31960115251578386,0.013271058048680423
1782836932273396700,0.370396728515625,-0.07451134336590766,0.29768823058903215,-0.0520415730076842
1782836932283325700,0.38032568359375,-0.07789514058530331,0.32448037592470647,-0.12863503814358263
1782836932293254700,0.390254638671875,-0.16322130795419215,0.35795755198225376,-0.16772822745200244
1782836932303184000,0.400183837890625,-0.24592297203838823,0.33809418299645183,-0.16721154663413762
1782836932313112800,0.41011279296875,-0.2930921349704265,0.2818206532411277,-0.1037000832482241
1782836932323041800,0.420041748046875,-0.23387071519494054,0.2317127334434539,-0.06604812399037181
1782836932332970500,0.429970458984375,-0.10589023196995258,0.19949140266589818,-0.10732294992050155
1782836932342899700,0.439899658203125,-0.026160277172923088,0.21442776357829568,-0.12690693570934236
1782836932352828700,0.44982861328125,0.004471592456102371,0.1845517538178712,-0.07523764834646135
1782836932362757600,0.459757568359375,0.03568973754048347,0.07946757753379642,-0.05102684300718829
1782836932372686600,0.4696865234375,0.22736147943139076,0.00044978959411382674,-0.14083744404744356
1782836932382615800,0.47961572265625,0.39832244172692294,-0.013341127610206603,-0.22043036499395965
1782836932392544800,0.489544677734375,0.5619190127342939,-0.05793561774864792,-0.22289215199761092
1782836932402473700,0.4994736328125,0.742736767655611,-0.1319718909487128,-0.22942281414167953
1782836932412402700,0.509402587890625,0.7199801614463329,-0.2497523941334337,-0.2223209279809147
1782836932422332000,0.519331787109375,0.7251286302506923,-0.38129648812413214,-0.19154117431379852
1782836932432260900,0.5292607421875,0.7555266911238432,-0.46719570614062245,-0.21030109383603557
1782836932442189600,0.539189453125,0.7195213117629289,-0.493504817199707,-0.27686843766123054
1782836932452118500,0.549118408203125,0.5878688620269298,-0.5570421274129301,-0.3535519374344498
1782836932462047700,0.5590478515625,0.6029945349663496,-0.6537962091818451,-0.4184379953755066
1782836932471976700,0.568976806640625,0.5920306578814983,-0.7040931487455964,-0.42998840364404023
1782836932481905700,0.57890576171875,0.5138251361727714,-0.7434876590881496,-0.44590522696115076
1782836932491834600,0.588834716796875,0.44477790343165396,-0.7951680888995528,-0.5658516760081053
1782836932501763800,0.598763916015625,0.44290509529709815,-0.8324038868382573,-0.6982012411627918
1782836932511692800,0.60869287109375,0.45719548645615576,-0.8603732592597604,-0.686531919222325
1782836932521621800,0.618621826171875,0.46096857525408264,-0.8690433993842452,-0.6105606593716889
1782836932531550700,0.62855078125,0.5535585961461067,-0.9127687785379588,-0.5612066997464746
1782836932541479700,0.638479736328125,0.6103314537256955,-0.9720762691617011,-0.5640418135745451
1782836932551408600,0.64840869140625,0.6264660114467143,-1.0368483818668872,-0.5922147457441315
1782836932561337600,0.658337646484375,0.6281921045869588,-1.0917487235728651,-0.5515067051175981
1782836932571266600,0.6682666015625,0.5300988101035357,-1.127219630730897,-0.47698283106368033
1782836932581195500,0.678195556640625,0.4037222549438476,-1.1430037675790488,-0.5066602495120838
1782836932591124700,0.688124755859375,0.3389034535527229,-1.1088779183544217,-0.5760585607131943
1782836932601053700,0.6980537109375,0.051471244040131564,-1.1063681274905801,-0.49405335446055976
1782836932610982700,0.707982666015625,-0.25267244629859925,-1.178356162923947,-0.39170455795712766
1782836932620911600,0.71791162109375,-0.4388976132214069,-1.2871888050213456,-0.38822829668130726
1782836932630840800,0.7278408203125,-0.5805488944023848,-1.2781956434875725,-0.3661998586161062
1782836932640769800,0.737769775390625,-0.7236790159642696,-1.1920383590567856,-0.3332035614106804
1782836932650698800,0.74769873046875,-0.802125945213437,-1.1158445424966514,-0.3479474684908986
1782836932660627700,0.757627685546875,-0.8828203611284494,-1.088224129643291,-0.3608757044512778
1782836932670556700,0.767556640625,-0.9352309318453073,-1.0907743986479936,-0.37152803136892615
1782836932680485600,0.777485595703125,-0.9041764528900385,-1.0115104539275168,-0.3075387396045029
1782836932690414600,0.78741455078125,-0.993210827127099,-0.9060693539645522,-0.2468509736035019
1782836932700343600,0.797343505859375,-1.0414929197371006,-0.8626018220294266,-0.2514436351560056
1782836932710272800,0.807272705078125,-1.0259458065152167,-0.7640646562360227,-0.2439507951825857
1782836932720201700,0.81720166015625,-1.1491893243461846,-0.6201954067446291,-0.2620901168547571
1782836932730131700,0.827131591796875,-1.2366618560940026,-0.5402952830124647,-0.27488530101999636
1782836932740061000,0.83706103515625,-1.2216250304818153,-0.49780835961252445,-0.24612222093753516
1782836932749989600,0.84698974609375,-1.153847379285097,-0.4369331082154065,-0.23025435132868585
1782836932759918600,0.856918701171875,-1.1723533423125743,-0.34156492784693837,-0.21613661332279444
1782836932769847600,0.86684765625,-1.2152087336987256,-0.19233137484341858,-0.20157317737601696
1782836932779777000,0.876777099609375,-1.3903385061115026,-0.07876308252625167,-0.22184790364168583
1782836932789706000,0.8867060546875,-1.5631459730565547,-0.05161532868593931,-0.09325290524754673
1782836932799635000,0.896635009765625,-1.7195459105581044,-0.015757541102170942,0.06007306816875934
1782836932809564000,0.90656396484375,-1.742337003558874,0.14279657875858245,0.05345967791099101
1782836932819493000,0.9164931640625,-1.6032196247696875,0.4077496107637882,0.1559447410799563
1782836932829422000,0.926422119140625,-1.5190116477757691,0.6077917061150073,0.2339007450070232
1782836932839351000,0.93635107421875,-1.3287632166862486,0.6816160901300609,0.2514983244853094
1782836932849280000,0.946280029296875,-0.9968564901530742,0.7403848707672208,0.24106691030934452
1782836932859209000,0.956208984375,-0.660085372453928,0.7863460461489856,0.19915910197161138
1782836932869138000,0.966137939453125,-0.25092589489221573,0.7844823711689561,0.1403833801370114
1782836932879067000,0.97606689453125,-0.05432137277424335,0.769111199035868,0.10789857611767947
1782836932888995800,0.985995849609375,0.19917057321369647,0.6886926774527877,0.1328162693509832
1782836932898925000,0.995925048828125,0.6124462539225817,0.5875207061763853,0.16622982385409996
1782836932908854000,1.00585400390625,0.9807809691429138,0.5666727100674063,0.22946475358726456
1782836932918783000,1.015782958984375,1.1836287695646286,0.6571189969290048,0.3380506726482883
1782836932928712000,1.0257119140625,1.2726456081449984,0.7336847886066883,0.39950792518444356
1782836932938641200,1.03564111328125,1.3521540291458367,0.7825395665381103,0.36024332483187316
1782836932948570000,1.045570068359375,1.2522586536765097,0.8239071305193006,0.24565770869832484
1782836932958499000,1.0554990234375,1.2143839733123778,0.8236402232114225,0.15634199676923452
1782836932968427800,1.065427734375,1.1732073287934064,0.7332210435524582,0.20740666930247098
1782836932978356700,1.075356689453125,1.2622580696433783,0.5977426057875156,0.282486515005026
1782836932988286000,1.085285888671875,1.3623410766392945,0.5064101837411522,0.378915145945549
1782836932998215000,1.09521484375,1.26898708563745,0.4191796440556645,0.47646720969174056
1782836933008144000,1.105143798828125,1.1001356628417969,0.3131201929986477,0.5936485048742964
1782836933018072800,1.11507275390625,0.9940250661194324,0.2045680483430624,0.7385288676369934
1782836933028002000,1.125001953125,0.7739765400499105,0.12615078357979653,0.713773781086877
1782836933037931000,1.134930908203125,0.5661410143435001,0.1588591672219336,0.6161935506921261
1782836933047860000,1.14485986328125,0.26580840672552586,0.22273118928223848,0.5115285131355747
1782836933057789000,1.154788818359375,-0.03688742289245128,0.20161044064648448,0.4002235991731286
1782836933067718100,1.16471826171875,-0.20544132404625415,0.15411723339185118,0.42723168881442397
1782836933077646800,1.174646728515625,-0.4885995095014572,0.11904482403211294,0.5398274828376248
1782836933087575800,1.184575927734375,-0.5070937820911408,0.12632855129949747,0.5511632985074073
1782836933097504800,1.1945048828125,-0.3820569511026144,0.2094111044600606,0.5846020057180896
1782836933107434000,1.20443408203125,-0.49971945393085476,0.2447582391079515,0.6068637045498937
1782836933117363000,1.214363037109375,-0.35508886467814443,0.11384864362850784,0.6422138348724693
1782836933127292000,1.2242919921875,-0.03584755845069885,0.008474909813329577,0.5814484370579943
1782836933137220900,1.234220947265625,0.19094751926958559,0.01074775011613965,0.5666060015067458
1782836933147150000,1.244150146484375,0.4030529773801565,-0.06241561270691454,0.5950437951575964
1782836933157079000,1.2540791015625,0.6780477301239967,-0.24401859972178935,0.596796264848113
1782836933167008000,1.264008056640625,0.7201473347067833,-0.39148784646652635,0.6230100988391787
1782836933176937000,1.27393701171875,0.6902186449110508,-0.4715811546832323,0.5345956465987488
1782836933186866000,1.283865966796875,0.7323012983590365,-0.5277944786839187,0.33756091636996716
1782836933196795000,1.293794921875,0.7197966215729713,-0.5113431100986897,0.292192592314817
1782836933206723800,1.303723876953125,0.6729851860374212,-0.5023647077426314,0.3555307632267475
1782836933216652800,1.31365283203125,0.6029933659225702,-0.5443961424600333,0.43990379458926615
1782836933226582000,1.32358203125,0.594759790584445,-0.5312284717205912,0.4456098972763866
1782836933236511000,1.333510986328125,0.5170721552699804,-0.4927917735595256,0.40950321296546605
1782836933246440000,1.34343994140625,0.362697001594305,-0.5254186163980513,0.3946859849207103
1782836933256369000,1.353368896484375,0.19224632690846918,-0.5683595671758055,0.45013581373561173
1782836933266298000,1.363298095703125,0.12258476166129112,-0.6006900574162602,0.4360820078114047
1782836933276227000,1.37322705078125,0.01668050116598606,-0.580897269448638,0.38531292069125916
1782836933286156000,1.383156005859375,-0.1215530805259943,-0.5309101995516569,0.3318855010820553
1782836933296085000,1.3930849609375,-0.14170388815104962,-0.4958756379842758,0.3016098792784847
1782836933306014000,1.403013916015625,-0.19334931971430777,-0.46842838974073525,0.3077004329722374
1782836933315943000,1.41294287109375,-0.32631109848320483,-0.45934674620591104,0.32733971087858077
1782836933325871900,1.422871826171875,-0.5071686008930206,-0.47184382420741017,0.3272076454641297
1782836933335800800,1.43280078125,-0.7960475020825862,-0.47260384879447515,0.2752674687379971
1782836933345730000,1.44272998046875,-0.9338964683711528,-0.425339774120599,0.17251856700107454
1782836933355659000,1.452658935546875,-0.9546540097177028,-0.3105756961476058,0.10254435560815035
1782836933365588000,1.462587890625,-1.0922785196006297,-0.1711154952701181,0.04829528088513761
1782836933375517000,1.472516845703125,-1.1476198830723763,-0.12052585637010634,0.05099223748468794
1782836933385446100,1.482446044921875,-1.0767203004628418,-0.07847761664837598,0.07683808754673227
1782836933395375000,1.492375,-1.0046347229391337,-0.018024974577501414,0.023191033837478607
1782836933405304000,1.502303955078125,-1.080556517624855,0.03913476342782378,-0.04504287322675809
1782836933415233000,1.51223291015625,-1.3854612554639576,0.041781624674797055,-0.08424545946009457
1782836933425161700,1.52216162109375,-1.7697551718384026,-0.05382321399375796,-0.16388890501745043
1782836933435091000,1.532091064453125,-2.1448025364398955,-0.19292188808247446,-0.25211793595468623
1782836933445020000,1.54202001953125,-2.555584062245488,-0.3052158496148884,-0.18829554345607757
1782836933454948900,1.551948974609375,-2.71095407217741,-0.3726404495902359,-0.017238756103254853
1782836933464879000,1.561879150390625,-2.536083242961764,-0.3567386046465486,0.1432592278342694
1782836933474807000,1.57180712890625,-2.183869641458988,-0.16441212517395615,0.26130356958694756
1782836933484737000,1.581737060546875,-1.6637392676621674,0.14565627903863787,0.22559958432540297
1782836933494666000,1.591666015625,-1.1700550022423266,0.4036543773394078,0.2089558897721581
1782836933504595000,1.601594970703125,-0.7598702732861041,0.4566922131091356,0.19415155774159357
1782836933514524000,1.61152392578125,-0.3338818259984255,0.3960727631039917,0.14887487575896083
1782836933524452900,1.621452880859375,-0.029476854375004767,0.40056364478245376,0.2239694258403033
1782836933534381800,1.6313818359375,0.3982166432648897,0.4502195099636912,0.3205205323830247
1782836933544311000,1.64131103515625,0.8463613927811384,0.49222091486901043,0.4049824841380119
1782836933554240000,1.651239990234375,1.1720727718055248,0.5111516791798174,0.4406815374961123
1782836933564169000,1.6611689453125,1.2749147221207617,0.4632791902840137,0.4019633189799264
1782836933574098000,1.671097900390625,1.3489338980555534,0.3845183727800846,0.3884899432921782
1782836933584027100,1.681027099609375,1.5036597648650407,0.34576077210158107,0.3452981960911304
1782836933593956000,1.6909560546875,1.661670060172677,0.34637539686858654,0.233048804352805
1782836933603885000,1.700885009765625,1.6328940475434064,0.3352442003928125,0.1477816736947745
1782836933613813800,1.710813720703125,1.5396429323941467,0.27071824446842074,0.0970507996931672
1782836933623743000,1.720742919921875,1.3895686907827853,0.22109189764261244,-0.01547317120283842
1782836933633672000,1.730671875,1.1353566138267517,0.19160744448304176,-0.02949658198878169
1782836933643601000,1.740600830078125,0.6740723967522382,0.11213467931747435,0.009724617613479494
1782836933653529900,1.75052978515625,0.2988105126172304,0.017114362538605928,-0.04066796434447169
1782836933663459000,1.760458984375,0.09486965626180172,0.046727848905324935,-0.20243600475043058
1782836933673388000,1.770387939453125,-0.21750819393694398,0.17827786118015646,-0.21473945987597107
1782836933683317000,1.78031689453125,-0.544333671683073,0.21226298675984143,-0.17182978101931512
1782836933693246000,1.790245849609375,-0.8133692237615585,0.17091551571860908,-0.2564668701454997
1782836933703175200,1.800175048828125,-0.9417875138819217,0.14390359015241264,-0.3208072403699159
1782836933713104100,1.810104248046875,-1.077425233861804,0.07836392714083194,-0.3443054221941158
1782836933723032800,1.82003271484375,-0.9925660994827746,-0.013339666305482386,-0.32348142801523205
1782836933732961800,1.8299619140625,-0.696643125000596,-0.04257204440012574,-0.2526061395967379
1782836933742891000,1.83989111328125,-0.32148353219628334,-0.0317993790384382,-0.24735771754924207
1782836933752820000,1.849820068359375,0.10695639989674091,-0.03828231131695211,-0.29837277878709134
1782836933762749000,1.8597490234375,0.467336941242218,-0.09218187848255038,-0.34214367758296427
1782836933772678000,1.869677978515625,0.7740279779762029,-0.22204459525756537,-0.4209058102611452
1782836933782606800,1.87960693359375,1.07655604981184,-0.3667022186476737,-0.45089777455143626
1782836933792535800,1.889535888671875,1.2565227408617734,-0.5213784741617739,-0.4126975154947489
1782836933802464800,1.89946484375,1.5696739135205744,-0.6080971918676048,-0.3538296583972871
1782836933812394000,1.90939404296875,1.7482354139477014,-0.5867119470767677,-0.37845432350076735
1782836933822323000,1.919322998046875,1.675648316642642,-0.5515996440980583,-0.44842619680613277
1782836933832252000,1.929251953125,1.656955306610465,-0.5469960227601229,-0.48013110249415036
1782836933842180600,1.9391806640625,1.6537001042068005,-0.5653935569770634,-0.5488086982052773
1782836933852109800,1.94910986328125,1.5510504615932703,-0.584100303273648,-0.629737872724235
1782836933862038800,1.959038818359375,1.3360463594317435,-0.6389265568301081,-0.6172039698436856
1782836933871967700,1.9689677734375,1.2155424956977368,-0.6788197374098003,-0.5908608834497631
1782836933881896700,1.978896728515625,0.9133715667366981,-0.6732006554190069,-0.5634101280748843
1782836933891826000,1.988825927734375,0.5671013838082551,-0.6673620854586363,-0.6101701987493783
1782836933901755000,1.9987548828125,0.4626870696097612,-0.665285352249816,-0.7147010519996285
1782836933911683800,2.008683837890625,0.3397825744748115,-0.6311987390570342,-0.7751534748747945
1782836933921612800,2.01861279296875,0.20345804127454756,-0.5485294428724795,-0.7753783696718514
1782836933931542000,2.0285419921875,-0.06134206519126892,-0.5459926178712398,-0.7228436611186713
1782836933941471000,2.038470947265625,-0.21823300108015536,-0.5910120554234832,-0.6518555965080857
1782836933951399700,2.048399658203125,-0.20144494788646697,-0.53046837406829,-0.6869396232403815
1782836933961328600,2.05832861328125,-0.3249906635344028,-0.4070899047460407,-0.7235857847228646
1782836933971257900,2.0682578125,-0.4379746531575918,-0.40025859742127357,-0.6802325998824089
1782836933981186800,2.078186767578125,-0.5815776529282332,-0.4971401049621403,-0.6560607931129634
1782836933991115800,2.08811572265625,-0.7155126606434583,-0.5960699233349412,-0.6648768445141613
1782836934001044700,2.098044677734375,-0.9403577733397483,-0.6479300205621868,-0.6201810859583318
1782836934010974000,2.107973876953125,-1.0088000259250403,-0.6684171474695205,-0.5328824494726956
1782836934020903000,2.11790283203125,-1.0178092618107795,-0.5874463257659226,-0.42054822899512945
1782836934030831900,2.127831787109375,-1.1880401562660932,-0.4157100682489574,-0.3425240552026778
1782836934040760800,2.1377607421875,-1.2812146990478037,-0.24246472134329378,-0.3801419112615287
1782836934050690000,2.14768994140625,-1.318600134590268,-0.09680610421709716,-0.42643706783801316
1782836934060618800,2.15761865234375,-1.466485926246643,0.023341639555618167,-0.49042796703763303
1782836934070547700,2.167547607421875,-1.589505572193861,0.04699775188788771,-0.4707770717587322
1782836934080476700,2.1774765625,-1.6309376527786255,0.06448540471829474,-0.4107496693626046
1782836934090406000,2.187406005859375,-1.6425170314133166,0.09547346737384796,-0.3880398249045014
1782836934100335900,2.1973359375,-1.5478735851228236,0.1264481590911746,-0.35715536875389514
1782836934110264800,2.207264892578125,-1.563986515533924,0.14123773194402456,-0.3137360598746687
1782836934120193800,2.21719384765625,-1.6015706885188816,0.0974943056769669,-0.19984774182289838
1782836934130123000,2.227123046875,-1.7122539999842643,0.09451192886531352,-0.06399089919961988
1782836934140052000,2.237052001953125,-1.8882798444539308,0.18913170201927423,0.04832227848991751
1782836934149980700,2.246980712890625,-2.1231068374603987,0.29927126199677584,0.19782799949832258
1782836934159909600,2.25690966796875,-2.432816345232725,0.37668139554411173,0.29008586582653223
1782836934169838800,2.2668388671875,-2.5518793625086547,0.43650881838873024,0.32157416962180285
1782836934179767800,2.276767822265625,-2.423025019058585,0.5334753007993102,0.31767818509656937
1782836934189696800,2.28669677734375,-2.1241794351279735,0.6513249967627227,0.36137477654721584
1782836934199625700,2.296625732421875,-1.6829437343478202,0.7416434925261884,0.29912863865569234
1782836934209555000,2.306554931640625,-1.1493640963912009,0.8405416005864739,0.24388748415540903
1782836934219484000,2.31648388671875,-0.6928986777752637,0.9010196693595498,0.27371161759812385
1782836934229412900,2.326412841796875,-0.287568987634778,0.931620924654603,0.3564486817892641
1782836934239341800,2.336341796875,0.07417056710422039,1.0017069989241658,0.4081337147105485
1782836934249271000,2.34627099609375,0.3575076162576675,1.0982084941715002,0.4263079250330105
1782836934259199700,2.35619970703125,0.7667378209680319,1.1002737561382352,0.3810653097167611
1782836934269128700,2.366128662109375,1.2237041748434305,1.1307163868054746,0.31506270536854863
1782836934279057700,2.3760576171875,1.6464000103265046,1.2546265518516302,0.31744784693941475
1782836934288987000,2.38598681640625,1.9853671767652035,1.3383835702076554,0.42547794048227366
1782836934298915800,2.395915771484375,2.233333637329936,1.2494247454248368,0.5859944099245593
1782836934308844800,2.4058447265625,2.476741411677003,1.0954198863662779,0.7416220844119786
1782836934318773800,2.415773681640625,2.6524060216188428,1.0114863423995673,0.7426316267807036
1782836934328703000,2.425702880859375,2.5950112327486274,0.9904556832000613,0.696271588274464
1782836934338632000,2.4356318359375,2.2859569740146397,0.9264917450726031,0.663357379861921
1782836934348561000,2.445560791015625,2.1149042417824266,0.7910857880219817,0.7284300829488783
1782836934358489900,2.45548974609375,1.7548744135707617,0.7361740481391549,0.756325148025155
1782836934368418800,2.465418701171875,1.0648469073176383,0.733818424923718,0.6826973094955087
1782836934378347800,2.47534765625,0.8219032433509826,0.6917692353539169,0.6708646136868744
1782836934388276700,2.48527685546875,0.511101264166832,0.7174057809136808,0.7362294315882026
1782836934398205700,2.495205810546875,0.025776246291399,0.7448375393271446,0.8056128374811261
1782836934408135000,2.505135009765625,-0.33081191703379154,0.7362810156449675,0.7832705111611634
1782836934418064000,2.51506396484375,-0.5514537328213452,0.6959082348547876,0.7270712887510656
1782836934427992800,2.524992919921875,-0.7195663199484348,0.6825682762883604,0.6774255796376616
1782836934437921800,2.534921875,-0.6978723745346069,0.6747406514026224,0.637270606316626
1782836934447851000,2.54485107421875,-0.45554947281479835,0.6203456288702786,0.6471813941519707
1782836934457780000,2.554780029296875,-0.220287011000514,0.4849203825972974,0.6839760241944343
1782836934467709000,2.564708984375,0.09979600674808024,0.26903029138147827,0.6842863322526216
1782836934477638000,2.574637939453125,0.22193185559809206,0.027349486957490444,0.6608166093379259
1782836934487566800,2.58456689453125,0.2783329572558403,-0.24500468814969062,0.7104954170033335
1782836934497495800,2.594495849609375,0.6178852301061153,-0.43607415329851207,0.709763595597446
1782836934507424800,2.6044248046875,0.8201882561266421,-0.43979799612723286,0.702381668652594
1782836934517353700,2.614353759765625,0.7843383595883846,-0.3721824036244303,0.7262908058978617
1782836934527282700,2.62428271484375,0.7566577409803867,-0.4314079150531441,0.7332325878597795
1782836934537212000,2.6342119140625,0.6481769079953432,-0.571315640502423,0.6963288714196533
1782836934547140900,2.644140869140625,0.5225087933659553,-0.6280441474836319,0.7503240079142153
1782836934557069800,2.65406982421875,0.45310324870645996,-0.6233187994621694,0.7042186748214065
1782836934566998800,2.663998779296875,0.37474107513129706,-0.6102322311349213,0.6175805480711162
1782836934576928000,2.673927978515625,0.197395964756608,-0.648281829674542,0.5553827793659643
1782836934586857000,2.68385693359375,0.020562895557284355,-0.7447383167363703,0.5017637461747974
1782836934596785700,2.69378564453125,0.059705988422036164,-0.8259413397606462,0.4963698512420058
1782836934606714600,2.703714599609375,-0.009847440275549887,-0.8097372969999909,0.5223740976030007
1782836934616644900,2.713644775390625,-0.1089613099783659,-0.8011630184654146,0.5297488276220857
1782836934626573800,2.72357373046875,0.005154898545145988,-0.8505958885457366,0.4546456923754886
1782836934636502800,2.733502685546875,-0.01864507923722267,-0.8632803058128804,0.44405357121247796
1782836934646432000,2.743431884765625,-0.1860802054941654,-0.9015976153779774,0.4711559880737215
1782836934656361000,2.75336083984375,-0.2357996374309063,-0.9817719529416411,0.39283476756345476
1782836934666290000,2.7632900390625,-0.22249299661219119,-1.0142579990699887,0.3790424621196464
1782836934676218600,2.773218505859375,-0.1787257510781288,-1.0126416499145328,0.4384567010534927
1782836934686147800,2.78314794921875,-0.3089507983595133,-0.9978574838891625,0.40896797357760367
1782836934696076800,2.793076904296875,-0.4842588499486446,-1.0170738602083176,0.3403891985984519
1782836934706005800,2.803005859375,-0.7077052017629146,-0.9939542659055441,0.2506121162353083
1782836934715934700,2.812934814453125,-0.8904828585803508,-0.9175403037887067,0.1718188577665016
1782836934725864000,2.822864013671875,-1.0319009155273438,-0.8166445921704173,0.143714826114662
1782836934735793000,2.83279296875,-1.2920178326129912,-0.7797481091886759,0.17523599099991843
1782836934745721900,2.842721923828125,-1.38193249681592,-0.7729219894956797,0.21092487002387642
1782836934755650800,2.85265087890625,-1.3452391351908444,-0.6279099266447127,0.19767226094733922
1782836934765580000,2.862580078125,-1.4604337866008281,-0.41666839188709853,0.2144566060802899
1782836934775509000,2.872509033203125,-1.4660259075194597,-0.2909612604215741,0.264870650951378
1782836934785438200,2.882438232421875,-1.259348904198408,-0.21557605683058498,0.2715793730760924
1782836934795367200,2.8923671875,-1.260550096681714,-0.09875694602392614,0.32372086279429496
1782836934805296000,2.902296142578125,-1.2749930480539797,-0.08336933421269059,0.4478463145589456
1782836934815225300,2.912225341796875,-1.1967355038970708,-0.1286996643450111,0.5404418153436854
1782836934825154300,2.922154296875,-1.294897771963477,-0.14690905557870865,0.5384817673170939
1782836934835083300,2.932083251953125,-1.5028694912701843,-0.12895181247517465,0.491995837408863
1782836934845012200,2.94201220703125,-1.776795153477788,-0.0762074066940695,0.39713312234450127
1782836934854941200,2.951941162109375,-1.9906237821191548,-0.09368183471672237,0.362947907615453
1782836934864870400,2.961870361328125,-2.0086083516210316,-0.15790909995548427,0.421081093762815
1782836934874799400,2.97179931640625,-1.8685487235456704,-0.1151748507309705,0.45338188298474996
1782836934884728300,2.981728271484375,-1.5982383292257785,0.11954488250873982,0.35477044637873767
1782836934894657000,2.991656982421875,-1.2463976526886225,0.4413347772404551,0.23967169309128075
1782836934904586200,3.001586181640625,-0.7968699243813753,0.7163703003861009,0.15107622172813862
1782836934914515200,3.01151513671875,-0.2848942154675722,0.8473828447833657,0.1678028270581737
1782836934924444200,3.021444091796875,0.23534721748828888,0.8341776915777475,0.28305998577773567
1782836934934373000,3.031373046875,0.6770458596050739,0.7898834264948964,0.4329923347003758
1782836934944302300,3.04130224609375,1.0734183363080023,0.7189926117137074,0.4359103410389274
1782836934954231300,3.051231201171875,1.3963234257400035,0.6386310810148715,0.34264095958061513
1782836934964160300,3.06116015625,1.6234575261563062,0.633946284199506,0.22711656475961206
1782836934974089200,3.071089111328125,1.892665512192249,0.6756755941651761,0.08393010990060866
1782836934984018400,3.081018310546875,2.1014643299728633,0.7555556249573826,-0.024216668824478982
1782836934993947400,3.090947509765625,2.276353863888979,0.7984514944843948,-0.1241319911032915
1782836935003876000,3.1008759765625,2.3850433711886403,0.7953117351539433,-0.10425006354749203
1782836935013805000,3.11080517578125,2.2232032884597777,0.7372188810169696,0.0029790158107876777
1782836935023734300,3.120734375,1.9954361508369445,0.672191113050282,0.053946255851536985
1782836935033663200,3.130663330078125,1.7244114707678555,0.7319388947874307,-0.06411036086082458
1782836935043592200,3.14059228515625,1.2243068169116973,0.900939662925899,-0.16183051118291913
1782836935053521200,3.150521240234375,0.8013660667568445,0.9843252176210283,-0.18685951930359004
1782836935063450400,3.160450439453125,0.23723346962630748,0.9650929861456156,-0.22083763062059877
1782836935073379300,3.17037939453125,-0.5636024357765913,0.869814456821978,-0.23823084663320332
1782836935083309000,3.18030908203125,-1.3303653911858797,0.6828549842752516,-0.29792112602945414
1782836935093238300,3.19023828125,-1.6803192310631274,0.5207679410479963,-0.4779046220837161
1782836935103167200,3.200167236328125,-1.9166285715818403,0.45557387660369275,-0.5958779444267973
1782836935113096200,3.21009619140625,-2.035194745251536,0.4274157036118209,-0.54767289910838
1782836935123025200,3.220025146484375,-1.8494471327126025,0.38723815313279625,-0.43885523538440463
1782836935132954400,3.229954345703125,-1.4590496387660503,0.3968455010421574,-0.5851045849453658
1782836935142883300,3.23988330078125,-0.8442425009310245,0.5588905317585915,-0.7998409760814159
1782836935152812300,3.249812255859375,-0.4384142136186361,0.6646656129162758,-0.7797353958375751
1782836935162741200,3.2597412109375,-0.0675163699120283,0.4617102604668587,-0.6157958566114307
1782836935172670500,3.26967041015625,0.3849626094162464,0.10859525314494967,-0.4340606580516323
1782836935182599400,3.279599365234375,0.8417284722834825,-0.14008936562649904,-0.3435643580358475
1782836935192528100,3.289528076171875,1.1528595372915267,-0.3623951691035181,-0.3360456164361909
1782836935202457000,3.29945703125,1.3847867172032593,-0.5614923117548227,-0.3172317930359393
1782836935212386000,3.309385986328125,1.5838690276116132,-0.6415341820452362,-0.27274324749000367
1782836935222315300,3.319315185546875,1.5771622234493494,-0.6497842701267451,-0.21598412617482243
1782836935232244200,3.329244140625,1.5924416256457565,-0.6576858370315283,-0.2099849588252604
1782836935242173200,3.339173095703125,1.6097691925436257,-0.6178113611523062,-0.24675069156680254
1782836935252102100,3.34910205078125,1.4708867915540933,-0.5555951434750109,-0.23525241534430533
1782836935262031400,3.35903125,1.3541934260189532,-0.5663298149138689,-0.23140089101530611
1782836935271960300,3.368960205078125,1.105308681565523,-0.6110024117898195,-0.2788953038463369
1782836935281889300,3.37888916015625,0.8314455632001161,-0.6557474893800914,-0.3244103794284165
1782836935291818200,3.388818359375,0.6320820977628231,-0.6828752964109182,-0.35167010574322194
1782836935301747200,3.398747314453125,0.3586474339425564,-0.6973305958081036,-0.353066820798628
1782836935311676200,3.40867626953125,0.19252982002496719,-0.6987538335442542,-0.3181481041632592
1782836935321605000,3.418605224609375,0.042321138378977774,-0.7035135952919721,-0.26863858865015205
1782836935331534000,3.4285341796875,-0.0833808785200119,-0.7306575497400015,-0.23535200326126068
1782836935341463300,3.43846337890625,-0.22903145847022532,-0.7395731890581547,-0.22982480080500245
1782836935351392300,3.448392333984375,-0.40217911715507504,-0.7137376137949526,-0.2733178690401837
1782836935361321200,3.4583212890625,-0.46114743895232674,-0.6478244412958621,-0.3698124230900779
1782836935371250200,3.468250244140625,-0.5527221453219652,-0.5498512660607695,-0.4587418756479397
1782836935381179400,3.478179443359375,-0.6418553037583827,-0.5620915197569877,-0.4886341789560392
1782836935391108400,3.4881083984375,-0.653542818942666,-0.6098721656508743,-0.4876364000903442
1782836935401037300,3.498037353515625,-0.6355261007368564,-0.6298869258061051,-0.49140229196250435
1782836935410966300,3.50796630859375,-0.6263666427254676,-0.6992091760963202,-0.4557741484161466
1782836935420895200,3.517895263671875,-0.57373161560297,-0.7407618143208324,-0.4081903037359938
1782836935430824200,3.52782421875,-0.6311036081194877,-0.7039094627417624,-0.3933870676839724
1782836935440753200,3.537753173828125,-0.7641127331614493,-0.659244976107031,-0.32405718207657336
1782836935450682000,3.54768212890625,-0.8334440435409546,-0.6255274884875863,-0.3220380973391235
1782836935460611300,3.557611328125,-0.9622036944448947,-0.5643919787190854,-0.3630707302775234
1782836935470540300,3.567540283203125,-1.0294921008199454,-0.5149559668336063,-0.41211591621451077
1782836935480469200,3.57746923828125,-1.1006827753305435,-0.48881139868646856,-0.4701393949097022
1782836935490398200,3.587398193359375,-1.1513216601997613,-0.4453093799598515,-0.5231292268192396
1782836935500327400,3.597327392578125,-1.1071773980468511,-0.34529746543876827,-0.5597533591330051
1782836935510256400,3.60725634765625,-1.1705325566262006,-0.23265395981632173,-0.5754690703874453
1782836935520185300,3.617185302734375,-1.1709130803763865,-0.23069851489961146,-0.6103240010716021
1782836935530115300,3.627115234375,-1.2430413279980421,-0.28960896902978417,-0.6761804749473929
1782836935540044300,3.637044189453125,-1.4096207142084836,-0.3769312786519527,-0.6326927770070732
1782836935549973200,3.64697314453125,-1.588744524693489,-0.4935621003448963,-0.4520724808866158
1782836935559902200,3.656902099609375,-1.6632336562275885,-0.5548898447498679,-0.3407221568798646
1782836935569831200,3.6668310546875,-1.6844167295098305,-0.4726473226100206,-0.2552254917822778
1782836935579760400,3.676760498046875,-1.7768968602865933,-0.28711422960460187,-0.1497873509613797
1782836935589689300,3.686689453125,-1.8673861095070838,-0.13542802275195717,-0.16034597171358764
1782836935599618300,3.696618408203125,-1.6229051529705523,-0.02526756611689925,-0.26147890788754447
1782836935609547300,3.70654736328125,-1.2907020738393067,0.1725486698783934,-0.24417978163287044
1782836935619476200,3.716476318359375,-0.9311439547926187,0.34248101977854967,-0.11959763560928403
1782836935629405200,3.7264052734375,-0.3766010237842798,0.41927243690565225,0.007318652450293302
1782836935639334100,3.736334228515625,0.1069651677250862,0.5147193085335194,0.05376118160821497
1782836935649263000,3.74626318359375,0.46479719363152977,0.6667860391363502,0.07981131293755024
1782836935659192300,3.7561923828125,0.6971586733072995,0.7889461456447839,0.19677469105310738
1782836935669121300,3.766121337890625,0.8123714448958634,0.8196531263366341,0.3590560512760654
1782836935679050200,3.77605029296875,0.9943734411656856,0.8734678647629917,0.42089649444352834
1782836935688979200,3.785979248046875,1.2770464734524487,1.058378734216839,0.37437216875366863
1782836935698908400,3.795908447265625,1.4998223786592482,1.3343547530829907,0.35011619083210826
1782836935708837400,3.80583740234375,1.7055185542494058,1.5371708431921898,0.3844498010559007
1782836935718766300,3.815766357421875,1.9189327568709849,1.5984581094563006,0.4359028518522158
1782836935728695000,3.825695068359375,1.8378116399765014,1.567432125943154,0.44274314620103683
1782836935738624300,3.835624267578125,1.811640841409564,1.4496337217755615,0.4140198136070743
1782836935748553200,3.84555322265625,1.7915134146600962,1.3838110040389,0.453519136030972
1782836935758482200,3.855482177734375,1.5942472137629984,1.348700819952041,0.4933535721607506
1782836935768411100,3.8654111328125,1.28545540535748,1.2575371786013245,0.5514337860118598
1782836935778340400,3.87534033203125,0.8502811965733766,1.1222387735784054,0.5766903192780911
1782836935788268800,3.885268798828125,0.4589607425630092,1.0116052926041186,0.5683518953260034
1782836935798197800,3.89519775390625,0.0326952318996191,1.007581736176461,0.4986506191229447
1782836935808127000,3.905126953125,-0.5680056391716003,0.9747017953597008,0.4231537718510255
1782836935818056000,3.915055908203125,-1.0486568200170994,0.7979150495201349,0.2911856985609047
1782836935827985000,3.92498486328125,-1.1788286758065223,0.7011302072867751,0.1459604496169835
1782836935837913900,3.934913818359375,-1.26350427031219,0.735186352276057,0.07691210263101383
1782836935847842800,3.9448427734375,-1.0854589027136563,0.7749537145189941,0.10746303424462675
1782836935857771800,3.954771728515625,-0.8309060494959354,0.7126727610424161,0.13460591098042204
1782836935867700700,3.96470068359375,-0.6197860952913761,0.5207296548642217,0.09874848872283473
1782836935877629700,3.974629638671875,-0.3519043894231319,0.2906953029617667,0.045921793219447136
1782836935887559000,3.984558837890625,0.01718728164434433,0.13547186189368365,0.051414107025414706
1782836935897488000,3.99448779296875,0.31781448829472064,0.022309446963667868,0.11094733269643038
1782836935907416800,4.004416748046875,0.564787261646986,-0.09232640151977539,0.12845668590199202
1782836935917345800,4.014345703125,0.8297399283260106,-0.19548107104599474,0.060725832989066836
1782836935927275000,4.02427490234375,0.9756547121703624,-0.24784575679451226,0.013779519027471541
1782836935937204000,4.034203857421875,0.990482278946042,-0.30099823191985486,-0.04331325468886643
1782836935947133000,4.0441328125,1.023854387193918,-0.3614299042679369,-0.05445632426552474
1782836935957062700,4.054062744140625,1.0900099901467561,-0.40160789313837886,0.03766596951689571
1782836935966992000,4.063991943359375,1.063155885490775,-0.38518443547338244,0.06904664821922779
1782836935976920800,4.0739208984375,0.98498426605165,-0.3384755835294723,0.06935739466883242
1782836935986849800,4.083849853515625,0.9064952512264252,-0.32373248016685247,0.00495663602668792
1782836935996778800,4.09377880859375,0.6319926659137011,-0.33258418740332124,-0.055390865169279276
1782836936006708000,4.1037080078125,0.35243805790841576,-0.4338692636653781,-0.02254431516546756
1782836936016637000,4.113636962890625,0.3130459587186575,-0.5019140413656831,-0.01965845753084868
1782836936026566000,4.12356591796875,0.19375147077441215,-0.483144751226902,0.0759617248373106
1782836936036494800,4.133494873046875,-0.03380523896813392,-0.4974971017062664,0.19726799099538475
1782836936046423800,4.143423828125,-0.14712532867789269,-0.5508695031926035,0.16332736214455215
1782836936056352800,4.153352783203125,-0.3508873213350773,-0.572194907554984,0.061378707407228644
1782836936066281700,4.16328173828125,-0.6666945614606141,-0.5810340475708246,0.0367471376389265
1782836936076210700,4.173210693359375,-0.9799988788545131,-0.6317251010186969,0.05436976022692397
1782836936086140000,4.183139892578125,-1.2271341492921113,-0.6353475292995572,0.07092475358340888
1782836936096068900,4.19306884765625,-1.4083657457113266,-0.49792051475010807,0.06827798366798088
1782836936105997800,4.202997802734375,-1.6253531306445597,-0.28714667056947946,0.11462377445315941
1782836936115926800,4.2129267578125,-1.7931074058532714,-0.10357581754773855,0.15482333583459257
1782836936125856000,4.22285595703125,-1.7749702761381863,0.061554100506752724,0.1276553429238498
1782836936135785000,4.232784912109375,-1.7756863154530524,0.22759207331687212,0.07810231706257909
1782836936145714000,4.2427138671875,-1.9349942493557928,0.28889862880334255,-0.02079297113624634
1782836936155642600,4.252642578125,-2.052360984107852,0.17172347110062836,-0.18525887917391956
1782836936165571800,4.26257177734375,-2.165214040827751,-0.006004939503222704,-0.32042613209784027
1782836936175500800,4.272500732421875,-2.4975182422459126,-0.16793737669065595,-0.4719106058333069
1782836936185429800,4.2824296875,-2.719733006438613,-0.3658865914158523,-0.5714327640760689
1782836936195358700,4.292358642578125,-2.718522461605072,-0.49748687257319685,-0.616362623648718
1782836936205288000,4.302287841796875,-2.589361828684807,-0.4890033410619944,-0.4704755315288901
1782836936215217000,4.312216796875,-2.3119728742808103,-0.3628231121920049,-0.4121141261162236
1782836936225145900,4.322145751953125,-1.9632178887993097,-0.16003339863307772,-0.43775147539358583
1782836936235074800,4.33207470703125,-1.4821563735872507,0.08095072876363993,-0.4701132740877568
1782836936245004000,4.342004150390625,-0.8872405156582593,0.3231353910565376,-0.4098067259566858
1782836936254933000,4.35193310546875,-0.3870090205520391,0.47686347900032994,-0.19117321778424082
1782836936264861700,4.36186181640625,0.05036649766862392,0.5154333020217716,-0.05226144456975162
1782836936274790700,4.371790771484375,0.42991526534259317,0.5674903831258415,-0.03496502172881737
1782836936284719900,4.381719970703125,0.7651128501147031,0.6410346350252628,0.03555575416358188
1782836936294648800,4.39164892578125,1.1586416278243064,0.7306624451108277,0.1346282872090116
1782836936304577800,4.401577880859375,1.473060043939948,0.8884237340934574,0.218659154070355
1782836936314506800,4.4115068359375,1.6416168677031993,1.0586208724096418,0.2612544514819048
1782836936324436000,4.42143603515625,1.8545979396045207,1.1854542314261198,0.20117120897900312
1782836936334365000,4.431364990234375,1.9533967520087956,1.2859791369706393,0.05652012492753565
1782836936344294000,4.4412939453125,1.9210890581220388,1.3643053624495862,-0.08628653683364391
1782836936354222800,4.451222900390625,1.94684250805974,1.35369599789083,-0.13668744822852313
1782836936364151800,4.46115185546875,1.951477182123065,1.3102514084398746,-0.15058894966784864
1782836936374081800,4.471081787109375,1.9359142868101595,1.3157546820312738,-0.24246855726819483
1782836936384010800,4.4810107421875,1.8434639666497705,1.3497050285585224,-0.40388500775750724
1782836936393939700,4.490939697265625,1.629681515237689,1.3580652990162372,-0.5938526491442695
1782836936403869000,4.500868896484375,1.2436831330329179,1.2847398044340312,-0.7853372344326227
1782836936413798000,4.5107978515625,0.7350614107221365,1.0995474876902998,-1.0543111194517463
1782836936423726800,4.520726806640625,0.2229325570732355,0.8800655094623565,-1.2380483420163393
1782836936433655800,4.53065576171875,-0.24591069707870483,0.6408446654111146,-1.3132334929905831
1782836936443585000,4.5405849609375,-0.6988689843565226,0.39187107363045215,-1.3808498161457479
1782836936453514000,4.550513916015625,-1.0987357329159975,0.1720065258257091,-1.4710466582909225
1782836936463442700,4.560442626953125,-1.184065991938114,-0.002328442947566509,-1.5171800484344362
1782836936473371600,4.57037158203125,-1.1175444782823323,-0.013327975867688656,-1.4222722521193325
1782836936483300900,4.58030078125,-0.9774246444523333,0.041668738884851335,-1.2699769734576343
1782836936493229800,4.590229736328125,-0.8006167096942662,0.0017637217368930576,-1.1678299466039985
1782836936503158800,4.60015869140625,-0.40984862886965273,-0.17864705981872975,-1.1036448400065302
1782836936513087700,4.610087646484375,-0.06853460704386234,-0.3927270328726619,-0.8932822800405323
1782836936523017000,4.620016845703125,0.03305412833988666,-0.5327398991968483,-0.7431720903329551
1782836936532946000,4.62994580078125,0.41845746726095673,-0.6202073163781314,-0.6558538723640144
1782836936542875000,4.639875,0.8610971896201371,-0.6586219488378614,-0.6613442864738405
1782836936552803800,4.649803955078125,1.1339122602373362,-0.6975185195956379,-0.6194181387618184
1782836936562733000,4.659733154296875,1.3278554541915655,-0.8002647544514387,-0.5932686387112364
1782836936572661800,4.669661865234375,1.4222078085809946,-0.9198316295962781,-0.6250866859175265
1782836936582590700,4.6795908203125,1.4942723433166742,-1.0158285363223403,-0.6205579564467072
1782836936592519700,4.689519775390625,1.426623286935687,-1.0824079907104371,-0.6508192391976714
1782836936602449000,4.699448974609375,1.342667823398113,-1.1464471860311924,-0.6126844465926289
1782836936612377900,4.7093779296875,1.378560390034318,-1.2132629333931952,-0.5807316670907661
1782836936622306800,4.719306884765625,1.3238731065571308,-1.2156512167692184,-0.6184350460086018
1782836936632235800,4.72923583984375,1.1685165406286715,-1.169306156636402,-0.730190882076323
1782836936642165000,4.7391650390625,0.9551672199368476,-1.1657234758440405,-0.8847874234177172
1782836936652094000,4.749093994140625,0.5918266597419977,-1.2247512727435677,-1.0001593310907482
1782836936662023000,4.75902294921875,0.3515297108918428,-1.3136658930584788,-1.0691206391140817
1782836936671952000,4.768951904296875,-0.03636953649818897,-1.4088831937141715,-1.1284791292726992
1782836936681880800,4.778880859375,-0.3039087125390768,-1.4832593663930893,-1.261739890988171
1782836936691809800,4.788809814453125,-0.3244908973187208,-1.463018104005605,-1.3521521294496952
1782836936701738800,4.79873876953125,-0.5063181215435266,-1.4009554694548247,-1.3728608632184565
1782836936711667700,4.808667724609375,-0.7398077284663915,-1.4377595979779958,-1.4309753446653484
1782836936721596700,4.8185966796875,-0.8540671448528766,-1.5198638806909321,-1.5126637400537728
1782836936731526000,4.82852587890625,-0.906031140846014,-1.5318091700285672,-1.530680604390055
1782836936741454800,4.838454833984375,-0.9572861117869615,-1.4888146624326706,-1.4628355870455503
1782836936751384800,4.848384765625,-0.9399877709835767,-1.4571397134914994,-1.3364493872746825
1782836936761313800,4.858313720703125,-0.9500760342776775,-1.3852198479235172,-1.0961860484331845
1782836936771242800,4.86824267578125,-0.9209703513026237,-1.2622373191162943,-0.8814991955272853
1782836936781171700,4.878171630859375,-0.9039093263864517,-1.056207162331417,-0.7116575926505029
1782836936791100700,4.8881005859375,-0.9807184253007173,-0.8890831478502601,-0.6844559897311031
1782836936801029600,4.898029541015625,-1.1855687977164984,-0.7963888628661632,-0.768188604298234
1782836936810958600,4.90795849609375,-1.4541583595931529,-0.6993570601344108,-0.8317940843768418
1782836936820887800,4.9178876953125,-1.6268834089517592,-0.6089085082504898,-0.8300952445697038
1782836936830816800,4.927816650390625,-1.8129840727120636,-0.5267278723657131,-0.9280971344426274
1782836936840745700,4.937745849609375,-2.0631582724541424,-0.42545346362814307,-0.9975470297005027
1782836936850674700,4.9476748046875,-2.384256604725122,-0.2734451852142811,-0.9420547134507447
1782836936860604000,4.95760400390625,-2.7835855931460856,-0.16201280894726514,-0.8254454460024834
1782836936870532900,4.967532958984375,-3.2229210132628676,-0.06946487363129854,-0.7160616728283464
1782836936880461600,4.977461669921875,-3.495625609242916,0.0998064550768584,-0.5929013032361865
1782836936890390500,4.987390625,-3.4947219384014603,0.40154184216484423,-0.41879707447886466
1782836936900319700,4.99731982421875,-3.3546611412823197,0.730902391346544,-0.19315460085980593
1782836936910248700,5.007248779296875,-3.0338235057741403,1.0181378361780196,0.030981970841484144
1782836936920177700,5.017177734375,-2.39392167417109,1.2585481092095374,0.07530856272478122
1782836936930106600,5.027106689453125,-1.6254519148439168,1.4816419943243264,0.07703311692848801
1782836936940035800,5.037035888671875,-0.7455033097594976,1.6159779840558766,0.0890482931645587
1782836936949964800,5.04696484375,0.010679214924573898,1.6557864089615641,0.09451175533537752
1782836936959893800,5.056893798828125,0.5501859048426151,1.5618692311190068,0.15639153499938546
1782836936969822700,5.06682275390625,1.1531295864045619,1.3892144705176352,0.3565753769088536
1782836936979751700,5.076751708984375,1.5377227779865263,1.2452576888732612,0.5676251154214144
1782836936989680600,5.0866806640625,1.8158657656282184,1.2164216166198254,0.5911503679156304
1782836936999609600,5.096609619140625,2.1152479406535623,1.3084957969442008,0.6244794407393783
1782836937009538600,5.10653857421875,2.316826159530878,1.4970380086377262,0.6796941821567714
1782836937019467500,5.116467529296875,2.3167940108269454,1.6660674183487891,0.6983553357459604
1782836937029396700,5.126396728515625,2.2912673553824425,1.7620435745477676,0.7001608507979661
1782836937039325700,5.13632568359375,2.328967263701558,1.8452889901198446,0.700928474169597
1782836937049254700,5.146254638671875,2.140617944231629,1.8887974385872481,0.7416044756900518
1782836937059183600,5.15618359375,1.8894295990109442,1.7799962876066564,0.7662254144664853
1782836937069112800,5.16611279296875,1.853308484315872,1.6129900542862712,0.7384305218290537
1782836937079041800,5.176041748046875,1.8651292704910039,1.5344881799794732,0.7662514256905764
1782836937088970800,5.185970703125,1.7568121036350726,1.4579213653884828,0.7787311872310936
1782836937098899700,5.195899658203125,1.5357190369486808,1.3289651689991355,0.754997771878913
1782836937108828700,5.20582861328125,1.2375199342280625,1.1480635351866484,0.7331503894690424
1782836937118757600,5.215757568359375,0.726675275170803,0.9684517950542271,0.60294130694177
1782836937128686600,5.2256865234375,0.24377894574701783,0.8305003913044929,0.5189391181856393
1782836937138616800,5.235616943359375,-0.06829027689397335,0.762036657539755,0.5321183697650209
1782836937148545800,5.2455458984375,-0.42947453583776946,0.8013413707070052,0.4948279555622488
1782836937158474800,5.255474853515625,-0.8616273509740829,0.7912025462694465,0.34189295422490684
1782836937168403700,5.26540380859375,-1.05619013813138,0.6463051227740944,0.1797954078699462
1782836937178333000,5.2753330078125,-0.9731915369272232,0.47973187404349443,0.10210309638036415
1782836937188261600,5.28526171875,-0.898570887967944,0.3852361656606197,0.13468184402715414
1782836937198190600,5.295190673828125,-0.7264128248423337,0.32902532587796446,0.136835387065541
1782836937208119600,5.30511962890625,-0.43822132139503955,0.2671899242118001,0.09512123813638464
1782836937218048800,5.315048828125,-0.25088790096938607,0.16681743275001645,0.1252033101292327
1782836937227973600,5.3249736328125,-0.14724106401205062,0.02782616455852985,0.18096088971905408
1782836937237902600,5.334902587890625,-0.007457914790511131,-0.1077941658951342,0.15546806347891687
1782836937247831800,5.344831787109375,0.15862930398881434,-0.17067688465714453,0.13531944781094787
1782836937257760800,5.3547607421875,0.3456535123348236,-0.166730631249398,0.07902597124613821
1782836937267689700,5.364689697265625,0.4314256699055433,-0.1754502365387976,0.07681081594731658
1782836937277618700,5.37461865234375,0.44824061110615726,-0.23241920121237633,0.06873115252926945
1782836937287548700,5.384548583984375,0.4131804036408663,-0.3022340573251247,0.039605705407820636
1782836937297477600,5.3944775390625,0.29434944155514237,-0.42903877476900815,0.02641947609838098
1782836937307406600,5.404406494140625,0.24993922194242477,-0.5536480279952287,0.006864186681061982
1782836937317335600,5.41433544921875,0.28035657203793524,-0.571339898160845,-0.025721246434841305
1782836937327264800,5.4242646484375,0.20133213516175746,-0.5427835196316242,-0.046266441938653584
1782836937337193700,5.43419384765625,0.09950783745646476,-0.6049120590254664,-0.1094244339780882
1782836937347122700,5.444122802734375,0.1440916600704193,-0.7428630243837833,-0.17388565410319715
1782836937357051600,5.4540517578125,0.14311550851464272,-0.8616047738160938,-0.15165424081180243
1782836937366980900,5.46398095703125,0.1389981363236904,-0.905775704780221,-0.12416191131751983
1782836937376909800,5.473909912109375,0.1389595578789711,-0.9508931958794593,-0.12273861878244205
1782836937386838800,5.4838388671875,0.16720073297917842,-0.9614193391341715,-0.10990593388471752
1782836937396767700,5.493767822265625,0.027791093245148658,-0.9652042645003646,-0.12840837151454762
1782836937406696700,5.50369677734375,-0.07733166148364544,-1.0308012106571345,-0.17255356524921953
1782836937416625700,5.513625732421875,-0.0969441244482994,-1.0255554189581424,-0.2088896926681511
1782836937426554600,5.5235546875,-0.10203647915124893,-0.9397793158646672,-0.18547612038748337
1782836937436483600,5.533483642578125,-0.0974234323978424,-0.8856404600504785,-0.16796324178427458
1782836937446412800,5.543412841796875,-0.10464052416980266,-0.9015374826885759,-0.1773647283906117
1782836937456341800,5.553341796875,-0.20230711767375467,-0.9414693147782236,-0.219532521105092
1782836937466270700,5.563270751953125,-0.29307518383562564,-0.9614477615110576,-0.2380241450799629
1782836937476199700,5.57319970703125,-0.3960328694850206,-0.9657086338259279,-0.2183614862980321
1782836937486129000,5.58312890625,-0.643954906386137,-0.9877642521589994,-0.11584544346891343
1782836937496057900,5.593057861328125,-0.8598042272001505,-1.012456648736447,-0.0716586573485285
1782836937505986800,5.60298681640625,-1.0300251847833395,-0.9404846876550466,-0.12288080373210832
1782836937515915500,5.61291552734375,-1.2610738282948732,-0.784269897462055,-0.12631501596448944
1782836937525844700,5.6228447265625,-1.5321838485598562,-0.7312343267146497,-0.08118172450792044
1782836937535773700,5.632773681640625,-1.4661971724331377,-0.7162805032107978,0.026809151269402354
1782836937545702700,5.64270263671875,-1.3646581214100122,-0.6005833091061562,0.14846138132093473
1782836937555631600,5.652631591796875,-1.3361620947659014,-0.466340550616011,0.22605300891501828
1782836937565560800,5.662560791015625,-1.2163988202661276,-0.40054274812489743,0.2770026219675317
1782836937575489800,5.67248974609375,-0.9874936185240745,-0.3683392452649772,0.3081188775800168
1782836937585418800,5.682418701171875,-0.7843956427335739,-0.3325108299061656,0.43956078983787444
1782836937595347700,5.69234765625,-0.6446744528323411,-0.33506036825850605,0.6318947584971785
1782836937605277000,5.70227685546875,-0.5667278743207455,-0.35607553762793537,0.7094868244826793
1782836937615206000,5.712205810546875,-0.6097837567150592,-0.32748321100249883,0.7346065065614878
1782836937625134600,5.722134521484375,-0.9671557638943195,-0.27830358503088354,0.7196019027184695
1782836937635063600,5.7320634765625,-1.5135907917708158,-0.33968495931923387,0.6647285951498896
1782836937644992500,5.741992431640625,-1.8851403773844242,-0.4772665068432688,0.5431509647045284
1782836937654922800,5.7519228515625,-2.0495324826836585,-0.4239415977604687,0.4698880139645189
1782836937664851700,5.761851806640625,-2.143596667781472,-0.2522718296084553,0.3724445982245728
1782836937674780700,5.77178076171875,-2.0015794758975503,-0.06681092505641281,0.39089039203003045
1782836937684710000,5.7817099609375,-1.6827198624640702,0.07095299329720436,0.39717663269266484
1782836937694638800,5.791638916015625,-1.1508207249403,0.2072880478914827,0.37706648587156083
1782836937704567600,5.801567626953125,-0.5586041890978812,0.3969380016312003,0.3181166495790705
1782836937714496500,5.81149658203125,-0.12805062585175037,0.5909343870773911,0.22047150072194635
1782836937724425700,5.82142578125,0.3553858017981052,0.6685439887195825,0.26871722511062396
1782836937734354700,5.831354736328125,0.9193599934965372,0.6795007054112852,0.39149844092577696
1782836937744283600,5.84128369140625,1.430938812047243,0.8075586377866566,0.4469230987668037
1782836937754212600,5.851212646484375,1.743170531773567,1.0118339867934585,0.5120306539714337
1782836937764141800,5.861141845703125,1.8781909966379402,1.0715331070832907,0.44439431094154713
1782836937774070800,5.87107080078125,1.8784429255723951,1.0052265513524412,0.2797182741343975
1782836937783999700,5.880999755859375,1.8714619806438684,0.9344722224324941,0.15459548189546912
1782836937793929200,5.89092919921875,2.0055168153464793,0.972317092180252,0.01187156651429832
1782836937803858400,5.9008583984375,2.179843454682827,1.0777750702127813,-0.15474818823914974
1782836937813787400,5.910787353515625,2.1829344064354896,1.118457209213078,-0.2574802119065076
1782836937823716400,5.92071630859375,1.9776637627810238,1.016006157911569,-0.40408977308198807
1782836937833645300,5.930645263671875,1.564752823731303,0.897112505853176,-0.4887845837447792
1782836937843574500,5.940574462890625,1.1387608693122864,0.8062079538300633,-0.5063883737681433
1782836937853503500,5.95050341796875,0.7696037317931652,0.8006542652256786,-0.637034240277484
1782836937863433500,5.96043359375,0.34437808557152744,0.8748924907386303,-0.8301183331843465
1782836937873362400,5.970362548828125,-0.06168810214996338,0.9315048970595001,-0.8883093139335513
1782836937883291400,5.98029150390625,-0.4164981498867273,0.881736511414498,-0.985494772857055
1782836937893220400,5.990220458984375,-0.8235498415142297,0.7515180400043725,-1.164941750881821
1782836937903149300,6.0001494140625,-1.1516396401077509,0.6032238136775792,-1.270855363727361
1782836937913078500,6.01007861328125,-1.2628648033648728,0.4376189715877175,-1.4186588839277625
1782836937923007500,6.020007568359375,-1.3259768008381128,0.32764395452216266,-1.419993055140972
1782836937932936400,6.0299365234375,-1.1364818184643983,0.21965923449099062,-1.3074936341643333
1782836937942865400,6.039865478515625,-0.7234241644203663,0.15730214703828097,-1.1333897707331926
1782836937952794600,6.049794677734375,-0.36186756503283973,0.12310907779633998,-0.8974125847782939
1782836937962724400,6.059724365234375,0.032013679376244546,0.0405303094394505,-0.6816721311662346
1782836937972653300,6.0696533203125,0.23151041580438614,0.0015587737493216992,-0.5840967961423099
1782836937982582500,6.07958251953125,0.5216933853298426,-0.0004221709348261356,-0.50667767557092
1782836937992511500,6.089511474609375,0.9660568627417087,-0.04633300436884165,-0.3965128715543076
1782836938002440400,6.0994404296875,1.1935445989012718,-0.15332798271030187,-0.23412710110880433
1782836938012369400,6.109369384765625,1.3078805876553057,-0.2739015506796539,-0.09540036560501902
1782836938022298600,6.119298583984375,1.3960498694956303,-0.4126144403211772,-0.04756988922003656
1782836938032227600,6.1292275390625,1.413681972298026,-0.5162938643738627,-0.03610694003924727
1782836938042156500,6.139156494140625,1.4597709387779234,-0.5230850588839501,-0.05919062277842313
1782836938052085500,6.14908544921875,1.3132687104344367,-0.5365168604522943,-0.1160815172471106
1782836938062014500,6.159014404296875,1.1764128468364476,-0.6351110171299428,-0.10314867817685007
1782836938071943400,6.168943359375,0.987723920148611,-0.7391636584091931,-0.09122766476394609
1782836938081872400,6.178872314453125,0.8417021687984466,-0.7621304002378135,-0.13692728486638514
1782836938091801300,6.18880126953125,0.5564765294194222,-0.76516998712942,-0.15932214509118348
1782836938101730300,6.198730224609375,0.16303718355894087,-0.8445556585334241,-0.2500562359182164
1782836938111659500,6.208659423828125,-0.12179682615399359,-0.9546808246593922,-0.38473066382389515
1782836938121588500,6.21858837890625,-0.3354126888275146,-0.9948278338696807,-0.48129755245763806
1782836938131517400,6.228517333984375,-0.328302564561367,-0.957171910822764,-0.5320964136615395
1782836938141446400,6.2384462890625,-0.42578970984518527,-0.9059853289429097,-0.518464194150269
1782836938151375600,6.248375732421875,-0.5425538025289773,-0.933812662545219,-0.5231630925562233
1782836938161304600,6.2583046875,-0.5938140341669321,-1.0001122770786284,-0.529419303406775
1782836938171233500,6.268233642578125,-0.5515981097280979,-1.0028217552330345,-0.5242315985705703
1782836938181162200,6.278162353515625,-0.5278647674411535,-1.0034029891870915,-0.5788014662131666
1782836938191091500,6.288091552734375,-0.5495066904067993,-1.0355645526014268,-0.6775344468396156
1782836938201020400,6.2980205078125,-0.45481239071190355,-1.0823553106751291,-0.626817309102416
1782836938210949400,6.307949462890625,-0.37253041334450243,-1.0896350193545221,-0.5624631295483559
1782836938220878300,6.31787841796875,-0.3753215053677559,-1.0290403384644538,-0.5176780852738767
1782836938230807600,6.3278076171875,-0.39786593013107774,-0.9657372023332863,-0.5742908934535458
1782836938240736500,6.337736572265625,-0.5489128161668777,-0.8439438833106309,-0.6277479410160333
1782836938250665500,6.34766552734375,-0.7137795532405377,-0.7715374032694846,-0.5597901474794372
1782836938260594400,6.357594482421875,-0.931348537454009,-0.7924897365357726,-0.6207986333347857
1782836938270523600,6.367523681640625,-1.0136690932661294,-0.790525816051662,-0.5939701380440965
1782836938280452600,6.37745263671875,-1.0377852973908186,-0.7300071230072528,-0.5854709340397268
1782836938290381300,6.38738134765625,-1.1064286255061626,-0.5991697159811854,-0.649569019940868
1782836938300310300,6.397310302734375,-1.2840309255123137,-0.4497313611205667,-0.7713944876674562
1782836938310239500,6.407239501953125,-1.4076181422144174,-0.4094791379701346,-0.9081681528747081
1782836938320169500,6.41716943359375,-1.616361430415511,-0.4190788140296936,-0.9133726627152413
1782836938330098400,6.427098388671875,-1.6975030055761335,-0.4188461012523621,-0.7908622083991765
1782836938340027600,6.437027587890625,-1.6959908474475145,-0.3924824835270643,-0.6293473390366882
1782836938349956600,6.44695654296875,-1.8657979635328052,-0.2946244591042399,-0.44522798528671265
1782836938359885600,6.456885498046875,-2.1215701294124125,-0.2333161500521004,-0.2691050919170491
1782836938369814300,6.466814208984375,-2.3551211111336947,-0.14354980827867983,-0.11691146526522933
1782836938379743200,6.4767431640625,-2.318978369128704,0.027506723345816133,0.03728981141457334
1782836938389672400,6.48667236328125,-2.260938852614164,0.2618229903511703,0.07771550056892447
1782836938399601400,6.496601318359375,-1.9575223075062036,0.5528142805848271,0.056489693256653845
1782836938409530400,6.5065302734375,-1.3942676622539758,0.8296622599799186,0.11740019863024354
1782836938419459300,6.516459228515625,-0.8937117574989795,1.022565808688104,0.19707106191748752
1782836938429388500,6.526388427734375,-0.21231997764408586,1.1004248550467193,0.2800240521479398
1782836938439317500,6.5363173828125,0.5402110387951136,1.1492955611996352,0.44610845791567116
1782836938449246500,6.54624658203125,0.9428343925863504,1.1733514134392142,0.5890928143313154
1782836938459175400,6.556175537109375,1.2197130593806504,1.1320831451140343,0.6388511535063386
1782836938469104600,6.566104736328125,1.4606553203970194,1.105157874917984,0.649107393778488
1782836938479033300,6.576033447265625,1.474335470703244,1.1241771942950785,0.6113410691596567
1782836938488962300,6.58596240234375,1.5495856497377156,1.2006295887261629,0.5670400090098381
1782836938498891300,6.595891357421875,1.651860029298067,1.3404136147305368,0.5482138375846669
1782836938508820500,6.605820556640625,1.6148662234216928,1.3846629446931182,0.6230893015552311
1782836938518749400,6.61574951171875,1.7297849804997443,1.29765262362957,0.7754569878660142
1782836938528678400,6.625678466796875,1.8375982894867657,1.1760327614776789,0.9432716880250721
1782836938538607400,6.635607421875,1.60138714864552,1.1061198518179356,0.9461280273042618
1782836938548536600,6.64553662109375,1.4509545951157807,1.02711908807829,0.9185026460148393
1782836938558465500,6.655465576171875,1.2654665102958678,0.9240443519204854,0.918235665641725
1782836938568394500,6.66539453125,1.0768068097025156,0.8584820386856794,1.0071895950537175
1782836938578323500,6.675323486328125,0.8280401386708021,0.8140596902437508,1.0009157024160027
1782836938588252700,6.685252685546875,0.5664683466017246,0.7972104083821177,0.895938639768213
1782836938598181400,6.695181396484375,0.23278116639256477,0.755875650691986,0.715116793193668
1782836938608110300,6.7051103515625,-0.19246961427032946,0.6467575427167117,0.5855178053887561
1782836938618039300,6.715039306640625,-0.3552642212450504,0.5252902407780289,0.4313048930700868
1782836938627968500,6.724968505859375,-0.37204584469795227,0.4830076808437705,0.30818657252136616
1782836938637897500,6.7348974609375,-0.4546534007579088,0.4856085109919309,0.18142456170804797
1782836938647826400,6.744826416015625,-0.435271823939681,0.44201340715438125,0.1744057324545458
1782836938657755400,6.75475537109375,-0.16514789210259914,0.3048667439162731,0.20049277999447657
1782836938667685600,6.764685546875,-0.041619712111353874,0.17222718283906577,0.1966803638331592
1782836938677614300,6.7746142578125,-0.05372282235920429,0.046050680296123025,0.10342782391179352
1782836938687543300,6.784543212890625,0.0926174934208393,-0.07960194450318812,0.020363737989682704
1782836938697472500,6.794472412109375,0.28607261159718034,-0.17290888149291275,-0.011161591614037751
1782836938707401500,6.8044013671875,0.5236906966269016,-0.1676408779621124,0.014752693174872546
1782836938717330400,6.814330322265625,0.7193757658123969,-0.171010792786628,0.04777301057670265
1782836938727259400,6.82425927734375,0.7958867585629225,-0.2282083055190742,0.06046583034601062
1782836938737188400,6.834188232421875,0.7472188815057277,-0.34905367616713046,0.02457337330766022
1782836938747117600,6.84411767578125,0.672224723058939,-0.544731877220422,-0.02457410396002233
1782836938757046500,6.854046630859375,0.7261380995541811,-0.6728871324904263,0.05501468880064785
1782836938766975500,6.8639755859375,0.7672679823219776,-0.7019986606843769,0.15863609905578197
1782836938776904400,6.873904541015625,0.729383365085721,-0.7063736608982085,0.19799857029225676
1782836938786833200,6.883833251953125,0.6280898132562637,-0.6994231111079454,0.2566472316810861
1782836938796762000,6.89376220703125,0.5009013571918011,-0.6598281828224658,0.2687129873269237
1782836938806691000,6.903691162109375,0.4087041350096464,-0.6262650820471346,0.22308186588343232
1782836938816620000,6.9136201171875,0.2714350144356489,-0.6488691280432045,0.23279033607970923
1782836938826549000,6.923549072265625,0.21194997528791426,-0.7100630169354378,0.32308366086930035
1782836938836478000,6.93347802734375,0.21883096697330473,-0.7696103076644242,0.32421376087777315
1782836938846407200,6.9434072265625,0.0632902766495943,-0.7566061569236219,0.30840792365446684
1782836938856336100,6.953336181640625,-0.024902386066317558,-0.7560445775181055,0.3145170541845262
1782836938866265000,6.96326513671875,-0.10883388420641421,-0.7865770784258842,0.32535401695407923
1782836938876194000,6.973194091796875,-0.2471305942624807,-0.8105208485931158,0.3700898883245885
1782836938886123300,6.983123291015625,-0.32001521320939064,-0.8392712883897125,0.35199075253233314
1782836938896052200,6.99305224609375,-0.46997430400848383,-0.818814045163989,0.3502538457371294
1782836938905981200,7.002981201171875,-0.5524497581213712,-0.7461293327033519,0.36276758261248465
1782836938915910000,7.012909912109375,-0.6636392655432224,-0.6638760699737817,0.36473581394553184
1782836938925839000,7.022839111328125,-0.7616559876590967,-0.5874767209041863,0.3213911046724766
1782836938935768000,7.03276806640625,-0.8089069836556911,-0.5101693170789628,0.2231468391447328
1782836938945697000,7.042697021484375,-0.8961077127248048,-0.4660191366419196,0.1781694689022377
1782836938955626000,7.0526259765625,-0.9347896178185939,-0.47064138961508867,0.20844408605881035
1782836938965555200,7.06255517578125,-0.908241218110919,-0.47260289894640445,0.2897780967853032
1782836938975484200,7.072484130859375,-0.9223141671270132,-0.43724823857918377,0.35534667536411435
1782836938985413000,7.0824130859375,-0.8916291060060262,-0.48779871451258655,0.36254060545619576
1782836938995342000,7.092342041015625,-0.8970505465328693,-0.5538613784849643,0.281993689986784
1782836939005271300,7.102271240234375,-0.9996481666982173,-0.41732320253401994,0.3008650705268606
1782836939015201000,7.112200927734375,-1.020555345648527,-0.21583938394188878,0.3660916855338961
1782836939025130000,7.1221298828125,-1.3307061674475669,-0.21172361918613314,0.23655739699564873
1782836939035059000,7.132058837890625,-1.7912217382371425,-0.23146613827124238,-0.006730760426586493
1782836939044988200,7.14198828125,-2.2039123125344515,-0.22875088796317575,-0.2555694281154312
1782836939054917000,7.151917236328125,-2.5363632289469242,-0.1842782706387341,-0.2889907275335863
1782836939064846000,7.16184619140625,-2.6911487169891593,-0.16060177310556173,-0.147416046119621
1782836939074775000,7.171775146484375,-2.631424608388543,-0.10458981689587235,-0.062353826916543766
1782836939084704300,7.181704345703125,-2.3375340165168046,0.1272797876097262,-0.020551670910371467
1782836939094633200,7.19163330078125,-1.7887474570780992,0.411978407439962,0.08729104683422483
1782836939104562000,7.20156201171875,-1.1450246058821678,0.5610711637333036,0.27690705263856796
1782836939114491000,7.211490966796875,-0.5682739347189665,0.6078774116370826,0.4477488090012222
1782836939124420000,7.221420166015625,0.05392798954248428,0.7133776213761419,0.4851265726938843
1782836939134349000,7.23134912109375,0.6837906576901673,0.8437288523204625,0.45059594206064935
1782836939144278000,7.241278076171875,1.1855752274572848,0.8463917879194021,0.4843479530042037
1782836939154207000,7.25120703125,1.4642822787225245,0.7432783271864056,0.5664614419369026
1782836939164136200,7.26113623046875,1.5736264505386353,0.6158738902837038,0.7421385095015168
1782836939174065200,7.271065185546875,1.687071043410897,0.5499431821279227,0.7479961494885384
1782836939183994000,7.280994140625,1.712077474373579,0.6512000552088022,0.6784031194329261
1782836939193923000,7.290923095703125,1.635597461283207,0.7885856417693198,0.539229699607566
1782836939203852300,7.300852294921875,1.4692624052226542,0.8210226611241698,0.525517290999554
1782836939213781000,7.310781005859375,1.2559206833153962,0.7665496049195527,0.411754864349775
1782836939223710000,7.3207099609375,1.0324965433329343,0.7527722778491676,0.24932910895375535
1782836939233639000,7.330638916015625,0.6910322993814945,0.7944844905495643,0.08235840360447765
1782836939243568000,7.340568115234375,0.22333879978656768,0.7130624910123646,-0.09564314311863854
1782836939253497000,7.3504970703125,-0.09289747940599918,0.5528393419608474,-0.2959372587358579
1782836939263426000,7.360426025390625,-0.4412041365981102,0.4352554573267698,-0.44089967375881967
1782836939273355000,7.37035498046875,-0.7905109107434749,0.31951573925465343,-0.6124271108306945
1782836939283284200,7.3802841796875,-0.9569219546496868,0.21757848269417882,-0.8404849019631743
1782836939293213200,7.390213134765625,-1.1385814210921525,0.1143485559746623,-1.0297821698077023
1782836939303142100,7.40014208984375,-1.1211591616481542,0.00952631856240332,-1.1970817600514738
1782836939313071000,7.410071044921875,-0.7489969970941543,-0.022325155989453196,-1.2586704204149544
1782836939323000300,7.420000244140625,-0.4032382708191871,0.021564327684789896,-1.1511401661530136
1782836939332929000,7.429928955078125,-0.07175941430926322,-0.014194091177731752,-1.0418442173928022
1782836939342859000,7.43985888671875,0.30629940706789494,-0.1647419416502118,-0.9701544342536479
1782836939352788000,7.4497880859375,0.6444552571237087,-0.2800910529695451,-0.894819572610408
1782836939362717200,7.45971728515625,0.9518073881149292,-0.2936209811501205,-0.7007290060747414
1782836939372646100,7.469646240234375,1.0980378137797118,-0.31976036166548727,-0.5879690344657749
1782836939382575000,7.4795751953125,1.3232453300476072,-0.37186420452073216,-0.5774923198433592
1782836939392504000,7.489504150390625,1.496226984515786,-0.34530645246282216,-0.5020857812033966
1782836939402433300,7.499433349609375,1.3560486984968185,-0.3043156859047711,-0.38078009956721215
1782836939412362000,7.509362060546875,1.3812708180367945,-0.35396154114864764,-0.35045309463627633
1782836939422291000,7.519291015625,1.3496446766734123,-0.3766892135243863,-0.4148256500972435
1782836939432220000,7.529219970703125,1.122217146268487,-0.3316325857669115,-0.4455761046046391
1782836939442149000,7.539149169921875,0.9562228664696216,-0.3643586511962116,-0.5015153609042987
1782836939452078000,7.549078125,0.8404851942241192,-0.41533538971766826,-0.5807401061255485
1782836939462007000,7.559007080078125,0.6841489696085452,-0.3939554786890745,-0.5340224498206749
1782836939471936000,7.56893603515625,0.5960235269099473,-0.43958318433277305,-0.49663960809409613
1782836939481865200,7.578865234375,0.4409650671452284,-0.5372457592487335,-0.5352920678976922
1782836939491794200,7.588794189453125,0.2957897034913301,-0.6210536310091614,-0.5849515863407403
1782836939501723100,7.59872314453125,0.26443536480665203,-0.6948305226206779,-0.6367150182604789
1782836939511652000,7.608652099609375,0.20831191104650496,-0.7292021632999182,-0.7252438541281968
1782836939521581000,7.6185810546875,0.14892097992300987,-0.7882458153557031,-0.7202851357422768
1782836939531510000,7.628510009765625,0.26660160292983054,-0.9720525960251688,-0.7101845974884927
1782836939541439000,7.63843896484375,0.2590133397579193,-1.066600838312879,-0.7575270711608231
1782836939551368000,7.648367919921875,0.08426818274855613,-1.0821055006325244,-0.7571290117539465
1782836939561297200,7.658297119140625,0.10143149899542331,-1.1334602786861359,-0.8182077498339116
1782836939571226000,7.66822607421875,0.085271806833148,-1.1489965051878244,-0.7939324096247553
1782836939581155000,7.678155029296875,-0.08861936369538306,-1.1767102223478256,-0.7420857564009725
1782836939591084000,7.688083984375,-0.2256646123856306,-1.2428712321281432,-0.662865212430805
1782836939601013200,7.69801318359375,-0.3707891226351261,-1.2056260818392037,-0.6310762086559086
1782836939610942200,7.707942138671875,-0.6075029523015022,-1.0404628460370005,-0.5652540389085188
1782836939620871200,7.71787109375,-0.9643974050968885,-0.8680717048078775,-0.4647190868940204
1782836939630800100,7.727800048828125,-1.153854978069663,-0.7520241628956049,-0.4096507316773757
1782836939640729000,7.73772900390625,-1.2615969753861427,-0.6173775728449225,-0.4699301360731944
1782836939650658000,7.747657958984375,-1.5130442638039587,-0.5037868495002389,-0.5286637357991189
1782836939660587000,7.7575869140625,-1.717815725764632,-0.5027199509210885,-0.5309163004988804
1782836939670516000,7.767515869140625,-1.857534577578306,-0.4993957018692046,-0.48985754673853515
1782836939680446200,7.7774462890625,-1.952290252071619,-0.405206063760817,-0.39074908386319873
1782836939690375200,7.787375244140625,-2.0672522637695074,-0.27113033240064977,-0.28835222870064897
1782836939700304100,7.79730419921875,-2.1401883206427095,-0.14607852303870023,-0.19016657975865528
1782836939710233000,7.807233154296875,-2.17743171736598,-0.02317790036126971,-0.11090868118647486
1782836939720162000,7.817162109375,-2.280499293130636,0.08179463224187493,-0.02969313660734333
1782836939730091000,7.827091064453125,-2.4060025725871323,0.16668635371625423,0.04055998305850662
1782836939740020000,7.83702001953125,-2.3478104958593846,0.22988836756050585,0.11536560579640791
1782836939749949000,7.846948974609375,-2.143091056346893,0.3382788919135928,0.3081232980268076
1782836939759878100,7.856878173828125,-1.9220237086236476,0.43241643450856204,0.26356921296399083
1782836939769807000,7.86680712890625,-1.4912807602852582,0.5312528024442493,0.3189625988839194
1782836939779736000,7.876736083984375,-0.9684119014352559,0.5651704157456755,0.3691406613083556
1782836939789664800,7.886664794921875,-0.34692367840111255,0.5594520380988717,0.37809469640813764
1782836939799593700,7.89659375,0.19072423190772533,0.6311081381641328,0.32962055182475597
1782836939809522700,7.906522705078125,0.5653928263247012,0.6756513365067541,0.38670941655095664
1782836939819452000,7.916451904296875,0.902636822232604,0.5857561076566576,0.3832404617987573
1782836939829380900,7.926380859375,1.2073258714944124,0.5515528092816472,0.34486952235028145
1782836939839309600,7.9363095703125,1.460111130517721,0.6963742449313401,0.4055312405945733
1782836939849238500,7.946238525390625,1.5827812323749064,0.9023490913324057,0.4987387723304331
1782836939859167700,7.956167724609375,1.5689087743669747,1.0473981982581317,0.5615663999043404
1782836939869096700,7.9660966796875,1.5540490588873623,1.1242439759209752,0.5657059839271008
1782836939879025700,7.976025634765625,1.4757061745345592,1.1973214870914817,0.6001752397619188
1782836939888954600,7.98595458984375,1.3689520192116498,1.1868411557398735,0.6929222778465598
1782836939898883800,7.9958837890625,1.3532207815945148,1.077728162331134,0.7919099638864397
1782836939908812800,8.005812744140625,1.358711195704341,1.0142916090786456,0.8879904572427272
1782836939918741800,8.01574169921875,1.2514631193846464,0.9927915788017213,0.9019656449727713
1782836939928670700,8.025670654296874,1.0966156720221043,0.9532583175756036,0.869819279127568
1782836939938600000,8.035599853515626,0.8155494904100894,0.8751825597263873,0.8243818353589624
1782836939948528600,8.045528564453125,0.6010211890667676,0.7906069184638559,0.7785933861956
1782836939958457600,8.05545751953125,0.36048166363239287,0.7132996607691049,0.8107222163841128
1782836939968386600,8.065386474609374,-0.05252455248534679,0.6459685842961073,0.8413358197040856
1782836939978315800,8.075315673828126,-0.4718541264057159,0.6017990415714681,0.7835616761274635
1782836939988244700,8.08524462890625,-0.8655413095474243,0.6038141807861626,0.6241612416356802
1782836939998173700,8.095173583984375,-1.1814800670981407,0.640008506847918,0.4583327468577772
1782836940008102700,8.1051025390625,-1.2154554019361734,0.7177632160492241,0.39402792287077754
1782836940018033000,8.115032958984376,-1.2432704605787992,0.7110635722801089,0.4386073981031775
1782836940027961900,8.1249619140625,-1.0660708961546421,0.6524640837952494,0.456344057258591
1782836940037890600,8.134890625,-0.8049339883714914,0.5725337841205299,0.4307676078556105
1782836940047819800,8.14481982421875,-0.6129419284850358,0.4425415226817131,0.3422646005488932
1782836940057748700,8.154748779296876,-0.27139351338148116,0.316453282944113,0.27533496274994684
1782836940067677700,8.164677734375,0.18690204327106474,0.20445129009559748,0.31914515237659213
1782836940077606700,8.174606689453125,0.5524988579601049,0.14611790520101786,0.3397869949216023
1782836940087535900,8.184535888671874,0.811615073570609,0.12803104436844587,0.36374786235410717
1782836940097464800,8.19446484375,1.0074532874912023,0.08580196818709374,0.4368834603874013
1782836940107393800,8.204393798828125,1.1408125411450862,0.03460062712952494,0.4979362603085115
1782836940117322800,8.21432275390625,1.1602549082398415,0.032348756549507376,0.5084362462086602
1782836940127252000,8.224251953125,1.1300737049877643,0.004822013328969478,0.46095852878410365
1782836940137181000,8.234180908203125,1.1203192036926746,-0.004692103338986635,0.41781748885698616
1782836940147109600,8.244109619140625,1.0356307497054338,-0.004656885895133018,0.3590008870227262
1782836940157038600,8.25403857421875,0.9259557384997605,-0.04642199782654643,0.27823925109039993
1782836940166967600,8.263967529296876,0.8726011649310589,-0.1281954411499202,0.2562570998523384
1782836940176896800,8.273896728515625,0.6848743612736463,-0.21106340171173213,0.28156488838177174
1782836940186825700,8.28382568359375,0.43709611675739285,-0.33709932674020526,0.31767434917166826
1782836940196754700,8.293754638671874,0.4531149391442537,-0.49048269289955493,0.26678127034567295
1782836940206683600,8.30368359375,0.3637280982077121,-0.5203174208015203,0.2028283650688827
1782836940216612900,8.31361279296875,0.13722002073526382,-0.47800110472813245,0.18217311505302786
1782836940226541800,8.323541748046875,0.05157470441460609,-0.5458094433240592,0.1319097854979336
1782836940236470800,8.333470703125,-0.11633388457298278,-0.6799665693573653,0.07796740210391581
1782836940246399700,8.343399658203126,-0.3756529292792082,-0.7765781008504331,0.05200714101511985
1782836940256328700,8.35332861328125,-0.37558337117433543,-0.7868250618375837,-0.004959850897081196
1782836940266257700,8.363257568359375,-0.42660920953452586,-0.708329178880155,-0.018384784333221615
1782836940276186600,8.3731865234375,-0.5516080466002226,-0.6505683331765234,-0.014616335177794098
1782836940286115600,8.383115478515625,-0.6385024861991405,-0.6853128988213837,-0.006947334919869899
1782836940296044800,8.393044921875,-0.6643839464306831,-0.7448788942508399,0.000025645897909998893
1782836940305973800,8.402973876953125,-0.7284288408398628,-0.7038505721613765,-0.01301733901593834
1782836940315902700,8.41290283203125,-0.7780985884159803,-0.6432182626746594,0.08075736161600798
1782836940325831700,8.422831787109375,-0.7790601269245148,-0.6054930737838149,0.15831404576087368
1782836940335761700,8.43276171875,-0.8341858018189668,-0.5553638920024037,0.17286420210096984
1782836940345690600,8.442690673828125,-0.8347042727351188,-0.47799745146632194,0.1685012028521858
1782836940355619600,8.45261962890625,-0.7435603589981794,-0.3889201148703694,0.20615562806176022
1782836940365548800,8.462548828125,-0.6371703608125447,-0.31424218276590105,0.24230861746612936
1782836940375477800,8.472477783203125,-0.5229857632279395,-0.3052972442880273,0.3591504880938679
1782836940385406700,8.48240673828125,-0.4652402612239122,-0.3368076503172517,0.4006780649423599
1782836940395335700,8.492335693359376,-0.4580816216409206,-0.33581659345328807,0.3381370357574895
1782836940405265000,8.502264892578125,-0.4361977066129446,-0.26306787584573027,0.3243255506891757
1782836940415193900,8.51219384765625,-0.6460866577178239,-0.27584698565900323,0.3115951388558373
1782836940425122800,8.522122802734375,-0.9745464586675167,-0.3431250167705118,0.13251120372349395
1782836940435051800,8.5320517578125,-1.4759820688664913,-0.3258420196667313,0.008615469061490149
1782836940444980700,8.541980712890625,-2.082741509324312,-0.26971447425335643,-0.08854752230187878
1782836940454909700,8.55190966796875,-2.4410639490962027,-0.24480580457672477,-0.02171019786230754
1782836940464838700,8.561838623046874,-2.529756962549686,-0.15846651464253664,0.0730707983019296
1782836940474767600,8.571767578125,-2.463294485604763,0.06702237585000693,0.0863952213725075
1782836940484696800,8.58169677734375,-2.1651082423657178,0.28875527480989693,0.16321860454045234
1782836940494625800,8.591625732421875,-1.5746651459366081,0.4637259111382067,0.23331468874737618
1782836940504554800,8.6015546875,-0.8582926535934209,0.6481389871377498,0.2813586982851848
1782836940514483700,8.611483642578126,-0.1903197427600622,0.7818633477769792,0.36542854545004666
1782836940524412700,8.62141259765625,0.47367082043886183,0.8086191066250205,0.5054975624082609
1782836940534342000,8.631341796875,1.0315379274338483,0.8237913951851427,0.6582944704491644
1782836940544270800,8.641270751953124,1.426698105737567,0.822382697430998,0.7368054048452526
1782836940554199800,8.65119970703125,1.7368506811022757,0.7679469044968485,0.7377482386533171
1782836940564128500,8.66112841796875,1.9566139604896307,0.7154865032888948,0.7493949103705585
1782836940574057700,8.6710576171875,1.9930372730016708,0.7134529516346753,0.7529888432092964
1782836940583986700,8.680986572265626,2.0157605614632366,0.7519840500809252,0.7277209848314523
1782836940593915600,8.69091552734375,2.007089179229736,0.7986777044557034,0.6684694621786474
1782836940603844600,8.7008447265625,1.9139023614883421,0.8368179038882255,0.635439299236238
1782836940613773800,8.71077392578125,1.759211565992236,0.7883420422717928,0.5928880053631961
1782836940623702800,8.720702880859376,1.5117974786132573,0.7162539805300533,0.4527568829542026
1782836940633631700,8.7306318359375,1.142901622378826,0.7181734042853116,0.2520009585115127
1782836940643560700,8.740560791015625,0.5884323411285877,0.6894597893677652,0.0750280972490087
1782836940653490000,8.750489990234374,0.12813888865709305,0.5962577740572392,-0.16757106412891298
1782836940663419000,8.7604189453125,-0.3519569963932037,0.5069577346213162,-0.4678642895845696
1782836940673348600,8.7703486328125,-0.9651093527585267,0.3890501709908247,-0.7390961461309343
1782836940683277800,8.78027783203125,-1.5287550431549548,0.1841067134641111,-0.920329642246291
1782836940693206800,8.790206787109375,-1.8850012611746787,-0.016378303349018096,-1.052902933154255
1782836940703135700,8.8001357421875,-1.9499656085163353,-0.056732744764909145,-0.9548205253910272
1782836940713064700,8.810064697265625,-1.8738783941358326,-0.08357369767837226,-0.9540443533867597
1782836940722994000,8.819993896484375,-1.702106699979305,-0.03290967836789787,-0.9703271604720503
1782836940732923000,8.8299228515625,-1.2403677248746157,0.059720090012624856,-0.9452500754259526
1782836940742851800,8.839851806640626,-0.7314607558816671,0.13395634276419877,-0.9911157545439898
1782836940752780800,8.84978076171875,-0.33641572839021683,0.07530030178651213,-0.8871025684922933
1782836940762709800,8.859709716796875,0.025739421412348747,-0.12992124202921987,-0.644916298764199
1782836940772638700,8.869638671875,0.34561785649955273,-0.26469788820035756,-0.30413137884642927
1782836940782567700,8.879567626953126,0.5966057107120752,-0.2540024527933448,-0.11191523701366968
1782836940792500200,8.889500244140624,0.889490340411663,-0.294060614676401,-0.046320966871175914
1782836940802429200,8.89942919921875,1.087884084033966,-0.38152686281390485,-0.13727069147657603
1782836940812358100,8.909358154296875,1.1374795973300933,-0.45911432568952437,-0.1415725351226516
1782836940822287400,8.919287353515625,1.3058891215771435,-0.5287753064148127,-0.10655766463642939
1782836940832216300,8.92921630859375,1.5963368795186281,-0.5350276448078454,-0.111605339947436
1782836940842145300,8.939145263671875,1.5321066916704178,-0.5066214153390377,-0.08629311270490288
1782836940852074200,8.94907421875,1.2361457232654094,-0.5937868538990616,-0.14152955449745058
1782836940862003200,8.959003173828124,1.0865198099434374,-0.7121135927896947,-0.3074786799803376
1782836940871932200,8.96893212890625,0.8413625615805387,-0.7650436573360114,-0.48724714504443106
1782836940881861000,8.978861083984375,0.7052063706845044,-0.7746965979527681,-0.582439530454576
1782836940891790000,8.9887900390625,0.5475128862410783,-0.8188927364233881,-0.6113573627073318
1782836940901719000,8.998718994140624,0.4231032472401857,-0.855896113845706,-0.6135708740383387
1782836940911648300,9.008648193359376,0.31048399927616116,-0.8596553202487528,-0.5097206234633922
1782836940921577200,9.0185771484375,0.08943535625338554,-0.8997790947139263,-0.5724561523070558
1782836940931506200,9.028506103515625,-0.09671382282376288,-0.9489995641525835,-0.7208722149152308
1782836940941435100,9.03843505859375,-0.22654782496094703,-0.9713395523849874,-0.8561449009750038
1782836940951364400,9.0483642578125,-0.2965308772474527,-0.989697266048193,-0.9024600043609737
1782836940961293300,9.058293212890625,-0.3371960651129484,-1.0086989036381244,-0.7986451173603534
1782836940971222300,9.06822216796875,-0.318755568537116,-0.9774521900463848,-0.669868076930195
1782836940981152300,9.07815234375,-0.247833189573884,-0.9182868843723088,-0.6746404058985411
1782836940991081200,9.088081298828126,-0.25233634621202944,-0.8862092729143798,-0.7021401880469172
1782836941001010200,9.09801025390625,-0.21422376543879507,-0.9017207303009926,-0.6670476126819849
1782836941010939100,9.107939208984375,-0.09913958866596222,-0.9204081873752176,-0.5596878926813602
1782836941020868400,9.117868408203124,-0.09351239643394947,-0.9275564516946673,-0.41272805676348506
1782836941030797300,9.12779736328125,-0.1286538524419069,-0.9006094080582261,-0.39423528201114383
1782836941040726300,9.137726318359375,-0.17840543308258056,-0.7882613051857799,-0.3619731808317825
1782836941050655200,9.1476552734375,-0.19314064539968967,-0.6741591982528566,-0.37613472144678234
1782836941060584200,9.157584228515624,-0.3004541881710291,-0.5880535709440707,-0.3739689217150211
1782836941070513200,9.16751318359375,-0.5065536838650703,-0.5622518248852342,-0.38057803765647114
1782836941080442000,9.177442138671875,-0.639545857772231,-0.5375229687549173,-0.403662414515391
1782836941090371000,9.18737109375,-0.7870055329710245,-0.5086506561443209,-0.43337950738705694
1782836941100300300,9.19730029296875,-0.8305699494093656,-0.48259895391240715,-0.46030156271271405
1782836941110229200,9.207229248046875,-1.0532055693626403,-0.3988340445108711,-0.4929786744337529
1782836941120158200,9.217158203125,-1.206996201148629,-0.34997188699059184,-0.5103299875333905
1782836941130087200,9.227087158203124,-1.3162491875499487,-0.32166327267736194,-0.569654538889788
1782836941140016400,9.237016357421876,-1.4805980382293462,-0.26461890468001364,-0.541023889547959
1782836941149945300,9.2469453125,-1.5732289756536484,-0.23047625045105813,-0.5131734673310071
1782836941159874300,9.256874267578125,-1.5908949807256458,-0.1819740853495896,-0.4952553141288459
1782836941169803300,9.26680322265625,-1.6134487578392027,-0.1285322718888521,-0.45767278511170295
1782836941179732200,9.276732177734376,-1.5818728853583335,-0.09995828463770448,-0.3912355522058904
1782836941189661200,9.2866611328125,-1.5998007562369108,-0.08324936109483241,-0.32895233370698984
1782836941199590100,9.296590087890625,-1.4854051462501288,-0.05947824408076703,-0.3350290232721716
1782836941209519000,9.30651904296875,-1.3178022622108458,-0.006288432619720697,-0.28667083321865644
1782836941219448000,9.316447998046876,-1.1439882485717534,0.07921579472981392,-0.16062811312321573
1782836941229376300,9.326376220703125,-0.9388526294738053,0.1409033123578876,-0.010733356264606118
1782836941239305200,9.33630517578125,-0.6858774008363485,0.23277963202260432,0.00512885078843683
1782836941249234200,9.346234130859376,-0.36794191651046276,0.4091971061583608,0.0495522221436724
1782836941259163100,9.3561630859375,-0.02116962927877903,0.6203671831149608,0.12610069736037402
1782836941269092400,9.36609228515625,0.22306524354219434,0.7466504339680076,0.19967486947402358
1782836941279021300,9.376021240234374,0.4875900401979685,0.7874332568638026,0.3108411786833778
1782836941288950300,9.3859501953125,0.674701342305541,0.8338421029478311,0.42899643346462396
1782836941298879200,9.395879150390625,0.7454290754795074,0.9088261783920228,0.4528752486368641
1782836941308808200,9.40580810546875,0.9239619343340396,0.9932982131496071,0.4379341384841129
1782836941318737200,9.415737060546874,1.1498615245193242,1.0875108668074012,0.48506713412422686
1782836941328666000,9.425666015625,1.3148539337992666,1.123258618145436,0.5800055447733029
1782836941338595000,9.435594970703125,1.4164438382267952,1.081849187783897,0.6807938870269805
1782836941348525300,9.445525390625,1.3750024052917957,1.0422042828768492,0.7129377686541527
1782836941358454300,9.455454345703124,1.403206170991063,1.0570892789281905,0.7449526901394128
1782836941368383200,9.46538330078125,1.402273858577013,1.0428883196182548,0.8100203517250716
1782836941378312200,9.475312255859375,1.3076140456736087,0.9864414791226387,0.8229685344949365
1782836941388241400,9.485241455078125,1.1655021612435579,0.9689030459530651,0.8114991921059787
1782836941398170000,9.495170166015624,1.042101991546154,0.9399668743260204,0.7761106294691562
1782836941408099000,9.50509912109375,0.7840203796803951,0.9230667390599846,0.8081532426789403
1782836941418028000,9.515028076171875,0.4716203176498413,0.881589211898297,0.8167220413208007
1782836941427957200,9.524957275390625,0.23950725977718829,0.8700893282406031,0.8354258650079369
1782836941437886200,9.53488623046875,-0.060066053906083106,0.85370649484694,0.827400671723485
1782836941447815200,9.544815185546875,-0.49422144103646276,0.7798359336026013,0.703650446479395
1782836941457744100,9.554744140625,-0.7553647785604,0.7553580565586686,0.6111854767391458
1782836941467673300,9.56467333984375,-0.901064458349347,0.7773666208796203,0.5442541036408394
1782836941477602300,9.574602294921876,-0.9851607916623354,0.7476888371050358,0.519248512928374
1782836941487531300,9.58453125,-0.9171125068306922,0.6515960687890648,0.4918208827007562
1782836941497460200,9.594460205078125,-0.73621116527915,0.5253938472829759,0.47198330574333663
1782836941507389200,9.60438916015625,-0.5728115781486034,0.4397175513021648,0.4624075585486367
1782836941517318100,9.614318115234376,-0.42000235861539836,0.32220147120729087,0.4183979921586811
1782836941527247000,9.6242470703125,-0.20397885027825832,0.20517536658644675,0.33580592592880126
1782836941537176000,9.634176025390625,0.12606442047059535,0.17673413886949418,0.3026485929427668
1782836941547105300,9.644105224609374,0.44006782604455946,0.19576945953331887,0.3424217638719827
1782836941557034200,9.6540341796875,0.6627993075877427,0.13385353997685015,0.40043267534654586
1782836941566963200,9.663963134765625,0.7937123371332884,-0.006861702463030815,0.451661854259111
1782836941576892200,9.67389208984375,0.9005681992650032,-0.1412879277613014,0.41485849292092025
1782836941586821400,9.6838212890625,0.8741659300297498,-0.23546792125850916,0.34062143645174797
1782836941596750300,9.693750244140626,0.8249287286520004,-0.3214482416871935,0.26525347625650464
1782836941606679300,9.70367919921875,0.9740028533101082,-0.3410989177703857,0.11789722489956765
1782836941616608300,9.713608154296875,0.9724486096054314,-0.26210567975007,0.2371540111819282
1782836941626537200,9.723537109375,0.8727408656626939,-0.2992805412817746,0.3089435283685103
1782836941636466200,9.733466064453125,0.896594034937024,-0.4051896971479058,0.3564439690815285
1782836941646395100,9.74339501953125,1.3039233744621277,-0.46670127368718384,0.27339707175623623
1782836941656324000,9.753323974609375,1.2319956178486346,-0.32291473404318094,0.3889394406253472
1782836941666253000,9.763253173828126,0.6355161638647318,-0.3071936524938792,0.4836094095965847
1782836941676183300,9.773183349609376,0.3077157036066055,-0.6245544787369668,0.4625945690207183
1782836941686112300,9.7831123046875,-0.3092342914760113,-0.8335015458818524,0.4636937624342739
1782836941696041200,9.793041259765625,-0.8133703928053378,-0.6660901658266782,0.5563426739066839
1782836941705970200,9.80297021484375,-0.9802478851795196,-0.37997334976159036,0.49898481951337303
1782836941715899100,9.812899169921875,-0.9170546391636133,-0.10572729649320244,0.3217189483873546
1782836941725828000,9.822828125,-1.5552718786805868,0.2537218092210591,0.4871463150184601
1782836941735757000,9.832757080078125,-2.358769696769118,0.5002625478316098,0.633879721769318
