time,seconds_elapsed,z,y,x
1782836931985455900,0.082455810546875,-0.09904931485652924,-0.18194524943828583,0.15696902573108673
1782836931995384600,0.092384521484375,-0.09356918185949326,-0.21291765570640564,0.08205652236938477
1782836932005313500,0.1023134765625,-0.09248660504817963,-0.24202841520309448,0.0044583966955542564
1782836932015242800,0.11224267578125,-0.10478614270687103,-0.24345476925373077,-0.04874387010931969
1782836932025171700,0.122171630859375,-0.13640904426574707,-0.2645485997200012,-0.0844733715057373
1782836932035100700,0.1321005859375,-0.15464597940444946,-0.2837789058685303,-0.07520557940006256
1782836932045029600,0.142029541015625,-0.14414407312870026,-0.25844451785087585,-0.026993844658136368
1782836932054958800,0.151958740234375,-0.13136205077171326,-0.23496393859386444,0.017432909458875656
1782836932064887800,0.1618876953125,-0.1307694911956787,-0.23226429522037506,0.03455330803990364
1782836932074816800,0.171816650390625,-0.14011640846729279,-0.2264578640460968,0.042702749371528625
1782836932084745700,0.181745849609375,-0.15944509208202362,-0.18505583703517914,0.05649792030453682
1782836932094674700,0.1916748046875,-0.18804819881916046,-0.15708854794502258,0.06992622464895248
1782836932104603600,0.201603759765625,-0.22240671515464783,-0.15015126764774323,0.07915806770324707
1782836932114532600,0.21153271484375,-0.24701696634292603,-0.155302032828331,0.08768951892852783
1782836932124461600,0.221461669921875,-0.25619980692863464,-0.17578281462192535,0.0954102873802185
1782836932134390500,0.231390625,-0.24917198717594147,-0.1341162770986557,0.1223238930106163
1782836932144319700,0.24131982421875,-0.24533037841320038,-0.08099793642759323,0.14973101019859314
1782836932154248700,0.251248779296875,-0.23393487930297852,-0.03396967053413391,0.16731691360473633
1782836932164177700,0.261177734375,-0.2062784880399704,0.019013121724128723,0.19578610360622406
1782836932174106600,0.271106689453125,-0.17621412873268127,0.035151395946741104,0.22135019302368164
1782836932184035800,0.281035888671875,-0.16609437763690948,0.003013700246810913,0.2381528615951538
1782836932193964800,0.29096484375,-0.16216923296451569,-0.03161614388227463,0.24477435648441315
1782836932203893800,0.300893798828125,-0.16610591113567352,-0.065658800303936,0.2432108372449875
1782836932213822700,0.31082275390625,-0.18134109675884247,-0.13019534945487976,0.21838559210300446
1782836932223751700,0.320751708984375,-0.18305671215057373,-0.1840314269065857,0.20163483917713165
1782836932233680600,0.3306806640625,-0.18790161609649658,-0.17713621258735657,0.196836456656456
1782836932243609600,0.340609619140625,-0.1824788898229599,-0.14626723527908325,0.16149869561195374
1782836932253538600,0.35053857421875,-0.16885843873023987,-0.11756185442209244,0.1110663190484047
1782836932263467800,0.3604677734375,-0.14983628690242767,-0.0784943476319313,0.06522346287965775
1782836932273396700,0.370396728515625,-0.13305874168872833,-0.03617042303085327,0.03100224956870079
1782836932283325700,0.38032568359375,-0.11876529455184937,-0.044496264308691025,0.0025695404037833214
1782836932293254700,0.390254638671875,-0.11790952831506729,-0.10723475366830826,-0.014147237874567509
1782836932303184000,0.400183837890625,-0.11838916689157486,-0.18082162737846375,-0.03582696616649628
1782836932313112800,0.41011279296875,-0.1228264793753624,-0.19726544618606567,-0.05752473324537277
1782836932323041800,0.420041748046875,-0.11676352471113205,-0.1715717911720276,-0.07341421395540237
1782836932332970500,0.429970458984375,-0.10740592330694199,-0.11429206281900406,-0.09095477312803268
1782836932342899700,0.439899658203125,-0.09434445202350616,-0.05233309417963028,-0.11125338822603226
1782836932352828700,0.44982861328125,-0.05992209538817406,0.012655280530452728,-0.1328752040863037
1782836932362757600,0.459757568359375,-0.008454377762973309,0.0986412912607193,-0.13538148999214172
1782836932372686600,0.4696865234375,0.03624166548252106,0.1676766276359558,-0.11462783068418503
1782836932382615800,0.47961572265625,0.06508156657218933,0.22483578324317932,-0.07807355374097824
1782836932392544800,0.489544677734375,0.08537089079618454,0.2535673975944519,-0.030658071860671043
1782836932402473700,0.4994736328125,0.10361940413713455,0.20291301608085632,-0.005564969964325428
1782836932412402700,0.509402587890625,0.1149117574095726,0.1283581405878067,0.004902680404484272
1782836932422332000,0.519331787109375,0.1341986358165741,0.06325850635766983,-0.009495966136455536
1782836932432260900,0.5292607421875,0.15033221244812012,0.015603562816977501,-0.04562230408191681
1782836932442189600,0.539189453125,0.1555624008178711,-0.031126124784350395,-0.0974961519241333
1782836932452118500,0.549118408203125,0.15394456684589386,-0.024999164044857025,-0.13876572251319885
1782836932462047700,0.5590478515625,0.13803617656230927,0.010669617913663387,-0.16497096419334412
1782836932471976700,0.568976806640625,0.10661527514457703,0.05410380661487579,-0.18603762984275818
1782836932481905700,0.57890576171875,0.08415044844150543,0.10641787946224213,-0.21108758449554443
1782836932491834600,0.588834716796875,0.07972534000873566,0.17498335242271423,-0.23220032453536987
1782836932501763800,0.598763916015625,0.08829298615455627,0.2204163521528244,-0.2332746386528015
1782836932511692800,0.60869287109375,0.1002926230430603,0.2194918394088745,-0.2032315880060196
1782836932521621800,0.618621826171875,0.11222384870052338,0.19897139072418213,-0.17680345475673676
1782836932531550700,0.62855078125,0.11950816214084625,0.1829155683517456,-0.160990908741951
1782836932541479700,0.638479736328125,0.1309107542037964,0.17675860226154327,-0.1652170717716217
1782836932551408600,0.64840869140625,0.13383077085018158,0.20618583261966705,-0.19107185304164886
1782836932561337600,0.658337646484375,0.1325782835483551,0.2362009882926941,-0.2369764894247055
1782836932571266600,0.6682666015625,0.13341224193572998,0.2695886194705963,-0.2740660607814789
1782836932581195500,0.678195556640625,0.14121051132678986,0.2860293686389923,-0.29993122816085815
1782836932591124700,0.688124755859375,0.13720324635505676,0.2604192793369293,-0.31805992126464844
1782836932601053700,0.6980537109375,0.13260981440544128,0.22014299035072327,-0.3440076410770416
1782836932610982700,0.707982666015625,0.12972590327262878,0.2568129301071167,-0.36429688334465027
1782836932620911600,0.71791162109375,0.12619668245315552,0.3300817906856537,-0.3584831953048706
1782836932630840800,0.7278408203125,0.11518362909555435,0.39981111884117126,-0.3246862590312958
1782836932640769800,0.737769775390625,0.10386226326227188,0.44378551840782166,-0.27788811922073364
1782836932650698800,0.74769873046875,0.10685628652572632,0.4347827136516571,-0.2213524580001831
1782836932660627700,0.757627685546875,0.13967576622962952,0.35703518986701965,-0.14294075965881348
1782836932670556700,0.767556640625,0.1979103833436966,0.24249796569347382,-0.043920546770095825
1782836932680485600,0.777485595703125,0.2835608422756195,0.06985428184270859,0.06875034421682358
1782836932690414600,0.78741455078125,0.37611106038093567,-0.07791699469089508,0.20380675792694092
1782836932700343600,0.797343505859375,0.4525459110736847,-0.14243446290493011,0.3391430079936981
1782836932710272800,0.807272705078125,0.5018302202224731,-0.1537596434354782,0.4452149271965027
1782836932720201700,0.81720166015625,0.5418490171432495,-0.14805062115192413,0.5149081945419312
1782836932730131700,0.827131591796875,0.5883893966674805,-0.12640494108200073,0.5411437749862671
1782836932740061000,0.83706103515625,0.6353076100349426,-0.1023765578866005,0.5046328902244568
1782836932749989600,0.84698974609375,0.6505929827690125,-0.08472520112991333,0.39563730359077454
1782836932759918600,0.856918701171875,0.6248271465301514,-0.08656865358352661,0.24137581884860992
1782836932769847600,0.86684765625,0.5465465188026428,-0.13215430080890656,0.07554726302623749
1782836932779777000,0.876777099609375,0.442740261554718,-0.21662046015262604,-0.05408342555165291
1782836932789706000,0.8867060546875,0.3650592565536499,-0.35839909315109253,-0.11219263076782227
1782836932799635000,0.896635009765625,0.3402644395828247,-0.4786005914211273,-0.09839372336864471
1782836932809564000,0.90656396484375,0.3553889989852905,-0.5412638783454895,-0.025602197274565697
1782836932819493000,0.9164931640625,0.39697158336639404,-0.5358802676200867,0.05797711759805679
1782836932829422000,0.926422119140625,0.45730212330818176,-0.4398774206638336,0.12503595650196075
1782836932839351000,0.93635107421875,0.5252238512039185,-0.2631891965866089,0.15946076810359955
1782836932849280000,0.946280029296875,0.5908955335617065,-0.0719633400440216,0.16546374559402466
1782836932859209000,0.956208984375,0.6449406743049622,0.059764061123132706,0.14850234985351562
1782836932869138000,0.966137939453125,0.6859267950057983,0.040470197796821594,0.10033916682004929
1782836932879067000,0.97606689453125,0.7200099229812622,-0.08188367635011673,0.06436332315206528
1782836932888995800,0.985995849609375,0.7355698347091675,-0.2418294996023178,0.05947834253311157
1782836932898925000,0.995925048828125,0.7278059124946594,-0.35723623633384705,0.10240290313959122
1782836932908854000,1.00585400390625,0.6900610327720642,-0.388790488243103,0.15927594900131226
1782836932918783000,1.015782958984375,0.6379539370536804,-0.33267953991889954,0.2316225916147232
1782836932928712000,1.0257119140625,0.6008687615394592,-0.1993124634027481,0.3091243505477905
1782836932938641200,1.03564111328125,0.5708317756652832,-0.05996309965848923,0.3730551302433014
1782836932948570000,1.045570068359375,0.5450611114501953,0.08811908215284348,0.3874858021736145
1782836932958499000,1.0554990234375,0.5244112014770508,0.16399255394935608,0.3678859770298004
1782836932968427800,1.065427734375,0.5038561820983887,0.17109741270542145,0.3350605070590973
1782836932978356700,1.075356689453125,0.47843652963638306,0.14081060886383057,0.2719036340713501
1782836932988286000,1.085285888671875,0.44834229350090027,0.07268988341093063,0.1737895905971527
1782836932998215000,1.09521484375,0.41177093982696533,-0.007902167737483978,0.047894787043333054
1782836933008144000,1.105143798828125,0.35573017597198486,-0.08111963421106339,-0.07390974462032318
1782836933018072800,1.11507275390625,0.303119957447052,-0.14039146900177002,-0.1745396852493286
1782836933028002000,1.125001953125,0.2623254358768463,-0.17064142227172852,-0.25361523032188416
1782836933037931000,1.134930908203125,0.23179173469543457,-0.21692316234111786,-0.3175220191478729
1782836933047860000,1.14485986328125,0.2044830620288849,-0.24360249936580658,-0.3677023649215698
1782836933057789000,1.154788818359375,0.1773366630077362,-0.23463484644889832,-0.3997335433959961
1782836933067718100,1.16471826171875,0.15161776542663574,-0.25509628653526306,-0.3846583068370819
1782836933077646800,1.174646728515625,0.13117001950740814,-0.23924461007118225,-0.3043685257434845
1782836933087575800,1.184575927734375,0.12350809574127197,-0.1773889660835266,-0.19214053452014923
1782836933097504800,1.1945048828125,0.11723262071609497,-0.11214285343885422,-0.09585580974817276
1782836933107434000,1.20443408203125,0.1187760978937149,0.003127569332718849,-0.01700543239712715
1782836933117363000,1.214363037109375,0.1431932896375656,0.15385928750038147,0.03858272731304169
1782836933127292000,1.2242919921875,0.1574319750070572,0.2618638277053833,0.05211258307099342
1782836933137220900,1.234220947265625,0.16872484982013702,0.3226723074913025,0.029183831065893173
1782836933147150000,1.244150146484375,0.1754944920539856,0.3440544605255127,-0.010837249457836151
1782836933157079000,1.2540791015625,0.17140841484069824,0.33008405566215515,-0.07936730235815048
1782836933167008000,1.264008056640625,0.16487543284893036,0.2786443829536438,-0.15311098098754883
1782836933176937000,1.27393701171875,0.16832636296749115,0.21868251264095306,-0.19235025346279144
1782836933186866000,1.283865966796875,0.1625293642282486,0.14116162061691284,-0.19055548310279846
1782836933196795000,1.293794921875,0.13966453075408936,0.060870230197906494,-0.16468633711338043
1782836933206723800,1.303723876953125,0.11291323602199554,-0.004821739625185728,-0.11085344851016998
1782836933216652800,1.31365283203125,0.07956752181053162,-0.01857323758304119,-0.04435058683156967
1782836933226582000,1.32358203125,0.04049116000533104,-0.014288161881268024,0.013859321363270283
1782836933236511000,1.333510986328125,0.00636301701888442,-0.02162277325987816,0.052473559975624084
1782836933246440000,1.34343994140625,-0.024978790432214737,-0.0405164435505867,0.05945667251944542
1782836933256369000,1.353368896484375,-0.04038011655211449,-0.030128249898552895,0.06746053695678711
1782836933266298000,1.363298095703125,-0.04786290228366852,-0.011738350614905357,0.07237067818641663
1782836933276227000,1.37322705078125,-0.05508112907409668,0.014405636116862297,0.06849338114261627
1782836933286156000,1.383156005859375,-0.06019395589828491,0.06268901377916336,0.06148459017276764
1782836933296085000,1.3930849609375,-0.07513748109340668,0.10776381194591522,0.05571245402097702
1782836933306014000,1.403013916015625,-0.10149618238210678,0.10843927413225174,0.03632420301437378
1782836933315943000,1.41294287109375,-0.13021837174892426,0.07487624883651733,0.011787702329456806
1782836933325871900,1.422871826171875,-0.15719695389270782,-0.00017786119133234024,0.0018704794347286224
1782836933335800800,1.43280078125,-0.1822594255208969,-0.05476893484592438,0.025901246815919876
1782836933345730000,1.44272998046875,-0.20026518404483795,-0.07146711647510529,0.08695447444915771
1782836933355659000,1.452658935546875,-0.20853030681610107,-0.06525076180696487,0.18006309866905212
1782836933365588000,1.462587890625,-0.2143399864435196,-0.006956246681511402,0.2702103555202484
1782836933375517000,1.472516845703125,-0.21310746669769287,0.09144861996173859,0.34532612562179565
1782836933385446100,1.482446044921875,-0.18950623273849487,0.18132218718528748,0.3984812796115875
1782836933395375000,1.492375,-0.16557294130325317,0.22067677974700928,0.40201184153556824
1782836933405304000,1.502303955078125,-0.12298229336738586,0.18245066702365875,0.34236833453178406
1782836933415233000,1.51223291015625,-0.05766028165817261,0.09437860548496246,0.23174168169498444
1782836933425161700,1.52216162109375,0.021864978596568108,-0.02918999269604683,0.09409181028604507
1782836933435091000,1.532091064453125,0.07982069253921509,-0.15462514758110046,-0.05678318440914154
1782836933445020000,1.54202001953125,0.09050867706537247,-0.21385355293750763,-0.19069936871528625
1782836933454948900,1.551948974609375,0.038688354194164276,-0.15469223260879517,-0.25200319290161133
1782836933464879000,1.561879150390625,-0.05079730600118637,-0.009055607952177525,-0.22523096203804016
1782836933474807000,1.57180712890625,-0.16200479865074158,0.19045856595039368,-0.13886171579360962
1782836933484737000,1.581737060546875,-0.27414625883102417,0.36280494928359985,-0.023075738921761513
1782836933494666000,1.591666015625,-0.34568914771080017,0.4521907567977905,0.09935244172811508
1782836933504595000,1.601594970703125,-0.3694939613342285,0.4737592041492462,0.22024230659008026
1782836933514524000,1.61152392578125,-0.3760216534137726,0.456144779920578,0.3150303363800049
1782836933524452900,1.621452880859375,-0.3638797998428345,0.41483646631240845,0.39471957087516785
1782836933534381800,1.6313818359375,-0.3336249589920044,0.39091673493385315,0.4543727934360504
1782836933544311000,1.64131103515625,-0.2773870825767517,0.3799857497215271,0.4744109511375427
1782836933554240000,1.651239990234375,-0.20807485282421112,0.36980581283569336,0.4566793441772461
1782836933564169000,1.6611689453125,-0.1535346508026123,0.37513238191604614,0.41557031869888306
1782836933574098000,1.671097900390625,-0.13905611634254456,0.40109872817993164,0.3304639458656311
1782836933584027100,1.681027099609375,-0.15661272406578064,0.40809303522109985,0.23943497240543365
1782836933593956000,1.6909560546875,-0.1812983602285385,0.35538429021835327,0.13687664270401
1782836933603885000,1.700885009765625,-0.21844539046287537,0.26697981357574463,0.04682117700576782
1782836933613813800,1.710813720703125,-0.2567232847213745,0.18448758125305176,-0.03400522843003273
1782836933623743000,1.720742919921875,-0.3067006468772888,0.10180234909057617,-0.12761718034744263
1782836933633672000,1.730671875,-0.3510611951351166,-0.02202771231532097,-0.2213604748249054
1782836933643601000,1.740600830078125,-0.36910340189933777,-0.13556063175201416,-0.29251888394355774
1782836933653529900,1.75052978515625,-0.36330994963645935,-0.2025548368692398,-0.33267349004745483
1782836933663459000,1.760458984375,-0.36621367931365967,-0.2704952657222748,-0.3495440185070038
1782836933673388000,1.770387939453125,-0.37217119336128235,-0.34280461072921753,-0.36181479692459106
1782836933683317000,1.78031689453125,-0.3772987127304077,-0.3951241672039032,-0.36588171124458313
1782836933693246000,1.790245849609375,-0.3799102008342743,-0.4000547528266907,-0.3560594618320465
1782836933703175200,1.800175048828125,-0.3749335706233978,-0.3729630708694458,-0.3439139127731323
1782836933713104100,1.810104248046875,-0.34475117921829224,-0.2811465859413147,-0.3127370774745941
1782836933723032800,1.82003271484375,-0.2931981384754181,-0.12920516729354858,-0.2514655590057373
1782836933732961800,1.8299619140625,-0.22818318009376526,0.05793969705700874,-0.1704346239566803
1782836933742891000,1.83989111328125,-0.15386846661567688,0.24257607758045197,-0.08848969638347626
1782836933752820000,1.849820068359375,-0.07573479413986206,0.3856807351112366,-0.03627443313598633
1782836933762749000,1.8597490234375,0.007304624188691378,0.44627144932746887,-0.010947907343506813
1782836933772678000,1.869677978515625,0.08125074952840805,0.4136221408843994,-0.006683920510113239
1782836933782606800,1.87960693359375,0.15192992985248566,0.303215354681015,-0.009235085919499397
1782836933792535800,1.889535888671875,0.21636830270290375,0.1758161038160324,0.0008681481704115868
1782836933802464800,1.89946484375,0.27425408363342285,0.05294405668973923,0.015541129745543003
1782836933812394000,1.90939404296875,0.32094863057136536,-0.052550673484802246,0.0344809964299202
1782836933822323000,1.919322998046875,0.34259232878685,-0.08723193407058716,0.06820148974657059
1782836933832252000,1.929251953125,0.3455985188484192,-0.0702928975224495,0.10732066631317139
1782836933842180600,1.9391806640625,0.33201971650123596,-0.04995332658290863,0.1340194046497345
1782836933852109800,1.94910986328125,0.30418115854263306,-0.06934726238250732,0.13771507143974304
1782836933862038800,1.959038818359375,0.27194857597351074,-0.09722765535116196,0.12867504358291626
1782836933871967700,1.9689677734375,0.2372041791677475,-0.1496940553188324,0.08264949172735214
1782836933881896700,1.978896728515625,0.22424709796905518,-0.19765040278434753,-0.010609611868858337
1782836933891826000,1.988825927734375,0.23202300071716309,-0.19739340245723724,-0.12464350461959839
1782836933901755000,1.9987548828125,0.23273931443691254,-0.18147005140781403,-0.21178095042705536
1782836933911683800,2.008683837890625,0.21674783527851105,-0.1288803368806839,-0.27579349279403687
1782836933921612800,2.01861279296875,0.18631905317306519,-0.04970384016633034,-0.30107972025871277
1782836933931542000,2.0285419921875,0.15286442637443542,0.08299721777439117,-0.2687561511993408
1782836933941471000,2.038470947265625,0.13675446808338165,0.2618591785430908,-0.20122337341308594
1782836933951399700,2.048399658203125,0.1399020552635193,0.40460726618766785,-0.12791959941387177
1782836933961328600,2.05832861328125,0.14462341368198395,0.47231608629226685,-0.08250126987695694
1782836933971257900,2.0682578125,0.15319107472896576,0.4621902108192444,-0.08254095166921616
1782836933981186800,2.078186767578125,0.16640250384807587,0.3793915808200836,-0.12027756124734879
1782836933991115800,2.08811572265625,0.18251703679561615,0.23905017971992493,-0.157831609249115
1782836934001044700,2.098044677734375,0.20996226370334625,0.10087186843156815,-0.15502917766571045
1782836934010974000,2.107973876953125,0.26286035776138306,-0.004883851855993271,-0.10444189608097076
1782836934020903000,2.11790283203125,0.33884960412979126,-0.07939297705888748,-0.02584151364862919
1782836934030831900,2.127831787109375,0.42970705032348633,-0.08653663843870163,0.06127367913722992
1782836934040760800,2.1377607421875,0.5262694358825684,-0.03268664330244064,0.14011597633361816
1782836934050690000,2.14768994140625,0.6154797077178955,0.05525413155555725,0.2119949609041214
1782836934060618800,2.15761865234375,0.6769378185272217,0.13280464708805084,0.277506023645401
1782836934070547700,2.167547607421875,0.7090291976928711,0.14101117849349976,0.3452984094619751
1782836934080476700,2.1774765625,0.7170243263244629,0.09622784703969955,0.4055309295654297
1782836934090406000,2.187406005859375,0.6893953680992126,0.0386713445186615,0.4449382722377777
1782836934100335900,2.1973359375,0.6401118040084839,-0.03345802426338196,0.4307541251182556
1782836934110264800,2.207264892578125,0.5640639066696167,-0.10685127973556519,0.34545227885246277
1782836934120193800,2.21719384765625,0.4819573760032654,-0.18625153601169586,0.20203620195388794
1782836934130123000,2.227123046875,0.39992111921310425,-0.2655104100704193,0.02806839346885681
1782836934140052000,2.237052001953125,0.33608534932136536,-0.3468557298183441,-0.16326941549777985
1782836934149980700,2.246980712890625,0.2998692989349365,-0.4164843261241913,-0.3380758762359619
1782836934159909600,2.25690966796875,0.2957645654678345,-0.43366435170173645,-0.4645068049430847
1782836934169838800,2.2668388671875,0.3118804395198822,-0.36893942952156067,-0.5116471648216248
1782836934179767800,2.276767822265625,0.3259401023387909,-0.26208239793777466,-0.4501093626022339
1782836934189696800,2.28669677734375,0.3507402539253235,-0.17803223431110382,-0.2841837704181671
1782836934199625700,2.296625732421875,0.37978675961494446,-0.1349671632051468,-0.05036532133817673
1782836934209555000,2.306554931640625,0.40380048751831055,-0.14633752405643463,0.18899106979370117
1782836934219484000,2.31648388671875,0.4125162363052368,-0.1605747640132904,0.3972027003765106
1782836934229412900,2.326412841796875,0.3896756172180176,-0.12537601590156555,0.5211539268493652
1782836934239341800,2.336341796875,0.35838791728019714,-0.024604637175798416,0.5425655841827393
1782836934249271000,2.34627099609375,0.3474585711956024,0.13648198544979095,0.5182506442070007
1782836934259199700,2.35619970703125,0.3597358465194702,0.3274737298488617,0.4777262508869171
1782836934269128700,2.366128662109375,0.3705160319805145,0.4921010136604309,0.4329204261302948
1782836934279057700,2.3760576171875,0.3745182454586029,0.5721226930618286,0.39210939407348633
1782836934288987000,2.38598681640625,0.37972819805145264,0.5701096057891846,0.3618820011615753
1782836934298915800,2.395915771484375,0.390973836183548,0.5237149596214294,0.3391142785549164
1782836934308844800,2.4058447265625,0.4155638813972473,0.44804126024246216,0.3107374906539917
1782836934318773800,2.415773681640625,0.43647500872612,0.3235468864440918,0.2636769413948059
1782836934328703000,2.425702880859375,0.43594637513160706,0.13575594127178192,0.18713022768497467
1782836934338632000,2.4356318359375,0.41515520215034485,-0.05191836878657341,0.09900655597448349
1782836934348561000,2.445560791015625,0.38444098830223083,-0.28783583641052246,-0.0028385822661221027
1782836934358489900,2.45548974609375,0.35546180605888367,-0.5643576979637146,-0.10981323570013046
1782836934368418800,2.465418701171875,0.32951515913009644,-0.731706976890564,-0.20146645605564117
1782836934378347800,2.47534765625,0.297954797744751,-0.8170558214187622,-0.2830522060394287
1782836934388276700,2.48527685546875,0.2588960826396942,-0.8415630459785461,-0.3634149432182312
1782836934398205700,2.495205810546875,0.23099003732204437,-0.7833042740821838,-0.4452594220638275
1782836934408135000,2.505135009765625,0.21868650615215302,-0.6371052861213684,-0.50286865234375
1782836934418064000,2.51506396484375,0.22176073491573334,-0.4269716143608093,-0.5298565626144409
1782836934427992800,2.524992919921875,0.22957205772399902,-0.1576538383960724,-0.509086549282074
1782836934437921800,2.534921875,0.22325268387794495,0.14367389678955078,-0.44427794218063354
1782836934447851000,2.54485107421875,0.19252964854240417,0.3977229595184326,-0.3568495810031891
1782836934457780000,2.554780029296875,0.15221187472343445,0.5609659552574158,-0.28275787830352783
1782836934467709000,2.564708984375,0.11247910559177399,0.6102155447006226,-0.2562088370323181
1782836934477638000,2.574637939453125,0.06318866461515427,0.5670961737632751,-0.271694540977478
1782836934487566800,2.58456689453125,0.03141235560178757,0.5178111791610718,-0.2833019495010376
1782836934497495800,2.594495849609375,0.011029153130948544,0.4403454065322876,-0.3009222745895386
1782836934507424800,2.6044248046875,0.012982049025595188,0.3280947506427765,-0.337986022233963
1782836934517353700,2.614353759765625,0.04224739968776703,0.2155151218175888,-0.3922215700149536
1782836934527282700,2.62428271484375,0.09220031648874283,0.11987169086933136,-0.43367817997932434
1782836934537212000,2.6342119140625,0.13587257266044617,0.05748971179127693,-0.46547117829322815
1782836934547140900,2.644140869140625,0.16464854776859283,0.03815143555402756,-0.4760436415672302
1782836934557069800,2.65406982421875,0.18041639029979706,0.042598508298397064,-0.4650316834449768
1782836934566998800,2.663998779296875,0.19002319872379303,0.01959412172436714,-0.42401233315467834
1782836934576928000,2.673927978515625,0.20070219039916992,-0.03437039256095886,-0.3371259868144989
1782836934586857000,2.68385693359375,0.2116379290819168,-0.06909934431314468,-0.20976242423057556
1782836934596785700,2.69378564453125,0.2101135104894638,-0.1069951131939888,-0.07911290228366852
1782836934606714600,2.703714599609375,0.20211471617221832,-0.133961483836174,0.02288084104657173
1782836934616644900,2.713644775390625,0.20924751460552216,-0.1115926131606102,0.08104737848043442
1782836934626573800,2.72357373046875,0.22263522446155548,-0.07976597547531128,0.09281083196401596
1782836934636502800,2.733502685546875,0.24176383018493652,-0.05570056289434433,0.07834301888942719
1782836934646432000,2.743431884765625,0.2536601722240448,-0.02899385243654251,0.06994341313838959
1782836934656361000,2.75336083984375,0.25537389516830444,0.0043771350756287575,0.0924374908208847
1782836934666290000,2.7632900390625,0.2399667203426361,0.0370277538895607,0.12991774082183838
1782836934676218600,2.773218505859375,0.2283555269241333,0.027375418692827225,0.16002655029296875
1782836934686147800,2.78314794921875,0.21521629393100739,-0.018696468323469162,0.17686651647090912
1782836934696076800,2.793076904296875,0.20286191999912262,-0.09389469027519226,0.1819463074207306
1782836934706005800,2.803005859375,0.18373776972293854,-0.17172130942344666,0.19192543625831604
1782836934715934700,2.812934814453125,0.15492890775203705,-0.2518404424190521,0.20690204203128815
1782836934725864000,2.822864013671875,0.09825471043586731,-0.3328351676464081,0.22192147374153137
1782836934735793000,2.83279296875,0.02526658959686756,-0.3579472303390503,0.25069546699523926
1782836934745721900,2.842721923828125,-0.04618122801184654,-0.3056906759738922,0.28293436765670776
1782836934755650800,2.85265087890625,-0.11438332498073578,-0.20859886705875397,0.2915540039539337
1782836934765580000,2.862580078125,-0.15718191862106323,-0.042819492518901825,0.2883342206478119
1782836934775509000,2.872509033203125,-0.175628662109375,0.18463970720767975,0.2863038182258606
1782836934785438200,2.882438232421875,-0.19991189241409302,0.34984466433525085,0.26721295714378357
1782836934795367200,2.8923671875,-0.22837848961353302,0.4506416916847229,0.22894532978534698
1782836934805296000,2.902296142578125,-0.2511333227157593,0.48785752058029175,0.17129722237586975
1782836934815225300,2.912225341796875,-0.26380035281181335,0.4358300566673279,0.10158535838127136
1782836934825154300,2.922154296875,-0.2811332643032074,0.28661981225013733,0.007586422376334667
1782836934835083300,2.932083251953125,-0.31853607296943665,0.07036647945642471,-0.10224773734807968
1782836934845012200,2.94201220703125,-0.37788113951683044,-0.15416330099105835,-0.2231006622314453
1782836934854941200,2.951941162109375,-0.4491455554962158,-0.3052605986595154,-0.30433154106140137
1782836934864870400,2.961870361328125,-0.5084025263786316,-0.34892737865448,-0.3149852752685547
1782836934874799400,2.97179931640625,-0.5332271456718445,-0.3015148639678955,-0.24416106939315796
1782836934884728300,2.981728271484375,-0.5220442414283752,-0.1935569792985916,-0.10695075243711472
1782836934894657000,2.991656982421875,-0.47255370020866394,-0.06706144660711288,0.08492860943078995
1782836934904586200,3.001586181640625,-0.39547011256217957,0.054655931890010834,0.27683544158935547
1782836934914515200,3.01151513671875,-0.3193374574184418,0.16140788793563843,0.442327082157135
1782836934924444200,3.021444091796875,-0.2744980752468109,0.2568023204803467,0.5401167869567871
1782836934934373000,3.031373046875,-0.2548055648803711,0.3440204858779907,0.5714348554611206
1782836934944302300,3.04130224609375,-0.24773536622524261,0.43519461154937744,0.5518918037414551
1782836934954231300,3.051231201171875,-0.23572231829166412,0.4980001449584961,0.4913100302219391
1782836934964160300,3.06116015625,-0.22031113505363464,0.5372940301895142,0.4394356608390808
1782836934974089200,3.071089111328125,-0.21318577229976654,0.5235227942466736,0.4087253510951996
1782836934984018400,3.081018310546875,-0.21599647402763367,0.45725855231285095,0.4090350568294525
1782836934993947400,3.090947509765625,-0.22161459922790527,0.3566972613334656,0.4249787926673889
1782836935003876000,3.1008759765625,-0.23782873153686523,0.2083570659160614,0.4204798936843872
1782836935013805000,3.11080517578125,-0.24775607883930206,0.04523777216672897,0.39484959840774536
1782836935023734300,3.120734375,-0.23765656352043152,-0.09964671730995178,0.3352144956588745
1782836935033663200,3.130663330078125,-0.2342207431793213,-0.23775987327098846,0.2225981205701828
1782836935043592200,3.14059228515625,-0.22264930605888367,-0.33852270245552063,0.06514085084199905
1782836935053521200,3.150521240234375,-0.17829781770706177,-0.46670833230018616,-0.14595943689346313
1782836935063450400,3.160450439453125,-0.13753893971443176,-0.6582751274108887,-0.3881017565727234
1782836935073379300,3.17037939453125,-0.09664709120988846,-0.8415395617485046,-0.6379330158233643
1782836935083309000,3.18030908203125,-0.06298953294754028,-0.8967394232749939,-0.837746798992157
1782836935093238300,3.19023828125,-0.04904291778802872,-0.853251576423645,-0.950291633605957
1782836935103167200,3.200167236328125,-0.05351969599723816,-0.7342392206192017,-0.9646164774894714
1782836935113096200,3.21009619140625,-0.06664729863405228,-0.5067440271377563,-0.8736196756362915
1782836935123025200,3.220025146484375,-0.06455858796834946,-0.16115544736385345,-0.6560050249099731
1782836935132954400,3.229954345703125,-0.055083345621824265,0.2411583811044693,-0.3608320653438568
1782836935142883300,3.23988330078125,-0.05535977706313133,0.5419725775718689,-0.07106176763772964
1782836935152812300,3.249812255859375,-0.04665819928050041,0.6967279314994812,0.14124193787574768
1782836935162741200,3.2597412109375,-0.023283634334802628,0.7359640002250671,0.2462541162967682
1782836935172670500,3.26967041015625,0.011212012730538845,0.6821085214614868,0.26176759600639343
1782836935182599400,3.279599365234375,0.05188567191362381,0.5524135828018188,0.2031271755695343
1782836935192528100,3.289528076171875,0.08141160011291504,0.3753759562969208,0.10509217530488968
1782836935202457000,3.29945703125,0.0994366705417633,0.1996518075466156,0.005141615867614746
1782836935212386000,3.309385986328125,0.1118200421333313,0.028952831402420998,-0.08613813668489456
1782836935222315300,3.319315185546875,0.12582534551620483,-0.08579904586076736,-0.13941361010074615
1782836935232244200,3.329244140625,0.14545036852359772,-0.14697739481925964,-0.1537487506866455
1782836935242173200,3.339173095703125,0.15772594511508942,-0.17949911952018738,-0.14267559349536896
1782836935252102100,3.34910205078125,0.16313225030899048,-0.17993830144405365,-0.11933892220258713
1782836935262031400,3.35903125,0.15967226028442383,-0.17829406261444092,-0.10961731523275375
1782836935271960300,3.368960205078125,0.14235909283161163,-0.18626026809215546,-0.11325543373823166
1782836935281889300,3.37888916015625,0.12484987080097198,-0.20160940289497375,-0.10956136137247086
1782836935291818200,3.388818359375,0.10022754967212677,-0.2279628962278366,-0.09675776958465576
1782836935301747200,3.398747314453125,0.07020760327577591,-0.23334062099456787,-0.07490839809179306
1782836935311676200,3.40867626953125,0.02744249626994133,-0.22033576667308807,-0.061387352645397186
1782836935321605000,3.418605224609375,-0.012433544732630253,-0.1909448653459549,-0.057467974722385406
1782836935331534000,3.4285341796875,-0.04282143712043762,-0.15094920992851257,-0.06023057550191879
1782836935341463300,3.43846337890625,-0.05526851862668991,-0.09375330060720444,-0.060001544654369354
1782836935351392300,3.448392333984375,-0.048800431191921234,-0.022750016301870346,-0.035119760781526566
1782836935361321200,3.4583212890625,-0.033160485327243805,0.044827695935964584,-0.0036944616585969925
1782836935371250200,3.468250244140625,-0.012481906451284885,0.1014513447880745,0.03243038430809975
1782836935381179400,3.478179443359375,0.008230827748775482,0.1501653492450714,0.05452689900994301
1782836935391108400,3.4881083984375,0.0016660550609230995,0.1816389113664627,0.0671515092253685
1782836935401037300,3.498037353515625,-0.027508076280355453,0.1767251193523407,0.08107025176286697
1782836935410966300,3.50796630859375,-0.062273673713207245,0.14974838495254517,0.10643543303012848
1782836935420895200,3.517895263671875,-0.0914619192481041,0.09392639994621277,0.12480458617210388
1782836935430824200,3.52782421875,-0.11505050212144852,0.04800345003604889,0.12977509200572968
1782836935440753200,3.537753173828125,-0.12378459423780441,0.04140520095825195,0.1290096938610077
1782836935450682000,3.54768212890625,-0.12622347474098206,0.06310182809829712,0.10448232293128967
1782836935460611300,3.557611328125,-0.1042577251791954,0.08901412039995193,0.08711504936218262
1782836935470540300,3.567540283203125,-0.06772089749574661,0.09300924092531204,0.09190766513347626
1782836935480469200,3.57746923828125,-0.0037552257999777794,0.08739103376865387,0.1468641310930252
1782836935490398200,3.587398193359375,0.07078830897808075,0.07745549082756042,0.23181642591953278
1782836935500327400,3.597327392578125,0.1401202380657196,0.040310248732566833,0.30659452080726624
1782836935510256400,3.60725634765625,0.1921733170747757,-0.0038582943379878998,0.3405015468597412
1782836935520185300,3.617185302734375,0.22227077186107635,-0.0741143450140953,0.3389212191104889
1782836935530115300,3.627115234375,0.20533247292041779,-0.18650202453136444,0.29501739144325256
1782836935540044300,3.637044189453125,0.1571873128414154,-0.3147478699684143,0.2384403944015503
1782836935549973200,3.64697314453125,0.09249866753816605,-0.40699028968811035,0.19882169365882874
1782836935559902200,3.656902099609375,0.026684235781431198,-0.45562440156936646,0.17906981706619263
1782836935569831200,3.6668310546875,-0.03556215763092041,-0.4786366820335388,0.15502113103866577
1782836935579760400,3.676760498046875,-0.07739455997943878,-0.44173485040664673,0.11253464967012405
1782836935589689300,3.686689453125,-0.08742473274469376,-0.28496548533439636,0.07594882696866989
1782836935599618300,3.696618408203125,-0.09941136091947556,-0.07655636221170425,0.0720430389046669
1782836935609547300,3.70654736328125,-0.1219424232840538,0.09409362077713013,0.09847158193588257
1782836935619476200,3.716476318359375,-0.14959456026554108,0.23175081610679626,0.16020339727401733
1782836935629405200,3.7264052734375,-0.1654800921678543,0.291941374540329,0.23323975503444672
1782836935639334100,3.736334228515625,-0.18445192277431488,0.29080766439437866,0.29907843470573425
1782836935649263000,3.74626318359375,-0.21180196106433868,0.2487030327320099,0.3321022689342499
1782836935659192300,3.7561923828125,-0.24272286891937256,0.1825362592935562,0.3404853641986847
1782836935669121300,3.766121337890625,-0.26731446385383606,0.12749306857585907,0.34790608286857605
1782836935679050200,3.77605029296875,-0.27133050560951233,0.11993181705474854,0.37411025166511536
1782836935688979200,3.785979248046875,-0.2580448389053345,0.14109215140342712,0.4043940603733063
1782836935698908400,3.795908447265625,-0.23939257860183716,0.186736598610878,0.44906777143478394
1782836935708837400,3.80583740234375,-0.22088530659675598,0.24244511127471924,0.48789164423942566
1782836935718766300,3.815766357421875,-0.20486852526664734,0.2409745156764984,0.49276790022850037
1782836935728695000,3.825695068359375,-0.19242429733276367,0.21328236162662506,0.47114479541778564
1782836935738624300,3.835624267578125,-0.18524254858493805,0.1427173912525177,0.4070286750793457
1782836935748553200,3.84555322265625,-0.18165497481822968,0.0004479857161641121,0.2999262809753418
1782836935758482200,3.855482177734375,-0.17989622056484222,-0.18803483247756958,0.14369644224643707
1782836935768411100,3.8654111328125,-0.1759241372346878,-0.37942034006118774,-0.05908336490392685
1782836935778340400,3.87534033203125,-0.17283114790916443,-0.5253637433052063,-0.26816681027412415
1782836935788268800,3.885268798828125,-0.1734708547592163,-0.6225365996360779,-0.46074748039245605
1782836935798197800,3.89519775390625,-0.17616303265094757,-0.7012710571289062,-0.6322190761566162
1782836935808127000,3.905126953125,-0.17760229110717773,-0.704497754573822,-0.7542867660522461
1782836935818056000,3.915055908203125,-0.16651926934719086,-0.5928993225097656,-0.7844614386558533
1782836935827985000,3.92498486328125,-0.1549687534570694,-0.4438369572162628,-0.7101197838783264
1782836935837913900,3.934913818359375,-0.16756896674633026,-0.23716847598552704,-0.5399957299232483
1782836935847842800,3.9448427734375,-0.19433659315109253,0.0011263201013207436,-0.3388761579990387
1782836935857771800,3.954771728515625,-0.22927886247634888,0.23198164999485016,-0.16119268536567688
1782836935867700700,3.96470068359375,-0.25360801815986633,0.3945736289024353,-0.03336974233388901
1782836935877629700,3.974629638671875,-0.27057555317878723,0.49884119629859924,0.03652731329202652
1782836935887559000,3.984558837890625,-0.2806614339351654,0.5161023139953613,0.04933243617415428
1782836935897488000,3.99448779296875,-0.28488174080848694,0.48782995343208313,0.013872982002794743
1782836935907416800,4.004416748046875,-0.2834758162498474,0.4335383474826813,-0.04898420348763466
1782836935917345800,4.014345703125,-0.2732873558998108,0.3418595492839813,-0.11887460947036743
1782836935927275000,4.02427490234375,-0.25601962208747864,0.21871168911457062,-0.1928909569978714
1782836935937204000,4.034203857421875,-0.23279313743114471,0.09256520122289658,-0.2269008606672287
1782836935947133000,4.0441328125,-0.22241821885108948,-0.01294698752462864,-0.2216753512620926
1782836935957062700,4.054062744140625,-0.22739487886428833,-0.10019401460886002,-0.17748978734016418
1782836935966992000,4.063991943359375,-0.24268409609794617,-0.15639899671077728,-0.1323591023683548
1782836935976920800,4.0739208984375,-0.2519809305667877,-0.1779966950416565,-0.0904095247387886
1782836935986849800,4.083849853515625,-0.25816071033477783,-0.21513311564922333,-0.0720481276512146
1782836935996778800,4.09377880859375,-0.2726621627807617,-0.2480761557817459,-0.05951795354485512
1782836936006708000,4.1037080078125,-0.29020631313323975,-0.24577584862709045,-0.030271228402853012
1782836936016637000,4.113636962890625,-0.3247253894805908,-0.23969212174415588,-0.003653733991086483
1782836936026566000,4.12356591796875,-0.3565034568309784,-0.25355225801467896,0.011645792052149773
1782836936036494800,4.133494873046875,-0.36400744318962097,-0.25061506032943726,0.0036219535395503044
1782836936046423800,4.143423828125,-0.3638080954551697,-0.2817362844944,-0.04793975502252579
1782836936056352800,4.153352783203125,-0.3861812949180603,-0.3671361207962036,-0.1277080923318863
1782836936066281700,4.16328173828125,-0.4326027035713196,-0.5023670196533203,-0.19312402606010437
1782836936076210700,4.173210693359375,-0.49243512749671936,-0.6295633316040039,-0.20407894253730774
1782836936086140000,4.183139892578125,-0.5539043545722961,-0.7062280178070068,-0.14411763846874237
1782836936096068900,4.19306884765625,-0.588275671005249,-0.7163442969322205,-0.053512364625930786
1782836936105997800,4.202997802734375,-0.5870256423950195,-0.6424293518066406,0.052515070885419846
1782836936115926800,4.2129267578125,-0.5529784560203552,-0.4708714187145233,0.1661766618490219
1782836936125856000,4.22285595703125,-0.5098975896835327,-0.23911279439926147,0.23679541051387787
1782836936135785000,4.232784912109375,-0.47634366154670715,-0.04478539898991585,0.2380835860967636
1782836936145714000,4.2427138671875,-0.4381655752658844,0.0793212354183197,0.1743861734867096
1782836936155642600,4.252642578125,-0.4166507124900818,0.11397269368171692,0.05478574335575104
1782836936165571800,4.26257177734375,-0.41621124744415283,0.016641687601804733,-0.10500971227884293
1782836936175500800,4.272500732421875,-0.44317683577537537,-0.12789419293403625,-0.26781272888183594
1782836936185429800,4.2824296875,-0.4932902455329895,-0.2416372299194336,-0.38656851649284363
1782836936195358700,4.292358642578125,-0.5703578591346741,-0.2730047404766083,-0.43537572026252747
1782836936205288000,4.302287841796875,-0.6421639919281006,-0.2268175631761551,-0.4059136211872101
1782836936215217000,4.312216796875,-0.6920367479324341,-0.10941318422555923,-0.29331010580062866
1782836936225145900,4.322145751953125,-0.7107241153717041,0.05036969482898712,-0.12847542762756348
1782836936235074800,4.33207470703125,-0.7130557298660278,0.22274839878082275,0.07730036228895187
1782836936245004000,4.342004150390625,-0.7162352204322815,0.350485622882843,0.2628360092639923
1782836936254933000,4.35193310546875,-0.7066917419433594,0.4053107798099518,0.4036807417869568
1782836936264861700,4.36186181640625,-0.6857542991638184,0.3861018121242523,0.4904470145702362
1782836936274790700,4.371790771484375,-0.6634002923965454,0.3097127676010132,0.5190054178237915
1782836936284719900,4.381719970703125,-0.6530870795249939,0.2355927973985672,0.51336270570755
1782836936294648800,4.39164892578125,-0.6528977155685425,0.18308112025260925,0.49254369735717773
1782836936304577800,4.401577880859375,-0.6569589972496033,0.16415350139141083,0.4624718427658081
1782836936314506800,4.4115068359375,-0.6477727293968201,0.2073824554681778,0.4254043698310852
1782836936324436000,4.42143603515625,-0.6208500862121582,0.2617635428905487,0.38656073808670044
1782836936334365000,4.431364990234375,-0.5961207747459412,0.2876257598400116,0.3357713222503662
1782836936344294000,4.4412939453125,-0.580472469329834,0.2924993336200714,0.2760876417160034
1782836936354222800,4.451222900390625,-0.5795254111289978,0.25741085410118103,0.2190597653388977
1782836936364151800,4.46115185546875,-0.5873789191246033,0.20138177275657654,0.15464873611927032
1782836936374081800,4.471081787109375,-0.5930320024490356,0.10815542936325073,0.09430017322301865
1782836936384010800,4.4810107421875,-0.5828519463539124,-0.00493838544934988,0.017704080790281296
1782836936393939700,4.490939697265625,-0.5424009561538696,-0.13471448421478271,-0.1005738228559494
1782836936403869000,4.500868896484375,-0.4568830132484436,-0.268610417842865,-0.2504715025424957
1782836936413798000,4.5107978515625,-0.32953837513923645,-0.41655436158180237,-0.4023726284503937
1782836936423726800,4.520726806640625,-0.1882704794406891,-0.5696635246276855,-0.5220851898193359
1782836936433655800,4.53065576171875,-0.04970860108733177,-0.7113943099975586,-0.6071473360061646
1782836936443585000,4.5405849609375,0.053216103464365005,-0.7754438519477844,-0.6489602327346802
1782836936453514000,4.550513916015625,0.10556852072477341,-0.7092515230178833,-0.6253262758255005
1782836936463442700,4.560442626953125,0.08094305545091629,-0.5449941158294678,-0.5405220985412598
1782836936473371600,4.57037158203125,0.0017449110746383667,-0.3244177997112274,-0.39860787987709045
1782836936483300900,4.58030078125,-0.09845762699842453,-0.07683689892292023,-0.2515413165092468
1782836936493229800,4.590229736328125,-0.1763332486152649,0.1743340939283371,-0.09539909660816193
1782836936503158800,4.60015869140625,-0.23382556438446045,0.361965537071228,0.0130355479195714
1782836936513087700,4.610087646484375,-0.26752758026123047,0.44794490933418274,0.05092114582657814
1782836936523017000,4.620016845703125,-0.2792346775531769,0.5334398150444031,0.036532431840896606
1782836936532946000,4.62994580078125,-0.2639497220516205,0.6022761464118958,0.005984109826385975
1782836936542875000,4.639875,-0.23900893330574036,0.6426310539245605,-0.042636409401893616
1782836936552803800,4.649803955078125,-0.21447189152240753,0.6251396536827087,-0.1019684448838234
1782836936562733000,4.659733154296875,-0.18103165924549103,0.5629972219467163,-0.15764844417572021
1782836936572661800,4.669661865234375,-0.14943218231201172,0.43538016080856323,-0.20315787196159363
1782836936582590700,4.6795908203125,-0.1213776171207428,0.26801761984825134,-0.22286629676818848
1782836936592519700,4.689519775390625,-0.11913762986660004,0.08868913352489471,-0.21862708032131195
1782836936602449000,4.699448974609375,-0.13279250264167786,-0.041579823940992355,-0.17953276634216309
1782836936612377900,4.7093779296875,-0.14967668056488037,-0.12809474766254425,-0.1317833513021469
1782836936622306800,4.719306884765625,-0.16090397536754608,-0.17152690887451172,-0.10712230205535889
1782836936632235800,4.72923583984375,-0.15752123296260834,-0.20189014077186584,-0.10664825886487961
1782836936642165000,4.7391650390625,-0.14364317059516907,-0.23890769481658936,-0.11755599081516266
1782836936652094000,4.749093994140625,-0.12942855060100555,-0.22433912754058838,-0.12976792454719543
1782836936662023000,4.75902294921875,-0.11480966955423355,-0.22425603866577148,-0.1503748893737793
1782836936671952000,4.768951904296875,-0.07911025732755661,-0.22683025896549225,-0.15562744438648224
1782836936681880800,4.778880859375,-0.03297481685876846,-0.19677837193012238,-0.12644392251968384
1782836936691809800,4.788809814453125,0.005872179288417101,-0.1697550117969513,-0.07939145714044571
1782836936701738800,4.79873876953125,0.056400131434202194,-0.15354445576667786,-0.030216634273529053
1782836936711667700,4.808667724609375,0.11026176810264587,-0.1150500625371933,0.028935100883245468
1782836936721596700,4.8185966796875,0.14184099435806274,-0.06945115327835083,0.10276351869106293
1782836936731526000,4.82852587890625,0.12210164964199066,-0.04735090583562851,0.1860767900943756
1782836936741454800,4.838454833984375,0.06053253263235092,-0.04798748344182968,0.2877333164215088
1782836936751384800,4.848384765625,-0.03846728429198265,-0.06063590198755264,0.3883965313434601
1782836936761313800,4.858313720703125,-0.1126670390367508,-0.078926220536232,0.4823548495769501
1782836936771242800,4.86824267578125,-0.14485426247119904,-0.05337078869342804,0.5171895027160645
1782836936781171700,4.878171630859375,-0.0973367989063263,0.007033211179077625,0.47801095247268677
1782836936791100700,4.8881005859375,-0.002247299998998642,0.06970058381557465,0.3726714849472046
1782836936801029600,4.898029541015625,0.09761635214090347,0.09197470545768738,0.24186961352825165
1782836936810958600,4.90795849609375,0.17194224894046783,0.06027643010020256,0.1395570933818817
1782836936820887800,4.9178876953125,0.2297563999891281,-0.0501716285943985,0.09066415578126907
1782836936830816800,4.927816650390625,0.25127553939819336,-0.2277490794658661,0.08176760375499725
1782836936840745700,4.937745849609375,0.22230178117752075,-0.4331670105457306,0.07104182243347168
1782836936850674700,4.9476748046875,0.13509683310985565,-0.6302680969238281,0.0257241390645504
1782836936860604000,4.95760400390625,0.011581828817725182,-0.7710016965866089,-0.0653420239686966
1782836936870532900,4.967532958984375,-0.1341727077960968,-0.8220763206481934,-0.16788916289806366
1782836936880461600,4.977461669921875,-0.293451726436615,-0.7518680691719055,-0.22245600819587708
1782836936890390500,4.987390625,-0.4198671877384186,-0.5788429975509644,-0.2036578208208084
1782836936900319700,4.99731982421875,-0.47876715660095215,-0.34535887837409973,-0.0895039290189743
1782836936910248700,5.007248779296875,-0.4375113248825073,-0.061822257936000824,0.0952448844909668
1782836936920177700,5.017177734375,-0.333208829164505,0.21751843392848969,0.3076975643634796
1782836936930106600,5.027106689453125,-0.1913323998451233,0.44124501943588257,0.5100243091583252
1782836936940035800,5.037035888671875,-0.05789981037378311,0.5682230591773987,0.6544839143753052
1782836936949964800,5.04696484375,0.0428536981344223,0.5700217485427856,0.7370264530181885
1782836936959893800,5.056893798828125,0.09690060466527939,0.5094199180603027,0.7824691534042358
1782836936969822700,5.06682275390625,0.09269148111343384,0.41963785886764526,0.7843378782272339
1782836936979751700,5.076751708984375,0.06414149701595306,0.33033832907676697,0.7527137398719788
1782836936989680600,5.0866806640625,0.022826015949249268,0.28004691004753113,0.7111758589744568
1782836936999609600,5.096609619140625,-0.021902447566390038,0.2607707977294922,0.6576446890830994
1782836937009538600,5.10653857421875,-0.05249418318271637,0.2385869324207306,0.6006799340248108
1782836937019467500,5.116467529296875,-0.0656173974275589,0.23861214518547058,0.5410008430480957
1782836937029396700,5.126396728515625,-0.0663343220949173,0.2956181764602661,0.4760844111442566
1782836937039325700,5.13632568359375,-0.07448291778564453,0.3192319869995117,0.3881464898586273
1782836937049254700,5.146254638671875,-0.06865059584379196,0.2915966510772705,0.27245956659317017
1782836937059183600,5.15618359375,-0.04664894938468933,0.2566307783126831,0.16077609360218048
1782836937069112800,5.16611279296875,-0.05245383828878403,0.2163267582654953,0.05660548061132431
1782836937079041800,5.176041748046875,-0.0921700969338417,0.14499478042125702,-0.05080193281173706
1782836937088970800,5.185970703125,-0.14077438414096832,0.05258362367749214,-0.1549115628004074
1782836937098899700,5.195899658203125,-0.189058318734169,-0.04903492331504822,-0.2713114321231842
1782836937108828700,5.20582861328125,-0.21781086921691895,-0.1844625174999237,-0.4081084132194519
1782836937118757600,5.215757568359375,-0.2284044623374939,-0.3170918822288513,-0.526558518409729
1782836937128686600,5.2256865234375,-0.21622821688652039,-0.3903983235359192,-0.5944725871086121
1782836937138616800,5.235616943359375,-0.1680164337158203,-0.4242352843284607,-0.6164859533309937
1782836937148545800,5.2455458984375,-0.10765403509140015,-0.44178739190101624,-0.6074216365814209
1782836937158474800,5.255474853515625,-0.0572991743683815,-0.40364721417427063,-0.5653038620948792
1782836937168403700,5.26540380859375,-0.02516280487179756,-0.3037320673465729,-0.4862292408943176
1782836937178333000,5.2753330078125,-0.015596946701407433,-0.1727597564458847,-0.397844135761261
1782836937188261600,5.28526171875,-0.014237135648727417,-0.01617654785513878,-0.30739626288414
1782836937198190600,5.295190673828125,-0.01617630571126938,0.15751977264881134,-0.20957860350608826
1782836937208119600,5.30511962890625,-0.011213240213692188,0.25297704339027405,-0.13608334958553314
1782836937218048800,5.315048828125,0.0001407833769917488,0.25116047263145447,-0.09069342911243439
1782836937227973600,5.3249736328125,0.023063942790031433,0.1774657517671585,-0.08023146539926529
1782836937237902600,5.334902587890625,0.03796360641717911,0.09582331776618958,-0.08831992000341415
1782836937247831800,5.344831787109375,0.04074234887957573,0.05510251969099045,-0.11422502249479294
1782836937257760800,5.3547607421875,0.03510225564241409,0.028734412044286728,-0.15366461873054504
1782836937267689700,5.364689697265625,0.027732491493225098,0.0018109194934368134,-0.20019589364528656
1782836937277618700,5.37461865234375,0.021988265216350555,-0.03654489293694496,-0.2517249882221222
1782836937287548700,5.384548583984375,0.010635475628077984,-0.10330314934253693,-0.295637845993042
1782836937297477600,5.3944775390625,-0.0041704000905156136,-0.14960063993930817,-0.30012017488479614
1782836937307406600,5.404406494140625,-0.032137852162122726,-0.1412217915058136,-0.2637123763561249
1782836937317335600,5.41433544921875,-0.07509616017341614,-0.12092672288417816,-0.21692614257335663
1782836937327264800,5.4242646484375,-0.12052702158689499,-0.08526778966188431,-0.18277455866336823
1782836937337193700,5.43419384765625,-0.16156812012195587,-0.02994946390390396,-0.16065047681331635
1782836937347122700,5.444122802734375,-0.20001989603042603,0.0006156368181109428,-0.1479424089193344
1782836937357051600,5.4540517578125,-0.2360931634902954,-0.004047879949212074,-0.13582223653793335
1782836937366980900,5.46398095703125,-0.2616376578807831,-0.017937064170837402,-0.11685226112604141
1782836937376909800,5.473909912109375,-0.2822413146495819,-0.01821938157081604,-0.09327945113182068
1782836937386838800,5.4838388671875,-0.3061541020870209,-0.027388378977775574,-0.0925377607345581
1782836937396767700,5.493767822265625,-0.3272451162338257,-0.036029696464538574,-0.07600916922092438
1782836937406696700,5.50369677734375,-0.3462377190589905,-0.027550727128982544,-0.04399743303656578
1782836937416625700,5.513625732421875,-0.36916229128837585,-0.026926115155220032,0.007876824587583542
1782836937426554600,5.5235546875,-0.4047572910785675,-0.020026663318276405,0.05516178160905838
1782836937436483600,5.533483642578125,-0.4402602016925812,-0.021671514958143234,0.08585388958454132
1782836937446412800,5.543412841796875,-0.4708021283149719,-0.055310167372226715,0.09192989021539688
1782836937456341800,5.553341796875,-0.5036154985427856,-0.08777618408203125,0.08936721831560135
1782836937466270700,5.563270751953125,-0.5576598644256592,-0.11368313431739807,0.07559548318386078
1782836937476199700,5.57319970703125,-0.6207582354545593,-0.15350541472434998,0.03947726637125015
1782836937486129000,5.58312890625,-0.6566251516342163,-0.1666949838399887,0.007596567273139954
1782836937496057900,5.593057861328125,-0.6606773138046265,-0.17382560670375824,-0.014280354604125023
1782836937505986800,5.60298681640625,-0.6502119302749634,-0.1969522386789322,-0.03976227715611458
1782836937515915500,5.61291552734375,-0.6225752830505371,-0.2459297627210617,-0.03457903861999512
1782836937525844700,5.6228447265625,-0.5905864238739014,-0.2407294064760208,0.013125896453857422
1782836937535773700,5.632773681640625,-0.5641748309135437,-0.19247718155384064,0.10044801235198975
1782836937545702700,5.64270263671875,-0.5526323914527893,-0.1298532336950302,0.19729121029376984
1782836937555631600,5.652631591796875,-0.5492455363273621,-0.040978144854307175,0.29343950748443604
1782836937565560800,5.662560791015625,-0.5557947754859924,0.048555731773376465,0.371745228767395
1782836937575489800,5.67248974609375,-0.5986493229866028,0.09741058200597763,0.40207037329673767
1782836937585418800,5.682418701171875,-0.6663293242454529,0.08510198444128036,0.38017013669013977
1782836937595347700,5.69234765625,-0.7267711162567139,0.028279412537813187,0.3144558370113373
1782836937605277000,5.70227685546875,-0.7561558485031128,-0.0734139233827591,0.19306069612503052
1782836937615206000,5.712205810546875,-0.7303377389907837,-0.22539660334587097,0.0021994179114699364
1782836937625134600,5.722134521484375,-0.6618068814277649,-0.4060955345630646,-0.2262129783630371
1782836937635063600,5.7320634765625,-0.5577162504196167,-0.5394934415817261,-0.40320125222206116
1782836937644992500,5.741992431640625,-0.4857969880104065,-0.5827762484550476,-0.49372875690460205
1782836937654922800,5.7519228515625,-0.4317268133163452,-0.5419383645057678,-0.48700419068336487
1782836937664851700,5.761851806640625,-0.42224037647247314,-0.4131295680999756,-0.3888392746448517
1782836937674780700,5.77178076171875,-0.4373331069946289,-0.21912884712219238,-0.23063424229621887
1782836937684710000,5.7817099609375,-0.4757010042667389,0.02665003389120102,-0.04095858708024025
1782836937694638800,5.791638916015625,-0.5422413945198059,0.21687860786914825,0.1335732787847519
1782836937704567600,5.801567626953125,-0.6244643926620483,0.29437926411628723,0.23865309357643127
1782836937714496500,5.81149658203125,-0.6918023824691772,0.3058649003505707,0.29461219906806946
1782836937724425700,5.82142578125,-0.7204388380050659,0.30557647347450256,0.3205684423446655
1782836937734354700,5.831354736328125,-0.7105423212051392,0.3157591223716736,0.32894498109817505
1782836937744283600,5.84128369140625,-0.6767105460166931,0.3227384686470032,0.3064673840999603
1782836937754212600,5.851212646484375,-0.6070972681045532,0.33141931891441345,0.2538926899433136
1782836937764141800,5.861141845703125,-0.49127399921417236,0.3174164295196533,0.19551540911197662
1782836937774070800,5.87107080078125,-0.3677394688129425,0.2922188341617584,0.1740318238735199
1782836937783999700,5.880999755859375,-0.2623581886291504,0.26993536949157715,0.2208685725927353
1782836937793929200,5.89092919921875,-0.2197105884552002,0.23248247802257538,0.33130794763565063
1782836937803858400,5.9008583984375,-0.23581844568252563,0.14005428552627563,0.4397662580013275
1782836937813787400,5.910787353515625,-0.2947594225406647,-0.0027040913701057434,0.4820721447467804
1782836937823716400,5.92071630859375,-0.3780742883682251,-0.17334799468517303,0.43745964765548706
1782836937833645300,5.930645263671875,-0.44407832622528076,-0.3322361707687378,0.33231592178344727
1782836937843574500,5.940574462890625,-0.448541522026062,-0.4351082444190979,0.18828020989894867
1782836937853503500,5.95050341796875,-0.3959690034389496,-0.5210622549057007,0.021976657211780548
1782836937863433500,5.96043359375,-0.31960391998291016,-0.5876258015632629,-0.14747042953968048
1782836937873362400,5.970362548828125,-0.23984161019325256,-0.632103443145752,-0.2804729640483856
1782836937883291400,5.98029150390625,-0.15998245775699615,-0.6228766441345215,-0.39804646372795105
1782836937893220400,5.990220458984375,-0.09564328193664551,-0.5656585097312927,-0.49014976620674133
1782836937903149300,6.0001494140625,-0.0583057627081871,-0.44439730048179626,-0.5362735986709595
1782836937913078500,6.01007861328125,-0.07291605323553085,-0.3030000329017639,-0.5109596252441406
1782836937923007500,6.020007568359375,-0.14761212468147278,-0.11426925659179688,-0.41783684492111206
1782836937932936400,6.0299365234375,-0.26813870668411255,0.09654819965362549,-0.26605749130249023
1782836937942865400,6.039865478515625,-0.39737045764923096,0.2754417955875397,-0.11172892153263092
1782836937952794600,6.049794677734375,-0.47522807121276855,0.3913276493549347,0.0005575604736804962
1782836937962724400,6.059724365234375,-0.47758737206459045,0.42522355914115906,0.03744953125715256
1782836937972653300,6.0696533203125,-0.4279452860355377,0.4240521788597107,0.022539444267749786
1782836937982582500,6.07958251953125,-0.3452698588371277,0.41679319739341736,-0.009272279217839241
1782836937992511500,6.089511474609375,-0.2658558785915375,0.35897761583328247,-0.05091113597154617
1782836938002440400,6.0994404296875,-0.20337173342704773,0.2653115689754486,-0.10266594588756561
1782836938012369400,6.109369384765625,-0.14961929619312286,0.1486416757106781,-0.15231925249099731
1782836938022298600,6.119298583984375,-0.09567217528820038,0.04282283037900925,-0.19277691841125488
1782836938032227600,6.1292275390625,-0.04647156596183777,-0.03876514732837677,-0.21600525081157684
1782836938042156500,6.139156494140625,-0.022862110286951065,-0.13300776481628418,-0.22765178978443146
1782836938052085500,6.14908544921875,-0.01798766478896141,-0.20236319303512573,-0.22588488459587097
1782836938062014500,6.159014404296875,-0.031483765691518784,-0.23745699226856232,-0.201076477766037
1782836938071943400,6.168943359375,-0.05626247823238373,-0.23502510786056519,-0.17349117994308472
1782836938081872400,6.178872314453125,-0.07813448458909988,-0.2302066534757614,-0.17482994496822357
1782836938091801300,6.18880126953125,-0.07408800721168518,-0.2178720086812973,-0.23455625772476196
1782836938101730300,6.198730224609375,-0.03310302272439003,-0.20048557221889496,-0.3022293150424957
1782836938111659500,6.208659423828125,0.013970338739454746,-0.1671474725008011,-0.33201462030410767
1782836938121588500,6.21858837890625,0.03748498484492302,-0.07428331673145294,-0.29417964816093445
1782836938131517400,6.228517333984375,0.039422452449798584,0.01838967390358448,-0.21534660458564758
1782836938141446400,6.2384462890625,0.037393923848867416,0.08407813310623169,-0.12410138547420502
1782836938151375600,6.248375732421875,0.05025015398859978,0.1156824380159378,-0.03187134861946106
1782836938161304600,6.2583046875,0.07781759649515152,0.15030112862586975,0.05002271756529808
1782836938171233500,6.268233642578125,0.11645840853452682,0.16303803026676178,0.11428515613079071
1782836938181162200,6.278162353515625,0.14822831749916077,0.14282995462417603,0.15601874887943268
1782836938191091500,6.288091552734375,0.15714694559574127,0.12411130964756012,0.18513156473636627
1782836938201020400,6.2980205078125,0.14239756762981415,0.10192930698394775,0.19938454031944275
1782836938210949400,6.307949462890625,0.11715531349182129,0.06353766471147537,0.18968582153320312
1782836938220878300,6.31787841796875,0.11685943603515625,0.03313528746366501,0.16983701288700104
1782836938230807600,6.3278076171875,0.12526533007621765,0.007652495056390762,0.115671306848526
1782836938240736500,6.337736572265625,0.1180364340543747,-0.043540649116039276,0.07443784922361374
1782836938250665500,6.34766552734375,0.11693505942821503,-0.06761740893125534,0.03320038318634033
1782836938260594400,6.357594482421875,0.13603390753269196,-0.054585762321949005,0.026546742767095566
1782836938270523600,6.367523681640625,0.17714226245880127,-0.02233024314045906,0.05086277052760124
1782836938280452600,6.37745263671875,0.227931410074234,-0.020896662026643753,0.09912670403718948
1782836938290381300,6.38738134765625,0.2876644432544708,-0.05329608917236328,0.1507897675037384
1782836938300310300,6.397310302734375,0.33312833309173584,-0.07764936983585358,0.18930919468402863
1782836938310239500,6.407239501953125,0.33560165762901306,-0.13512614369392395,0.21397168934345245
1782836938320169500,6.41716943359375,0.28244736790657043,-0.19205361604690552,0.23013973236083984
1782836938330098400,6.427098388671875,0.18132668733596802,-0.25002792477607727,0.24387572705745697
1782836938340027600,6.437027587890625,0.047771017998456955,-0.33535802364349365,0.22093337774276733
1782836938349956600,6.44695654296875,-0.07155962288379669,-0.41800519824028015,0.13719646632671356
1782836938359885600,6.456885498046875,-0.15764550864696503,-0.45616376399993896,0.0023222696036100388
1782836938369814300,6.466814208984375,-0.21616439521312714,-0.40537723898887634,-0.13965700566768646
1782836938379743200,6.4767431640625,-0.22514936327934265,-0.28533634543418884,-0.2427690029144287
1782836938389672400,6.48667236328125,-0.18987952172756195,-0.07509121298789978,-0.2605898082256317
1782836938399601400,6.496601318359375,-0.11563564836978912,0.18691669404506683,-0.172456756234169
1782836938409530400,6.5065302734375,-0.010789024643599987,0.3936123847961426,-0.004699823912233114
1782836938419459300,6.516459228515625,0.0992535874247551,0.5293257236480713,0.1999145746231079
1782836938429388500,6.526388427734375,0.175098717212677,0.5652624368667603,0.3959917724132538
1782836938439317500,6.5363173828125,0.21446289122104645,0.4614790081977844,0.54320228099823
1782836938449246500,6.54624658203125,0.22916394472122192,0.2686240077018738,0.6148911714553833
1782836938459175400,6.556175537109375,0.23622985184192657,0.08694476634263992,0.6093968152999878
1782836938469104600,6.566104736328125,0.2430206537246704,-0.04081910848617554,0.533348798751831
1782836938479033300,6.576033447265625,0.24770168960094452,-0.04867810010910034,0.44393613934516907
1782836938488962300,6.58596240234375,0.24332967400550842,0.03962356224656105,0.36822372674942017
1782836938498891300,6.595891357421875,0.2191990315914154,0.15340259671211243,0.3329767882823944
1782836938508820500,6.605820556640625,0.17394563555717468,0.30109307169914246,0.36348435282707214
1782836938518749400,6.61574951171875,0.12731900811195374,0.41748732328414917,0.4093189537525177
1782836938528678400,6.625678466796875,0.108217254281044,0.4137147068977356,0.4236760139465332
1782836938538607400,6.635607421875,0.10218333452939987,0.3458198308944702,0.38506418466567993
1782836938548536600,6.64553662109375,0.11560468375682831,0.23727841675281525,0.2897556722164154
1782836938558465500,6.655465576171875,0.13137005269527435,0.09501101076602936,0.16735708713531494
1782836938568394500,6.66539453125,0.14913468062877655,-0.0683872252702713,0.026878491044044495
1782836938578323500,6.675323486328125,0.1654665172100067,-0.22922377288341522,-0.12805169820785522
1782836938588252700,6.685252685546875,0.18169330060482025,-0.38149306178092957,-0.28514859080314636
1782836938598181400,6.695181396484375,0.1819891780614853,-0.48883336782455444,-0.4295441210269928
1782836938608110300,6.7051103515625,0.1684751659631729,-0.47084707021713257,-0.523008406162262
1782836938618039300,6.715039306640625,0.13999027013778687,-0.34447503089904785,-0.5431546568870544
1782836938627968500,6.724968505859375,0.0886920690536499,-0.19220729172229767,-0.5087008476257324
1782836938637897500,6.7348974609375,0.019342023879289627,-0.03614100068807602,-0.42030203342437744
1782836938647826400,6.744826416015625,-0.043039001524448395,0.13837428390979767,-0.2998875379562378
1782836938657755400,6.75475537109375,-0.07885292172431946,0.2541501522064209,-0.20612962543964386
1782836938667685600,6.764685546875,-0.07033350318670273,0.2772279679775238,-0.16507981717586517
1782836938677614300,6.7746142578125,-0.030153855681419373,0.26576170325279236,-0.15262366831302643
1782836938687543300,6.784543212890625,0.0148494653403759,0.23628392815589905,-0.14374512434005737
1782836938697472500,6.794472412109375,0.05193424969911575,0.2105758935213089,-0.12672406435012817
1782836938707401500,6.8044013671875,0.07628905028104782,0.17778609693050385,-0.09786476194858551
1782836938717330400,6.814330322265625,0.09164083749055862,0.14835311472415924,-0.07718318700790405
1782836938727259400,6.82425927734375,0.09245257079601288,0.10136474668979645,-0.07774684578180313
1782836938737188400,6.834188232421875,0.08874465525150299,0.04943523183465004,-0.08115755766630173
1782836938747117600,6.84411767578125,0.0641360804438591,0.017764713615179062,-0.08105771243572235
1782836938757046500,6.854046630859375,0.022934850305318832,0.001384408213198185,-0.08280980587005615
1782836938766975500,6.8639755859375,-0.014218972995877266,-0.018375905230641365,-0.09362293779850006
1782836938776904400,6.873904541015625,-0.021796200424432755,-0.05296264588832855,-0.11334524303674698
1782836938786833200,6.883833251953125,0.007220759522169828,-0.07896611094474792,-0.15278877317905426
1782836938796762000,6.89376220703125,0.05256746709346771,-0.09408514201641083,-0.19696129858493805
1782836938806691000,6.903691162109375,0.08457992225885391,-0.11475606262683868,-0.2141314148902893
1782836938816620000,6.9136201171875,0.08150503039360046,-0.12257243692874908,-0.1898476481437683
1782836938826549000,6.923549072265625,0.06056559830904007,-0.1152753159403801,-0.13121354579925537
1782836938836478000,6.93347802734375,0.02616128697991371,-0.1293964684009552,-0.06139957532286644
1782836938846407200,6.9434072265625,-0.012223538011312485,-0.13084430992603302,-0.0008131628856062889
1782836938856336100,6.953336181640625,-0.05048384517431259,-0.1417427659034729,0.03006965108215809
1782836938866265000,6.96326513671875,-0.09683839976787567,-0.15557289123535156,0.015128538012504578
1782836938876194000,6.973194091796875,-0.12924879789352417,-0.17510612308979034,-0.0319252572953701
1782836938886123300,6.983123291015625,-0.1478564441204071,-0.2077915072441101,-0.07552387565374374
1782836938896052200,6.99305224609375,-0.16048727929592133,-0.22045084834098816,-0.09998633712530136
1782836938905981200,7.002981201171875,-0.16316452622413635,-0.21903370320796967,-0.08422915637493134
1782836938915910000,7.012909912109375,-0.16217944025993347,-0.19099673628807068,-0.03918737545609474
1782836938925839000,7.022839111328125,-0.1607866734266281,-0.14909152686595917,0.024117210879921913
1782836938935768000,7.03276806640625,-0.1567453294992447,-0.1265723705291748,0.09325899928808212
1782836938945697000,7.042697021484375,-0.15127284824848175,-0.13531649112701416,0.16880182921886444
1782836938955626000,7.0526259765625,-0.15688705444335938,-0.15676160156726837,0.24942928552627563
1782836938965555200,7.06255517578125,-0.1765865534543991,-0.1524079442024231,0.2976756989955902
1782836938975484200,7.072484130859375,-0.1969379037618637,-0.08900394290685654,0.26789727807044983
1782836938985413000,7.0824130859375,-0.19868779182434082,-0.024684695526957512,0.18466052412986755
1782836938995342000,7.092342041015625,-0.19955332577228546,0.009093241766095161,0.06555357575416565
1782836939005271300,7.102271240234375,-0.21718131005764008,0.017793923616409302,-0.05208075791597366
1782836939015201000,7.112200927734375,-0.22272787988185883,-0.049648500978946686,-0.17895960807800293
1782836939025130000,7.1221298828125,-0.22466138005256653,-0.175424724817276,-0.30004674196243286
1782836939035059000,7.132058837890625,-0.2364213615655899,-0.3214471638202667,-0.3935159742832184
1782836939044988200,7.14198828125,-0.27458855509757996,-0.45448416471481323,-0.4342532753944397
1782836939054917000,7.151917236328125,-0.3430160880088806,-0.5187486410140991,-0.40955111384391785
1782836939064846000,7.16184619140625,-0.41055992245674133,-0.49218499660491943,-0.3302340805530548
1782836939074775000,7.171775146484375,-0.4694724977016449,-0.35560342669487,-0.20181754231452942
1782836939084704300,7.181704345703125,-0.5166643261909485,-0.10585925728082657,-0.04087293893098831
1782836939094633200,7.19163330078125,-0.5345865488052368,0.18287694454193115,0.11714839190244675
1782836939104562000,7.20156201171875,-0.5206419825553894,0.4185483157634735,0.23827990889549255
1782836939114491000,7.211490966796875,-0.47609078884124756,0.5634821057319641,0.3115658462047577
1782836939124420000,7.221420166015625,-0.4192661941051483,0.6272256374359131,0.33738526701927185
1782836939134349000,7.23134912109375,-0.3650849759578705,0.6102154850959778,0.321759432554245
1782836939144278000,7.241278076171875,-0.3103739619255066,0.5274295210838318,0.26976001262664795
1782836939154207000,7.25120703125,-0.2681026756763458,0.3728218376636505,0.22442318499088287
1782836939164136200,7.26113623046875,-0.22687235474586487,0.22174835205078125,0.20974448323249817
1782836939174065200,7.271065185546875,-0.1987863928079605,0.10874775052070618,0.21528519690036774
1782836939183994000,7.280994140625,-0.17458732426166534,0.05011506751179695,0.22882550954818726
1782836939193923000,7.290923095703125,-0.15684770047664642,0.016277335584163666,0.22699253261089325
1782836939203852300,7.300852294921875,-0.1352386176586151,-0.010814412496984005,0.19935250282287598
1782836939213781000,7.310781005859375,-0.12719853222370148,-0.02886292152106762,0.14737559854984283
1782836939223710000,7.3207099609375,-0.13746576011180878,-0.04937894642353058,0.05749882757663727
1782836939233639000,7.330638916015625,-0.14862175285816193,-0.10323206335306168,-0.05560216307640076
1782836939243568000,7.340568115234375,-0.13240599632263184,-0.1593935489654541,-0.16485433280467987
1782836939253497000,7.3504970703125,-0.09896628558635712,-0.23212075233459473,-0.26345282793045044
1782836939263426000,7.360426025390625,-0.04169958084821701,-0.2856016755104065,-0.3460995554924011
1782836939273355000,7.37035498046875,0.026644323021173477,-0.2949104905128479,-0.4005505442619324
1782836939283284200,7.3802841796875,0.09926347434520721,-0.2674426734447479,-0.4086812734603882
1782836939293213200,7.390213134765625,0.16560202836990356,-0.18547563254833221,-0.3521612584590912
1782836939303142100,7.40014208984375,0.20112134516239166,-0.015417203307151794,-0.22596906125545502
1782836939313071000,7.410071044921875,0.18082086741924286,0.16866075992584229,-0.06625555455684662
1782836939323000300,7.420000244140625,0.12773165106773376,0.329253613948822,0.06986221671104431
1782836939332929000,7.429928955078125,0.0734843909740448,0.43989330530166626,0.1460866779088974
1782836939342859000,7.43985888671875,0.030416760593652725,0.4972938597202301,0.15986840426921844
1782836939352788000,7.4497880859375,-0.014789066277444363,0.4939955174922943,0.11099274456501007
1782836939362717200,7.45971728515625,-0.03386201336979866,0.40430450439453125,0.024588806554675102
1782836939372646100,7.469646240234375,-0.010282918810844421,0.3003709018230438,-0.06325263530015945
1782836939382575000,7.4795751953125,0.033642254769802094,0.19230879843235016,-0.1298837661743164
1782836939392504000,7.489504150390625,0.06840183585882187,0.057920362800359726,-0.19042940437793732
1782836939402433300,7.499433349609375,0.09910453110933304,-0.01688382588326931,-0.22050036489963531
1782836939412362000,7.509362060546875,0.12960705161094666,-0.0645189881324768,-0.22628475725650787
1782836939422291000,7.519291015625,0.1562853306531906,-0.1298799365758896,-0.22732937335968018
1782836939432220000,7.529219970703125,0.1802005171775818,-0.16597402095794678,-0.2088872492313385
1782836939442149000,7.539149169921875,0.1952967345714569,-0.1558164805173874,-0.17019133269786835
1782836939452078000,7.549078125,0.1810898333787918,-0.1061226949095726,-0.12662895023822784
1782836939462007000,7.559007080078125,0.15196733176708221,-0.03574155643582344,-0.0948638916015625
1782836939471936000,7.56893603515625,0.1305757611989975,0.009178247302770615,-0.09930018335580826
1782836939481865200,7.578865234375,0.12940523028373718,0.032658301293849945,-0.1333920657634735
1782836939491794200,7.588794189453125,0.14753763377666473,0.05443736910820007,-0.16987363994121552
1782836939501723100,7.59872314453125,0.16772247850894928,0.045355845242738724,-0.189366415143013
1782836939511652000,7.608652099609375,0.1686497926712036,0.03017076849937439,-0.20913532376289368
1782836939521581000,7.6185810546875,0.17615799605846405,0.058112263679504395,-0.2056802213191986
1782836939531510000,7.628510009765625,0.19677619636058807,0.08124528080224991,-0.1864207684993744
1782836939541439000,7.63843896484375,0.2172560840845108,0.06123696640133858,-0.14487750828266144
1782836939551368000,7.648367919921875,0.22665758430957794,0.09183534979820251,-0.06551850587129593
1782836939561297200,7.658297119140625,0.23171725869178772,0.12446556240320206,0.02886992320418358
1782836939571226000,7.66822607421875,0.2372683435678482,0.111180379986763,0.10874984413385391
1782836939581155000,7.678155029296875,0.24202467501163483,0.048498909920454025,0.17168551683425903
1782836939591084000,7.688083984375,0.24848949909210205,-0.023814436048269272,0.20612205564975739
1782836939601013200,7.69801318359375,0.24805723130702972,-0.09846820682287216,0.21401618421077728
1782836939610942200,7.707942138671875,0.258739173412323,-0.18500655889511108,0.19583530724048615
1782836939620871200,7.71787109375,0.2816970646381378,-0.1978466510772705,0.17990103363990784
1782836939630800100,7.727800048828125,0.32524481415748596,-0.13646452128887177,0.16762252151966095
1782836939640729000,7.73772900390625,0.3574928343296051,-0.06613057851791382,0.1615537852048874
1782836939650658000,7.747657958984375,0.3738158643245697,-0.002073833718895912,0.16867481172084808
1782836939660587000,7.7575869140625,0.37083256244659424,0.011605940759181976,0.1940957009792328
1782836939670516000,7.767515869140625,0.3528924584388733,-0.04203012213110924,0.22845153510570526
1782836939680446200,7.7774462890625,0.3133774697780609,-0.13233564794063568,0.25159698724746704
1782836939690375200,7.787375244140625,0.26787763833999634,-0.2011176347732544,0.2505192160606384
1782836939700304100,7.79730419921875,0.2298555076122284,-0.24309656023979187,0.22985561192035675
1782836939710233000,7.807233154296875,0.20601728558540344,-0.2749735414981842,0.17920762300491333
1782836939720162000,7.817162109375,0.19624091684818268,-0.29613739252090454,0.09910894930362701
1782836939730091000,7.827091064453125,0.20983529090881348,-0.2815626859664917,0.02476734295487404
1782836939740020000,7.83702001953125,0.22705209255218506,-0.24296227097511292,-0.0037611518055200577
1782836939749949000,7.846948974609375,0.2742078900337219,-0.16828536987304688,0.0021060584113001823
1782836939759878100,7.856878173828125,0.32281896471977234,-0.05271600931882858,0.04694037884473801
1782836939769807000,7.86680712890625,0.36548733711242676,0.06930896639823914,0.1355578750371933
1782836939779736000,7.876736083984375,0.39185112714767456,0.17008593678474426,0.24830937385559082
1782836939789664800,7.886664794921875,0.40066567063331604,0.2489221692085266,0.3437509536743164
1782836939799593700,7.89659375,0.3815949857234955,0.2804085612297058,0.3854066729545593
1782836939809522700,7.906522705078125,0.35351675748825073,0.2844453752040863,0.36550724506378174
1782836939819452000,7.916451904296875,0.3323171138763428,0.2691998779773712,0.3218368589878082
1782836939829380900,7.926380859375,0.3166750371456146,0.23175717890262604,0.27786779403686523
1782836939839309600,7.9363095703125,0.30612823367118835,0.19847948849201202,0.24480119347572327
1782836939849238500,7.946238525390625,0.3087354600429535,0.1871088594198227,0.22548529505729675
1782836939859167700,7.956167724609375,0.33148014545440674,0.22809016704559326,0.21633319556713104
1782836939869096700,7.9660966796875,0.34584149718284607,0.28757986426353455,0.21381011605262756
1782836939879025700,7.976025634765625,0.3411172330379486,0.3246113657951355,0.21616095304489136
1782836939888954600,7.98595458984375,0.3193693161010742,0.33323386311531067,0.22572995722293854
1782836939898883800,7.9958837890625,0.29095810651779175,0.33790481090545654,0.22582939267158508
1782836939908812800,8.005812744140625,0.2677587568759918,0.2932976484298706,0.1982068121433258
1782836939918741800,8.01574169921875,0.262033611536026,0.23833566904067993,0.12342975288629532
1782836939928670700,8.025670654296874,0.2601262629032135,0.15401653945446014,0.006483694538474083
1782836939938600000,8.035599853515626,0.24862200021743774,0.04555850103497505,-0.134123295545578
1782836939948528600,8.045528564453125,0.23819997906684875,-0.10049963742494583,-0.28012898564338684
1782836939958457600,8.05545751953125,0.2264176309108734,-0.2991776466369629,-0.3904709815979004
1782836939968386600,8.065386474609374,0.2225392758846283,-0.480922132730484,-0.4600396752357483
1782836939978315800,8.075315673828126,0.22513984143733978,-0.5822041034698486,-0.485272616147995
1782836939988244700,8.08524462890625,0.22806985676288605,-0.5611603260040283,-0.44187507033348083
1782836939998173700,8.095173583984375,0.2156229317188263,-0.4043440818786621,-0.3161922097206116
1782836940008102700,8.1051025390625,0.18847839534282684,-0.17886488139629364,-0.14768627285957336
1782836940018033000,8.115032958984376,0.1416659951210022,0.10904581099748611,0.016465358436107635
1782836940027961900,8.1249619140625,0.09623325616121292,0.3735882639884949,0.12875302135944366
1782836940037890600,8.134890625,0.06873509287834167,0.5195649266242981,0.16459093987941742
1782836940047819800,8.14481982421875,0.060570910573005676,0.5632437467575073,0.14124061167240143
1782836940057748700,8.154748779296876,0.05762062594294548,0.5352120995521545,0.09507180005311966
1782836940067677700,8.164677734375,0.05864967033267021,0.45899084210395813,0.03670144081115723
1782836940077606700,8.174606689453125,0.049027398228645325,0.34701257944107056,-0.024952121078968048
1782836940087535900,8.184535888671874,0.03690069541335106,0.24066376686096191,-0.08021724224090576
1782836940097464800,8.19446484375,0.024434121325612068,0.17637567222118378,-0.12319839000701904
1782836940107393800,8.204393798828125,0.01723213493824005,0.14135964214801788,-0.15376269817352295
1782836940117322800,8.21432275390625,0.021878372877836227,0.1339738816022873,-0.17341481149196625
1782836940127252000,8.224251953125,0.03518299385905266,0.1277090609073639,-0.1646825671195984
1782836940137181000,8.234180908203125,0.05260778218507767,0.09028922021389008,-0.13807018101215363
1782836940147109600,8.244109619140625,0.07333116978406906,0.046287134289741516,-0.09939441829919815
1782836940157038600,8.25403857421875,0.10321436822414398,0.0038255713880062103,-0.04707391560077667
1782836940166967600,8.263967529296876,0.11566171050071716,-0.06517293304204941,-0.017548516392707825
1782836940176896800,8.273896728515625,0.11310448497533798,-0.1471366137266159,-0.015051571652293205
1782836940186825700,8.28382568359375,0.10830680280923843,-0.15898822247982025,-0.02597133070230484
1782836940196754700,8.293754638671874,0.09990487992763519,-0.15302471816539764,-0.043450143188238144
1782836940206683600,8.30368359375,0.07063886523246765,-0.16265763342380524,-0.08282391726970673
1782836940216612900,8.31361279296875,0.030388718470931053,-0.1581931710243225,-0.1262277066707611
1782836940226541800,8.323541748046875,-0.023219650611281395,-0.14492982625961304,-0.17443439364433289
1782836940236470800,8.333470703125,-0.08346866071224213,-0.1281280666589737,-0.2025536745786667
1782836940246399700,8.343399658203126,-0.13326817750930786,-0.0782390683889389,-0.19961993396282196
1782836940256328700,8.35332861328125,-0.1705443561077118,-0.0371055044233799,-0.15337267518043518
1782836940266257700,8.363257568359375,-0.1947796493768692,-0.0360274538397789,-0.08995720744132996
1782836940276186600,8.3731865234375,-0.19802939891815186,-0.06326378881931305,-0.023500172421336174
1782836940286115600,8.383115478515625,-0.19390974938869476,-0.10203967988491058,0.029855994507670403
1782836940296044800,8.393044921875,-0.1940334439277649,-0.14891618490219116,0.05048379302024841
1782836940305973800,8.402973876953125,-0.21982668340206146,-0.1647404283285141,0.04427489638328552
1782836940315902700,8.41290283203125,-0.25155743956565857,-0.14466288685798645,0.019865112379193306
1782836940325831700,8.422831787109375,-0.27775123715400696,-0.10303422808647156,-0.008302344009280205
1782836940335761700,8.43276171875,-0.2873268723487854,-0.05833720415830612,-0.017486941069364548
1782836940345690600,8.442690673828125,-0.2865183353424072,-0.028975585475564003,0.0021293703466653824
1782836940355619600,8.45261962890625,-0.27553704380989075,-0.022556427866220474,0.05485660955309868
1782836940365548800,8.462548828125,-0.26719146966934204,-0.0055241817608475685,0.11791494488716125
1782836940375477800,8.472477783203125,-0.26453644037246704,0.011561649851500988,0.1552414447069168
1782836940385406700,8.48240673828125,-0.254484623670578,-0.02455108053982258,0.1726049929857254
1782836940395335700,8.492335693359376,-0.2540879547595978,-0.10659471154212952,0.15211568772792816
1782836940405265000,8.502264892578125,-0.24687422811985016,-0.25028103590011597,0.08361652493476868
1782836940415193900,8.51219384765625,-0.23225075006484985,-0.4139152765274048,-0.027451543137431145
1782836940425122800,8.522122802734375,-0.23506730794906616,-0.608299195766449,-0.1663670837879181
1782836940435051800,8.5320517578125,-0.24755816161632538,-0.802512526512146,-0.2977433502674103
1782836940444980700,8.541980712890625,-0.2798953056335449,-0.8765273690223694,-0.37578248977661133
1782836940454909700,8.55190966796875,-0.31712841987609863,-0.789522647857666,-0.38101422786712646
1782836940464838700,8.561838623046874,-0.3482093811035156,-0.598978579044342,-0.3279653787612915
1782836940474767600,8.571767578125,-0.37495556473731995,-0.3299475610256195,-0.2011951208114624
1782836940484696800,8.58169677734375,-0.39531409740448,-0.04001455754041672,-0.015013787895441055
1782836940494625800,8.591625732421875,-0.40592148900032043,0.20234429836273193,0.1929492950439453
1782836940504554800,8.6015546875,-0.4061465263366699,0.33764511346817017,0.36279797554016113
1782836940514483700,8.611483642578126,-0.4017951786518097,0.375687837600708,0.47873201966285706
1782836940524412700,8.62141259765625,-0.3973785936832428,0.3642232120037079,0.5136548280715942
1782836940534342000,8.631341796875,-0.393411248922348,0.32672736048698425,0.4705545902252197
1782836940544270800,8.641270751953124,-0.3851517140865326,0.3024936616420746,0.36756694316864014
1782836940554199800,8.65119970703125,-0.36486712098121643,0.2796623706817627,0.24735765159130096
1782836940564128500,8.66112841796875,-0.33050915598869324,0.2594361901283264,0.136681467294693
1782836940574057700,8.6710576171875,-0.2982707619667053,0.24276919662952423,0.07097552716732025
1782836940583986700,8.680986572265626,-0.2738732695579529,0.22374117374420166,0.05961821228265762
1782836940593915600,8.69091552734375,-0.2610958218574524,0.18598590791225433,0.08385027199983597
1782836940603844600,8.7008447265625,-0.24623404443264008,0.13901174068450928,0.11659463495016098
1782836940613773800,8.71077392578125,-0.2148413062095642,0.06319160014390945,0.1312064528465271
1782836940623702800,8.720702880859376,-0.16152137517929077,-0.04420490190386772,0.08975782990455627
1782836940633631700,8.7306318359375,-0.09117121249437332,-0.1994088739156723,-0.012130575254559517
1782836940643560700,8.740560791015625,0.00047348346561193466,-0.35511884093284607,-0.12958477437496185
1782836940653490000,8.750489990234374,0.0884479358792305,-0.5321124196052551,-0.24886508285999298
1782836940663419000,8.7604189453125,0.16587668657302856,-0.7287653088569641,-0.36314985156059265
1782836940673348600,8.7703486328125,0.21546393632888794,-0.85968416929245,-0.4844818711280823
1782836940683277800,8.78027783203125,0.248856782913208,-0.8750436902046204,-0.5820518136024475
1782836940693206800,8.790206787109375,0.21781985461711884,-0.7742981910705566,-0.6256654262542725
1782836940703135700,8.8001357421875,0.16601312160491943,-0.531741201877594,-0.6319981813430786
1782836940713064700,8.810064697265625,0.0986294075846672,-0.20667584240436554,-0.5786890983581543
1782836940722994000,8.819993896484375,0.020711708813905716,0.16123320162296295,-0.46885234117507935
1782836940732923000,8.8299228515625,-0.05891899764537811,0.46234193444252014,-0.34096965193748474
1782836940742851800,8.839851806640626,-0.12043775618076324,0.6248738169670105,-0.22527208924293518
1782836940752780800,8.84978076171875,-0.15803879499435425,0.6731235980987549,-0.1527019739151001
1782836940762709800,8.859709716796875,-0.17198124527931213,0.648905873298645,-0.1112661212682724
1782836940772638700,8.869638671875,-0.16674840450286865,0.5858738422393799,-0.10817930102348328
1782836940782567700,8.879567626953126,-0.14190776646137238,0.5396232604980469,-0.11443186551332474
1782836940792500200,8.889500244140624,-0.08634535223245621,0.5098400115966797,-0.13494232296943665
1782836940802429200,8.89942919921875,-0.024109136313199997,0.4387435019016266,-0.16926434636116028
1782836940812358100,8.909358154296875,0.025175154209136963,0.3569205701351166,-0.1720852255821228
1782836940822287400,8.919287353515625,0.05492745712399483,0.3038134276866913,-0.14205434918403625
1782836940832216300,8.92921630859375,0.0671117752790451,0.2007645219564438,-0.11366064846515656
1782836940842145300,8.939145263671875,0.0845208615064621,0.0611024908721447,-0.08203348517417908
1782836940852074200,8.94907421875,0.1039615347981453,-0.030679209157824516,-0.06395484507083893
1782836940862003200,8.959003173828124,0.11052782088518143,-0.10367325693368912,-0.0687892809510231
1782836940871932200,8.96893212890625,0.10003100335597992,-0.12758910655975342,-0.0922715812921524
1782836940881861000,8.978861083984375,0.0862017422914505,-0.11470579355955124,-0.12282204627990723
1782836940891790000,8.9887900390625,0.07925226539373398,-0.0737103521823883,-0.1495172679424286
1782836940901719000,8.998718994140624,0.07184042036533356,-0.03481994941830635,-0.16195237636566162
1782836940911648300,9.008648193359376,0.07830333709716797,-0.016360584646463394,-0.16219393908977509
1782836940921577200,9.0185771484375,0.08992111682891846,0.0047026220709085464,-0.1535453200340271
1782836940931506200,9.028506103515625,0.10703892260789871,0.03220422565937042,-0.11275328695774078
1782836940941435100,9.03843505859375,0.10787275433540344,0.07809022814035416,-0.043394990265369415
1782836940951364400,9.0483642578125,0.0940200537443161,0.11331474781036377,0.057263925671577454
1782836940961293300,9.058293212890625,0.06883666664361954,0.15498602390289307,0.16124677658081055
1782836940971222300,9.06822216796875,0.049216702580451965,0.2128881961107254,0.2335941344499588
1782836940981152300,9.07815234375,0.03529928997159004,0.26095372438430786,0.26311206817626953
1782836940991081200,9.088081298828126,0.02853318676352501,0.30104681849479675,0.24976573884487152
1782836941001010200,9.09801025390625,0.02125822938978672,0.322769433259964,0.21701844036579132
1782836941010939100,9.107939208984375,0.03639513999223709,0.30300992727279663,0.1748156100511551
1782836941020868400,9.117868408203124,0.07458166778087616,0.2371816486120224,0.14550592005252838
1782836941030797300,9.12779736328125,0.12097592651844025,0.15702541172504425,0.13573825359344482
1782836941040726300,9.137726318359375,0.16618628799915314,0.08115513622760773,0.16060711443424225
1782836941050655200,9.1476552734375,0.19467388093471527,0.0031958064064383507,0.18961256742477417
1782836941060584200,9.157584228515624,0.20494197309017181,-0.0559316948056221,0.20553001761436462
1782836941070513200,9.16751318359375,0.20675384998321533,-0.06788071244955063,0.2083243727684021
1782836941080442000,9.177442138671875,0.19402499496936798,-0.01630699820816517,0.19889305531978607
1782836941090371000,9.18737109375,0.17310567200183868,0.0572613961994648,0.17149190604686737
1782836941100300300,9.19730029296875,0.15749289095401764,0.07786600291728973,0.11609682440757751
1782836941110229200,9.207229248046875,0.15575027465820312,0.0701475664973259,0.04635588824748993
1782836941120158200,9.217158203125,0.18088144063949585,0.03382204473018646,-0.008068740367889404
1782836941130087200,9.227087158203124,0.19216428697109222,-0.012170716188848019,-0.05092732608318329
1782836941140016400,9.237016357421876,0.19195683300495148,-0.0441715270280838,-0.05177021771669388
1782836941149945300,9.2469453125,0.18850384652614594,-0.053408488631248474,-0.018148737028241158
1782836941159874300,9.256874267578125,0.17487113177776337,-0.053188249468803406,0.03714621067047119
1782836941169803300,9.26680322265625,0.15833498537540436,-0.04898887500166893,0.10151415318250656
1782836941179732200,9.276732177734376,0.1400555670261383,-0.03149936720728874,0.14526882767677307
1782836941189661200,9.2866611328125,0.1310460865497589,0.013042015954852104,0.15176191926002502
1782836941199590100,9.296590087890625,0.11912364512681961,0.06092192605137825,0.12872077524662018
1782836941209519000,9.30651904296875,0.10845229029655457,0.07521194964647293,0.08778516203165054
1782836941219448000,9.316447998046876,0.09986840188503265,0.06246925890445709,0.0639948770403862
1782836941229376300,9.326376220703125,0.11176156997680664,0.042013075202703476,0.0649840384721756
1782836941239305200,9.33630517578125,0.14087605476379395,0.034242503345012665,0.10738955438137054
1782836941249234200,9.346234130859376,0.17002524435520172,0.053591467440128326,0.18213136494159698
1782836941259163100,9.3561630859375,0.20187585055828094,0.06893313676118851,0.25101029872894287
1782836941269092400,9.36609228515625,0.22398169338703156,0.09227658808231354,0.31275519728660583
1782836941279021300,9.376021240234374,0.22595882415771484,0.12789130210876465,0.3439629375934601
1782836941288950300,9.3859501953125,0.22223259508609772,0.18711325526237488,0.3429555296897888
1782836941298879200,9.395879150390625,0.22051458060741425,0.2573149800300598,0.3246588110923767
1782836941308808200,9.40580810546875,0.2173139601945877,0.3237878978252411,0.30531829595565796
1782836941318737200,9.415737060546874,0.21242305636405945,0.36014801263809204,0.2739473283290863
1782836941328666000,9.425666015625,0.2093459814786911,0.3567187786102295,0.24221034348011017
1782836941338595000,9.435594970703125,0.2241172045469284,0.29480212926864624,0.20613889396190643
1782836941348525300,9.445525390625,0.25308406352996826,0.23897004127502441,0.16377292573451996
1782836941358454300,9.455454345703124,0.292036771774292,0.18823681771755219,0.10638871788978577
1782836941368383200,9.46538330078125,0.34426361322402954,0.11895418167114258,0.0389731228351593
1782836941378312200,9.475312255859375,0.38750243186950684,0.04767974093556404,-0.03089889883995056
1782836941388241400,9.485241455078125,0.4130035936832428,-0.019071079790592194,-0.0862690657377243
1782836941398170000,9.495170166015624,0.4171677231788635,-0.10812878608703613,-0.13742226362228394
1782836941408099000,9.50509912109375,0.41002729535102844,-0.23661547899246216,-0.1877513974905014
1782836941418028000,9.515028076171875,0.38727858662605286,-0.36183810234069824,-0.23288239538669586
1782836941427957200,9.524957275390625,0.35116419196128845,-0.4784834086894989,-0.2668982446193695
1782836941437886200,9.53488623046875,0.3297252357006073,-0.578559160232544,-0.30246394872665405
1782836941447815200,9.544815185546875,0.3212781548500061,-0.6065998673439026,-0.32405874133110046
1782836941457744100,9.554744140625,0.31957027316093445,-0.5433253049850464,-0.3183901906013489
1782836941467673300,9.56467333984375,0.3087206482887268,-0.4083023965358734,-0.3006567060947418
1782836941477602300,9.574602294921876,0.2951584756374359,-0.21627092361450195,-0.25510546565055847
1782836941487531300,9.58453125,0.2630036771297455,-0.027988266199827194,-0.1958020180463791
1782836941497460200,9.594460205078125,0.20290333032608032,0.10566593706607819,-0.13343878090381622
1782836941507389200,9.60438916015625,0.13806819915771484,0.18615305423736572,-0.09234069287776947
1782836941517318100,9.614318115234376,0.0987977683544159,0.2439684122800827,-0.0727992132306099
1782836941527247000,9.6242470703125,0.08648043125867844,0.3035981059074402,-0.06073577329516411
1782836941537176000,9.634176025390625,0.09589124470949173,0.3384532928466797,-0.06194164976477623
1782836941547105300,9.644105224609374,0.11147797852754593,0.3232022523880005,-0.07251645624637604
1782836941557034200,9.6540341796875,0.12606969475746155,0.28184816241264343,-0.0899343267083168
1782836941566963200,9.663963134765625,0.1317443549633026,0.22260664403438568,-0.11324290186166763
1782836941576892200,9.67389208984375,0.12850382924079895,0.15695013105869293,-0.1413898468017578
1782836941586821400,9.6838212890625,0.10721814632415771,0.10771704465150833,-0.1679002195596695
1782836941596750300,9.693750244140626,0.0974603220820427,0.1043071374297142,-0.1643504947423935
1782836941606679300,9.70367919921875,0.045058440417051315,0.05913479998707771,-0.14535190165042877
1782836941616608300,9.713608154296875,0.0006188033148646355,0.0005559129640460014,-0.13689130544662476
1782836941626537200,9.723537109375,-0.045562148094177246,-0.011365348473191261,-0.1521778553724289
1782836941636466200,9.733466064453125,-0.051523104310035706,0.03780246526002884,-0.11843693256378174
1782836941646395100,9.74339501953125,-0.059115950018167496,-0.01945578120648861,-0.07251855731010437
1782836941656324000,9.753323974609375,-0.045165516436100006,-0.24759094417095184,-0.03589290380477905
1782836941666253000,9.763253173828126,0.005212896969169378,-0.4459330141544342,-0.0380651131272316
1782836941676183300,9.773183349609376,0.058157604187726974,-0.5497784614562988,-0.11820628494024277
1782836941686112300,9.7831123046875,0.07497375458478928,-0.5208787322044373,-0.21677221357822418
1782836941696041200,9.793041259765625,0.04351196438074112,-0.299861341714859,-0.24618203938007355
1782836941705970200,9.80297021484375,0.002240089699625969,0.016790952533483505,-0.11388485133647919
1782836941715899100,9.812899169921875,-0.0826905146241188,0.1498432755470276,0.09451229125261307
1782836941725828000,9.822828125,-0.145655557513237,-0.000008059665560722351,0.2727314233779907
1782836941735757000,9.832757080078125,-0.15690715610980988,-0.1846974790096283,0.3951076567173004
