time,seconds_elapsed,z,y,x
1782836028809713200,0.143713134765625,-0.052500002565979954,0.010451561914850025,0.003446490616997471
1782836028819642400,0.153642333984375,-0.08691840499639511,0.006953709861729294,0.0021345403687504584
1782836028829572000,0.163572021484375,-0.08841711912155151,0.009870492357574402,-0.004301609608990838
1782836028839502300,0.17350244140625,-0.054151276904344556,0.012657693656999617,0.006433834723068866
1782836028849431300,0.183431396484375,-0.08347732463181018,0.017247761393617837,-0.0010027313187369144
1782836028859361300,0.193361328125,-0.08841244294643402,0.009863624225370585,0.0018098338924522977
1782836028869290200,0.203290283203125,-0.07210369770228862,0.007120189002435654,0.001719327756029088
1782836028879220200,0.21322021484375,-0.09005728754401207,0.012157032392174005,-0.0038256169945409054
1782836028889150200,0.223150146484375,-0.07958674693405628,0.004520034707710147,0.0024913829908939076
1782836028899079400,0.233079345703125,-0.06731997055709361,0.004241290831565857,0.007514227538031991
1782836028909009200,0.243009033203125,-0.08348609246015548,0.01438837164081633,-0.004702567650785204
1782836028918938000,0.252938232421875,-0.08468436233401298,0.014195333286747335,0.0008221562956634442
1782836028928868400,0.262868408203125,-0.07376198630332946,0.008466434245929121,0.005282776408246718
1782836028938798000,0.272798095703125,-0.08438859425783157,0.010490998876094818,-0.0006661802826623897
1782836028948727000,0.28272705078125,-0.08888006045818328,0.008622592922020703,-0.004835835216700797
1782836028958657300,0.2926572265625,-0.07960837424397468,0.0018271971608512102,0.0056181994997372385
1782836028968586200,0.302586181640625,-0.07886077074706555,0.002242408631928265,0.0068443962768476915
1782836028978516200,0.31251611328125,-0.07422551216185093,0.002895246517471969,-0.0023817006548983045
1782836028988446200,0.3224462890625,-0.07513210561275482,0.009741477416735141,0.0070407648073858575
1782836028998375200,0.332375244140625,-0.07005553300082683,0.008763718425761909,0.00003453930713003501
1782836029008305400,0.342305419921875,-0.08172960418164729,0.00389317151363939,0.0013448649955156724
1782836029018234400,0.352234375,-0.0854763894945383,0.012368337055295706,-0.0010296615665021818
1782836029028164000,0.3621640625,-0.07934124774038791,0.005172689930163323,-0.00642957753141527
1782836029038094300,0.37209423828125,-0.07754559649527072,0.002799092666618526,-0.00347814613058581
1782836029048023800,0.38202392578125,-0.08637070798575877,0.00471252507250756,0.004503412366472184
1782836029057953500,0.39195361328125,-0.0794856246471405,0.0007353102709166705,0.00945500346692861
1782836029067882500,0.401882568359375,-0.08203530912995338,0.010127846385817974,-0.003929627641575644
1782836029077812700,0.411812744140625,-0.07410743874013423,0.011362447948381304,0.00044019978186115617
1782836029087742500,0.421742431640625,-0.0925175401777029,0.00716424733987078,0.0032851066348724995
1782836029097671400,0.43167138671875,-0.08085691300034523,0.006023972997255623,0.0037715464364562645
1782836029107601700,0.4416015625,-0.07637129201889038,0.015618370093498379,-0.006158851423300802
1782836029117530600,0.451530517578125,-0.07562427304387093,-0.004937821728363633,0.0021385703731852117
1782836029127460400,0.46146044921875,-0.08115969533920288,0.006183967598248272,0.0003582833772699814
1782836029137390600,0.471390625,-0.08280278637111187,0.007800426351558417,0.004522470976680051
1782836029147319600,0.481319580078125,-0.07457739433944224,0.0024039741354994473,-0.0016650448521017096
1782836029157249800,0.491249755859375,-0.07144026535749436,0.0066857979068532586,-0.0030420402852410914
1782836029167179500,0.501179443359375,-0.07249357380270957,0.004092749206349253,-0.008509973135200561
1782836029177108500,0.5111083984375,-0.07414660170674324,-0.0052582310554571444,0.0006819737901270855
1782836029187038700,0.521038818359375,-0.07564473131000995,0.007538085620943456,0.003788006664201384
1782836029196967700,0.5309677734375,-0.08102876243591309,0.0031417868907563386,-0.0029312185882183254
1782836029206897400,0.5408974609375,-0.07683949405252934,0.0031241599025204777,-0.0019204854844720102
1782836029216827600,0.55082763671875,-0.0867138223350048,0.0009538483924232423,-0.0020993685906694733
1782836029226756600,0.560756591796875,-0.07444236978292465,0.0044223099542781705,0.002688217312312918
1782836029236686600,0.5706865234375,-0.07534253349304199,0.008844893903192132,0.00033053913710755293
1782836029246615600,0.580615478515625,-0.07399871766865253,0.004242551206890493,-0.004376839402824407
1782836029256545500,0.590545654296875,-0.0766881028831005,0.007220763300079852,-0.0005665250086924061
1782836029266475800,0.600475830078125,-0.07684007857441902,0.00894789761994034,0.010503963388944975
1782836029276404700,0.61040478515625,-0.0747451521217823,0.00581244913842529,0.002846722067473456
1782836029286334500,0.62033447265625,-0.0828273362904787,0.000057703270297497505,-0.004249960478499997
1782836029296263700,0.630263671875,-0.09225216723978519,-0.002402257102448493,-0.007020811148034409
1782836029306193700,0.640193603515625,-0.08192717258036136,0.0002967544568702578,0.001159084074362181
1782836029316123400,0.650123291015625,-0.07474807473123073,0.005255472842790186,0.0035760227227117866
1782836029326052600,0.660052490234375,-0.07519815658628941,0.005973229190707206,-0.0060740124092611945
1782836029335982600,0.669982666015625,-0.0783399617433548,0.00403541126223281,0.0061532470913545695
1782836029345911600,0.67991162109375,-0.07834346887469291,0.007371569947618991,0.0025890734949964096
1782836029355841500,0.689841552734375,-0.08642448399960995,0.003745397073403001,-0.006268324838386615
1782836029365771500,0.699771484375,-0.08492635439634323,-0.005620999953243881,0.00002498716913978569
1782836029375700700,0.70970068359375,-0.07279927875101566,-0.0033114443692378696,-0.0028991920402273532
1782836029385630700,0.719630615234375,-0.07264964114725589,0.011051646699849515,-0.004287368737795623
1782836029395559400,0.729559326171875,-0.07250351067483425,0.00884454684332013,0.008569363755796802
1782836029405489700,0.73948974609375,-0.08657353708148002,-0.0014744564667344092,-0.005807500110316323
1782836029415419600,0.749419677734375,-0.08104220643937587,0.00223488291259855,-0.00031061059393105094
1782836029425348600,0.7593486328125,-0.07042378179132938,-0.0011054952901788054,-0.0006834670608921442
1782836029435278600,0.769278564453125,-0.07596154217422008,0.0073867309841327364,0.007295215634134365
1782836029445207600,0.77920751953125,-0.07715513587296009,0.012603716713748872,0.007409922346763778
1782836029455137500,0.789137451171875,-0.07715221326351165,0.016730623918026686,0.0015833442182862198
1782836029465067500,0.799067626953125,-0.06907879692316055,-0.003106879974156618,-0.002021981089079054
1782836029474996500,0.80899658203125,-0.07716098109185696,-0.00018827084740623832,-0.0012202773513330612
1782836029484926700,0.8189267578125,-0.08104688261449336,0.016298315181676296,-0.0032101736685610375
1782836029494855700,0.828855712890625,-0.08419161038100718,0.005002173935156316,0.001531753311655484
1782836029504785700,0.83878564453125,-0.07970131322443484,0.006524652528390288,-0.0005992730758909602
1782836029514715600,0.848715576171875,-0.06443886216282844,0.0072600358645431694,-0.00586705741098267
1782836029524644600,0.85864453125,-0.08299918572604656,-0.0014549845812842248,0.004584624376520514
1782836029534574600,0.86857470703125,-0.07747136221528053,0.006187419930659234,-0.0014084991080337203
1782836029544503800,0.87850390625,-0.0786667094796896,0.009531341797392815,-0.01201438393491553
1782836029554433500,0.88843359375,-0.07298223410248755,0.009928652285598218,0.0013796303482202347
1782836029564363500,0.898363525390625,-0.07597440165579318,0.007098726089298724,0.006466348753182683
1782836029574292700,0.908292724609375,-0.08031155407726764,0.008220935052260755,-0.00977158600227558
1782836029584222500,0.918222412109375,-0.08599953658580779,0.007261734631285071,-0.002079271084134234
1782836029594151400,0.9281513671875,-0.08495616501271724,0.008012041541934013,0.00502580140591599
1782836029604081700,0.93808154296875,-0.07029401793181896,0.0044976402128115295,-0.002738636891875649
1782836029614011600,0.94801171875,-0.07492986103892325,0.012211849585641175,-0.0024331922384735662
1782836029623940600,0.957940673828125,-0.07852467066049576,0.008043569191358983,0.0025516389778815207
1782836029633870600,0.96787060546875,-0.08122048561573028,-0.0029554157394915815,-0.0012358117055380716
1782836029643799600,0.977799560546875,-0.07598492304980754,-0.0006030256607569754,0.0007157915780495386
1782836029653729800,0.987729736328125,-0.08211889576017856,0.008852766682393848,0.0019739041636523324
1782836029663659500,0.997659423828125,-0.07404197228848934,-0.00010981705002486706,0.008698585334257223
1782836029673588500,1.00758837890625,-0.07269406481087208,0.008778075744677335,0.0033222420411766506
1782836029683518700,1.017518798828125,-0.07374152803719043,0.0009850655145943164,-0.0028550868953752797
1782836029693447700,1.02744775390625,-0.07584113066494465,-0.0023237850387580693,-0.003508193067333195
1782836029703377400,1.03737744140625,-0.07868249157071112,0.002237330598011613,0.0028907963879290033
1782836029713307600,1.0473076171875,-0.07913023533821105,0.00016850670101121066,-0.00074504963857471
1782836029723236600,1.057236572265625,-0.06880757876634597,0.0008487257838249206,-0.006867311361554311
1782836029733166600,1.06716650390625,-0.08750877210497855,-0.0014278773786500095,-0.0024482174193137325
1782836029743095600,1.077095458984375,-0.08377017009854316,0.010306344757881015,-0.004263152178568998
1782836029753025500,1.087025634765625,-0.08033668851852417,0.008082202435005455,-0.006519799398403847
1782836029762955800,1.096955810546875,-0.07973930714726447,0.0016027772878296673,-0.0046263560428400526
1782836029772884500,1.106884521484375,-0.07585106753706931,0.005702833017800003,0.0015702347166079561
1782836029782814500,1.116814453125,-0.06373275972008705,0.0017397563394159078,0.002917952681268798
1782836029792743700,1.12674365234375,-0.07120996373295783,0.0029368023705668746,-0.003091902742377715
1782836029802673700,1.136673583984375,-0.07988836022913455,0.001756250816490501,-0.0005426338180957828
1782836029812603600,1.146603759765625,-0.0815332048267126,0.003450925905164331,-0.0007788308938790578
1782836029822532600,1.15653271484375,-0.08691957404017447,0.006152732209768146,0.00037904075421974994
1782836029832462600,1.166462646484375,-0.07524550285935401,0.003992996892612427,0.002783570870500989
1782836029842391600,1.1763916015625,-0.07076046639978885,0.0031080124853178855,0.0034566170020785647
1782836029852321500,1.186321533203125,-0.07974222975671291,0.0014890147150494158,0.005568983213283354
1782836029862251500,1.19625146484375,-0.08303717964887619,-0.0038577531403861938,-0.0069597548683814235
1782836029872180700,1.2061806640625,-0.06941957318484783,-0.0011528050306253135,-0.003454909102182137
1782836029882110700,1.21611083984375,-0.07869418200850486,0.004027501950412988,0.0017470206221973058
1782836029892039400,1.226039306640625,-0.07345394326746463,-0.0031980288563296195,-0.010448888183862436
1782836029901969700,1.2359697265625,-0.0758475604057312,-0.0031695516805164514,-0.00018732899084570817
1782836029911899600,1.245899658203125,-0.06926584392786025,0.0024267704891972244,-0.0064186234542052256
1782836029921828600,1.25582861328125,-0.08348667698204516,0.0031458420113660394,-0.00195127220673603
1782836029931758600,1.265758544921875,-0.08258592875003815,0.0014434768065810203,0.004673978593829088
1782836029941687600,1.2756875,-0.07495733356773852,0.002694207520037889,-0.004273723804933251
1782836029951617800,1.28561767578125,-0.07615794152915477,0.00840005447883159,-0.002905360344465589
1782836029961547500,1.295547607421875,-0.0754074154227972,0.010570146793220192,-0.0011708886765874921
1782836029971476500,1.3054765625,-0.08094166867434978,0.0022766214287839827,0.005199929563538171
1782836029981406700,1.31540673828125,-0.07345218970179557,0.0029756548099219796,0.005044831475015962
1782836029991335700,1.325335693359375,-0.07329787592291831,-0.00642961292238906,0.00912673277707654
1782836030001265400,1.335265380859375,-0.08137830652594566,-0.0001521400880999863,0.004945331464672927
1782836030011195600,1.345195556640625,-0.08063479468226432,0.01092665034700185,-0.0014563945120142307
1782836030021124600,1.35512451171875,-0.0756990918457508,0.005006229055766016,0.0021645507728797384
1782836030031054600,1.3650546875,-0.07764379617273807,0.007555237685143947,0.008812165243946946
1782836030040983600,1.374983642578125,-0.08093523893356323,0.010129088494833557,-0.002361679638532223
1782836030050913300,1.384913330078125,-0.07569675375819206,0.007633380955271422,-0.0011162678459426389
1782836030060843300,1.39484326171875,-0.06940788274705409,-0.000617328180745244,0.0010658551162458024
1782836030070772200,1.404772216796875,-0.06879939545989036,0.0027269042132422325,-0.004957029893976869
1782836030080702200,1.4147021484375,-0.08241407931447028,0.0014685016499832273,-0.008612867254094454
1782836030090631200,1.424631103515625,-0.07762801408171653,0.010353179574292153,-0.0012204017905634828
1782836030100561400,1.4345615234375,-0.0771849464893341,0.004764109129272401,0.003971174361516023
1782836030110491400,1.444491455078125,-0.07704056958258151,0.0009893580972217023,0.0023994623571634292
1782836030120420000,1.454420166015625,-0.07689619267582892,0.0042391354070976375,-0.0009792168707645032
1782836030130350300,1.464350341796875,-0.07809680063724517,0.0014190547513775527,0.0006392979839583858
1782836030140279300,1.474279296875,-0.07255962477624416,0.012524057339970023,-0.0037140577952901365
1782836030150209300,1.484209228515625,-0.07405483177006245,0.0067147500067017965,0.0044384254054399205
1782836030160139300,1.49413916015625,-0.0679132602751255,0.007836429246701299,0.0005317562310548964
1782836030170068200,1.504068115234375,-0.08093173180222511,0.0024654767980799076,0.0007680492049606982
1782836030179998200,1.513998291015625,-0.07599310635626316,-0.005007580762635916,0.0014886927713523618
1782836030189927400,1.523927490234375,-0.07794073329269885,-0.002981335632037371,0.005613221930520376
1782836030199857200,1.533857177734375,-0.07165829202234744,-0.0011110847807489334,-0.005616048641846282
1782836030209787400,1.543787353515625,-0.08093582345545292,0.0009753295718692242,-0.009990089874452678
1782836030219716400,1.55371630859375,-0.0810889681905508,-0.0016799707098864019,-0.003464465806749649
1782836030229646000,1.56364599609375,-0.07255728668868541,0.002432542642857879,0.002588800642004935
1782836030239575000,1.573574951171875,-0.07779226473271847,0.0050687546316534274,-0.005177918661129661
1782836030249505300,1.58350537109375,-0.08482581663131714,0.002952675793133676,-0.004069158268207684
1782836030259434200,1.593434326171875,-0.07838672349452971,0.007446827140916139,0.0022224720972415526
1782836030269364500,1.603364501953125,-0.07614215943813324,-0.0036238530529662965,-0.005434295441838912
1782836030279294200,1.613294189453125,-0.07973112384080887,-0.00009518573647364973,-0.008115522466006223
1782836030289223200,1.62322314453125,-0.07644552629888057,0.006108564274478703,0.0025916147952433676
1782836030299153400,1.6331533203125,-0.0694119744002819,0.00045104996943846345,0.009022917351219803
1782836030309082400,1.643082275390625,-0.07883738987147808,0.002890643407590687,0.009250539536547147
1782836030319012000,1.65301220703125,-0.07883855891525746,0.002714300459995866,-0.003428642149764346
1782836030328942300,1.6629423828125,-0.08332476441860198,-0.0018400383761152624,0.010457683411671314
1782836030338871300,1.672871337890625,-0.07688976293504238,0.005074727714713663,-0.002413037649722537
1782836030348801300,1.68280126953125,-0.0837771843612194,-0.006137936499435454,0.0066572716403345104
1782836030358730200,1.692730224609375,-0.0792939014673233,0.002467577423620969,0.0010415186843660193
1782836030368660200,1.70266015625,-0.07271510759890079,-0.0031002675702795383,-0.004379236855887575
1782836030378590500,1.712590576171875,-0.07721300354003906,0.005725885099824518,-0.010696919544623233
1782836030388519200,1.722519287109375,-0.0896335091739893,0.003458926548529416,-0.0010149754540238064
1782836030398449200,1.73244921875,-0.07197744097411632,-0.0028662944176234303,0.004884983004495734
1782836030408378400,1.74237841796875,-0.07571955011188984,0.002044566238578409,-0.0069345553533989
1782836030418308400,1.752308349609375,-0.07796294512450695,0.009697327747754753,0.003338689710834296
1782836030428238000,1.762238037109375,-0.07287468207478523,0.0015001388972625135,0.0013904714026430156
1782836030438167300,1.772167236328125,-0.0802086782246828,0.008019366331864147,0.01410718464583624
1782836030448097300,1.78209716796875,-0.07092997774779797,0.005803151587117463,0.006989508402539649
1782836030458026200,1.792026123046875,-0.06599427491128444,0.006027023470867425,0.0067116356010083105
1782836030467956200,1.801956298828125,-0.07856324910521507,0.001700502041261643,-0.00002237965352251194
1782836030477886200,1.81188623046875,-0.07512041517496108,-0.003487312392797321,-0.001675783158536069
1782836030487815400,1.8218154296875,-0.07766191635131836,0.0025737777444534,0.007088096239074366
1782836030497745200,1.8317451171875,-0.08080430603027343,-0.004749039424303918,0.005065302299242467
1782836030507674000,1.841674072265625,-0.07856091101765632,0.0010444127527065574,-0.01200421074241749
1782836030517604400,1.851604248046875,-0.07930500738322735,0.005976553658954799,-0.0012802330858656204
1782836030527534300,1.861534423828125,-0.08095569719970226,0.00012905147345736623,0.000866944143816363
1782836030537463300,1.87146337890625,-0.0706324561059475,0.0014130999346263706,0.002335849935887381
1782836030547393300,1.881393310546875,-0.07766893061399459,0.007866824384965002,0.0001147706447110977
1782836030557322200,1.891322265625,-0.06989011330604553,0.005092902692221105,0.011181398001272463
1782836030567252200,1.901252197265625,-0.0712333446085453,0.0064260875247418876,0.0010412332732870708
1782836030577182200,1.91118212890625,-0.07287877372801303,0.0019663864358328282,-0.001124983158649411
1782836030587111200,1.921111083984375,-0.07512041517496108,-0.002143697497807443,-0.004783058141625952
1782836030597041400,1.93104150390625,-0.07601590270996093,-0.0032538689631037413,0.004052223116427194
1782836030606970400,1.940970458984375,-0.0813940886169672,0.00468370083682239,0.004959096270188456
1782836030616900000,1.950900146484375,-0.07301029115319252,0.010966598764900118,-0.003984050967753864
1782836030626830300,1.960830322265625,-0.07450783623456954,0.002385068505629897,-0.0018435466490976976
1782836030636759300,1.97075927734375,-0.07765256400108336,0.004848901335895061,0.00021976082256878725
1782836030646689300,1.980689208984375,-0.07376549343466758,-0.0018433263117447495,0.0008532329955836757
1782836030656618200,1.9906181640625,-0.088578447163105,-0.0024055450380779803,-0.002400415630167117
1782836030666548200,2.00054833984375,-0.07944470811486244,0.005419504298083484,0.0015070435620844363
1782836030676478200,2.010478271484375,-0.07405074011683464,-0.0034650457620620727,-0.005702761094208108
1782836030686407400,2.020407470703125,-0.08093114728033542,0.0006870324160903692,-0.0029049801769084295
1782836030696337200,2.030337158203125,-0.07045534597337245,0.0061145556238479904,-0.0034906905183277556
1782836030706266000,2.04026611328125,-0.08167933529913425,0.0012762304808944464,-0.007610078853141749
1782836030716196400,2.0501962890625,-0.082875267085433,0.0022235212683677672,-0.007046393113862723
1782836030726125300,2.060125244140625,-0.08242460070848465,-0.004456741946842521,-0.0018735901609121355
1782836030736055300,2.07005517578125,-0.07120002686083317,-0.005587463009823114,-0.0016034360165998805
1782836030745985300,2.0799853515625,-0.07808627924323082,0.004186400572862476,0.005956021185935242
1782836030755914200,2.089914306640625,-0.08361819440722465,0.008999847002886235,0.0008851442374987527
1782836030765844200,2.09984423828125,-0.08031798381805419,0.008383505202829837,0.006815436185488943
1782836030775773200,2.109773193359375,-0.08375906418263912,0.0031594869442284107,0.008504274046776117
1782836030785703200,2.119703125,-0.07523088981211185,0.001777859860099852,-0.0000038176585920155045
1782836030795633400,2.12963330078125,-0.08390928630828857,0.007925367905478924,0.0034201722905854693
1782836030805562400,2.139562255859375,-0.07253507485687732,0.003651307315472513,0.001787296692014206
1782836030815492000,2.1494921875,-0.06670096187591552,0.006418762734811753,-0.0035987551443278786
1782836030825421300,2.15942138671875,-0.08016834621429443,0.0005956278055906295,-0.0032474689050693995
1782836030835351300,2.169351318359375,-0.07118892094492912,0.003618975948449224,-0.0036315374608559066
1782836030845281300,2.17928125,-0.07328384739756584,0.003329016558546573,-0.006605710416455986
1782836030855210200,2.189210205078125,-0.08301087616384029,0.006302789938636124,0.0008739800977346021
1782836030865140200,2.19914013671875,-0.07912088298797607,0.01062426986694336,-0.002047454598697368
1782836030875069400,2.2090693359375,-0.07852525518238544,0.009013090076949446,0.001111164695851039
1782836030884999200,2.218999267578125,-0.08002396930754184,0.006985730701498687,0.011003875735099427
1782836030894929200,2.22892919921875,-0.07628712086677551,-0.00572698107836768,0.0026736019817821216
1782836030904858400,2.2388583984375,-0.07793547259569168,0.003321289909817278,0.00258301478861249
1782836030914788400,2.248788330078125,-0.08781272348761558,-0.000008530366327613592,0.0028974613074446093
1782836030924717300,2.25871728515625,-0.08018471282720566,-0.0031343890355899928,0.0023382565221050752
1782836030934647300,2.268647216796875,-0.0800344907015562,0.0007798983313143253,-0.004004992149438476
1782836030944577300,2.278577392578125,-0.07299918523728847,0.006701324269548058,0.005958940370450728
1782836030954506200,2.28850634765625,-0.08077917158901692,-0.0017813487251289188,0.006254399061022558
1782836030964436200,2.298436279296875,-0.08092997823655605,-0.003933101665228605,0.003807853008987149
1782836030974365200,2.308365234375,-0.08108253844976425,0.0033014892308041452,0.0036867085640609728
1782836030984295400,2.31829541015625,-0.0767448015064001,0.0014520071729086338,0.00044978959411382674
1782836030994224400,2.328224365234375,-0.07794190233647823,-0.00018450798774138092,0.008297981202200754
1782836031004154000,2.338154052734375,-0.07569733828008174,0.00832775642760098,0.003438872424478177
1782836031014084400,2.34808447265625,-0.08063362563848495,0.0058541511219926175,-0.0008894859108317177
1782836031024013300,2.358013427734375,-0.08033493495285511,0.0028499643373303112,0.0017121924790553748
1782836031033943300,2.367943359375,-0.07509294264614581,0.00346482656635344,-0.0016199704512255264
1782836031043872300,2.377872314453125,-0.08167524364590645,0.009051138798706233,-0.0026063636981591117
1782836031053802500,2.387802490234375,-0.08392331483364104,-0.0007825652124360203,0.0019418913153931498
1782836031063732500,2.397732421875,-0.07464344531297683,0.008427892333827913,-0.0008723486880073323
1782836031073661400,2.407661376953125,-0.07853168492317199,-0.003014434184040874,-0.0042679744841589125
1782836031083591400,2.41759130859375,-0.07987550074756145,-0.0029250023349188265,-0.0011440783014753833
1782836031093520400,2.427520263671875,-0.06984744320809841,-0.0014869871547445654,0.007678940554981818
1782836031103450600,2.43745068359375,-0.07478139247894287,-0.0019565591615624727,0.002988821393816033
1782836031113379600,2.447379638671875,-0.08720072906911372,0.002545629362203181,0.0075962227160809555
1782836031123309300,2.457309326171875,-0.07851882544159888,0.0032657055313698945,0.004836902654136065
1782836031133239600,2.467239501953125,-0.07672258967459201,0.0035685974680818616,-0.004764509846427244
1782836031143168500,2.47716845703125,-0.08106500279307365,-0.00011146101783961058,0.0007857846494065598
1782836031153098500,2.487098388671875,-0.08645429461598396,0.003838244722317904,-0.0033577814287273212
1782836031163027500,2.49702734375,-0.07238952890634537,0.003956720002833754,0.000043148446915438394
1782836031172957400,2.50695751953125,-0.07747837647795677,0.007362345461547374,-0.0012618457625154405
1782836031182887700,2.5168876953125,-0.07403437350392342,0.002194404771737754,-0.002938618726673303
1782836031192816400,2.52681640625,-0.062362640410661696,-0.0004963686821982265,-0.0041318060000368854
1782836031202746400,2.536746337890625,-0.08226385718882083,-0.0030167722715996204,0.0036965529629960654
1782836031212675600,2.546675537109375,-0.0910930603325367,0.0005423267157748341,0.004694028151303064
1782836031222605600,2.55660546875,-0.076575290158391,0.0003515533840283751,-0.0022001860585529357
1782836031232535300,2.566535400390625,-0.07822305736541747,0.007920289871562273,0.01388430599264102
1782836031242464500,2.576464599609375,-0.08226677979826927,-0.0029841303773224352,0.0038150853257277045
1782836031252394500,2.58639453125,-0.08780804731249808,-0.0007459229964762925,0.004095285940018948
1782836031262323500,2.596323486328125,-0.08526420804858208,0.0011985438684932886,-0.011114472528191982
1782836031272253400,2.60625341796875,-0.08586042037606238,0.006515610705409199,0.0024046340059139765
1782836031282182400,2.616182373046875,-0.08316518994271754,0.0020943784633651375,-0.0005619196155224926
1782836031292112600,2.626112548828125,-0.07328735452890396,0.004854034168738872,0.003969550943298964
1782836031302042400,2.63604248046875,-0.07448036370575428,0.006031261254567653,-0.0024510897964122704
1782836031311971300,2.645971435546875,-0.07238660629689693,0.008392948884610086,0.0026610804269264917
1782836031321901600,2.655901611328125,-0.0818120217680931,0.004261073244269937,0.006129414124618051
1782836031331830500,2.66583056640625,-0.08076631210744381,0.0004568951883353293,0.004304376954812323
1782836031341760500,2.675760498046875,-0.07074176169931888,-0.003922507205978035,0.004357034157234011
1782836031351690500,2.6856904296875,-0.06984393607676029,0.014340440845862031,0.0015254754095629323
1782836031361619500,2.695619384765625,-0.08225801196992397,0.009893106048181652,-0.006186772618332179
1782836031371549400,2.705549560546875,-0.0822562584042549,0.004575125895813107,-0.0035431650576589163
1782836031381478700,2.715478759765625,-0.08300210833549498,0.012880012904480098,0.004048318692867178
1782836031391408400,2.725408447265625,-0.08195581415295601,0.005512425012234598,0.001251567538740346
1782836031401337300,2.73533740234375,-0.0773205555677414,0.006742752258479595,0.0005076755275018513
1782836031411267600,2.745267578125,-0.08450549863576888,0.0035136524104513226,-0.004571487475378671
1782836031421197300,2.755197265625,-0.08151333108246325,-0.0011486951110884545,0.005957155980385141
1782836031431126300,2.765126220703125,-0.07492869199514389,0.0012556260842829941,0.007697950074484106
1782836031441056500,2.775056396484375,-0.07133855854868888,0.0024265695597976444,-0.003877528703224379
1782836031450985500,2.7849853515625,-0.07133855854868888,0.00975833721999079,0.005083054868353065
1782836031460915500,2.79491552734375,-0.09019757279753685,0.007032711648382246,0.0058926405184553
1782836031470845400,2.804845458984375,-0.08301262972950935,0.006686345896124839,-0.008423196750757051
1782836031480774400,2.8147744140625,-0.0740349580258131,-0.006513473547250032,-0.005105771306948736
1782836031490704600,2.82470458984375,-0.07822773354053497,-0.004652739442978054,-0.0036634715356572995
1782836031500633600,2.834633544921875,-0.07897007634043693,0.009299597134441137,0.0005464948591717984
1782836031510563300,2.844563232421875,-0.07387538354992866,-0.0010722506077028811,-0.01000722823892138
1782836031520492500,2.854492431640625,-0.08494739718437194,-0.0004285458766855299,-0.0038591470880957783
1782836031530422500,2.864422607421875,-0.07401859141290187,0.000050250616203993554,0.006328665307053598
1782836031540352500,2.8743525390625,-0.07117489241957664,0.006064104078244418,0.005765512715670047
1782836031550281500,2.884281494140625,-0.06788052704930306,0.010321012604050338,0.0027400125732761804
1782836031560211500,2.89421142578125,-0.07102525481581687,0.006355926631670445,-0.0027156818496179764
1782836031570140400,2.904140380859375,-0.07281856797337531,0.008216697268560528,0.004735441298858495
1782836031580070400,2.9140703125,-0.08449147011041641,-0.00004683481641113758,-0.0018937082170450592
1782836031590000400,2.92400048828125,-0.07670914567112923,0.005539605280105025,0.0048232440215419045
1782836031599929600,2.9339296875,-0.07745616464614867,0.007822784313838928,-0.0012845736175542697
1782836031609859600,2.943859619140625,-0.07386193954646587,0.0001394632696174085,-0.00602549937570584
1782836031619788300,2.953788330078125,-0.0862830297023058,0.004591200247779488,0.0004483808050281368
1782836031629718500,2.963718505859375,-0.08209317679703235,0.0030852891968563196,-0.0043167786370147945
1782836031639647500,2.9736474609375,-0.08298983337581158,0.009410090037900954,0.0032476618429587685
1782836031649577500,2.983577392578125,-0.0756599288791418,0.011268741782940923,0.000753045715362532
1782836031659507500,2.993507568359375,-0.07970189774632454,0.00673239526124671,0.0002992409581900574
1782836031669436400,3.0034365234375,-0.08194412371516227,0.006510605736728757,0.003396373573178425
1782836031679366700,3.01336669921875,-0.08523556647598743,0.00638391061713919,-0.0024914914471039083
1782836031689295600,3.023295654296875,-0.08074176218807697,0.0032392559158615766,0.0031289559502911284
1782836031699225300,3.033225341796875,-0.07340659699440003,0.006782335350196808,0.0009976367309776832
1782836031709154300,3.043154296875,-0.08103636122047901,0.003110770697984844,-0.0030900190292566547
1782836031719084500,3.05308447265625,-0.07908990332782267,-0.00045525122052058573,0.0015033623299881582
1782836031729014300,3.06301416015625,-0.08028641963601112,0.004808295330870896,-0.0033971310541819548
1782836031738943500,3.072943603515625,-0.08612696235775948,0.004950973470881581,-0.0010738175145263084
1782836031748873500,3.08287353515625,-0.08343348549008368,0.012428177483752368,-0.003958534646473708
1782836031758802400,3.092802490234375,-0.0768541070997715,0.008661938551720231,0.005230672332496033
1782836031768732700,3.102732666015625,-0.08538578860163688,0.005749576502665877,-0.000029287743277382103
1782836031778662400,3.112662353515625,-0.07296586748957634,0.006483681197185069,-0.004445152544570737
1782836031788591400,3.12259130859375,-0.07745791821181773,0.003394921401608735,0.004284147017536452
1782836031798521600,3.132521484375,-0.07940437610447407,0.002610986215993762,-0.006672487475775415
1782836031808450600,3.142450439453125,-0.07461188113093375,-0.0013043240642175078,-0.00018854940861929206
1782836031818380300,3.15238037109375,-0.08777999026179313,-0.003239420312643051,-0.003492800847845501
1782836031828309500,3.1623095703125,-0.06264028830826282,0.0035152050467208026,-0.0019401491661672479
1782836031838239500,3.172239501953125,-0.07910393185317516,0.003537818737328052,-0.000026314901479054243
1782836031848169500,3.18216943359375,-0.07925707658827304,0.005224365318473428,-0.0013621740358095847
1782836031858098400,3.192098388671875,-0.07132686811089516,-0.0022831607674248513,-0.005513428517588181
1782836031868028400,3.2020283203125,-0.0828489636003971,0.004590487861726433,0.0064585028026223875
1782836031877957600,3.21195751953125,-0.07087737077772617,0.010747585719358176,0.007324588429913273
1782836031887887400,3.221887451171875,-0.07282090606093407,0.005117726606223732,-0.0007087008252041414
1782836031897816300,3.23181640625,-0.08538871121108531,-0.0028893099670298395,0.0032943339750549057
1782836031907746600,3.24174658203125,-0.08119885830581187,0.005784045027848333,0.0031668003177153874
1782836031917676500,3.251676513671875,-0.07057809557020664,0.0017741335330531,-0.0009113409787911222
1782836031927605500,3.26160546875,-0.0803086314678192,0.007162786035146564,0.0021446330753242364
1782836031937535500,3.271535400390625,-0.08509703478813171,0.008511972154397517,0.004087407452595653
1782836031947464400,3.28146435546875,-0.08344926758110523,-0.0013017485146410762,-0.0002964250924851512
1782836031957394400,3.29139453125,-0.08360065875053405,0.0020793452910147607,-0.0007318893337243935
1782836031967324400,3.301324462890625,-0.08150397873222827,0.0019934388395398852,-0.0011069434659933903
1782836031977253400,3.31125341796875,-0.08599252232313155,-0.005933426903281361,-0.002016628489704453
1782836031987183600,3.32118359375,-0.08090425927340984,0.010702705398015678,0.001145088085872703
1782836031997112600,3.331112548828125,-0.0870405700713396,0.0031790866938419637,0.003225645803150837
1782836032007042300,3.341042236328125,-0.08495090431571006,-0.0009001454438082873,0.004548188227359787
1782836032016971500,3.350971435546875,-0.08435586103200912,0.004371018158458173,0.007121692547999555
1782836032026901500,3.360901611328125,-0.08121756300628184,0.007986249513551593,-0.0027007206008594947
1782836032036831500,3.37083154296875,-0.07882160778045653,0.0026484321495518085,0.006328253173455595
1782836032046760400,3.380760498046875,-0.08166004607677459,0.0072973356676287945,0.004280109592413646
1782836032056690700,3.390690673828125,-0.08405307869315147,-0.004469546629488468,-0.006926388600785867
1782836032066619600,3.40061962890625,-0.07627075425386429,0.00319850378036499,0.001237206794891972
1782836032076549600,3.410549560546875,-0.07642156090140342,0.0027019707013852894,0.007333410486363573
1782836032086478600,3.420478515625,-0.07866787852346897,0.0024974611052311956,0.0087397741487046
1782836032096408600,3.43040869140625,-0.07148527354300022,0.003389642438292503,0.002688698515392025
1782836032106338600,3.440338623046875,-0.07013853510916232,0.008030965438112617,-0.0012311595049512105
1782836032116267800,3.450267822265625,-0.08180676107108592,0.008612674316205084,0.0057612743611476615
1782836032126197500,3.460197509765625,-0.0843482622474432,0.001804492138698697,0.004231905944467871
1782836032136126500,3.47012646484375,-0.08030804694592952,0.001953216427005827,-0.00020410317077767102
1782836032146056700,3.480056640625,-0.07656827589571476,0.0014749313907697797,0.0030661432508582945
1782836032155986400,3.489986328125,-0.07731646391451358,0.0019097243451513348,0.006548718390567228
1782836032165915400,3.499915283203125,-0.07821428953707217,-0.0003365932769142091,-0.004882137456038617
1782836032175845600,3.509845703125,-0.07462649417817592,-0.000010557926632463932,-0.004322017642779974
1782836032185774600,3.519774658203125,-0.0871931302845478,-0.00006298223361372948,0.00024900632500648496
1782836032195704600,3.52970458984375,-0.07223170799612999,0.007793412088882177,0.0010241525618563173
1782836032205633500,3.539633544921875,-0.08046236072480678,0.011054934635479003,0.006241000723332399
1782836032215563500,3.5495634765625,-0.07836334261894226,0.0020747056485153734,0.00502640933151415
1782836032225493800,3.55949365234375,-0.08314940785169601,0.0041092802160419524,-0.004350014757158351
1782836032235422700,3.569422607421875,-0.09556815991997718,0.0010040624760091303,0.0033673329958954124
1782836032245352400,3.5793525390625,-0.07730828060805797,0.008028755214717239,-0.0023314620259596267
1782836032255281700,3.58928173828125,-0.07925532302260399,0.0027397819611243903,0.003292463961665635
1782836032265211600,3.599211669921875,-0.07641279307305812,0.007341777597554028,0.0009962678994430462
1782836032275140600,3.609140625,-0.08045359289646148,0.004044288688432425,0.005456443341565318
1782836032285070600,3.619070556640625,-0.0820996065378189,0.004799125643726438,-0.0015397425385774112
1782836032295000600,3.62900048828125,-0.07431494401097297,0.009109810183383523,-0.0010453814379085087
1782836032304929500,3.638929443359375,-0.08434183250665664,0.0047361616764217615,0.002977106410669512
1782836032314859500,3.648859619140625,-0.0803004481613636,0.009699318775441498,0.0001575120954279555
1782836032324788500,3.65878857421875,-0.08075286810398101,0.0019610709398984907,0.0012739329217089106
1782836032334718700,3.66871875,-0.0776075558155775,0.00041946752108633513,-0.004333702372352127
1782836032344648700,3.678648681640625,-0.07536591436862945,0.005393036416266113,0.00039080197396106086
1782836032354577700,3.68857763671875,-0.07342354812920093,0.0033460590248927473,0.004604371398250805
1782836032364507600,3.698507568359375,-0.08329846093356609,0.004134268526826053,0.0014871264353510923
1782836032374436600,3.7084365234375,-0.07895546329319476,0.003956464274507016,0.005055072024528635
1782836032384366600,3.71836669921875,-0.08014905699193477,0.004546831383090466,0.004946966299333144
1782836032394295800,3.7282958984375,-0.0761041655153036,0.003065214523207396,-0.00022902526619145646
1782836032404225500,3.7382255859375,-0.08163549615740776,0.011162139603309333,-0.004426895939494716
1782836032414155500,3.748155517578125,-0.07609247507750988,0.008550514066498725,-0.0004387476102914661
1782836032424084700,3.758084716796875,-0.07908288906514645,0.002960548572335392,0.003690976030513411
1782836032434014500,3.768014404296875,-0.07579086178243159,0.008940426699537783,0.0028363171211793084
1782836032443943400,3.777943359375,-0.07130114914774895,0.011494202835578471,0.0028368479857861528
1782836032453873700,3.787873779296875,-0.0775900201588869,0.011797277435380964,-0.00158739134738571
1782836032463802600,3.797802734375,-0.07803601036071776,0.005623776432219892,0.0006196285940415691
1782836032473732600,3.807732666015625,-0.07115092702209949,0.0032849582211114466,0.009395965614425949
1782836032483662600,3.81766259765625,-0.07578969273865223,0.004041128616966307,0.0013712021590588847
1782836032493591600,3.827591552734375,-0.07698737809062003,0.010295732032321392,-0.00047027925547154153
1782836032503521800,3.837521728515625,-0.08102817791402339,0.005035108090378344,0.010245313594402977
1782836032513450500,3.847450439453125,-0.07818506344258785,0.00863884993707761,0.006831016776288743
1782836032523380500,3.85738037109375,-0.07773498158752917,0.0016281126584857702,0.0064349917795829235
1782836032533309700,3.867309814453125,-0.08551496793925761,0.007666114181093871,-0.0047697505646588974
1782836032543239700,3.87723974609375,-0.08162380571961403,0.007676617308799177,-0.001986217939242488
1782836032553169400,3.88716943359375,-0.08357026361227035,0.004489639569446444,0.004371155155776068
1782836032563098600,3.8970986328125,-0.07952712570130825,0.011476795043051243,0.0009534813537757145
1782836032573028600,3.907028564453125,-0.07982464734315872,0.005120283889491111,0.003698638747161021
1782836032582957600,3.91695751953125,-0.07848141604065895,0.007688910534791648,0.00658664324391575
1782836032592887600,3.926887451171875,-0.07085282085835934,0.0071502005482092495,0.003971287384303287
1782836032602817500,3.936817626953125,-0.07848258508443832,0.0007678243010304867,0.002830581500136759
1782836032612746800,3.946746826171875,-0.0813245305120945,0.011573898741975426,0.003135616874051629
1782836032622676700,3.9566767578125,-0.0693511841237545,0.0067116447341628365,-0.0051319743272848425
1782836032632605400,3.96660546875,-0.0793769035756588,0.005525284493807703,-0.0024919623753841733
1782836032642535700,3.97653564453125,-0.07952829474508762,0.0028955387784168124,0.000026992467380478044
1782836032652464600,3.986464599609375,-0.0801215844631195,0.0075738510540686544,-0.003529352303082123
1782836032662394600,3.99639453125,-0.07907470575869083,0.0077040715713053935,0.0019402833093743537
1782836032672324600,4.00632470703125,-0.07368716750144957,0.012521993247047065,0.00490143866566359
1782836032682253600,4.016253662109375,-0.08431669806540013,0.0006666106825694441,0.002791322064583073
1782836032692183600,4.02618359375,-0.08566694363057613,0.01042661013668403,0.002848396859684726
1782836032702112800,4.03611279296875,-0.0765355426698923,0.004255702949408442,-0.003587898106884677
1782836032712042500,4.04604248046875,-0.07623451389670372,0.003422485261969268,-0.001566586021374678
1782836032721971500,4.055971435546875,-0.07652969745099544,-0.00003094312753528356,-0.0035227621612692016
1782836032731901700,4.065901611328125,-0.07937105835676193,0.0072117762760259205,0.0058616528667917
1782836032741831400,4.07583154296875,-0.07607552394270896,0.015255290668457745,-0.00003979201262700371
1782836032751760400,4.085760498046875,-0.08565116153955459,0.005589289640728384,0.005482914077493478
1782836032761690600,4.095690673828125,-0.0849012199550867,0.007745243831910192,-0.00043391331743623595
1782836032771619600,4.10561962890625,-0.08325228370428085,0.008275697446800769,0.004266977257849067
1782836032781549600,4.115549560546875,-0.0804050775796175,0.002585833508428186,-0.00012629782736767084
1782836032791479600,4.1254794921875,-0.07726034981310367,0.003861351603269577,0.00628874942601833
1782836032801408500,4.135408447265625,-0.07307049690783024,0.009249967572744934,0.0014684508468111744
1782836032811338800,4.1453388671875,-0.07381868492662906,0.008655728006642311,-0.00017248476062959524
1782836032821267700,4.155267822265625,-0.07426233704090118,0.003163121939729899,0.0032007648069324202
1782836032831197400,4.165197509765625,-0.07949673056304454,0.004011171870119869,-0.0011031983018154278
1782836032841126700,4.175126708984375,-0.07844692924916744,0.0024392829108983278,0.0006180508415971417
1782836032851056600,4.185056640625,-0.08173895653188228,0.011115633580461144,0.0003184645360015565
1782836032860986600,4.194986572265625,-0.0744014532506466,0.003224752466473728,0.0014207563722302438
1782836032870915600,4.20491552734375,-0.07724398320019245,0.007731032643467187,-0.0007853479704557685
1782836032880845600,4.214845458984375,-0.08232990816235541,0.008993764321971685,-0.008234456116714863
1782836032890774500,4.2247744140625,-0.08487491647005081,0.005211432771664112,0.002846430377350771
1782836032900704500,4.23470458984375,-0.07185702946484089,0.0023589111510664224,-0.004268945452649496
1782836032910633500,4.244633544921875,-0.0875678088158369,0.0065907948334701354,-0.0055267560733307615
1782836032920563700,4.254563720703125,-0.07005962465405463,0.017988460225705057,0.00032315269838436504
1782836032930493700,4.26449365234375,-0.0808317785590887,0.010276881201379,-0.0012458753001817968
1782836032940422700,4.274422607421875,-0.08352583994865417,0.005174370430596173,-0.0006574489869351964
1782836032950352600,4.2843525390625,-0.08607026373445988,0.01217712533213198,-0.003101550778490491
1782836032960281600,4.294281494140625,-0.0841261439293623,0.010197258360218257,-0.0001493499093921855
1782836032970211600,4.304211669921875,-0.08427811962068081,0.007413673789985477,-0.0010610356647666776
1782836032980140800,4.314140869140625,-0.07799334026277065,0.007427501385938375,-0.0008452837262128013
1782836032990070500,4.324070556640625,-0.07874094375967979,0.006540562483575194,0.004117303692293353
1782836033000000800,4.334000732421875,-0.07454758372306823,0.005926869298331439,-0.0007029577834735391
1782836033009929700,4.3439296875,-0.06961071184277534,0.0055767589527182275,0.009292698177840793
1782836033019859500,4.353859375,-0.07335106741487979,0.008887490935903042,0.0014475170858146156
1782836033029788400,4.363788330078125,-0.06796586724519729,0.007176303103845566,-0.0017670113849890185
1782836033039718700,4.37371875,-0.08083703925609588,0.0061981605203822255,-0.0066557258539309255
1782836033049648000,4.383648193359375,-0.07560381477773188,0.011290405625477432,-0.005766476834294735
1782836033059577000,4.3935771484375,-0.07320961311757564,0.008907382946461439,0.007931754834603634
1782836033069506800,4.4035068359375,-0.08847031061351299,0.0077950743230059735,-0.004271214470727136
1782836033079436000,4.41343603515625,-0.06961421897411346,0.005756097574997693,0.003778426555925398
1782836033089366000,4.423365966796875,-0.06408171928822994,0.004259484075382351,-0.002301412235101452
1782836033099295000,4.433294921875,-0.07500292627513408,0.005706851605791598,-0.005868125990062254
1782836033109225000,4.443224853515625,-0.07844108403027057,0.01451212588464841,-0.007571041467407485
1782836033119155000,4.453155029296875,-0.08232815459668635,0.004602251364756375,-0.004151605537405703
1782836033129084000,4.463083984375,-0.07993629102408885,0.0028697102174162865,-0.0033963827063329516
1782836033139014000,4.473013916015625,-0.09460369880199432,0.008907912669423966,0.0022209011946630196
1782836033148942800,4.48294287109375,-0.08218085508048534,0.008846410006843507,-0.0015244091137719806
1782836033158873000,4.492873046875,-0.07200725159049033,0.008181370226852596,-0.006937645784561755
1782836033168803000,4.502802978515625,-0.07934124774038791,0.006773530989233404,0.0063425374271348115
1782836033178732000,4.51273193359375,-0.07350362762808799,0.0039923758381046354,0.0017206983000301987
1782836033188662000,4.522662109375,-0.071107087880373,0.009476579402852802,0.005507307020766893
1782836033198591000,4.532591064453125,-0.07409633282423018,-0.0014772329457104205,0.0030957021346606777
1782836033208521000,4.54252099609375,-0.08247779220044613,0.003710161363240331,-0.00014583706983248702
1782836033218450200,4.5524501953125,-0.07768997340202331,0.004574961499031633,0.0030557468668965153
1782836033228380000,4.5623798828125,-0.07290449269115924,0.007770177343767136,0.0016718102363171056
1782836033238310000,4.572309814453125,-0.07709317655265331,0.0052712001348845655,0.0026203534076048524
1782836033248239000,4.582239013671875,-0.08113105376660823,0.009386398635059594,-0.0030588841054763178
1782836033258168800,4.5921689453125,-0.07484627440869808,0.005041300369147211,0.005044766401289962
1782836033268097800,4.602097900390625,-0.0794856246471405,0.004129208759218454,-0.0009191446885117329
1782836033278028000,4.612028076171875,-0.06781506059765816,0.007980112033709883,-0.006249783393053803
1782836033287957000,4.62195703125,-0.07560089216828346,0.006783193866722285,0.005317961886059493
1782836033297887000,4.631886962890625,-0.07740063506662845,0.007238627750333398,-0.01328352366296458
1782836033307817000,4.64181689453125,-0.07126549331247806,0.005445679918956011,-0.0036468206533114425
1782836033317746000,4.651745849609375,-0.07620587232410907,0.010154003740381449,0.0011456069632142317
1782836033327676200,4.66167626953125,-0.07396189278960227,0.007289517687354237,-0.0018240290978748816
1782836033337605000,4.671605224609375,-0.08114215968251227,0.008421152065787463,0.001526945847441675
1782836033347534800,4.681534912109375,-0.07395254043936729,0.01660602942397818,-0.00040967906272271643
1782836033357464000,4.691464111328125,-0.07694412347078323,0.012454261773079633,0.0003252373409050051
1782836033367394000,4.70139404296875,-0.08637304607331753,0.005811700219754129,0.00032026091333245855
1782836033377323800,4.71132373046875,-0.07530337052643299,0.014357446779590098,-0.0016971182075096293
1782836033387253000,4.7212529296875,-0.08892448412179946,0.002390146539546549,-0.006917472929501673
1782836033397183000,4.731182861328125,-0.08054594735503197,0.00878782995371148,0.002313050157256657
1782836033407112000,4.74111181640625,-0.0775549488455057,0.013054236960224806,0.008357880996161839
1782836033417042000,4.7510419921875,-0.08713292452991009,0.003594882686808705,0.001675938422163017
1782836033426971000,4.760970947265625,-0.07755611788928508,0.0074922919841483235,0.00471754944914137
1782836033436901000,4.770901123046875,-0.07920213153064251,0.007942209442425519,0.0027765817239996976
1782836033446831000,4.7808310546875,-0.0739653999209404,0.004171714460384101,0.0013360971671703737
1782836033456759800,4.790759765625,-0.07486497910916805,0.004105718285776674,0.011438105858833295
1782836033466690000,4.80068994140625,-0.07935410722196101,0.006798665430489927,0.001388588831166271
1782836033476619000,4.810618896484375,-0.07501637027859688,0.010768464110605417,0.013263397615321446
1782836033486549000,4.820549072265625,-0.06589023001492023,0.010703052457887679,0.002331726316618733
1782836033496479000,4.83047900390625,-0.08594459152817725,0.009855513984151184,-0.012144597602286375
1782836033506408000,4.840407958984375,-0.0896808554470539,0.0026970022653229533,-0.0008869571686722338
1782836033516338000,4.850337890625,-0.07755670241117477,0.009404683210421353,0.0015335137271904385
1782836033526267100,4.86026708984375,-0.08608721486926078,0.009801463975664228,0.005025367581075989
1782836033536196900,4.87019677734375,-0.08279635663032531,0.0036242914443835616,-0.0007211127822054549
1782836033546125800,4.880125732421875,-0.07186755085885524,0.010397018716018646,0.0005713655805913732
1782836033556056000,4.89005615234375,-0.0841384188890457,0.0037868798612616956,-0.002989470418609562
1782836033565985800,4.89998583984375,-0.07021978365182877,0.00909642097884789,-0.0004044897184852743
1782836033575914800,4.909914794921875,-0.07695522938668728,0.0069466225338168435,0.005594318583939457
1782836033585845000,4.919844970703125,-0.07620821041166782,0.008405022914893924,0.001797633139649406
1782836033595774000,4.92977392578125,-0.07201952655017375,0.009107143302261828,-0.0032843331708485492
1782836033605704200,4.9397041015625,-0.07501461671292782,0.007985701524280011,-0.001841160612477688
1782836033615633000,4.9496328125,-0.0763613551467657,0.012024583385232835,-0.003290144140415941
1782836033625563000,4.95956298828125,-0.07651216179430484,0.009431918277218938,0.005488094859398552
1782836033635493000,4.9694931640625,-0.0765098237067461,0.003530457414779812,0.0015580071351636432
1782836033645422000,4.979422119140625,-0.08234042955636978,0.011785988856386393,0.0021164618601877006
1782836033655351800,4.989351806640625,-0.08054302474558353,0.0069050484144128855,-0.0031232134793826843
1782836033665281000,4.999281005859375,-0.07395897018015385,0.004962426446657627,-0.004507275120014673
1782836033675211000,5.0092109375,-0.08487842360138893,0.00435945558482781,0.00397483675648109
1782836033685141000,5.01914111328125,-0.08263035241365432,0.015860216025356203,0.009281855981773696
1782836033695070000,5.029070068359375,-0.07679565491080284,0.009522446104884147,0.0014905844759836326
1782836033705000000,5.039,-0.07918751848340035,0.005718322847876697,0.0049747293766267825
1782836033714929000,5.048928955078125,-0.07828793929517269,0.012657200466655194,0.002608982059397385
1782836033724859000,5.05885888671875,-0.07918634943962097,0.005308956595696509,-0.001184275027012336
1782836033734787800,5.068787841796875,-0.07829319999217986,0.006042714230343699,0.006336872588039841
1782836033744718000,5.078718017578125,-0.08652326819896697,0.004091817624587565,0.006542728182842256
1782836033754648000,5.08864794921875,-0.08682429697215556,0.011815525478124618,0.0030821177089470435
1782836033764577000,5.098576904296875,-0.07200958967804909,0.0027125651606358585,-0.0033504475056426596
1782836033774507000,5.108507080078125,-0.08382803776562213,0.004902202425710857,-0.00019836241233570036
1782836033784436000,5.11843603515625,-0.07843816142082213,0.008747863269504158,0.007532111396238906
1782836033794366000,5.128365966796875,-0.07604395976066589,0.010846753511205315,0.0012788511254213516
1782836033804295200,5.138295166015625,-0.07963467772901058,0.008178319753240794,-0.00373222421046521
1782836033814225000,5.148224853515625,-0.08920680819451808,0.014336203062161802,-0.002731637470575515
1782836033824155100,5.158155029296875,-0.08411620705723762,0.007102233220636844,0.0020350923032237916
1782836033834084000,5.168083984375,-0.08501344815790653,0.002025879804417491,0.0033912024952500357
1782836033844013800,5.178013916015625,-0.07408990308344364,0.003973470208235085,0.0006533099554682848
1782836033853942800,5.18794287109375,-0.0788800599694252,0.006895312471687794,0.00417468159396085
1782836033863873000,5.197873046875,-0.08022679840326309,0.005105999635811894,0.008106651889672502
1782836033873803000,5.207802978515625,-0.07454173850417137,0.003405607192404568,-0.002220272148645017
1782836033883732000,5.21773193359375,-0.07619067475497722,0.005398205781728029,-0.0010943220172601287
1782836033893662000,5.227661865234375,-0.07409808638989925,0.0033783721256069837,-0.002491343033342855
1782836033903591000,5.2375908203125,-0.08741641764640808,0.003652878218051046,0.004198058473793207
1782836033913521200,5.247521240234375,-0.077690557923913,0.005878390514105558,0.0018482570735446641
1782836033923450000,5.2574501953125,-0.07574526907503605,0.0027500110941939054,-0.004504425004980293
1782836033933379800,5.2673798828125,-0.07739069819450378,0.0008190795642323791,-0.0020921162951533915
1782836033943310000,5.27731005859375,-0.08576865043938159,0.00700891064768657,-0.0020758512885862726
1782836033953239000,5.287239013671875,-0.07439502350986003,0.009303633988741785,-0.007928934402321465
1782836033963168800,5.297168701171875,-0.07842997811436653,0.004558631418738514,0.003022491338799591
1782836033973098000,5.307097900390625,-0.08097206381261349,0.008205463488493114,0.0052199203263298835
1782836033983028000,5.317028076171875,-0.07947568777501583,-0.001377937289699912,0.002594571654021274
1782836033992956000,5.326955810546875,-0.07962240276932715,0.014291980327945202,-0.005767389008103054
1782836034002886100,5.33688623046875,-0.06645312459468841,0.013132727290224282,0.001216607535679941
1782836034012815000,5.346815185546875,-0.08366027998328208,0.003309672537259757,0.012248265756026375
1782836034022744800,5.356744873046875,-0.08620353472530841,0.013052739122882484,0.0006694373938953503
1782836034032675000,5.366675048828125,-0.09188801010251045,0.008931914599519222,-0.0012765946654311846
1782836034042604000,5.37660400390625,-0.08156126187741757,0.008380180734582245,0.0025423922297457464
1782836034052534000,5.386533935546875,-0.07901566904783248,0.012041297058016062,0.004519627140689408
1782836034062463000,5.396462890625,-0.07751987753212451,0.009917107978276907,-0.0012349491932574892
1782836034072393200,5.406393310546875,-0.07931377521157264,0.021498167113400996,0.013689482106862123
1782836034082323200,5.4163232421875,-0.07348024675250053,0.009143073132168502,0.0014687162791145964
1782836034092252000,5.426251953125,-0.08111118002235888,0.01005808735154569,-0.004021374174547963
1782836034102182100,5.43618212890625,-0.08665010944902897,0.010424911369942128,0.005909590511611895
1782836034112111000,5.446111083984375,-0.09083879331052302,0.014821739823091774,0.002574681355929351
1782836034122041000,5.456041015625,-0.07273322777748108,0.009258991129416971,0.0023514699134160764
1782836034131970000,5.465969970703125,-0.0805091224759817,0.006902819924708456,0.003783367021701997
1782836034141900000,5.475900146484375,-0.08125789501667022,0.003139394004270434,0.0018386575573153094
1782836034151830300,5.485830322265625,-0.07288403442502021,0.011013104787748307,-0.0032554158911516423
1782836034161759200,5.49575927734375,-0.07169044072628021,0.0037047545357607303,-0.0018270864213525782
1782836034171689000,5.50568896484375,-0.07692892590165137,0.009050353347416967,0.0018516066579672042
1782836034181618200,5.5156181640625,-0.08665829275548458,0.011650324979051947,0.007588265455199871
1782836034191548200,5.525548095703125,-0.08366320259273052,0.006501819642074406,-0.0012730407266761175
1782836034201478000,5.535477783203125,-0.08291384553015231,0.019544932420086116,0.0011949014523037476
1782836034211407000,5.545406982421875,-0.06809738467037678,0.011103267289232463,0.0008931351768871536
1782836034221337000,5.555337158203125,-0.06854162130653858,0.006181556445453315,-0.0005489682315819663
1782836034231266000,5.56526611328125,-0.08993453794717789,0.002922207589633763,0.005287613555212738
1782836034241196000,5.575196044921875,-0.07901274643838405,0.006020264936517924,-0.0032091016645485067
1782836034251125000,5.585125,-0.07916647569537162,0.014250095681287347,0.015076849378610495
1782836034261055000,5.595054931640625,-0.076174308142066,0.011220244732405989,0.006177871217601932
1782836034270985200,5.604985107421875,-0.07317863345742225,0.01117278886148706,0.000893559868572629
1782836034280914200,5.6149140625,-0.07557108155190945,0.0033205957900732754,-0.003430449372716248
1782836034290844200,5.62484423828125,-0.07661737573444843,0.011592311181500553,-0.004334002053985023
1782836034300773000,5.634773193359375,-0.07751461683511733,0.005632325064856559,0.0011900443265622015
1782836034310703000,5.644703125,-0.07796119155883789,0.0031556510193273424,0.0002916159158048685
1782836034320632000,5.654632080078125,-0.08170096260905266,0.012471468636207282,0.0001887583295290824
1782836034330562000,5.66456201171875,-0.08634089736938476,0.007662479185592382,0.005380402980267536
1782836034340492000,5.674491943359375,-0.08424655543863772,0.01331767366938293,0.009261008985745138
1782836034350421200,5.684421142578125,-0.08125380336344241,0.010770930062327533,0.0049469902738637755
1782836034360351000,5.69435107421875,-0.08230185111165046,0.006120747902616858,-0.003119930681152618
1782836034370280000,5.704280029296875,-0.07212766309976577,0.008609550777357072,-0.00450516421967477
1782836034380210200,5.714210205078125,-0.07242460021972656,0.007502301921509206,-0.004142931894716457
1782836034390140200,5.72414013671875,-0.07227437809407711,0.005859831944108009,0.0013152815663604997
1782836034400069000,5.734069091796875,-0.08200374494791031,0.002616941032744944,0.005250809796582325
1782836034409999000,5.7439990234375,-0.086347911632061,0.009499777615349739,0.0019045538380451034
1782836034419928000,5.753927978515625,-0.06898878055214881,0.01162698063608259,0.0033748370239831274
1782836034429858300,5.7638583984375,-0.07707096472084522,0.009181103587616235,0.0013091931772243697
1782836034439787300,5.773787353515625,-0.08320318386554718,0.011239406090602278,0.0002491484597238013
1782836034449717000,5.783717041015625,-0.08230185111165046,0.011363123801816255,0.0001263811674027238
1782836034459647200,5.793647216796875,-0.08484159872233867,0.011199055813904851,0.00421866800780408
1782836034469576200,5.803576171875,-0.07750467996299266,0.008522036890685558,-0.0002190136163641
1782836034479506000,5.813505859375,-0.07705284454226494,0.011161975206527858,0.0020336287152109434
1782836034489435100,5.82343505859375,-0.07645020247399807,0.01639532754905522,-0.0034249957378196996
1782836034499365000,5.833365234375,-0.0836339764982462,0.010808302930649369,0.006674338081211317
1782836034509295000,5.843295166015625,-0.0839385124027729,0.014826324666664004,0.002338850747971446
1782836034519224000,5.85322412109375,-0.0691284812837839,0.008688278569374232,0.002914859395995154
1782836034529154000,5.863154052734375,-0.08034779443442822,0.013607907053921372,0.006738467667362419
1782836034539083000,5.8730830078125,-0.0731634358882904,0.008270966472756117,0.005340158305669319
1782836034549013200,5.88301318359375,-0.08213643141686916,0.01160719822337851,-0.00425732123022608
1782836034558942000,5.89294189453125,-0.08453297116458415,0.011365772416628896,-0.005081515360993216
1782836034568872200,5.9028720703125,-0.07481178761720657,-0.00048750952230766414,0.0035470900308166163
1782836034578802200,5.91280224609375,-0.07466156549155711,0.011657394040655343,-0.0033671172251197273
1782836034588731100,5.922731201171875,-0.07556231372356415,0.00976104063373059,0.00437144513343228
1782836034598661000,5.9326611328125,-0.08289864796102046,0.009907646030187607,0.006608989218930946
1782836034608590000,5.942590087890625,-0.08020926274657249,0.008573620947450398,-0.005039672955175047
1782836034618520000,5.95252001953125,-0.0724269383072853,0.017746029771957546,0.0005104291735915467
1782836034628450000,5.962449951171875,-0.07272387542724609,0.009158636027481406,-0.004649062777459039
1782836034638382000,5.972382080078125,-0.07422200503051281,0.003546970158163458,0.0034985216275119453
1782836034648311000,5.98231103515625,-0.07227262452840805,0.0017471724608913062,0.0007813076912221731
1782836034658241000,5.992240966796875,-0.08169979356527328,0.005932604919373989,0.008258852484921225
1782836034668170200,6.002170166015625,-0.08619009072184562,0.017573011292610317,-0.002237451612309087
1782836034678100200,6.012100341796875,-0.08858896855711937,0.004089333406556398,0.00022188998921774327
1782836034688029000,6.02202880859375,-0.07841711863279342,0.005179247535113245,0.0020678460786439246
1782836034697959200,6.031959228515625,-0.07871814740598201,0.017226462877262382,-0.005993769655236974
1782836034707889200,6.04188916015625,-0.07647241430580616,0.00500396403344348,0.005629731819793232
1782836034717818000,6.051818115234375,-0.07587094128131866,0.0024068967449478802,-0.004841191241008346
1782836034727748000,6.061748046875,-0.08410100948810577,0.009739340258575976,-0.003293503999637323
1782836034737677000,6.071677001953125,-0.07302665776610374,0.013517141764238476,0.005655051207428914
1782836034747607000,6.08160693359375,-0.07901391548216342,0.00987230072217062,0.009532551940367557
1782836034757537000,6.091537109375,-0.076771104991436,0.015335644161980598,0.009316636746676522
1782836034767466000,6.101466064453125,-0.07737023992836475,0.009926332464348524,0.007559868194488808
1782836034777396200,6.111396240234375,-0.06719663643836975,0.007487086086068302,-0.0025183554794988594
1782836034787325200,6.1213251953125,-0.08754910411536693,0.006221833656914532,-0.0005885079408151796
1782836034797255000,6.1312548828125,-0.08395487901568412,0.011101678120344877,0.0046644715507893125
1782836034807184000,6.141183837890625,-0.07452770997881888,0.01349023549100384,0.0005950056094385218
1782836034817114000,6.151114013671875,-0.06839607535600661,0.006647584788314998,0.008648419199732598
1782836034827044000,6.161044189453125,-0.07722586302161216,0.005988116232585162,0.006445021695719333
1782836034836973300,6.170973388671875,-0.07752630727291107,0.009099233990442008,0.0016181072877021507
1782836034846903000,6.180903076171875,-0.07798106530308722,0.0079970997011289,0.0036792039651511003
1782836034856832000,6.19083203125,-0.08186813586950302,0.013359119924623518,0.0007220415098563535
1782836034866762200,6.20076220703125,-0.07932078947424888,0.013035641857609153,0.0024204766040842513
1782836034876692000,6.21069189453125,-0.07572831794023513,0.009924761561769992,0.002070164758249302
1782836034886621000,6.220620849609375,-0.08261047866940498,0.007126801406312734,0.016117406798462616
1782836034896551200,6.23055126953125,-0.08784779480099678,0.0051805809756740925,0.0004650482412165729
1782836034906480000,6.240480224609375,-0.08231471059322357,0.002045863146521151,0.0007404876278887968
1782836034916410000,6.25041015625,-0.07483458397090434,0.002589011846203357,0.0024339440112555164
1782836034926339000,6.260339111328125,-0.07572948698401451,0.007931560184247791,-0.0027912221707054414
1782836034936269000,6.27026904296875,-0.07363923670649528,0.005806695251073688,0.00012063470073917415
1782836034946199300,6.28019921875,-0.08007774532139302,0.009252415258157998,-0.0051597134300478496
1782836034956128000,6.2901279296875,-0.07649111900627613,0.010001114733610301,0.007311635333506273
1782836034966058000,6.30005810546875,-0.0812765997171402,0.007854768620990216,-0.0016043641734286211
1782836034975987200,6.3099873046875,-0.0791764125674963,0.008627944950573146,0.006676721263720537
1782836034985917200,6.319917236328125,-0.07034487133622169,-0.000986764281336218,-0.0025496936159674077
1782836034995847000,6.329846923828125,-0.07498363705277443,0.012636778733134268,-0.0023697801757749403
1782836035005776100,6.339776123046875,-0.07662672808468342,0.009733750768005848,0.002748233553994214
1782836035015706000,6.3497060546875,-0.08201660442948341,0.006785842481534928,0.008860574958691723
1782836035025635000,6.359635009765625,-0.07887596831619739,0.010768317980132997,0.007082393154894816
1782836035035565000,6.36956494140625,-0.07244038231074809,0.00228058521784842,-0.00028979670558765063
1782836035045495000,6.3794951171875,-0.08186988943517208,0.005480020579975098,-0.0013857016126916277
1782836035055427800,6.389427734375,-0.07453530876338481,0.003160345460753888,0.0006666106825694441
1782836035065357800,6.39935791015625,-0.07004208899736404,0.007043397439178079,0.006280648317953455
1782836035075286800,6.409286865234375,-0.07393208217322826,0.0063232664710842065,0.005433046482957434
1782836035085217000,6.419217041015625,-0.06959142262041568,0.013844309625681488,0.001141156833671266
1782836035095146000,6.42914599609375,-0.07512509135007858,0.01021051970059052,0.00725369745530188
1782836035105075700,6.43907568359375,-0.06450082148313523,0.011546627142559737,0.0023038827534008306
1782836035115006000,6.449005859375,-0.0791635530859232,0.009509495291765778,0.0037584614801307904
1782836035124935000,6.458934814453125,-0.0851502262800932,0.011727938526216893,0.0004019529848155798
1782836035134865000,6.468864990234375,-0.07946224377155303,0.0011564765587449074,0.00156060837173718
1782836035144794000,6.478794189453125,-0.08425006256997584,0.00431104986583814,0.00561833478458866
1782836035154723800,6.488723876953125,-0.07407529003620147,0.009845449247863142,-0.0018149889873602658
1782836035164653800,6.49865380859375,-0.08035948487222194,0.007617982456739992,0.0006235558504879008
1782836035174583000,6.5085830078125,-0.08723638490438461,0.004409176478069275,0.001748272435189574
1782836035184512800,6.5185126953125,-0.07736088757812977,0.009465236024931073,0.002525788154816837
1782836035194441700,6.528441650390625,-0.06987900739014148,0.016810173693951217,0.008664264652013661
1782836035204372000,6.5383720703125,-0.08154840239584446,0.014184939756896347,0.0047861348730570165
1782836035214301000,6.548301025390625,-0.07092354800701141,0.011209467610064893,0.0029214272757439176
1782836035224231000,6.55823095703125,-0.08438800973594188,0.002937441691383719,0.010117635519057512
1782836035234161000,6.568160888671875,-0.06852583921551704,0.0010135974893346429,0.0015738520166225498
1782836035244089900,6.57808984375,-0.07256722356081008,0.009357647464610635,0.009883431754249614
1782836035254020000,6.58802001953125,-0.08124445101320743,0.003882631853315979,0.008664453023325767
1782836035263948800,6.59794873046875,-0.07226502574384212,0.004512782983016222,-0.004500162675927276
1782836035273878800,6.607878662109375,-0.07750117283165454,0.00860184239493683,0.005470497553914901
1782836035283809000,6.61780908203125,-0.07570435254275798,0.010137783257942646,0.0058328817175672155
1782836035293738000,6.627738037109375,-0.08647650644779205,0.008405972762964665,0.011395321596454596
1782836035303667700,6.637667724609375,-0.07959259215295314,0.005279182511940598,0.009316448375364416
1782836035313597000,6.647596923828125,-0.07615034274458884,0.009496434880793094,0.006373466854938305
1782836035323527000,6.65752685546875,-0.07555296137332916,0.00974476535236463,0.007445828202139819
1782836035333457000,6.667456787109375,-0.08872340859174728,0.011598119867779314,0.00235899049534637
1782836035343385900,6.6773857421875,-0.08019055804610252,0.008738328256178646,0.001807136757756234
1782836035353315800,6.68731591796875,-0.07614742013514042,0.010341306473407894,0.0018425442853884305
1782836035363244800,6.697244873046875,-0.08646832314133644,0.013317911131400614,-0.004887307392322691
1782836035373174800,6.7071748046875,-0.07943827837407588,0.009931556628737598,0.005883990279474528
1782836035383103700,6.717103759765625,-0.07509995690882205,0.007493972484581172,0.0025860641205799765
1782836035393034000,6.727033935546875,-0.0788408970028162,0.01796924406858161,0.006498166951086022
1782836035402964000,6.7369638671875,-0.07569675375819206,0.014285879380721598,0.0059267968039173865
1782836035412893000,6.746892822265625,-0.08841653459966183,0.012312478682212531,-0.0018728851955471327
1782836035422823000,6.756822998046875,-0.08063362563848495,0.017472692723292858,-0.0031624243950529487
1782836035432751900,6.766751953125,-0.08467734807133674,0.015253208309225738,-0.0011317388388881226
1782836035442681900,6.776681884765625,-0.08273030565679072,0.007221073827333748,-0.0039377384536172025
1782836035452611800,6.78661181640625,-0.07225918052494526,0.0012607041181996463,0.008833843927859561
1782836035462540800,6.796540771484375,-0.07719955953657627,0.01599918610462919,-0.005476730361056979
1782836035472471000,6.806470947265625,-0.06762275289595127,0.016141371054295448,0.0063749641214584695
1782836035482400000,6.81639990234375,-0.07974106071293353,0.01292491149213165,0.0005637228427192894
1782836035492329700,6.826329833984375,-0.08677402808964252,0.0036444026506505904,0.009311470806147554
1782836035502260000,6.836260009765625,-0.07929273242354393,0.004078245756961405,0.0035297221958404405
1782836035512189000,6.84618896484375,-0.08108779914677143,0.0150352364432998,0.0008684670973336324
1782836035522119000,6.856118896484375,-0.08213350880742072,0.010301339789200574,0.0009980363064882112
1782836035532048000,6.8660478515625,-0.08288052778244018,0.011850797720905392,0.0080877930672199
1782836035541977900,6.875977783203125,-0.07884206604659556,0.013278328039683401,-0.000949552384862909
1782836035551907800,6.885907958984375,-0.07869301296472549,0.00951767859822139,-0.003671170214100857
1782836035561837000,6.895837158203125,-0.0797428142786026,0.014514957162551582,0.012785352324391715
1782836035571766800,6.905766845703125,-0.0716606301099062,0.010996208451874554,0.012908090504782739
1782836035581695700,6.91569580078125,-0.07270809333622455,0.009806158417090772,0.007477435195844736
1782836035591626000,6.9256259765625,-0.07600304322838783,0.008204239645786583,-0.0013736036078771576
1782836035601555000,6.935554931640625,-0.08078969298303126,0.006163911190908402,0.0019051617636432637
1782836035611485000,6.94548486328125,-0.07540507733523845,0.007574581706430762,0.005761726452296716
1782836035621415000,6.955414794921875,-0.0845353092521429,0.010046616109460591,0.004837011110346065
1782836035631343900,6.96534375,-0.07466098096966743,0.012224745599832386,0.002384607852148474
1782836035641273900,6.97527392578125,-0.07735270427167415,0.01526842414466664,0.0023813735738018294
1782836035651202800,6.985202880859375,-0.08902502188682555,0.013466050897818058,0.011064912606799043
1782836035661132800,6.9951328125,-0.07824877632856368,0.01084037856934592,0.0036623458743619266
1782836035671063000,7.00506298828125,-0.08169277930259704,0.011205120228510349,0.005897047265514265
1782836035680992000,7.014991943359375,-0.07690554502606392,0.014917674478236585,0.009939632620627525
1782836035690921700,7.024921630859375,-0.08408756548464298,0.00686214085444808,0.00447040914176905
1782836035700851000,7.034850830078125,-0.07032207498252391,0.007553063994366675,0.01569922362723155
1782836035710781000,7.044781005859375,-0.07032090593874454,0.003697448012139648,0.0036760524560173506
1782836035720711000,7.0547109375,-0.0843874252140522,0.011463625034224241,0.0041700545095489355
1782836035730640000,7.064639892578125,-0.08408581191897392,0.004661507271323353,0.0021743974551034625
1782836035740569900,7.07456982421875,-0.06866729351282119,0.00726652040425688,0.012294876810151617
1782836035750498800,7.084498779296875,-0.06926116775274277,-0.0023018472015857694,0.012501500731578562
1782836035760428800,7.0944287109375,-0.08362462414801121,0.0052378641208633775,0.0049361749064381
1782836035770358800,7.10435888671875,-0.07629121252000332,0.011565971163846552,-0.0008145786315173609
1782836035780288000,7.1142880859375,-0.07419862415492534,0.009383512558229267,-0.0025685210432013265
1782836035790218000,7.124218017578125,-0.08078501680791378,0.010803097032569348,0.01116266133476165
1782836035800147000,7.13414697265625,-0.07869301296472549,0.005324391626846045,0.013032511468895244
1782836035810077000,7.144076904296875,-0.08303133442997931,0.014485000415705144,0.009976416400482411
1782836035820006000,7.154005859375,-0.07659633294641971,0.013159286503586918,0.004617379293584963
1782836035829935900,7.163935791015625,-0.0825789144873619,0.0015909041869454086,0.0010934132683847564
1782836035839865900,7.173865966796875,-0.07973638453781605,0.005004292827006429,0.010074104621296282
1782836035849794800,7.183794921875,-0.06985738008022307,0.009005107699893414,0.0034027936099882933
1782836035859725000,7.19372509765625,-0.06731120272874831,0.007444105460867286,0.006168729500743211
1782836035869654000,7.203654052734375,-0.07614157491624354,0.013533380512986332,0.010899963269475847
1782836035879583700,7.213583740234375,-0.07255202599167823,0.010614168598037212,0.008735991310264216
1782836035889514000,7.223513916015625,-0.08167582816779613,0.013006634958833455,0.0022499908626516115
1782836035899443000,7.23344287109375,-0.09095277507901191,0.006761603089421987,0.0023258548399026037
1782836035909373000,7.243373046875,-0.08526596161425114,0.009023958530835806,0.0033878934392007065
1782836035919302000,7.253302001953125,-0.07882979108691215,0.01610538642546162,0.007472352024528663
1782836035929232000,7.26323193359375,-0.0888531724512577,0.004672941980790346,0.005211619430509745
1782836035939161900,7.273161865234375,-0.08721008141934872,0.01954456709390506,-0.0008016186852444661
1782836035949091000,7.283091064453125,-0.075538348326087,0.01310536435926333,0.005844821604643948
1782836035959020800,7.293020751953125,-0.07090075165331364,0.004821118279825896,0.004031135233448003
1782836035968949800,7.30294970703125,-0.083472063934803,0.010610661466699093,0.0031609573821071535
1782836035978880000,7.3128798828125,-0.08093056275844573,0.0143989661000669,0.004609672623631195
1782836035988809700,7.322809814453125,-0.07659282581508159,0.016003095094766467,-0.0008040252714621601
1782836035998739000,7.332739013671875,-0.07764028904139995,0.0013370572900399565,-0.0039261770216311555
1782836036008669000,7.3426689453125,-0.07255144146978855,0.005852105295378714,0.004384252670189016
1782836036018598000,7.352597900390625,-0.07344809804856776,0.014136734967306256,0.006164390681521035
1782836036028527900,7.36252783203125,-0.06970891152024268,0.009426036525703965,0.0029335321304242825
1782836036038457900,7.372457763671875,-0.07958265528082847,0.006212152513116598,0.0040137782440928275
1782836036048386800,7.38238671875,-0.08317804942429065,0.006676792616490275,0.006045242972503183
1782836036058313000,7.39231298828125,-0.07404957107305526,0.014020798703748732,0.0025309689367219107
1782836036068242000,7.402241943359375,-0.07345628135502338,0.021158340699784457,0.0009303664813138311
1782836036078172000,7.412171875,-0.07016717668175697,0.019558011097367854,0.0017715174551034578
1782836036088102000,7.422101806640625,-0.07465922740399837,0.012135021489765495,0.007443567175572388
1782836036098030800,7.43203076171875,-0.07869710461795329,0.013856712449528276,0.004771293496951694
1782836036107960800,7.4419609375,-0.08168810312747955,0.011965711071155965,0.006611936944554327
1782836036117889800,7.451889892578125,-0.0807926155924797,0.010251911156903952,0.0031087790994759413
1782836036127819800,7.46181982421875,-0.06477846938073635,0.017679796135332434,0.0020784416795388097
1782836036137749000,7.4717490234375,-0.07720072858035563,0.0096743669972755,-0.001825829470960889
1782836036147679000,7.481678955078125,-0.0798994661450386,0.0036504122663289307,0.0033795411693863567
1782836036157609000,7.49160888671875,-0.08468962303102016,0.004945347447693348,0.002210945485407137
1782836036167538000,7.501537841796875,-0.08199497711956501,0.005724515126645565,0.011265179852675646
1782836036177468000,7.511468017578125,-0.07570844419598578,0.009088950058445334,0.007189097511692671
1782836036187397000,7.521397216796875,-0.08348316985070704,0.012006554538197815,0.007023766865168
1782836036197326800,7.531326904296875,-0.0855769272595644,0.006960176135133951,0.004249636251514311
1782836036207256800,7.5412568359375,-0.072261518612504,0.003134626497607678,0.00009593922172207385
1782836036217186000,7.55118603515625,-0.0731593442350626,0.00942114115487784,0.0029958419355360093
1782836036227115800,7.56111572265625,-0.08004384305179119,0.01371734051145613,0.013051629444607533
1782836036237044700,7.571044677734375,-0.08946984304487705,0.00432900564763695,0.01248671872097766
1782836036246975000,7.58097509765625,-0.07585106753706931,0.010838734601531176,0.004115338351603714
1782836036256905000,7.590905029296875,-0.07315875971317291,0.014085023046378046,0.019065149546507745
1782836036266833700,7.600833740234375,-0.0794464616805315,0.00813758588405326,0.008303935448129776
1782836036276764000,7.610763916015625,-0.07780103256106376,0.0006429192797280848,-0.0051122575591289205
1782836036286692900,7.62069287109375,-0.07346504918336867,0.004854107233975082,0.005307272670330712
1782836036296623000,7.630623046875,-0.0758604198873043,0.006007149726618081,0.007605705784590099
1782836036306552800,7.640552734375,-0.07795768442749977,0.0008373093406669795,0.0027334110150201013
1782836036316481800,7.650481689453125,-0.07796002251505851,0.0071843402798287565,0.01014564005412394
1782836036326412000,7.660412109375,-0.08379822714924812,0.007855681936442852,0.0007779558235110016
1782836036336341000,7.670341064453125,-0.07751286326944827,0.010428016642481087,-0.0004411444925324758
1782836036346270700,7.680270751953125,-0.08334639172852039,0.005721026261616498,-0.00561967279172677
1782836036356201000,7.690200927734375,-0.07556114467978477,0.010953520087618381,-0.00408982945101161
1782836036366130000,7.7001298828125,-0.08199030094444751,0.014131328139826654,0.004458014309432473
1782836036376060000,7.710059814453125,-0.08618015384972096,0.0024571108285337687,0.002749497925073956
1782836036385988900,7.71998876953125,-0.07750234187543392,0.004357647220231593,0.005945790911221411
1782836036395918800,7.7299189453125,-0.07795359277427195,0.006521437657997012,0.004727345899015199
1782836036405849000,7.73984912109375,-0.0770586897611618,0.013903748195338994,0.0027209876415756297
1782836036415778000,7.749778076171875,-0.07870178079307079,-0.001556545259617269,0.009406810093781677
1782836036425707800,7.759707763671875,-0.08378945932090281,0.006670180212613195,-0.0025875551080564037
1782836036435637000,7.769636962890625,-0.08543664200603962,0.021740268773585557,-0.002990403142015566
1782836036445567000,7.77956689453125,-0.06673077249228954,0.02551633497988805,0.005207825746448361
1782836036455496700,7.78949658203125,-0.07256897712647914,0.010927983787562698,0.004608556095490348
1782836036465426000,7.799426025390625,-0.08080079889893531,0.01774915331080556,0.00895714836383122
1782836036475356000,7.80935595703125,-0.07825754415690898,0.002007631761673838,0.007186111540984711
1782836036485284900,7.819284912109375,-0.08080430603027343,0.004753514670021832,0.0036003072097752008
1782836036495214800,7.82921484375,-0.07705985880494118,0.009966701007355003,-0.003726895585621241
1782836036505144800,7.839144775390625,-0.08005319540202617,0.012186769943311809,0.008589278599241515
1782836036515073800,7.84907373046875,-0.0785533122330904,0.007523070714902132,0.004072103710542433
1782836036525004000,7.859004150390625,-0.08124678910076617,0.008427801002282648,0.007828251648467266
1782836036534932700,7.8689326171875,-0.0757078596740961,0.009396262441948055,-0.00064160410547629
1782836036544863000,7.878863037109375,-0.08543430391848086,0.008804689756967127,0.006876816121305455
1782836036554793000,7.88879296875,-0.07570435254275798,0.008186795320641248,-0.0011249460552091477
1782836036564722000,7.898721923828125,-0.08094283771812916,0.009178747233748435,0.008173346179779037
1782836036574652000,7.90865185546875,-0.08228957615196704,0.014568093855585901,0.0024340279221127274
1782836036584580900,7.918580810546875,-0.0822913297176361,0.005836743329465389,0.000633413949154783
1782836036594510800,7.9285107421875,-0.07301146019697188,0.002619041658286005,0.0021961897326254983
1782836036604440800,7.93844091796875,-0.068074588316679,0.011413283086474985,0.0011183353637985419
1782836036614369800,7.948369873046875,-0.07091419565677642,0.010495254926104099,0.0020412743071938164
1782836036624300000,7.958300048828125,-0.07031681428551674,0.012847791135311126,-0.001960986458219122
1782836036634229000,7.96822900390625,-0.07630114939212798,0.015573855098336933,0.010575096962973474
1782836036644158700,7.97815869140625,-0.07540332376956939,0.010647194084804504,0.008477623501868219
1782836036654089000,7.9880888671875,-0.07331541157960891,0.013077709167357534,-0.0016029142851475625
1782836036664018000,7.998017822265625,-0.08453881638348103,0.00542339502191171,0.0036964313778764333
1782836036673948000,8.007947998046875,-0.08633446762859821,0.006924629897717386,-0.004002395479442202
1782836036683876900,8.017876953125,-0.08498948276042938,0.01779344911025837,0.005274137014886946
1782836036693806800,8.027806884765624,-0.07166998246014118,0.011854871107824147,0.011208752940723207
1782836036703736800,8.03773681640625,-0.07870587244629859,0.012799787275120615,-0.002597378386571654
1782836036713666000,8.047666015625,-0.07870645696818829,0.01054205320989713,0.006413456372031941
1782836036723595800,8.057595703125,-0.07257189973592758,0.0027308862686157226,0.015189541089022532
1782836036733524700,8.067524658203125,-0.06838321587443351,0.007631572590675205,0.00980311935992213
1782836036743455000,8.077455078125,-0.07391863816976547,0.01485924055557698,-0.0029923559246177317
1782836036753384700,8.087384765625,-0.07481529474854469,0.01159775454159826,0.0028944074088998605
1782836036763314000,8.09731396484375,-0.0854413181811571,0.011995759149547666,0.0002254907353897579
1782836036773244000,8.107243896484375,-0.07451777310669422,0.005116977687552571,0.004705519942985847
1782836036783172900,8.1171728515625,-0.08244798158407211,0.0015304427039809524,0.004493461223793565
1782836036793103000,8.12710302734375,-0.07167641220092773,0.00758698453027755,0.004320320017682388
1782836036803032800,8.13703271484375,-0.0712245767802,0.007996277717221528,-0.00225463564255042
1782836036812961800,8.1469619140625,-0.07316694301962852,0.005843958521541208,0.0037027743536949854
1782836036822892000,8.15689208984375,-0.07032207498252391,0.00784837541282177,0.0061273523149837274
1782836036832821000,8.166821044921875,-0.07944938428997993,0.010569489206094294,-0.0017263791221455902
1782836036842750700,8.176750732421874,-0.08109422888755798,0.013743169072456657,0.007128927148028742
1782836036852681000,8.186680908203124,-0.08213818498253822,0.01328925129249692,0.009313320840761297
1782836036862610000,8.19660986328125,-0.08198679381310939,0.0107926487037912,-0.00003504848049487918
1782836036872540000,8.206539794921875,-0.07301146019697188,0.008007219236344098,0.002315819215544616
1782836036882468900,8.21646875,-0.07645429412722587,0.0054077407950535415,0.00367559123171377
1782836036892398800,8.22639892578125,-0.0737602327376604,0.011872278900351375,0.002762294045387534
1782836036902329000,8.2363291015625,-0.07899930243492126,0.015540628682170063,0.00491775219211413
1782836036912257800,8.2462578125,-0.0761567724853754,0.013587631450872868,0.010521734224364627
1782836036922187800,8.256187744140625,-0.0610422054618597,0.008833166932780296,0.01124991606817348
1782836036932117000,8.266116943359375,-0.07361117965579032,0.008417736265994609,0.0047187807125359535
1782836036942047000,8.276046875,-0.0825876823157072,0.006978223248478025,-0.002926120004703989
1782836036951976700,8.285976806640624,-0.08542670513391494,0.004584313849266618,0.007395510228921193
1782836036961906000,8.295906005859376,-0.07824176206588744,0.008713431276939809,0.004496847340834211
1782836036971836000,8.3058359375,-0.07943886289596556,0.014232578290905802,0.0023810522009269333
1782836036981766000,8.315765869140625,-0.07495148834884166,0.009535725711565465,0.008257755364733747
1782836036991694800,8.32569482421875,-0.07839899845421314,0.00783973544863984,-0.00027579329641012006
1782836037001624800,8.335624755859374,-0.08079436915814876,0.007201839403901249,-0.0003725727683486184
1782836037011554000,8.345553955078126,-0.07615501891970634,0.010064170032460242,-0.005507922937875264
1782836037021483800,8.35548388671875,-0.08124094388186931,0.014310831158887594,0.008125804114714264
1782836037031413800,8.365413818359375,-0.08064473155438899,0.009147146519087254,0.005662527265230892
1782836037041343000,8.375343017578125,-0.0749538264364004,0.00407780736554414,0.006106440816051327
1782836037051273000,8.38527294921875,-0.08497896136641502,0.002293243770021945,0.006213264474680181
1782836037061202200,8.3952021484375,-0.07660159364342689,0.01449314718954265,0.004478300758101977
1782836037071132000,8.4051318359375,-0.07689911528527736,0.006618632688466459,0.006378379921251325
1782836037081062100,8.415062255859375,-0.08647592192590237,0.007515106604155153,0.002353134430828504
1782836037090991000,8.4249912109375,-0.07330664375126361,0.01294091277886182,0.0038801168108882848
1782836037100920800,8.4349208984375,-0.08677753522098064,0.006673815208114683,-0.0031582071609504055
1782836037110850000,8.44485009765625,-0.07824702276289462,0.008816252330597489,0.004392808152691577
1782836037120780000,8.454780029296876,-0.07166296819746494,-0.0012057955931872128,0.00034195386779902034
1782836037130710000,8.4647099609375,-0.08064180894494057,0.010141600916534661,0.008716884750995087
1782836037140639000,8.474638916015625,-0.07974573688805103,0.01486457431782037,-0.0020298179064848227
1782836037150569000,8.48456884765625,-0.075254855209589,0.004744034455623478,0.0025100865497195628
1782836037160498000,8.494497802734376,-0.07330781279504299,0.00989686890784651,0.010536607566510793
1782836037170428200,8.50442822265625,-0.07270867785811423,0.013216916708648205,0.0032090919605718225
1782836037180358000,8.51435791015625,-0.08632336171269417,0.0122454413279891,0.015117850392567925
1782836037190287000,8.524287109375,-0.08243161497116089,0.009293916312325744,0.0014797885165113256
1782836037200217000,8.534217041015625,-0.07494681217372418,0.005941445812955498,-0.001649128047050908
1782836037210146000,8.54414599609375,-0.08122925344407558,0.015618972881697118,-0.0019881815674656533
1782836037220076000,8.554075927734376,-0.07404840202927589,0.010168196662515401,0.01023136612579692
1782836037230006000,8.564006103515625,-0.07254910338222981,0.013407178583741188,0.00022464078119664916
1782836037239935000,8.57393505859375,-0.08003215261399746,0.013666249645035712,0.0017169948058697627
1782836037249865000,8.583864990234375,-0.08766483944952487,0.009438987338822334,0.012230873946519567
1782836037259794000,8.5937939453125,-0.08048398803472519,0.01416099262572825,-0.0025465403943671842
1782836037269724200,8.60372412109375,-0.07958382432460784,0.012163261203560977,0.00022853550077998078
1782836037279654100,8.613654052734375,-0.08496960901618003,0.007705441544484347,0.004809475791093427
1782836037289582800,8.623582763671875,-0.07853402301073074,0.009996657754201442,-0.00030429273428744634
1782836037299513000,8.63351318359375,-0.0753898797661066,0.013043039712775498,0.005265852672909386
1782836037309443000,8.643443115234374,-0.08123042248785495,0.008401515783555805,0.0011538656181946862
1782836037319372000,8.6533720703125,-0.07165712297856808,0.006326609205640852,-0.0036474457035743394
1782836037329302000,8.663302001953125,-0.07764438069462776,0.0065637241634540254,0.011165980094787665
1782836037339231000,8.67323095703125,-0.06926292131841183,0.0024307890771888196,-0.00086893460068095
1782836037349161000,8.683160888671875,-0.07135434063971043,0.010782218641322106,0.005876821323993499
1782836037359091000,8.693091064453125,-0.08048164994716644,0.010661368740629404,0.0037637689845549174
1782836037369020000,8.70302001953125,-0.08212474097907543,0.009118504946492611,0.019509566562471443
1782836037378950100,8.7129501953125,-0.07329612235724925,0.015554821604304015,0.010988941885804524
1782836037388879000,8.722879150390625,-0.07808160306811332,0.012817816122155636,0.002887590079868096
1782836037398808800,8.732808837890625,-0.06610825667977333,0.00839682134212926,0.0029249081492627735
1782836037408739000,8.742739013671875,-0.07343933022022246,0.015618936349079012,0.005194287557329516
1782836037418668000,8.75266796875,-0.08212064932584762,0.012845507846679538,0.009294174894763273
1782836037428598000,8.762597900390626,-0.08092296397387981,0.009872647782042622,0.000959395071331528
1782836037438527200,8.77252734375,-0.08242343166470527,0.007339494308922439,0.0067928521776339035
1782836037448457000,8.78245703125,-0.07898118225634097,0.008857205395493655,0.009551672770190634
1782836037458387000,8.792386962890625,-0.07104571308195591,0.01439911223053932,0.006666667943875654
1782836037468316200,8.802316162109374,-0.08152151438891887,0.009280691504571587,0.0060013438944501105
1782836037478246000,8.812245849609376,-0.07658288894295692,0.0031706659253686663,0.001334892732417211
1782836037488174800,8.8221748046875,-0.0804699595093727,0.0070219345260411495,0.005052056941890623
1782836037498105000,8.83210498046875,-0.08525953187346458,0.013134024198167026,-0.00008632143918366637
1782836037508035000,8.84203515625,-0.07897358347177505,0.010483381825219839,0.0005886226760689169
1782836037517964000,8.851964111328124,-0.07568272523283957,0.010733758123405277,0.007449414677757886
1782836037527894000,8.86189404296875,-0.07822481093108653,0.015124156835768371,0.0008058130864606937
1782836037537824000,8.871823974609375,-0.08540332425832747,0.021856862624268978,0.0034812142996845066
1782836037547753200,8.881753173828125,-0.08271277000010013,0.00738857588134706,0.005254897454055026
1782836037557683000,8.891682861328125,-0.08690028481781482,0.009420008643716574,0.013393102109327445
1782836037567612000,8.90161181640625,-0.07103636073172093,0.014891882449854165,0.01017586508738459
1782836037577542100,8.911542236328126,-0.07942074271738529,0.013532503730151801,0.007996510041839792
1782836037587472000,8.921471923828125,-0.08077040376067161,0.01595753891998902,0.006249340435059275
1782836037597400800,8.93140087890625,-0.08570961372852325,0.01008313046125695,0.007852170809349628
1782836037607331000,8.9413310546875,-0.0785270087480545,0.0032049883200787007,0.004705207703265477
1782836037617260000,8.951260009765624,-0.07852583970427512,0.006387783074658364,-0.0005571892122999998
1782836037627190000,8.96118994140625,-0.07538169645965098,0.007799275574088096,-0.003984666314040077
1782836037637120000,8.9711201171875,-0.07359013686776161,0.011400405338592826,0.002164513669439475
1782836037647049000,8.981049072265625,-0.06970189725756645,0.004125719894189387,0.011487403202033602
1782836037656979200,8.990979248046875,-0.07344575996100902,0.013290091542713343,0.008769853622314985
1782836037666908000,9.000907958984374,-0.07434709271490574,0.013912114164885133,0.010873883546725846
1782836037676838000,9.010837890625,-0.07509703429937362,0.012817158535029738,0.003054440825799247
1782836037686768000,9.02076806640625,-0.07509644977748393,0.007291874041222036,-0.0016463310184772126
1782836037696697000,9.030697021484375,-0.09304945509731768,0.007262958473991602,0.0026452720780856904
1782836037706627000,9.040626953125,-0.07599485992193221,0.009067962069343774,-0.0001411289286741521
1782836037716557000,9.05055712890625,-0.07913841864466667,0.0121755726958625,-0.0012380767278606071
1782836037726486000,9.060486083984374,-0.08467617902755736,0.015419742248859256,0.00701067505897663
1782836037736416000,9.070416015625,-0.08782090679407119,0.00934228549869731,0.01088700103991432
1782836037746345000,9.080344970703125,-0.07301438280642032,0.008469850045721978,0.006792143787335953
1782836037756275000,9.09027490234375,-0.08349252220094204,0.00610293825129047,-0.002383909736649366
1782836037766205200,9.100205078125,-0.07466331905722617,0.005516973323188722,0.0026861069827951722
1782836037776134000,9.1101337890625,-0.07495791808962822,0.005993523060064763,0.0011326418795419158
1782836037786064000,9.12006396484375,-0.0770499219328165,0.013563903515413403,0.003488909553195117
1782836037795993000,9.1299931640625,-0.07285889998376369,0.006290040054917335,0.0026454033671820068
1782836037805923000,9.139923095703125,-0.07660334720909595,0.005111461262218654,0.002332490076665999
1782836037815853000,9.14985302734375,-0.07675415385663509,0.0035819318736903367,0.0023712860046274727
1782836037825782000,9.159781982421874,-0.06897475202679634,0.0039680816470645365,0.01351251810475951
1782836037835712000,9.1697119140625,-0.07376140178143978,0.013312906162720173,0.0090922762391594
1782836037845641000,9.179640869140625,-0.08079495368003844,0.011181081765796989,0.0059957652495009825
1782836037855571000,9.189571044921875,-0.0819908854663372,0.01316882151691243,-0.0006811095653800293
1782836037865501000,9.1995009765625,-0.07705342906415462,0.007466499955765903,0.006717515640056808
1782836037875430100,9.20943017578125,-0.07480944952964783,0.007899356681387871,-0.005470269225051743
1782836037885360000,9.219360107421876,-0.08423369595706462,0.011589132843725383,0.004944023711109184
1782836037895289900,9.229289794921876,-0.08079320011436938,0.012456837322656065,0.0044934189829538805
1782836037905219000,9.239218994140625,-0.07929565503299235,0.010405530816037208,0.0022427220132929505
1782836037915149000,9.249149169921875,-0.075254855209589,0.010423395266290754,-0.002114835587859852
1782836037925078000,9.259078125,-0.0725625473856926,0.015458813883922994,0.009780842454388039
1782836037935008000,9.269008056640626,-0.08364157528281212,0.009723083243519066,0.007737236338679213
1782836037944938000,9.27893798828125,-0.0813935040950775,-0.0003403013376519084,0.0024356907270586814
1782836037954867200,9.2888671875,-0.07944470811486244,0.009216613292414695,-0.006103132330824155
1782836037964797000,9.298796875,-0.09365969595015049,0.008338277821615338,0.0036002318612503585
1782836037974726000,9.308725830078124,-0.08124035935997963,0.013406685393396765,-0.00044402828607417174
1782836037984656100,9.31865625,-0.08049684751629829,0.011306242515426128,0.009377532625303138
1782836037994583000,9.3285830078125,-0.07660685434043407,0.013212751990184186,0.0037844772707991067
1782836038004513000,9.338512939453125,-0.07346504918336867,0.0012358071389608084,-0.0005011750047677196
1782836038014443000,9.348443115234375,-0.07346212657392025,0.0002691723302006721,-0.0009196658491418929
1782836038024372200,9.358372314453124,-0.07929857764244079,0.009096000853739678,-0.0002959627265372546
1782836038034302000,9.368302001953126,-0.07406067698895931,0.00760764372581616,0.004754486209334573
1782836038044231000,9.37823095703125,-0.0715121615499258,0.009873104439768939,0.003949305593824829
1782836038054161200,9.3881611328125,-0.08842237981855869,0.01716514287777245,-0.0008270311168918852
1782836038064091100,9.398091064453125,-0.07181202127933502,0.012249185921344906,0.009893300127715337
1782836038074020000,9.40802001953125,-0.0770499219328165,0.013428312703315168,0.01601241776224924
1782836038083950300,9.417950439453126,-0.07929214790165424,0.012460728046484291,0.006700663828311371
1782836038093879300,9.42787939453125,-0.0809404996305704,0.007888725689519196,-0.0007203318974934518
1782836038103809000,9.43780908203125,-0.07555705302655696,0.007464782922714948,0.002553622584880213
1782836038113739300,9.4477392578125,-0.07151742224693299,0.004136570081766694,0.007340884831699077
1782836038123668200,9.457668212890624,-0.08079436915814876,0.011339688127301633,-0.001249538265969022
1782836038133598200,9.46759814453125,-0.07884849578738212,0.01300559377921745,-0.0012671760998258833
1782836038143528200,9.477528076171875,-0.06927636532187462,0.004902677349746227,0.004880264017716399
1782836038153457200,9.48745703125,-0.06852642373740672,0.004524089828319847,0.01418309600132634
1782836038163387400,9.497387451171875,-0.07481061857342719,0.004396517925895751,0.005961025583793525
1782836038173316400,9.50731640625,-0.0776595782637596,0.016462200506497174,0.0009190025537944165
1782836038183246000,9.51724609375,-0.0713771369934082,0.009805226835329086,-0.0007238698532280977
1782836038193176300,9.52717626953125,-0.07676584429442881,0.013632986696250736,0.010537937582138692
1782836038203105300,9.537105224609375,-0.0870931770414114,0.011455533059313893,0.003999401517224032
1782836038213035000,9.547034912109375,-0.08425064709186554,0.0029069917541928586,-0.0003142518684762763
1782836038222964200,9.556964111328124,-0.0803565622627735,0.011699022958986461,0.00591312618405791
1782836038232894200,9.566894287109376,-0.0769148973762989,0.015737904819939284,0.005573887717264006
1782836038242824200,9.57682421875,-0.08529168057739735,0.007324351538717746,0.0027296818338625596
1782836038252753200,9.586753173828125,-0.08768763580322265,0.006516779749188572,0.0035004715560033217
1782836038262683100,9.59668310546875,-0.08903788136839866,0.01116873374087736,0.01149531593878637
1782836038272613400,9.60661328125,-0.07407295194864273,0.0037349670109339058,0.004779560143442358
1782836038282542300,9.616542236328126,-0.08290624674558639,0.01479362797345966,0.01196648853093502
1782836038292472000,9.62647216796875,-0.08814122478961944,0.007532057738956064,0.015594274548569228
1782836038302401300,9.6364013671875,-0.08783844245076179,0.010501337607018648,0.00948462285787973
1782836038312331300,9.646331298828125,-0.08364800502359866,0.0006527830866165458,0.01081343576349318
1782836038322261200,9.65626123046875,-0.08334639172852039,0.018398885923810303,0.009643864544446113
1782836038332190200,9.666190185546874,-0.07855155866742133,0.004863550915755331,0.009401165233462233
1782836038342120200,9.6761201171875,-0.03737549867033958,-0.01543064723536372,-0.023058941023563966
1782836038352050400,9.686050537109375,0.1604138493180275,-0.04405451977653429,-0.05428324185409583
1782836038361979100,9.695979248046875,-0.3728787883907556,0.05450471171820536,0.025163059996231456
1782836038371909000,9.7059091796875,-0.05175649072229862,0.005903890281543135,0.024521891998883803
1782836038381838300,9.71583837890625,-0.0020849895805120466,-0.004397029382549226,-0.047117076551774516
1782836038391768300,9.725768310546876,-0.09949263988733291,0.0024230441621504724,0.04189680745310616
1782836038401698000,9.735697998046875,-0.14752280356287956,0.06046157429600134,0.026311344115366227
1782836038411627300,9.745627197265625,-0.010912439158558844,-0.011829663601331412,0.04104894475238397
1782836038421557200,9.75555712890625,-0.09754793556034565,0.0003118972270749509,0.01534688136698096
1782836038431486200,9.765486328125,-0.11550678609907626,0.03553268381524831,0.013295045137399574
1782836038441416200,9.775416259765626,-0.05371171644330024,-0.009697528677154331,-0.001558697259152541
1782836038451346200,9.78534619140625,-0.09575929857790469,0.02504024190073833,0.000834916454181075
1782836038461275400,9.795275390625,-0.06583353139162063,0.015568082944676279,-0.013701294700597645
1782836038471205000,9.805205078125,-0.043992870983481404,0.0036710897281765935,-0.013792196987598435
1782836038481135000,9.815135009765624,-0.11401567075848579,0.03505980560649186,0.0506098871035967
1782836038491064300,9.825064208984376,-0.08752806132733822,0.012548515927791595,0.03400484406030737
1782836038500994300,9.834994384765626,-0.04861936174035072,0.006512414101324975,-0.00980285335679655
1782836038510923300,9.84492333984375,-0.12881810309290886,0.017675010362360626,-0.010018089842941844
1782836038520853200,9.854853271484375,-0.07031155358850956,0.0052041262480430305,-0.02107871329204645
1782836038530783200,9.864783203125,-0.058191492205858224,0.01655431750304997,0.023493336685723624
1782836038540712200,9.874712158203126,-0.07000701768398285,0.032781247948948294,0.009979906407155794
1782836038550642200,9.88464208984375,-0.06432137326300144,-0.00194236623942852,-0.012247483729670057
1782836038560572200,9.894572265625,-0.08257306926846504,0.0005999569208361208,0.005752007063414203
1782836038570501400,9.90450146484375,-0.11085749898850918,-0.019236487525422126,0.008660651918576331
1782836038580431000,9.91443115234375,-0.060131520357728,-0.007913275608886033,0.022422214022604747
1782836038590360000,9.924360107421874,-0.0658218409538269,0.00749267557663843,0.025205638762633313
1782836038600290300,9.934290283203126,-0.09635375733971595,-0.014698497035913168,-0.0065906338616216085
1782836038610220300,9.94422021484375,-0.06298749431073665,0.01960146664660424,0.021300018759374505
1782836038620149200,9.954149169921875,-0.06807517283856869,0.01631912050768733,0.0012147712007979862
1782836038630079200,9.964079345703125,-0.08468260876834392,-0.0048417044101282955,0.006050581301323837
1782836038640009200,9.97400927734375,-0.07390811677575111,0.037987273893132806,0.011205080270959296
1782836038649938200,9.983938232421876,-0.06567629500329494,0.008125493587460368,-0.011919965383422094
1782836038659868200,9.9938681640625,-0.10607494088709354,0.002252089775726199,0.014871513231971766
1782836038669797000,10.003797119140625,-0.0647761312931776,0.024669015701860187,0.011261212638678261
1782836038679727400,10.013727294921875,-0.06791969001591205,0.011773165907431393,-0.004027747403940884
1782836038689657000,10.023656982421874,-0.0745054981470108,0.012620558250695467,-0.013781072805385337
1782836038699586000,10.0335859375,-0.08406886078417301,0.011960669569857418,0.005798882979020709
1782836038709516300,10.043516357421876,0.17414836015999316,0.027441731818206607,-0.042512194838514546
1782836038719445200,10.0534453125,1.1857599363744258,0.23929783654389902,-0.07417637579049914
1782836038729375200,10.063375244140625,-2.339927633655071,-0.39686829739585516,0.26058700054911893
1782836038739305200,10.07330517578125,0.9041022186100482,0.15333541709808632,-0.03950885287064593
1782836038749234200,10.083234130859376,0.09617255555391312,0.19080617457013577,-0.1847765755496919
1782836038759164400,10.093164306640626,-0.8176794881761074,-0.3427068644236773,0.3258425311233848
1782836038769094100,10.10309423828125,-0.0014297405421733855,0.260978648481518,-0.30975721937157213
1782836038779023000,10.113023193359375,-0.16719138062894343,-0.10411628109999001,0.16659617294846102
1782836038788953300,10.122953369140625,-0.3622282150387764,-0.06315095951044931,0.04558167454488575
1782836038798882300,10.13288232421875,0.1583820512294769,0.13675441251751036,-0.05298499133763834
1782836038808812000,10.14281201171875,0.4330822049409151,0.06156279526986182,0.04255057235383428
1782836038818742300,10.1527421875,-0.33918460858166216,-0.08873579314928501,0.03027154385007452
