time,seconds_elapsed,z,y,x
1782836028809713200,0.143713134765625,-0.0004574013873934746,-0.002120841294527054,-0.0007522497326135635
1782836028819642400,0.153642333984375,-0.0015178322792053223,-0.00021687056869268417,-0.00005121063441038132
1782836028829572000,0.163572021484375,0.0019003348425030708,0.0006470587104558945,0.00035864952951669693
1782836028839502300,0.17350244140625,0.0005810894072055817,0.00020742136985063553,-0.0027026948519051075
1782836028849431300,0.183431396484375,-0.0020844684913754463,-0.0002442505210638046,0.003289950080215931
1782836028859361300,0.193361328125,0.0013464652001857758,-0.00018381327390670776,0.0002447348088026047
1782836028869290200,0.203290283203125,0.00035949796438217163,-0.0009302971884608269,-0.0007973602041602135
1782836028879220200,0.21322021484375,-0.0005460167303681374,0.0005847020074725151,0.002436954528093338
1782836028889150200,0.223150146484375,0.0018068859353661537,0.0015226677060127258,-0.0026502152904868126
1782836028899079400,0.233079345703125,-0.0007593203336000443,-0.000027545727789402008,-0.001418613363057375
1782836028909009200,0.243009033203125,-0.0013020718470215797,0.0012004375457763672,-0.0013794652186334133
1782836028918938000,0.252938232421875,0.00018357764929533005,0.0010456843301653862,0.0006838617846369743
1782836028928868400,0.262868408203125,0.0016136951744556427,-0.00027657579630613327,0.002487621270120144
1782836028938798000,0.272798095703125,-0.0009155217558145523,0.0004080086946487427,0.0021809712052345276
1782836028948727000,0.28272705078125,0.00020194053649902344,-0.00012116134166717529,-0.000623870175331831
1782836028958657300,0.2926572265625,-0.0006302408874034882,0.0002365894615650177,0.0013021128252148628
1782836028968586200,0.302586181640625,-0.00045180879533290863,0.0005140909925103188,0.0009023724123835564
1782836028978516200,0.31251611328125,0.00028678402304649353,-0.0004263725131750107,0.0003597000613808632
1782836028988446200,0.3224462890625,0.0000819861888885498,-0.0003227749839425087,-0.0018286192789673805
1782836028998375200,0.332375244140625,-0.00160957220941782,0.0016808705404400826,0.0014560464769601822
1782836029008305400,0.342305419921875,0.003936992958188057,0.00023077894002199173,0.0008304696530103683
1782836029018234400,0.352234375,-0.0026790983974933624,0.0029834220185875893,-0.00039564957842230797
1782836029028164000,0.3621640625,-0.0007198108360171318,0.0008198702707886696,0.0010733501985669136
1782836029038094300,0.37209423828125,0.0012477496638894081,0.0008550398051738739,-0.0011140122078359127
1782836029048023800,0.38202392578125,-0.0004151277244091034,0.0014941981062293053,0.0002567172050476074
1782836029057953500,0.39195361328125,0.0007069865241646767,0.0019790194928646088,0.002800888381898403
1782836029067882500,0.401882568359375,0.00048088375478982925,-0.0003251470625400543,-0.0006790636107325554
1782836029077812700,0.411812744140625,0.0000921487808227539,0.00029212143272161484,0.00007460545748472214
1782836029087742500,0.421742431640625,-0.0009185215458273888,0.0006926609203219414,-0.0019501964561641216
1782836029097671400,0.43167138671875,-0.0019348692148923874,-0.00042208656668663025,0.0000013737007975578308
1782836029107601700,0.4416015625,0.0016814367845654488,-0.0009440658614039421,-0.0005198069848120213
1782836029117530600,0.451530517578125,0.0004188474267721176,-0.000578668899834156,0.0007615964859724045
1782836029127460400,0.46146044921875,0.0008335020393133163,-0.0007714815437793732,0.0017379112541675568
1782836029137390600,0.471390625,0.0001908252015709877,-0.0003273533657193184,-0.0014642588794231415
1782836029147319600,0.481319580078125,-0.0011756429448723793,-0.0006839511916041374,-0.0011787679977715015
1782836029157249800,0.491249755859375,0.0018349075689911842,-0.0016422467306256294,-0.0011577596887946129
1782836029167179500,0.501179443359375,-0.0013166777789592743,0.0027801981195807457,-0.003469383344054222
1782836029177108500,0.5111083984375,-0.00027520768344402313,0.003168766386806965,0.0017256243154406548
1782836029187038700,0.521038818359375,-0.00018785614520311356,-0.0006757723167538643,-0.0009109051898121834
1782836029196967700,0.5309677734375,0.0009899921715259552,0.00028697215020656586,0.001406244933605194
1782836029206897400,0.5408974609375,-0.0003876611590385437,0.0005847131833434105,0.0007742773741483688
1782836029216827600,0.55082763671875,0.0007103094831109047,0.0008755959570407867,-0.0007137800566852093
1782836029226756600,0.560756591796875,0.0007249563932418823,0.0010369839146733284,-0.0002447972074151039
1782836029236686600,0.5706865234375,0.0008653579279780388,-0.0014643631875514984,0.00015666335821151733
1782836029246615600,0.580615478515625,-0.00023346301168203354,0.000010761432349681854,0.0000330926850438118
1782836029256545500,0.590545654296875,-0.0008402308449149132,0.0003477521240711212,-0.0018211710266768932
1782836029266475800,0.600475830078125,0.0007669869810342789,-0.00028927624225616455,-0.0003516385331749916
1782836029276404700,0.61040478515625,-0.0006582019850611687,-0.0006496896967291832,-0.0017710374668240547
1782836029286334500,0.62033447265625,0.0009644627571105957,0.0004805559292435646,0.00008571846410632133
1782836029296263700,0.630263671875,-0.0008232612162828445,-0.0008568093180656433,0.0012820297852158546
1782836029306193700,0.640193603515625,-0.0013545621186494827,0.0004649171605706215,-0.000939579214900732
1782836029316123400,0.650123291015625,0.0006506945937871933,0.001512046903371811,0.00208019046112895
1782836029326052600,0.660052490234375,-0.0007466655224561691,-0.0012600375339388847,0.00011850660666823387
1782836029335982600,0.669982666015625,-0.0008337507024407387,-0.00035083387047052383,0.0004343572072684765
1782836029345911600,0.67991162109375,0.000448533333837986,0.0013597607612609863,0.0003489619120955467
1782836029355841500,0.689841552734375,-0.0015106694772839546,-0.0009590722620487213,0.00014022504910826683
1782836029365771500,0.699771484375,-0.00044993218034505844,0.0025030365213751793,0.000979654025286436
1782836029375700700,0.70970068359375,0.0003463178873062134,0.0002105487510561943,-0.000584152527153492
1782836029385630700,0.719630615234375,-0.0017679650336503983,-0.00032980646938085556,0.0009663398377597332
1782836029395559400,0.729559326171875,-0.0009177690371870995,0.002508217468857765,-0.0024832836352288723
1782836029405489700,0.73948974609375,0.001321949064731598,-0.0006028879433870316,-0.0008885827846825123
1782836029415419600,0.749419677734375,0.0005493024364113808,0.0006236331537365913,-0.001585742924362421
1782836029425348600,0.7593486328125,0.000563683919608593,-0.0015934482216835022,-0.0007966486737132072
1782836029435278600,0.769278564453125,0.0019618626683950424,0.00004579965025186539,-0.0005140802823007107
1782836029445207600,0.77920751953125,-0.001981480047106743,0.0020988304167985916,-0.00013218307867646217
1782836029455137500,0.789137451171875,-0.000570354051887989,-0.0012977207079529762,-0.0004368321970105171
1782836029465067500,0.799067626953125,0.0003178101032972336,-0.0005280664190649986,-0.0011628102511167526
1782836029474996500,0.80899658203125,-0.0014396626502275467,-0.00036859791725873947,0.00208243727684021
1782836029484926700,0.8189267578125,0.0005033798515796661,-0.00029323063790798187,0.0012478027492761612
1782836029494855700,0.828855712890625,0.0005826773121953011,0.002269592136144638,-0.002421081066131592
1782836029504785700,0.83878564453125,0.0007161013782024384,0.0008059190586209297,-0.0002575288526713848
1782836029514715600,0.848715576171875,-0.0007497584447264671,0.00011716224253177643,0.0013846526853740215
1782836029524644600,0.85864453125,-0.0008642738685011864,0.0012159831821918488,-0.002274264581501484
1782836029534574600,0.86857470703125,-0.0010525183752179146,0.00183822400867939,-0.0024851681664586067
1782836029544503800,0.87850390625,0.0002681426703929901,0.0009039873257279396,-0.002405006904155016
1782836029554433500,0.88843359375,-0.0009062616154551506,0.0022364212200045586,-0.001747108530253172
1782836029564363500,0.898363525390625,0.0012218700721859932,-0.000264020636677742,0.0029669529758393764
1782836029574292700,0.908292724609375,0.002258327789604664,-0.0012994157150387764,-0.0013686856254935265
1782836029584222500,0.918222412109375,-0.0004996424540877342,0.0003386950120329857,-0.0014011762104928493
1782836029594151400,0.9281513671875,0.0015948433429002762,-0.001772669143974781,0.000559534877538681
1782836029604081700,0.93808154296875,-0.00048801489174366,0.0004625217989087105,-0.0003600548952817917
1782836029614011600,0.94801171875,0.0002544419839978218,-0.0037611322477459908,0.002487670164555311
1782836029623940600,0.957940673828125,-0.0009024357423186302,0.0005127089098095894,-0.0014370298013091087
1782836029633870600,0.96787060546875,0.00017322320491075516,-0.000033750198781490326,0.0010747667402029037
1782836029643799600,0.977799560546875,0.00024246517568826675,-0.0016702627763152122,-0.0007969029247760773
1782836029653729800,0.987729736328125,0.0004947297275066376,-0.003025295212864876,-0.0007531680166721344
1782836029663659500,0.997659423828125,-0.00037079770117998123,-0.000044152140617370605,0.0007949275895953178
1782836029673588500,1.00758837890625,0.003074745647609234,0.0010819081217050552,0.002788621000945568
1782836029683518700,1.017518798828125,-0.0001452825963497162,-0.0009745853021740913,-0.0018596602603793144
1782836029693447700,1.02744775390625,-0.0010448135435581207,-0.0012989072129130363,0.0004801526665687561
1782836029703377400,1.03737744140625,0.002005837857723236,0.001346411183476448,0.0023616766557097435
1782836029713307600,1.0473076171875,0.0016465876251459122,0.001669132150709629,0.0006946204230189323
1782836029723236600,1.057236572265625,0.0005991663783788681,0.0009002769365906715,0.0010094065219163895
1782836029733166600,1.06716650390625,0.0008957469835877419,0.00036338716745376587,0.00171589944511652
1782836029743095600,1.077095458984375,0.000355391763150692,0.0023000380024313927,-0.0018351590260863304
1782836029753025500,1.087025634765625,0.0003591356799006462,-0.000039272941648960114,-0.00152954226359725
1782836029762955800,1.096955810546875,-0.00045685749500989914,-0.000738087110221386,-0.001209429930895567
1782836029772884500,1.106884521484375,-0.0002096043899655342,0.0005189394578337669,-0.0006078863516449928
1782836029782814500,1.116814453125,-0.0009406423196196556,-0.0029122773557901382,0.0012006666511297226
1782836029792743700,1.12674365234375,-0.0010786773636937141,0.000049374066293239594,-0.00021689338609576225
1782836029802673700,1.136673583984375,0.000240386463701725,-0.0027860933914780617,-0.001018238253891468
1782836029812603600,1.146603759765625,-0.0012447331100702286,-0.0008740825578570366,0.001009548082947731
1782836029822532600,1.15653271484375,0.000039443373680114746,-0.0002700779587030411,0.0016684141010046005
1782836029832462600,1.166462646484375,0.0008186269551515579,-0.0001963963732123375,-0.00029831426218152046
1782836029842391600,1.1763916015625,-0.0005209427326917648,0.0008864449337124825,-0.004078937694430351
1782836029852321500,1.186321533203125,0.0018035760149359703,-0.00028772931545972824,-0.0023420900106430054
1782836029862251500,1.19625146484375,0.0010845223441720009,-0.0025934940204024315,-0.0004573711194097996
1782836029872180700,1.2061806640625,-0.00058746337890625,-0.0009689973667263985,0.0027177324518561363
1782836029882110700,1.21611083984375,0.00148687232285738,-0.0014228001236915588,-0.0010093613527715206
1782836029892039400,1.226039306640625,0.0014688437804579735,0.0021783187985420227,-0.00048642558977007866
1782836029901969700,1.2359697265625,-0.00033171940594911575,0.0006328867748379707,-0.0000581890344619751
1782836029911899600,1.245899658203125,-0.0006283959373831749,-0.001640387810766697,-0.0015146718360483646
1782836029921828600,1.25582861328125,-0.0006995024159550667,0.0018584728240966797,0.0017269281670451164
1782836029931758600,1.265758544921875,-0.0006007971242070198,0.0002622762694954872,-0.002798129338771105
1782836029941687600,1.2756875,0.00006978679448366165,0.0001368410885334015,-0.0006766552105545998
1782836029951617800,1.28561767578125,-0.001960775814950466,-0.0014156168326735497,0.0014164028689265251
1782836029961547500,1.295547607421875,0.002247285097837448,-0.000046486034989356995,0.0003074631094932556
1782836029971476500,1.3054765625,-0.0009353179484605789,-0.0010207965970039368,-0.00007635261863470078
1782836029981406700,1.31540673828125,0.0016468828544020653,-0.0021041706204414368,0.0001849038526415825
1782836029991335700,1.325335693359375,-0.0006607454270124435,0.0009542042389512062,0.0048643434420228004
1782836030001265400,1.335265380859375,-0.0017326679080724716,0.0001406082883477211,-0.0007266965694725513
1782836030011195600,1.345195556640625,0.0007929326966404915,0.0013854959979653358,0.002307763323187828
1782836030021124600,1.35512451171875,0.00015137717127799988,0.001590559259057045,-0.0010819081217050552
1782836030031054600,1.3650546875,-0.001846441999077797,-0.0007782718166708946,0.003319990821182728
1782836030040983600,1.374983642578125,0.0023363186046481133,0.0012806188315153122,-0.0009980588220059872
1782836030050913300,1.384913330078125,-0.00007729046046733856,0.001089249737560749,0.0006012897938489914
1782836030060843300,1.39484326171875,-0.0010536052286624908,0.00199792068451643,0.0034753726795315742
1782836030070772200,1.404772216796875,-0.00034582149237394333,-0.000729474239051342,0.001691628247499466
1782836030080702200,1.4147021484375,-0.0004291785880923271,-0.0007185554131865501,0.0011707134544849396
1782836030090631200,1.424631103515625,0.0014189444482326508,0.00003990158438682556,-0.00048117898404598236
1782836030100561400,1.4345615234375,0.00020081456750631332,-0.0005321446806192398,0.000249326229095459
1782836030110491400,1.444491455078125,-0.0002367151901125908,-0.00032792147248983383,-0.0028439615853130817
1782836030120420000,1.454420166015625,0.0003707520663738251,-0.002140468917787075,-0.0011685672216117382
1782836030130350300,1.464350341796875,0.000268557108938694,-0.0012134835124015808,-0.0021237367764115334
1782836030140279300,1.474279296875,-0.000821208581328392,-0.0015226760879158974,0.00025499891489744186
1782836030150209300,1.484209228515625,0.0006361138075590134,-0.00005893036723136902,0.0026111900806427
1782836030160139300,1.49413916015625,-0.00020384695380926132,-0.001215275377035141,0.0028711147606372833
1782836030170068200,1.504068115234375,0.00006202887743711472,0.0005458379164338112,-0.00032806117087602615
1782836030179998200,1.513998291015625,0.0015968093648552895,0.0011200159788131714,0.00023067044094204903
1782836030189927400,1.523927490234375,0.000058805570006370544,0.0008796490728855133,-0.00017199385911226273
1782836030199857200,1.533857177734375,0.0012862570583820343,-0.00022795982658863068,-0.0014114291407167912
1782836030209787400,1.543787353515625,0.001869942992925644,0.002099800854921341,-0.0007822904735803604
1782836030219716400,1.55371630859375,-0.001576187089085579,0.00032001081854104996,0.0008009588345885277
1782836030229646000,1.56364599609375,0.0014106472954154015,0.001699104905128479,0.0010159807279706001
1782836030239575000,1.573574951171875,-0.000324934720993042,-0.0005725715309381485,-0.000485242810100317
1782836030249505300,1.58350537109375,-0.0009262487292289734,-0.0017226524651050568,0.00004995521157979965
1782836030259434200,1.593434326171875,-0.0006447527557611465,-0.0004866793751716614,-0.0003599054180085659
1782836030269364500,1.603364501953125,-0.00232903566211462,0.001018870621919632,0.001365266740322113
1782836030279294200,1.613294189453125,0.001867040991783142,-0.002619273029267788,-0.0013905721716582775
1782836030289223200,1.62322314453125,0.0019854390993714333,-0.00048192404210567474,-0.0015821103006601334
1782836030299153400,1.6331533203125,-0.001053227111697197,-0.0012835348024964333,0.0009140702895820141
1782836030309082400,1.643082275390625,0.002353389747440815,-0.002772074192762375,-0.000984732061624527
1782836030319012000,1.65301220703125,-0.00028713420033454895,-0.0013230489566922188,0.0008717579767107964
1782836030328942300,1.6629423828125,0.00041358452290296555,0.0013362467288970947,0.0005559735000133514
1782836030338871300,1.672871337890625,0.000018104910850524902,0.00004541222006082535,-0.001262699719518423
1782836030348801300,1.68280126953125,0.0006141131743788719,-0.001636258326470852,-0.0010572816245257854
1782836030358730200,1.692730224609375,0.0015997495502233505,0.000910256989300251,-0.0023915250785648823
1782836030368660200,1.70266015625,-0.0006254725158214569,-0.0002162531018257141,-0.002202751114964485
1782836030378590500,1.712590576171875,-0.0008734129369258881,0.0008958829566836357,-0.0010088561102747917
1782836030388519200,1.722519287109375,0.0019084569066762924,0.001374267041683197,0.00046830717474222183
1782836030398449200,1.73244921875,0.0002903202548623085,-0.0025959741324186325,0.000932229682803154
1782836030408378400,1.74237841796875,0.000056133605539798737,0.001474388875067234,-0.000509853009134531
1782836030418308400,1.752308349609375,-0.00021550897508859634,-0.002611965872347355,0.001380991656333208
1782836030428238000,1.762238037109375,-0.0007063783705234528,0.0019979728385806084,-0.0012254291214048862
1782836030438167300,1.772167236328125,0.0014193570241332054,-0.0010998155921697617,0.00042306818068027496
1782836030448097300,1.78209716796875,-0.0010112207382917404,-0.0001939833164215088,0.00037799635902047157
1782836030458026200,1.792026123046875,-0.00042932014912366867,-0.0015210360288619995,-0.0014223004691302776
1782836030467956200,1.801956298828125,-0.00032166391611099243,0.0008923085406422615,0.003076084889471531
1782836030477886200,1.81188623046875,-0.0007927771657705307,0.00048537738621234894,-0.0013599428348243237
1782836030487815400,1.8218154296875,0.000361529178917408,-0.0009166169911623001,0.0010867235250771046
1782836030497745200,1.8317451171875,0.00007870141416788101,-0.0009389882907271385,0.00008297758176922798
1782836030507674000,1.841674072265625,-0.0007847435772418976,-0.002143566496670246,0.002619583625346422
1782836030517604400,1.851604248046875,-0.00010750163346529007,0.0016588950529694557,0.0007902584038674831
1782836030527534300,1.861534423828125,0.0003558062016963959,0.0013522366061806679,-0.0017713066190481186
1782836030537463300,1.87146337890625,-0.00014726445078849792,0.00046700239181518555,-0.0010248227044939995
1782836030547393300,1.881393310546875,0.001488792710006237,0.00016474071890115738,-0.0013081957586109638
1782836030557322200,1.891322265625,-0.0018313704058527946,0.0026473393663764,-0.000014698132872581482
1782836030567252200,1.901252197265625,0.0008710082620382309,-0.0008777640759944916,0.0006484994664788246
1782836030577182200,1.91118212890625,-0.0018289042636752129,-0.00039999280124902725,0.0009590238332748413
1782836030587111200,1.921111083984375,-0.0025987522676587105,-0.001129433512687683,0.0003951890394091606
1782836030597041400,1.93104150390625,-0.00008392985910177231,-0.00008946936577558517,0.0011741630733013153
1782836030606970400,1.940970458984375,-0.0016698362305760384,-0.0011203363537788391,0.004397688899189234
1782836030616900000,1.950900146484375,0.000036451034247875214,-0.0012729354202747345,0.002034400124102831
1782836030626830300,1.960830322265625,0.00125157181173563,-0.0012303069233894348,-0.002190453466027975
1782836030636759300,1.97075927734375,-0.00039559323340654373,0.0009076790884137154,0.00013927975669503212
1782836030646689300,1.980689208984375,0.0004168003797531128,0.000962771475315094,-0.0010347594507038593
1782836030656618200,1.9906181640625,0.0012655500322580338,-0.0023427437990903854,0.0010129446163773537
1782836030666548200,2.00054833984375,-0.0029708929359912872,0.0011583268642425537,-0.0001577441580593586
1782836030676478200,2.010478271484375,0.0011351685971021652,-0.001108556054532528,0.003362155519425869
1782836030686407400,2.020407470703125,0.001218988560140133,-0.00016366969794034958,0.00043010758236050606
1782836030696337200,2.030337158203125,-0.0008393684402108192,-0.0015365295112133026,-0.00019706645980477333
1782836030706266000,2.04026611328125,0.0014378447085618973,0.0015776287764310837,-0.002628861926496029
1782836030716196400,2.0501962890625,-0.002981671132147312,0.0009725587442517281,0.0024093063548207283
1782836030726125300,2.060125244140625,-0.0004933523014187813,0.001230168156325817,0.0004568141885101795
1782836030736055300,2.07005517578125,0.0025375913828611374,0.0008040620014071465,-0.0015245773829519749
1782836030745985300,2.0799853515625,0.0006669685244560242,0.002469227649271488,0.0011183531023561954
1782836030755914200,2.089914306640625,-0.0011381227523088455,0.0004745200276374817,0.0019495259039103985
1782836030765844200,2.09984423828125,0.003966179676353931,-0.0006400523707270622,0.0033457563258707523
1782836030775773200,2.109773193359375,-0.0011401651427149773,-0.0008632251992821693,0.0006591598503291607
1782836030785703200,2.119703125,0.0010221507400274277,-0.0007055383175611496,0.00022597890347242355
1782836030795633400,2.12963330078125,0.00023784954100847244,-0.0021063610911369324,0.0007764538750052452
1782836030805562400,2.139562255859375,-0.0008343691006302834,-0.001172790303826332,-0.0014136428944766521
1782836030815492000,2.1494921875,0.0019214693456888199,0.0005028704181313515,-0.00028739217668771744
1782836030825421300,2.15942138671875,-0.0036851512268185616,0.00047223828732967377,-0.00047130556777119637
1782836030835351300,2.169351318359375,0.000446476973593235,-0.0020444486290216446,0.0011793221347033978
1782836030845281300,2.17928125,0.0005142977461218834,-0.0005539907142519951,-0.000527690164744854
1782836030855210200,2.189210205078125,-0.0002257945016026497,0.002035134471952915,0.0006329156458377838
1782836030865140200,2.19914013671875,0.0010830359533429146,0.0004602596163749695,-0.0010540219955146313
1782836030875069400,2.2090693359375,0.000356525182723999,0.0005135228857398033,-0.0018950486555695534
1782836030884999200,2.218999267578125,-0.0008672559633851051,0.00045064277946949005,-0.00015885988250374794
1782836030894929200,2.22892919921875,-0.0000736340880393982,-0.0006681513041257858,-0.0015852488577365875
1782836030904858400,2.2388583984375,0.0009718621149659157,-0.0002195378765463829,-0.0005887527950108051
1782836030914788400,2.248788330078125,0.0015913136303424835,0.0020068641752004623,-0.0022878493182361126
1782836030924717300,2.25871728515625,0.0008379211649298668,0.000632203184068203,0.0011627059429883957
1782836030934647300,2.268647216796875,0.0011228788644075394,-0.002037349157035351,0.0010260865092277527
1782836030944577300,2.278577392578125,-0.00011915154755115509,0.0007392484694719315,0.0012253392487764359
1782836030954506200,2.28850634765625,0.0008094934746623039,-0.0004956591874361038,0.00227142870426178
1782836030964436200,2.298436279296875,0.000635090284049511,0.0018929652869701385,-0.0006460272707045078
1782836030974365200,2.308365234375,0.00048621930181980133,-0.0006953608244657516,-0.0021837367676198483
1782836030984295400,2.31829541015625,0.0009438414126634598,-0.00012883450835943222,0.0012702629901468754
1782836030994224400,2.328224365234375,-0.0014149211347103119,-0.0013917051255702972,-0.0012384350411593914
1782836031004154000,2.338154052734375,0.0018629422411322594,-0.001691705547273159,0.0012315455824136734
1782836031014084400,2.34808447265625,-0.00045587215572595596,0.0024191495031118393,-0.0014302842319011688
1782836031024013300,2.358013427734375,0.0015186518430709839,0.002030671574175358,-0.000021087005734443665
1782836031033943300,2.367943359375,0.003949851728975773,0.0021089687943458557,0.0055888621136546135
1782836031043872300,2.377872314453125,-0.0007074438035488129,0.001318521797657013,0.00027766963467001915
1782836031053802500,2.387802490234375,0.0021690363064408302,0.0012873625382781029,-0.00035669514909386635
1782836031063732500,2.397732421875,0.001431914046406746,0.0008532274514436722,0.002544222865253687
1782836031073661400,2.407661376953125,-0.0004589306190609932,0.0009544277563691139,0.0014046565629541874
1782836031083591400,2.41759130859375,0.0019054096192121506,0.0009460551664233208,0.0020709335803985596
1782836031093520400,2.427520263671875,-0.000489039346575737,-0.0013426654040813446,-0.0005565411411225796
1782836031103450600,2.43745068359375,-0.0007428750395774841,0.00036142580211162567,0.0017810603603720665
1782836031113379600,2.447379638671875,0.0012758010998368263,0.00020962581038475037,-0.000030421186238527298
1782836031123309300,2.457309326171875,0.000611407682299614,0.0002713678404688835,0.002412480302155018
1782836031133239600,2.467239501953125,-0.0011944817379117012,-0.0006839083507657051,-0.0016957116313278675
1782836031143168500,2.47716845703125,-0.0017116256058216095,-0.0017142901197075844,-0.0012785536237061024
1782836031153098500,2.487098388671875,0.0017968229949474335,0.0018769828602671623,-0.0015123789198696613
1782836031163027500,2.49702734375,-0.0006885454058647156,-0.0005159135907888412,-0.00202406058087945
1782836031172957400,2.50695751953125,-0.0006089173257350922,0.0008691959083080292,0.00025454023852944374
1782836031182887700,2.5168876953125,-0.00004634261131286621,0.00090817641466856,-0.00014022458344697952
1782836031192816400,2.52681640625,-0.00042877253144979477,0.00040643662214279175,0.0018129372037947178
1782836031202746400,2.536746337890625,0.0007195845246315002,-0.001326809637248516,-0.0006880396977066994
1782836031212675600,2.546675537109375,0.0006285039708018303,0.00072515569627285,0.0009940126910805702
1782836031222605600,2.55660546875,0.00065652746707201,-0.000043954700231552124,0.0020296997390687466
1782836031232535300,2.566535400390625,-7.404014468193054e-7,0.0008993363007903099,-0.0027189827524125576
1782836031242464500,2.576464599609375,0.0021646609529852867,0.0012694410979747772,-0.0005971631035208702
1782836031252394500,2.58639453125,-0.004081783816218376,-0.0006419094279408455,-0.002422493416815996
1782836031262323500,2.596323486328125,0.00025519728660583496,0.0014051860198378563,-0.00009330641478300095
1782836031272253400,2.60625341796875,-0.0008066045120358467,-0.0023826276883482933,0.0008007166907191277
1782836031282182400,2.616182373046875,-0.0010588085278868675,0.000562986359000206,0.00022821035236120224
1782836031292112600,2.626112548828125,-0.00029634591192007065,0.001375783234834671,0.0023725880309939384
1782836031302042400,2.63604248046875,0.0018544131889939308,-0.0009132763370871544,0.0006683897227048874
1782836031311971300,2.645971435546875,-0.0009794561192393303,0.00036903563886880875,-0.0000962037593126297
1782836031321901600,2.655901611328125,-0.0003752438351511955,-0.0037778466939926147,0.0011210879310965538
1782836031331830500,2.66583056640625,-0.0003558024764060974,0.0014909515157341957,-0.0017324890941381454
1782836031341760500,2.675760498046875,0.0014425264671444893,-0.0015720557421445847,0.001140789594501257
1782836031351690500,2.6856904296875,0.0015788795426487923,-0.002042103558778763,0.0015170942060649395
1782836031361619500,2.695619384765625,-0.00006596464663743973,0.00045019760727882385,0.002428483683615923
1782836031371549400,2.705549560546875,0.00010261312127113342,0.0003436710685491562,0.001713958103209734
1782836031381478700,2.715478759765625,-0.00009428616613149643,-0.00018366798758506775,0.0013640886172652245
1782836031391408400,2.725408447265625,0.00022502616047859192,0.0007684128358960152,-0.0012889527715742588
1782836031401337300,2.73533740234375,0.0007400829344987869,-0.0015535056591033936,0.00033073918893933296
1782836031411267600,2.745267578125,-0.00029615312814712524,0.002031642012298107,-0.0007790001109242439
1782836031421197300,2.755197265625,-0.0009333044290542603,0.0013045864179730415,-0.0012870235368609428
1782836031431126300,2.765126220703125,-0.000733567401766777,-0.0020789597183465958,-0.0006292229518294334
1782836031441056500,2.775056396484375,-0.0019675996154546738,0.0002829255536198616,0.003611702471971512
1782836031450985500,2.7849853515625,-0.0005859518423676491,-0.0026071369647979736,-0.0023990520276129246
1782836031460915500,2.79491552734375,0.0009300047531723976,-0.0006104800850152969,0.0016064713709056377
1782836031470845400,2.804845458984375,0.00041734613478183746,0.0003029843792319298,-0.0007980968803167343
1782836031480774400,2.8147744140625,-0.00024464353919029236,0.00018667150288820267,0.0008594570681452751
1782836031490704600,2.82470458984375,0.0013412684202194214,0.000005044043064117432,-0.000188496895134449
1782836031500633600,2.834633544921875,0.000889977440237999,-0.0018883701413869858,0.0023955516517162323
1782836031510563300,2.844563232421875,-0.001377170905470848,0.0019865287467837334,0.0006884653121232986
1782836031520492500,2.854492431640625,-0.0009309714660048485,0.0009075552225112915,0.0003363494761288166
1782836031530422500,2.864422607421875,0.0000392179936170578,-0.0006924718618392944,0.0010538049973547459
1782836031540352500,2.8743525390625,0.005045684985816479,-0.0002720998600125313,-0.00007917732000350952
1782836031550281500,2.884281494140625,-0.00017277896404266357,-0.002232719212770462,-0.0015087621286511421
1782836031560211500,2.89421142578125,0.0002153441309928894,-0.0005261171609163284,-0.0003448193892836571
1782836031570140400,2.904140380859375,0.00169393140822649,0.0008725747466087341,0.0004876847378909588
1782836031580070400,2.9140703125,-0.0006784303113818169,0.001737280748784542,-0.001213624607771635
1782836031590000400,2.92400048828125,0.0009650057181715965,-0.00017859786748886108,0.00027481652796268463
1782836031599929600,2.9339296875,-0.0005959635600447655,-0.0007709776982665062,0.0021337568759918213
1782836031609859600,2.943859619140625,0.0021172640845179558,-0.001100677065551281,0.0004541007801890373
1782836031619788300,2.953788330078125,-0.002321625128388405,-0.000570361502468586,0.0018366812728345394
1782836031629718500,2.963718505859375,-0.00006379745900630951,-0.0017618602141737938,-0.0010762843303382397
1782836031639647500,2.9736474609375,0.00012001581490039825,-0.001636294648051262,0.0008370717987418175
1782836031649577500,2.983577392578125,-0.0013417936861515045,-0.0022264514118433,-0.00035842088982462883
1782836031659507500,2.993507568359375,-0.0005942517891526222,-0.0006724754348397255,0.000028442125767469406
1782836031669436400,3.0034365234375,0.000058222562074661255,-0.002403530292212963,0.0024673650041222572
1782836031679366700,3.01336669921875,-0.0020918510854244232,-0.0008000824600458145,-0.00040560588240623474
1782836031689295600,3.023295654296875,0.0009526750072836876,0.0015546847134828568,0.001976325176656246
1782836031699225300,3.033225341796875,0.00026281457394361496,-0.00473477877676487,0.0005670650862157345
1782836031709154300,3.043154296875,0.00014723371714353561,0.0004059206694364548,0.0014280653558671474
1782836031719084500,3.05308447265625,0.0013981498777866364,0.001181330531835556,0.0008827284909784794
1782836031729014300,3.06301416015625,-0.0015656817704439163,0.0017999829724431038,-0.0008267541415989399
1782836031738943500,3.072943603515625,-0.0021216981112957,-0.00021026190370321274,0.001255309209227562
1782836031748873500,3.08287353515625,-0.0028767045587301254,0.0006845602765679359,-0.0006792107596993446
1782836031758802400,3.092802490234375,-0.0010510655120015144,0.0016223378479480743,-0.0011641159653663635
1782836031768732700,3.102732666015625,0.0008070217445492744,-0.0001374790444970131,0.000651627779006958
1782836031778662400,3.112662353515625,0.0018015801906585693,-0.0017289742827415466,-0.0025798138231039047
1782836031788591400,3.12259130859375,0.00027958396822214127,0.0000359024852514267,-0.0002162586897611618
1782836031798521600,3.132521484375,0.0007845815271139145,-0.0008610384538769722,0.0012503708712756634
1782836031808450600,3.142450439453125,-0.00042635761201381683,-0.0015361495316028595,-0.00010917242616415024
1782836031818380300,3.15238037109375,-0.0019127437844872475,0.0011954521760344505,0.0011741635389626026
1782836031828309500,3.1623095703125,-0.00018861331045627594,-0.0005795452743768692,-0.0008455775678157806
1782836031838239500,3.172239501953125,0.0005877744406461716,-0.000032320618629455566,0.00019901199266314507
1782836031848169500,3.18216943359375,-0.000933157280087471,-0.00001314561814069748,0.0007119369693100452
1782836031858098400,3.192098388671875,0.001779124140739441,0.002092120237648487,-0.0004639546386897564
1782836031868028400,3.2020283203125,-0.0005695167928934097,-0.0006773006170988083,-0.0015515899285674095
1782836031877957600,3.21195751953125,0.0005103945732116699,0.00028223544359207153,-0.0009928587824106216
1782836031887887400,3.221887451171875,0.0007377211004495621,0.0012135300785303116,-0.00005940115079283714
1782836031897816300,3.23181640625,-0.0016996851190924644,-0.00045987963676452637,0.000041455961763858795
1782836031907746600,3.24174658203125,0.0006494894623756409,0.001557198353111744,-0.002170032821595669
1782836031917676500,3.251676513671875,-0.00028089527040719986,0.002051915042102337,-0.0013062534853816032
1782836031927605500,3.26160546875,0.0006802398711442947,0.000181577168405056,-0.002102538477629423
1782836031937535500,3.271535400390625,0.0003908323124051094,0.0010611861944198608,0.0006770947948098183
1782836031947464400,3.28146435546875,-0.00012928340584039688,0.001044408418238163,0.001234760507941246
1782836031957394400,3.29139453125,-0.0012544188648462296,-0.002391916699707508,0.00019730813801288605
1782836031967324400,3.301324462890625,0.0005152514204382896,-0.0004888223484158516,0.00014457805082201958
1782836031977253400,3.31125341796875,-0.0004882980138063431,-0.0002441341057419777,0.0006537898443639278
1782836031987183600,3.32118359375,0.0015373025089502335,-0.001749885268509388,0.0007933392189443111
1782836031997112600,3.331112548828125,-0.0006888480857014656,-0.0023667728528380394,-0.0005434490740299225
1782836032007042300,3.341042236328125,0.0002930592745542526,0.0017286362126469612,0.00010263407602906227
1782836032016971500,3.350971435546875,-0.0009824009612202644,0.0008641993626952171,-0.002546333707869053
1782836032026901500,3.360901611328125,-0.001967238262295723,0.0004420885816216469,0.000157840084284544
1782836032036831500,3.37083154296875,0.0029788268730044365,0.001448669470846653,0.0014825984835624695
1782836032046760400,3.380760498046875,0.0007833167910575867,0.0014324244111776352,0.001089249737560749
1782836032056690700,3.390690673828125,-0.0024590585380792618,0.0010120216757059097,-0.0003902949392795563
1782836032066619600,3.40061962890625,0.0017713727429509163,0.0004841834306716919,0.0014579384587705135
1782836032076549600,3.410549560546875,0.0007968954741954803,0.001600470393896103,-0.0022468003444373608
1782836032086478600,3.420478515625,-0.000029750168323516846,0.0011107157915830612,-0.0016140332445502281
1782836032096408600,3.43040869140625,-0.000013004057109355927,-0.0019512306898832321,-0.0006086481735110283
1782836032106338600,3.440338623046875,-0.0006870506331324577,0.00021604914218187332,-0.0008523273281753063
1782836032116267800,3.450267822265625,-0.00046178605407476425,-0.00036977045238018036,0.0013266676105558872
1782836032126197500,3.460197509765625,0.0013555549085140228,-0.002016136422753334,-0.000026751309633255005
1782836032136126500,3.47012646484375,0.001551613211631775,0.0002845143899321556,0.0018768017180263996
1782836032146056700,3.480056640625,0.0023058196529746056,-0.0006667664274573326,-0.0008936850354075432
1782836032155986400,3.489986328125,-0.001827215775847435,-0.0007173791527748108,0.0020770132541656494
1782836032165915400,3.499915283203125,-0.00009003560990095139,-0.0017309784889221191,-0.0023150723427534103
1782836032175845600,3.509845703125,-0.0003407672047615051,-0.003647531382739544,-0.0010364828631281853
1782836032185774600,3.519774658203125,-0.001927211880683899,-0.002198239788413048,0.002074089366942644
1782836032195704600,3.52970458984375,0.0007431544363498688,0.000776323489844799,-0.0011039194650948048
1782836032205633500,3.539633544921875,0.0013745902106165886,-0.0003278236836194992,0.0014822757802903652
1782836032215563500,3.5495634765625,-0.0004123011603951454,0.00019920151680707932,0.001600807998329401
1782836032225493800,3.55949365234375,-0.0010389434173703194,0.0016913702711462975,-0.000025850720703601837
1782836032235422700,3.569422607421875,0.0016557099297642708,0.0018953382968902588,0.0022303923033177853
1782836032245352400,3.5793525390625,-0.0015560630708932877,0.000493982806801796,0.0011038756929337978
1782836032255281700,3.58928173828125,0.0015348130837082863,0.0018280744552612305,0.00022899918258190155
1782836032265211600,3.599211669921875,-0.00367832463234663,0.00046959612518548965,-0.00017340434715151787
1782836032275140600,3.609140625,-0.000512109138071537,0.00023020245134830475,0.000054372940212488174
1782836032285070600,3.619070556640625,0.0008532935753464699,0.0006563086062669754,0.000713505782186985
1782836032295000600,3.62900048828125,-0.0017627431079745293,0.002378879114985466,-0.002751864492893219
1782836032304929500,3.638929443359375,0.0018106857314705849,-0.0014531435444951057,-0.00046021444723010063
1782836032314859500,3.648859619140625,-0.0005249595269560814,0.0009947819635272026,-0.0009376732632517815
1782836032324788500,3.65878857421875,-0.001167580485343933,-0.002583707682788372,0.0024016639217734337
1782836032334718700,3.66871875,0.0001557767391204834,0.0009417235851287842,0.0005803643725812435
1782836032344648700,3.678648681640625,0.0017656581476330757,-0.002621319144964218,-0.0026420610956847668
1782836032354577700,3.68857763671875,0.00020257197320461273,-0.0011846432462334633,-0.0016118250787258148
1782836032364507600,3.698507568359375,-0.0011561727151274681,-0.0016000960022211075,0.002495035994797945
1782836032374436600,3.7084365234375,-0.000021084211766719818,0.001954377628862858,0.000559681560844183
1782836032384366600,3.71836669921875,-0.00018540117889642715,0.0026854155585169792,0.001305899117141962
1782836032394295800,3.7282958984375,-0.001144658774137497,-0.00014840532094240189,0.0020826319232583046
1782836032404225500,3.7382255859375,-0.00027300696820020676,0.0027355318889021873,0.0010061822831630707
1782836032414155500,3.748155517578125,0.000878562219440937,0.003082742914557457,0.001561861950904131
1782836032424084700,3.758084716796875,0.0011185137555003166,0.0004653884097933769,0.001157593447715044
1782836032434014500,3.768014404296875,-0.000017511658370494843,-0.0002812119200825691,-0.0006721075624227524
1782836032443943400,3.777943359375,0.00036838091909885406,-0.0005422020331025124,-0.0015349718742072582
1782836032453873700,3.787873779296875,0.001634674146771431,-0.0005843490362167358,0.0010653850622475147
1782836032463802600,3.797802734375,0.0006658164784312248,-0.0012317635118961334,0.002398830372840166
1782836032473732600,3.807732666015625,0.0009834151715040207,-0.0010707657784223557,0.0006357408128678799
1782836032483662600,3.81766259765625,-0.00009250175207853317,-0.0026462916284799576,0.00168955372646451
1782836032493591600,3.827591552734375,-1.043081283569336e-7,-0.0017909007146954536,-0.0006104274652898312
1782836032503521800,3.837521728515625,-0.0015481999143958092,0.0005401642993092537,-0.00021601328626275063
1782836032513450500,3.847450439453125,-0.0006418386474251747,-0.0011151628568768501,-0.000157233327627182
1782836032523380500,3.85738037109375,0.002767539583146572,0.0006768777966499329,0.0012949886731803417
1782836032533309700,3.867309814453125,-0.00022265221923589706,-0.0010222001001238823,0.000173244159668684
1782836032543239700,3.87723974609375,0.0008671125397086143,-0.001061880961060524,-0.000002791173756122589
1782836032553169400,3.88716943359375,-0.0006946828216314316,0.003002026118338108,0.000037317629903554916
1782836032563098600,3.8970986328125,-0.0001002652570605278,0.0014454089105129242,0.0023907525464892387
1782836032573028600,3.907028564453125,0.0008935127407312393,0.0018948493525385857,0.0025198846124112606
1782836032582957600,3.91695751953125,-0.001112646423280239,0.0010447688400745392,-0.0000029276125133037567
1782836032592887600,3.926887451171875,0.0004921164363622665,-0.0006308015435934067,-0.00017289584502577782
1782836032602817500,3.936817626953125,0.001976562663912773,0.0010105045512318611,0.0005181939341127872
1782836032612746800,3.946746826171875,0.0008255811408162117,-0.0030603790655732155,0.0010899673216044903
1782836032622676700,3.9566767578125,-0.0004892218858003616,-0.0011900411918759346,0.0018777302466332912
1782836032632605400,3.96660546875,-0.0007915543392300606,-0.0025326935574412346,-0.00040891021490097046
1782836032642535700,3.97653564453125,-0.00034307781606912613,-0.0014554457738995552,0.00003929995000362396
1782836032652464600,3.986464599609375,-0.001039573922753334,-0.0007434412837028503,0.0017425641417503357
1782836032662394600,3.99639453125,0.00018521398305892944,-0.002094728872179985,-0.00029715104028582573
1782836032672324600,4.00632470703125,0.0007823631167411804,0.000541171059012413,-0.001502182800322771
1782836032682253600,4.016253662109375,-0.000029901042580604553,-0.000898268073797226,-0.0014933943748474121
1782836032692183600,4.02618359375,-0.0001752832904458046,-0.0012883888557553291,-0.00006465986371040344
1782836032702112800,4.03611279296875,0.00021247286349534988,-0.0011126203462481499,0.00037316372618079185
1782836032712042500,4.04604248046875,-0.0009085061028599739,-0.00035062991082668304,0.00149169797077775
1782836032721971500,4.055971435546875,-0.00009517651051282883,0.002039024606347084,0.0009643924422562122
1782836032731901700,4.065901611328125,0.0000013355165719985962,0.0009661838412284851,0.0008040857501327991
1782836032741831400,4.07583154296875,-0.000035682693123817444,0.002494039013981819,0.001424069982022047
1782836032751760400,4.085760498046875,-0.0013219937682151794,0.0023778481408953667,0.00011800415813922882
1782836032761690600,4.095690673828125,0.0009339703246951103,-0.00046933721750974655,0.0013563740067183971
1782836032771619600,4.10561962890625,-0.0018673809245228767,-0.0016025705263018608,0.004314542282372713
1782836032781549600,4.115549560546875,-0.0016458062455058098,-0.0007442338392138481,0.0016074390150606632
1782836032791479600,4.1254794921875,0.0007014060392975807,-0.001324933022260666,0.002209803555160761
1782836032801408500,4.135408447265625,-0.00043762754648923874,-0.00006525777280330658,-0.0007425765506923199
1782836032811338800,4.1453388671875,0.00014697015285491943,-0.001403401605784893,0.00032412121072411537
1782836032821267700,4.155267822265625,0.0007677534595131874,-0.0019344352185726166,-0.00047749001532793045
1782836032831197400,4.165197509765625,0.0016556838527321815,-0.0015283487737178802,-0.00039934273809194565
1782836032841126700,4.175126708984375,0.002693518064916134,0.00035423971712589264,0.0021889833733439445
1782836032851056600,4.185056640625,-0.001971031539142132,-0.0019547846168279648,0.00034375768154859543
1782836032860986600,4.194986572265625,0.0007456587627530098,-0.0009976448491215706,0.002453514374792576
1782836032870915600,4.20491552734375,0.001861894503235817,0.0016729002818465233,0.0012869001366198063
1782836032880845600,4.214845458984375,-0.0017799781635403633,0.0012585120275616646,0.0019385754130780697
1782836032890774500,4.2247744140625,0.0005726907402276993,0.0002416502684354782,0.0014004595577716827
1782836032900704500,4.23470458984375,-0.0018931301310658455,0.0012983931228518486,-0.002335422672331333
1782836032910633500,4.244633544921875,0.0006535779684782028,0.004433914087712765,-0.00012165866792201996
1782836032920563700,4.254563720703125,0.0019326945766806602,0.000013067387044429779,0.0019361665472388268
1782836032930493700,4.26449365234375,-0.0014920681715011597,0.0008866535499691963,0.0014954805374145508
1782836032940422700,4.274422607421875,0.00028399378061294556,-0.00016662664711475372,0.0006403401494026184
1782836032950352600,4.2843525390625,-0.0005239527672529221,0.0016034888103604317,0.00021874578669667244
1782836032960281600,4.294281494140625,0.0011333329603075981,-0.00046072714030742645,-0.0006031054072082043
1782836032970211600,4.304211669921875,0.002086264081299305,0.0001569325104355812,-0.0004523890092968941
1782836032980140800,4.314140869140625,-0.00044214166700839996,-0.001679583452641964,0.000030442140996456146
1782836032990070500,4.324070556640625,0.00010386388748884201,-0.0000613061711192131,0.0011314991861581802
1782836033000000800,4.334000732421875,0.00010945647954940796,-0.0012424178421497345,0.0020095426589250565
1782836033009929700,4.3439296875,-0.0006191423162817955,-0.0006478782743215561,-0.001267602201551199
1782836033019859500,4.353859375,0.00025996752083301544,0.00017557106912136078,0.0005497392266988754
1782836033029788400,4.363788330078125,0.0030650142580270767,0.0010964181274175644,0.00035951239988207817
1782836033039718700,4.37371875,-0.0007406426593661308,-0.0013869795948266983,0.0006545898504555225
1782836033049648000,4.383648193359375,-0.00022960174828767776,0.0006831753998994827,0.0001350976526737213
1782836033059577000,4.3935771484375,0.0007416531443595886,0.0012799892574548721,0.0008578798733651638
1782836033069506800,4.4035068359375,0.0003598574548959732,0.001274680718779564,0.0021322709508240223
1782836033079436000,4.41343603515625,-0.0010398998856544495,-0.0008992580696940422,-0.0013245120644569397
1782836033089366000,4.423365966796875,0.00016894657164812088,0.0004966482520103455,0.0010148552246391773
1782836033099295000,4.433294921875,0.001390005461871624,0.0020420802757143974,0.00041244784370064735
1782836033109225000,4.443224853515625,0.0006386656314134598,0.000490180216729641,-0.00040872441604733467
1782836033119155000,4.453155029296875,0.0013904757797718048,-0.002048877999186516,0.00039102276787161827
1782836033129084000,4.463083984375,-0.0008059851825237274,-0.0013691885396838188,-0.0010247020982205868
1782836033139014000,4.473013916015625,-0.001995885744690895,-0.0016248514875769615,0.0009652115404605865
1782836033148942800,4.48294287109375,0.000897308811545372,0.001168631948530674,0.0000805961899459362
1782836033158873000,4.492873046875,0.0009122220799326897,-0.0012873345986008644,-0.0018813544884324074
1782836033168803000,4.502802978515625,-0.0006593000143766403,0.0008178120478987694,0.0006651449948549271
1782836033178732000,4.51273193359375,0.001664840616285801,-0.0006285505369305611,0.00011413684114813805
1782836033188662000,4.522662109375,0.003008349798619747,0.0009843697771430016,0.0009857099503278732
1782836033198591000,4.532591064453125,-0.0010796021670103073,0.002352967858314514,0.0002815704792737961
1782836033208521000,4.54252099609375,-0.0006854431703686714,-0.00021538883447647095,0.0007457565516233444
1782836033218450200,4.5524501953125,0.0005103163421154022,-0.000504608266055584,0.0011356426402926445
1782836033228380000,4.5623798828125,0.0020089885219931602,0.0005735456943511963,-0.0002994011156260967
1782836033238310000,4.572309814453125,0.0006246771663427353,-0.0022038649767637253,0.0008404315449297428
1782836033248239000,4.582239013671875,0.0010824603959918022,0.0006293738260865211,0.0005658618174493313
1782836033258168800,4.5921689453125,-0.0018914919346570969,0.0019172783941030502,0.002195450011640787
1782836033268097800,4.602097900390625,0.0017347857356071472,0.000373288057744503,0.0009461673907935619
1782836033278028000,4.612028076171875,-0.0016253245994448662,0.0030433721840381622,0.0023877364583313465
1782836033287957000,4.62195703125,-0.0007032193243503571,0.0011931750923395157,-0.002101209945976734
1782836033297887000,4.631886962890625,0.0011825654655694962,0.0010509621351957321,-0.0009698993526399136
1782836033307817000,4.64181689453125,-0.0007513631135225296,0.0005045123398303986,0.000347641296684742
1782836033317746000,4.651745849609375,0.0007048528641462326,-0.0008230730891227722,0.0007441863417625427
1782836033327676200,4.66167626953125,-0.0010515963658690453,-0.000704529695212841,-0.00046046217903494835
1782836033337605000,4.671605224609375,-0.0003067096695303917,0.00014874711632728577,0.002606433816254139
1782836033347534800,4.681534912109375,0.0013690106570720673,-0.0006446139886975288,0.0013223863206803799
1782836033357464000,4.691464111328125,-0.0027335891500115395,-0.0004376862198114395,-0.001174593809992075
1782836033367394000,4.70139404296875,0.00024361349642276764,0.0010601654648780823,-0.00005165068432688713
1782836033377323800,4.71132373046875,-0.001918872818350792,0.00011687446385622025,-0.002319066319614649
1782836033387253000,4.7212529296875,-0.0012123817577958107,0.0013650087639689445,0.00022870860993862152
1782836033397183000,4.731182861328125,-0.0003186250105500221,-0.0012688571587204933,-0.0002487963065505028
1782836033407112000,4.74111181640625,-0.0018905717879533768,0.002840070053935051,0.00008329423144459724
1782836033417042000,4.7510419921875,0.0008125361055135727,0.0023724185302853584,0.0011525535956025124
1782836033426971000,4.760970947265625,0.001096653752028942,0.0018034763634204865,-0.0013291402719914913
1782836033436901000,4.770901123046875,0.000824744813144207,0.0007190369069576263,0.0012141787447035313
1782836033446831000,4.7808310546875,-0.0010292259976267815,0.00007372628897428513,0.00011538248509168625
1782836033456759800,4.790759765625,0.003107462078332901,-0.0006519854068756104,-0.00005479343235492706
1782836033466690000,4.80068994140625,-0.0038035381585359573,-0.00197477824985981,-0.0007166690193116665
1782836033476619000,4.810618896484375,0.000003983266651630402,-0.0006815465167164803,0.0002210298553109169
1782836033486549000,4.820549072265625,0.0009352248162031174,-0.0008336864411830902,-0.0009304787963628769
1782836033496479000,4.83047900390625,0.0009187133982777596,0.00127420574426651,0.0021428093314170837
1782836033506408000,4.840407958984375,0.001461871899664402,-0.0012734727934002876,0.002412418369203806
1782836033516338000,4.850337890625,0.00002376548945903778,0.0003182981163263321,0.0005671144463121891
1782836033526267100,4.86026708984375,0.002012566663324833,-0.0016676699742674828,-0.0015843440778553486
1782836033536196900,4.87019677734375,0.001508696936070919,-0.0007683206349611282,0.002577644307166338
1782836033546125800,4.880125732421875,-0.0006024977192282677,0.0019480688497424126,0.00023347977548837662
1782836033556056000,4.89005615234375,0.0012952713295817375,0.0002878541126847267,0.0012566656805574894
1782836033565985800,4.89998583984375,0.00018177833408117294,0.0005701910704374313,0.0016000717878341675
1782836033575914800,4.909914794921875,0.00036606844514608383,0.002434137277305126,-0.0018814788199961185
1782836033585845000,4.919844970703125,-0.00018529687076807022,0.00023815501481294632,0.000024195760488510132
1782836033595774000,4.92977392578125,0.0026642857119441032,-0.001057473011314869,-0.0005403943359851837
1782836033605704200,4.9397041015625,0.0004995642229914665,0.001017693430185318,-0.00007167551666498184
1782836033615633000,4.9496328125,0.0003219312056899071,-0.00015755929052829742,0.0014114389196038246
1782836033625563000,4.95956298828125,-0.0010454626753926277,-0.00025029946118593216,-0.003712721634656191
1782836033635493000,4.9694931640625,0.000056819990277290344,-0.0010686889290809631,0.0024365177378058434
1782836033645422000,4.979422119140625,-0.00094573013484478,-0.00011542066931724548,0.00016056420281529427
1782836033655351800,4.989351806640625,0.0005429768934845924,-0.0014430070295929909,0.0010718973353505135
1782836033665281000,4.999281005859375,0.0008973954245448112,0.0004924973472952843,-0.00047842739149928093
1782836033675211000,5.0092109375,0.0008172346279025078,0.00026612821966409683,0.0031133778393268585
1782836033685141000,5.01914111328125,-0.00032099056988954544,-0.000045890919864177704,0.0011996664106845856
1782836033695070000,5.029070068359375,0.0006705047562718391,-0.0022706957533955574,-0.001525545958429575
1782836033705000000,5.039,-0.0007227696478366852,0.0017998265102505684,0.0012407605536282063
1782836033714929000,5.048928955078125,-0.0010492727160453796,0.0002093864604830742,0.0013147969730198383
1782836033724859000,5.05885888671875,0.0006703557446599007,0.0017568040639162064,-0.0016302578151226044
1782836033734787800,5.068787841796875,0.0008051116019487381,0.0005384078249335289,-0.00014155078679323196
1782836033744718000,5.078718017578125,-0.00033502373844385147,-0.00036590173840522766,-0.00076327845454216
1782836033754648000,5.08864794921875,0.000005328096449375153,0.0022354740649461746,-0.00039789266884326935
1782836033764577000,5.098576904296875,-0.0004861932247877121,0.00029395055025815964,0.0006556990556418896
1782836033774507000,5.108507080078125,0.0005348622798919678,0.0002923524007201195,0.0022410782985389233
1782836033784436000,5.11843603515625,0.0007107537239789963,0.0011493423953652382,0.0007565137930214405
1782836033794366000,5.128365966796875,-0.0005193604156374931,0.0005229664966464043,0.003089976031333208
1782836033804295200,5.138295166015625,0.0005937227979302406,0.00020010210573673248,-0.00103838462382555
1782836033814225000,5.148224853515625,0.0007623005658388138,-0.0007980503141880035,0.0015992103144526482
1782836033824155100,5.158155029296875,0.0006406381726264954,-0.006507653743028641,0.001350513193756342
1782836033834084000,5.168083984375,-0.0004118429496884346,-0.0010889200493693352,0.0011068335734307766
1782836033844013800,5.178013916015625,0.0002482812851667404,-0.00015583354979753494,-0.001233804039657116
1782836033853942800,5.18794287109375,0.0004791775718331337,-0.0008940612897276878,0.0012607784010469913
1782836033863873000,5.197873046875,-0.0017169862985610962,-0.002722904086112976,0.0018904311582446098
1782836033873803000,5.207802978515625,-0.00014199316501617432,-0.0035396963357925415,0.0004906738176941872
1782836033883732000,5.21773193359375,-0.0007728710770606995,0.00041273143142461777,0.0003037084825336933
1782836033893662000,5.227661865234375,-0.000768609344959259,-0.0007912833243608475,0.00024804798886179924
1782836033903591000,5.2375908203125,0.0015333741903305054,0.0012743519619107246,-0.0016144178807735443
1782836033913521200,5.247521240234375,-0.000007265247404575348,0.0007198825478553772,0.0006351545453071594
1782836033923450000,5.2574501953125,-0.000566667877137661,0.000611444003880024,0.0019180979579687119
1782836033933379800,5.2673798828125,-0.00036985985934734344,0.0013371556997299194,0.00040302518755197525
1782836033943310000,5.27731005859375,0.00024397484958171844,-0.0004724627360701561,0.00042182253673672676
1782836033953239000,5.287239013671875,0.0017843469977378845,0.0017797723412513733,0.001156854908913374
1782836033963168800,5.297168701171875,-0.0004968838766217232,-0.0017379764467477798,0.002469053491950035
1782836033973098000,5.307097900390625,-0.000537630170583725,0.00018163025379180908,-0.000970685388892889
1782836033983028000,5.317028076171875,0.0012097358703613281,-0.0007841680198907852,0.0001238337717950344
1782836033992956000,5.326955810546875,0.0014353049919009209,-0.0013109417632222176,0.00029321061447262764
1782836034002886100,5.33688623046875,0.0004742573946714401,-0.0008488781750202179,0.0018437579274177551
1782836034012815000,5.346815185546875,0.0015850616618990898,-0.0009516766294836998,0.0011936798691749573
1782836034022744800,5.356744873046875,-0.0009081438183784485,0.0010037235915660858,0.00008836435154080391
1782836034032675000,5.366675048828125,-0.0002362281084060669,-0.0019350750371813774,0.0033443449065089226
1782836034042604000,5.37660400390625,0.0005157450214028358,-0.0003282688558101654,0.0009359330870211124
1782836034052534000,5.386533935546875,-0.0004437919706106186,0.001239001750946045,-0.000014815479516983032
1782836034062463000,5.396462890625,0.00006258860230445862,0.00036280881613492966,-0.0002704286016523838
1782836034072393200,5.406393310546875,-0.000054856762290000916,0.0006163418292999268,0.00009628850966691971
1782836034082323200,5.4163232421875,0.0009177876636385918,-0.00005772709846496582,0.0003374977968633175
1782836034092252000,5.426251953125,0.0017660045996308327,0.0009891614317893982,-0.0007882206700742245
1782836034102182100,5.43618212890625,0.0015666419640183449,-0.00047663506120443344,-0.0009146081283688545
1782836034112111000,5.446111083984375,-0.0010104989632964134,-0.00032803043723106384,-0.0009023575112223625
1782836034122041000,5.456041015625,-0.0004351101815700531,0.0007179630920290947,0.000537993386387825
1782836034131970000,5.465969970703125,0.001148671843111515,-0.0013377312570810318,0.0016245627775788307
1782836034141900000,5.475900146484375,0.0008193030953407288,-0.0021727588027715683,-0.0008409754373133183
1782836034151830300,5.485830322265625,0.0008182376623153687,-0.0014960495755076408,0.00048048514872789383
1782836034161759200,5.49575927734375,0.0008127400651574135,-0.00042188912630081177,0.0007524103857576847
1782836034171689000,5.50568896484375,-0.0006655808538198471,0.0011112932115793228,0.0009417603723704815
1782836034181618200,5.5156181640625,-0.0009981375187635422,0.001322631724178791,0.0007863976061344147
1782836034191548200,5.525548095703125,0.0006964318454265594,-0.0004768660292029381,0.0011464571580290794
1782836034201478000,5.535477783203125,0.0010484028607606888,-0.0028876271098852158,0.0034284344874322414
1782836034211407000,5.545406982421875,0.00003560259938240051,-0.0002700062468647957,0.001374338287860155
1782836034221337000,5.555337158203125,0.0007970146834850311,-0.000555332750082016,0.003299775067716837
1782836034231266000,5.56526611328125,0.0007307017222046852,0.0014023566618561745,0.00037003168836236
1782836034241196000,5.575196044921875,-0.001220392994582653,0.0010770978406071663,-0.00023601902648806572
1782836034251125000,5.585125,0.000343947671353817,-0.00024409592151641846,0.0017115501686930656
1782836034261055000,5.595054931640625,-0.0004075001925230026,-0.0005636084824800491,0.0005122995935380459
1782836034270985200,5.604985107421875,-0.0007739514112472534,0.0007586516439914703,0.0011623776517808437
1782836034280914200,5.6149140625,0.002313327044248581,-0.0005706446245312691,0.0012834654189646244
1782836034290844200,5.62484423828125,-0.0017338786274194717,-0.0008132588118314743,0.0002174018882215023
1782836034300773000,5.634773193359375,0.0008683726191520691,0.000624372623860836,0.0002776850014925003
1782836034310703000,5.644703125,-0.0014885244891047478,-0.0005913600325584412,0.0002593090757727623
1782836034320632000,5.654632080078125,-0.00039300043135881424,-0.001005898229777813,-0.0006354646757245064
1782836034330562000,5.66456201171875,-0.00029606185853481293,-0.00047965720295906067,0.00012300396338105202
1782836034340492000,5.674491943359375,0.0008070487529039383,-0.0018367255106568336,0.0007961094379425049
1782836034350421200,5.684421142578125,0.00004565063863992691,-0.0017203455790877342,-0.0010968656279146671
1782836034360351000,5.69435107421875,0.0017491336911916733,0.00235678069293499,0.00008802907541394234
1782836034370280000,5.704280029296875,0.0018348870798945427,-0.0025863125920295715,0.0005327770486474037
1782836034380210200,5.714210205078125,0.000549602322280407,-0.00048529356718063354,0.001194557175040245
1782836034390140200,5.72414013671875,0.00007342919707298279,0.00118983443826437,-0.0004209158942103386
1782836034400069000,5.734069091796875,0.0017600273713469505,0.00013566110283136368,0.0005017020739614964
1782836034409999000,5.7439990234375,0.0009363116696476936,0.0025002826005220413,-0.0005523771978914738
1782836034419928000,5.753927978515625,-0.0001843571662902832,0.0023552104830741882,0.0023609385825693607
1782836034429858300,5.7638583984375,0.000599677674472332,0.003416481427848339,0.0009113806299865246
1782836034439787300,5.773787353515625,0.002858455292880535,0.0000796094536781311,0.000910045113414526
1782836034449717000,5.783717041015625,-0.0018079355359077454,-0.0027276286855340004,-0.000328057911247015
1782836034459647200,5.793647216796875,0.0009638825431466103,0.00009000860154628754,0.0017916364595293999
1782836034469576200,5.803576171875,-0.0011080559343099594,-0.0008799144998192787,0.0013468889519572258
1782836034479506000,5.813505859375,0.0008282698690891266,-0.0026483722031116486,0.0003014979884028435
1782836034489435100,5.82343505859375,0.00035129766911268234,-0.00003847479820251465,0.0013622352853417397
1782836034499365000,5.833365234375,-0.0011056484654545784,-0.0003552362322807312,-0.0009089452214539051
1782836034509295000,5.843295166015625,0.0018411390483379364,-0.0010519195348024368,-0.003884761594235897
1782836034519224000,5.85322412109375,0.0020870687440037727,-0.000741882249712944,0.001285403035581112
1782836034529154000,5.863154052734375,-0.0010690437629818916,-0.0017453618347644806,0.001219622790813446
1782836034539083000,5.8730830078125,0.0016418062150478363,0.0010980833321809769,0.0015678401105105877
1782836034549013200,5.88301318359375,0.00004550814628601074,0.0012602703645825386,-0.00014803512021899223
1782836034558942000,5.89294189453125,0.000395115464925766,0.0003651110455393791,0.0004105116240680218
1782836034568872200,5.9028720703125,0.000806041993200779,0.0016679298132658005,-0.0014212103560566902
1782836034578802200,5.91280224609375,0.00048366934061050415,-0.00024718884378671646,-0.0015539112500846386
1782836034588731100,5.922731201171875,0.0005513131618499756,-0.00007301755249500275,-0.0008745389059185982
1782836034598661000,5.9326611328125,0.00008126813918352127,0.0019425898790359497,-0.002401075791567564
1782836034608590000,5.942590087890625,-0.0017027836292982101,0.00022192113101482391,0.0016847457736730576
1782836034618520000,5.95252001953125,0.0005096793174743652,-0.00104481540620327,-0.00036907847970724106
1782836034628450000,5.962449951171875,-0.0032661501318216324,-0.0004938077181577682,0.0008863359689712524
1782836034638382000,5.972382080078125,-0.0005088867619633675,-0.0014228010550141335,0.001190117560327053
1782836034648311000,5.98231103515625,0.000016555190086364746,0.00042117200791835785,0.0005237944424152374
1782836034658241000,5.992240966796875,-0.0009337347000837326,0.0003394167870283127,0.0011175875551998615
1782836034668170200,6.002170166015625,0.00024045351892709732,-0.00034741219133138657,-0.0007554139010608196
1782836034678100200,6.012100341796875,-0.0020997188985347748,-0.0012157196179032326,-0.0022531901486217976
1782836034688029000,6.02202880859375,0.0009008646011352539,0.0021246839314699173,-0.0021194997243583202
1782836034697959200,6.031959228515625,0.0008470593020319939,-0.0017988011240959167,0.0005902862176299095
1782836034707889200,6.04188916015625,0.0007213586941361427,0.002292347140610218,0.0017429022118449211
1782836034717818000,6.051818115234375,-0.0013835867866873741,-0.0007272176444530487,0.0013035666197538376
1782836034727748000,6.061748046875,0.0001173708587884903,0.0010059680789709091,0.0011009005829691887
1782836034737677000,6.071677001953125,-0.0007284991443157196,0.0023419279605150223,0.00006846711039543152
1782836034747607000,6.08160693359375,-0.00067124143242836,-0.0013761110603809357,-0.0014545945450663567
1782836034757537000,6.091537109375,-0.0004319511353969574,-0.0004545459523797035,0.0020864573307335377
1782836034767466000,6.101466064453125,0.0018786080181598663,0.001430705189704895,0.0002507404424250126
1782836034777396200,6.111396240234375,-0.000909547321498394,0.002376173622906208,-0.0002319090999662876
1782836034787325200,6.1213251953125,0.000408184714615345,-0.00024677347391843796,-0.0006231274455785751
1782836034797255000,6.1312548828125,0.000634864903986454,0.0011943057179450989,0.002262773457914591
1782836034807184000,6.141183837890625,-0.0008093668147921562,-0.0009921500459313393,-0.000967374537140131
1782836034817114000,6.151114013671875,0.002726876176893711,-0.0011899108067154884,-0.00124356709420681
1782836034827044000,6.161044189453125,-0.0007775779813528061,-0.0013787290081381798,-0.0008845729753375053
1782836034836973300,6.170973388671875,-0.0013070711866021156,-0.00022778939455747604,-0.002439599484205246
1782836034846903000,6.180903076171875,-0.0005813604220747948,-0.0019465936347842216,0.001390825491398573
1782836034856832000,6.19083203125,0.0014334749430418015,-0.0011447221040725708,0.0013699638657271862
1782836034866762200,6.20076220703125,0.0027866270393133163,-0.00010156165808439255,0.002347076777368784
1782836034876692000,6.21069189453125,0.0001967884600162506,-0.001829441636800766,-0.0004820548929274082
1782836034886621000,6.220620849609375,-0.0011888537555932999,-0.0013508712872862816,0.0009139738976955414
1782836034896551200,6.23055126953125,-0.0009127454832196236,-0.0019804975017905235,-0.0010241912677884102
1782836034906480000,6.240480224609375,0.0002443986013531685,-0.0009509194642305374,-0.0016092881560325623
1782836034916410000,6.25041015625,0.0010702423751354218,0.0009025475010275841,0.0009605120867490768
1782836034926339000,6.260339111328125,0.0008108504116535187,0.0011528842151165009,0.0029235277324914932
1782836034936269000,6.27026904296875,0.00008669402450323105,0.00004494655877351761,-0.0015569371171295643
1782836034946199300,6.28019921875,-0.0005921460688114166,-0.00015692133456468582,-0.0015803729183971882
1782836034956128000,6.2901279296875,-0.00017576105892658234,-0.001279737800359726,0.0008070310577750206
1782836034966058000,6.30005810546875,0.0011808527633547783,-0.000866415910422802,0.0014962563291192055
1782836034975987200,6.3099873046875,0.00008951220661401749,0.0013391897082328796,0.002241140231490135
1782836034985917200,6.319917236328125,-0.0017821574583649635,-0.0012549962848424911,0.0009108912199735641
1782836034995847000,6.329846923828125,0.0009611379355192184,-0.000011628493666648865,0.0003663008101284504
1782836035005776100,6.339776123046875,0.00037790555506944656,-0.0015099234879016876,-0.000007074326276779175
1782836035015706000,6.3497060546875,0.0016947602853178978,-0.001501251943409443,-0.0005398020148277283
1782836035025635000,6.359635009765625,0.00034187454730272293,-0.003824060782790184,-0.00047242408618330956
1782836035035565000,6.36956494140625,-0.00018173083662986755,-0.000007248483598232269,-0.0015303022228181362
1782836035045495000,6.3794951171875,0.0007655555382370949,-0.0016099391505122185,0.00035415077582001686
1782836035055427800,6.389427734375,-0.000642647035419941,0.00030340999364852905,0.002900519408285618
1782836035065357800,6.39935791015625,-0.000041039660573005676,0.00013509858399629593,-0.000008983537554740906
1782836035075286800,6.409286865234375,-0.0012174826115369797,0.0019840169697999954,-0.0010110880248248577
1782836035085217000,6.419217041015625,-0.0010451758280396461,-0.000545186921954155,0.0011945413425564766
1782836035095146000,6.42914599609375,-0.00013942644000053406,-0.0006421860307455063,0.0011790730059146881
1782836035105075700,6.43907568359375,0.0030281366780400276,-0.0011785468086600304,0.000955633819103241
1782836035115006000,6.449005859375,-0.0004944521933794022,0.0012420844286680222,0.0014461791142821312
1782836035124935000,6.458934814453125,0.0008480474352836609,-0.0008698021993041039,0.0008008955046534538
1782836035134865000,6.468864990234375,0.0017459364607930183,-0.0009739948436617851,0.00005742814391851425
1782836035144794000,6.478794189453125,-0.00016408227384090424,-0.000584108754992485,0.00020523369312286377
1782836035154723800,6.488723876953125,-0.0010767057538032532,0.0013284794986248016,-0.002206475008279085
1782836035164653800,6.49865380859375,-0.003048776648938656,0.0000461675226688385,0.0029105227440595627
1782836035174583000,6.5085830078125,0.00019810069352388382,-0.0022613536566495895,0.0009885733015835285
1782836035184512800,6.5185126953125,0.002378697507083416,0.0004675881937146187,-0.0005230368115007877
1782836035194441700,6.528441650390625,-0.0016427617520093918,0.0006448617205023766,0.002523904200643301
1782836035204372000,6.5383720703125,-0.0010347627103328705,0.0013609863817691803,-0.0015155780129134655
1782836035214301000,6.548301025390625,-0.0006584078073501587,0.0010421331971883774,0.0007345397025346756
1782836035224231000,6.55823095703125,0.0014356356114149094,-0.001080140471458435,0.0009878063574433327
1782836035234161000,6.568160888671875,0.003041165880858898,0.0012672441080212593,0.001417743507772684
1782836035244089900,6.57808984375,-0.00014184415340423584,0.0011878814548254013,-0.0008994727395474911
1782836035254020000,6.58802001953125,-0.00046663451939821243,-0.0014904486015439034,0.0007947715930640697
1782836035263948800,6.59794873046875,-0.0014421502128243446,0.0009420830756425858,0.0021873381920158863
1782836035273878800,6.607878662109375,0.0005941139534115791,0.00007703527808189392,0.003268150147050619
1782836035283809000,6.61780908203125,0.0017613768577575684,-0.001625523902475834,0.0002782191149890423
1782836035293738000,6.627738037109375,-0.0004133004695177078,0.00003404822200536728,-0.0008859601803123951
1782836035303667700,6.637667724609375,-0.0003144973888993263,-0.0023412248119711876,-0.00020712055265903473
1782836035313597000,6.647596923828125,0.00041544344276189804,-0.0012303320690989494,-0.0003674095496535301
1782836035323527000,6.65752685546875,-0.0011467663571238518,0.0003523854538798332,-0.0026156501844525337
1782836035333457000,6.667456787109375,-0.0010303445160388947,-0.000011790543794631958,0.0022715129889547825
1782836035343385900,6.6773857421875,-0.00076296366751194,-0.00039848219603300095,0.0015625800006091595
1782836035353315800,6.68731591796875,-0.00019520055502653122,-0.0003292122855782509,0.0025500543415546417
1782836035363244800,6.697244873046875,0.0006170636042952538,-0.0009569199755787849,-0.0010316306725144386
1782836035373174800,6.7071748046875,0.002809218131005764,0.000372529961168766,-0.0008845776319503784
1782836035383103700,6.717103759765625,-0.00022705178707838058,-0.0014520017430186272,0.0006235707551240921
1782836035393034000,6.727033935546875,0.00041132979094982147,-0.000544993206858635,-0.0002705599181354046
1782836035402964000,6.7369638671875,-0.0011772457510232925,0.00008670799434185028,0.0002058800309896469
1782836035412893000,6.746892822265625,0.0019589895382523537,0.0013970592990517616,0.001835061702877283
1782836035422823000,6.756822998046875,-0.0005196146667003632,0.0003142179921269417,-0.00033834343776106834
1782836035432751900,6.766751953125,0.00029680319130420685,0.0023459242656826973,0.0014222380705177784
1782836035442681900,6.776681884765625,0.0005524670705199242,-0.0013231122866272926,0.00009065773338079453
1782836035452611800,6.78661181640625,-0.0009186007082462311,-0.003110162913799286,0.0009147361852228642
1782836035462540800,6.796540771484375,-0.0017340611666440964,-0.0009071957319974899,-0.0013825069181621075
1782836035472471000,6.806470947265625,0.0010993070900440216,-0.0007498068735003471,0.0013323738239705563
1782836035482400000,6.81639990234375,0.00030035898089408875,-0.00010984949767589569,0.001840237993746996
1782836035492329700,6.826329833984375,-0.001224203035235405,0.0003262059763073921,-0.0010141539387404919
1782836035502260000,6.836260009765625,0.0029899831861257553,0.0008484525606036186,-0.000010142102837562561
1782836035512189000,6.84618896484375,-0.000524347648024559,0.0011605899780988693,-0.001661035232245922
1782836035522119000,6.856118896484375,0.0010192198678851128,0.001340087503194809,-0.0002919039689004421
1782836035532048000,6.8660478515625,-0.0008104024454951286,0.00003725755959749222,0.0000619199126958847
1782836035541977900,6.875977783203125,-0.0009757848456501961,0.0025853700935840607,0.001574595458805561
1782836035551907800,6.885907958984375,0.0007279356941580772,0.0007099239155650139,-0.0007433472201228142
1782836035561837000,6.895837158203125,-0.0003357306122779846,0.001142420805990696,-0.0011161896400153637
1782836035571766800,6.905766845703125,0.0008899038657546043,0.0009926343336701393,-0.0001862039789557457
1782836035581695700,6.91569580078125,0.0022579701617360115,0.0031495289877057076,0.0005552200600504875
1782836035591626000,6.9256259765625,-0.0020205900073051453,0.00018276367336511612,-0.0001528472639620304
1782836035601555000,6.935554931640625,-0.0004112422466278076,0.0007976880297064781,-0.0015107933431863785
1782836035611485000,6.94548486328125,0.0012321537360548973,0.00014310982078313828,0.00017379503697156906
1782836035621415000,6.955414794921875,-0.0023316890001296997,0.00010902155190706253,-0.00239189388230443
1782836035631343900,6.96534375,0.000591496005654335,-0.0020833956077694893,0.001410746481269598
1782836035641273900,6.97527392578125,0.000202142633497715,-0.003357185982167721,0.0011143372394144535
1782836035651202800,6.985202880859375,-0.0016393382102251053,-0.002548116259276867,0.0035483520478010178
1782836035661132800,6.9951328125,-0.000380195677280426,0.00022716447710990906,-0.0010570520535111427
1782836035671063000,7.00506298828125,-0.0005823103711009026,-0.00020993035286664963,-0.0009903442114591599
1782836035680992000,7.014991943359375,0.0022720657289028168,0.0007285671308636665,-0.0003261519595980644
1782836035690921700,7.024921630859375,0.0018913168460130692,-0.0010495977476239204,-0.0012618000619113445
1782836035700851000,7.034850830078125,-0.0005223061889410019,-0.0025859754532575607,0.0008021499961614609
1782836035710781000,7.044781005859375,0.0003228820860385895,-0.0012360457330942154,0.0010087941773235798
1782836035720711000,7.0547109375,0.00015137530863285065,0.0006859581917524338,-0.0003656628541648388
1782836035730640000,7.064639892578125,-0.0005326084792613983,0.0007901070639491081,0.0006553200073540211
1782836035740569900,7.07456982421875,0.0014154938980937004,0.0004489561542868614,0.0029203384183347225
1782836035750498800,7.084498779296875,0.0018854765221476555,0.0008666319772601128,0.0016236146911978722
1782836035760428800,7.0944287109375,0.0016990555450320244,0.001379823312163353,-0.00035564694553613663
1782836035770358800,7.10435888671875,-0.0003981068730354309,0.000045163556933403015,0.002090378664433956
1782836035780288000,7.1142880859375,-0.0005821315571665764,-0.0015460755676031113,-0.000021774321794509888
1782836035790218000,7.124218017578125,-0.0004520723596215248,0.00007065106183290482,-0.0018108752556145191
1782836035800147000,7.13414697265625,0.0007799062877893448,-0.001594623550772667,-0.0005258996970951557
1782836035810077000,7.144076904296875,0.0011795470491051674,-0.0009305449202656746,-0.0006652218289673328
1782836035820006000,7.154005859375,0.001905791461467743,-0.0028506843373179436,0.0014522578567266464
1782836035829935900,7.163935791015625,-0.00035661086440086365,-0.0039041442796587944,-0.00006288010627031326
1782836035839865900,7.173865966796875,0.0011723097413778305,-0.00011047068983316422,0.000036189332604408264
1782836035849794800,7.183794921875,0.0016978569328784943,0.001043081283569336,-0.0001598438248038292
1782836035859725000,7.19372509765625,0.0013380637392401695,0.0023104799911379814,0.00016373023390769958
1782836035869654000,7.203654052734375,0.00022125151008367538,0.00229583028703928,-0.003468732815235853
1782836035879583700,7.213583740234375,-0.0000035194680094718933,0.0006691720336675644,0.0000026980414986610413
1782836035889514000,7.223513916015625,-0.0006384309381246567,0.002563146874308586,0.0025109671987593174
1782836035899443000,7.23344287109375,0.0010353662073612213,-0.000044354237616062164,0.000028102193027734756
1782836035909373000,7.243373046875,-0.0016581853851675987,0.0005735019221901894,0.001354312989860773
1782836035919302000,7.253302001953125,-0.001791875809431076,-0.000872327946126461,-0.0016015288420021534
1782836035929232000,7.26323193359375,0.0015566693618893623,0.0012659411877393723,0.0008625024929642677
1782836035939161900,7.273161865234375,-0.0008247299119830132,-0.0007290327921509743,0.0005469182506203651
1782836035949091000,7.283091064453125,0.0010398151353001595,-0.0015818309038877487,-0.0001101871021091938
1782836035959020800,7.293020751953125,-0.0010670116171240807,-0.0006934003904461861,-0.0016830498352646828
1782836035968949800,7.30294970703125,0.0017918990924954414,-0.002470693551003933,0.00038591818884015083
1782836035978880000,7.3128798828125,-0.000028371810913085938,-0.002163630910217762,0.0007901866920292377
1782836035988809700,7.322809814453125,-0.00229006540030241,-0.0013578170910477638,0.0013874294236302376
1782836035998739000,7.332739013671875,0.0002657705917954445,-0.00022304430603981018,-0.0005478896200656891
1782836036008669000,7.3426689453125,0.00005520135164260864,0.0007475493475794792,0.0016671987250447273
1782836036018598000,7.352597900390625,-0.00021218042820692062,-0.0038469359278678894,-0.001181052066385746
1782836036028527900,7.36252783203125,-0.000418798066675663,0.00022185221314430237,0.00013608066365122795
1782836036038457900,7.372457763671875,-0.001858237199485302,0.00014035962522029877,-0.0027329428121447563
1782836036048386800,7.38238671875,-0.000885828398168087,0.0005902638658881187,0.0010406794026494026
1782836036058313000,7.39231298828125,0.0021914541721343994,0.0016531310975551605,-0.002287473063915968
1782836036068242000,7.402241943359375,0.000002864748239517212,0.0013441164046525955,-0.0013264324516057968
1782836036078172000,7.412171875,0.0003155199810862541,0.0005957679823040962,-0.0017237761057913303
1782836036088102000,7.422101806640625,-0.00015664752572774887,-0.0006733732298016548,0.001126682385802269
1782836036098030800,7.43203076171875,-0.0004884777590632439,0.000585237517952919,0.0009373323991894722
1782836036107960800,7.4419609375,-0.001585748977959156,0.00011048559099435806,0.00042286980897188187
1782836036117889800,7.451889892578125,0.0006161518394947052,-0.0008503822609782219,-0.00034598493948578835
1782836036127819800,7.46181982421875,-0.001405026763677597,0.0009102998301386833,0.000873868353664875
1782836036137749000,7.4717490234375,0.00018461421132087708,-0.00034591276198625565,-0.0038114304188638926
1782836036147679000,7.481678955078125,-0.000780198723077774,-0.0004081837832927704,-0.0015737037174403667
1782836036157609000,7.49160888671875,0.000024075619876384735,-0.00014186836779117584,-0.00013186829164624214
1782836036167538000,7.501537841796875,0.00048265233635902405,-0.0018757451325654984,0.0013428768143057823
1782836036177468000,7.511468017578125,-0.0016382895410060883,0.0011040661484003067,0.0007170336320996284
1782836036187397000,7.521397216796875,0.0009179702028632164,0.0010848361998796463,0.0021906131878495216
1782836036197326800,7.531326904296875,0.0006780186668038368,-0.00018442608416080475,-0.0015327520668506622
1782836036207256800,7.5412568359375,0.0007152855396270752,0.000431121326982975,-0.0007892758585512638
1782836036217186000,7.55118603515625,-0.0004647606983780861,0.0008694780990481377,0.0008498998358845711
1782836036227115800,7.56111572265625,0.0025821588933467865,-0.0005034897476434708,-0.0016917651519179344
1782836036237044700,7.571044677734375,0.0010119592770934105,0.0004254216328263283,0.0019799349829554558
1782836036246975000,7.58097509765625,-0.0002885637804865837,0.00027825217694044113,0.00034902896732091904
1782836036256905000,7.590905029296875,-0.0010877782478928566,-0.0017047375440597534,-0.0013511329889297485
1782836036266833700,7.600833740234375,0.0015743179246783257,0.0031384890899062157,-0.0006171301938593388
1782836036276764000,7.610763916015625,0.00004273373633623123,-0.00033773574978113174,-0.0021186205558478832
1782836036286692900,7.62069287109375,0.0009495504200458527,-0.0022627459838986397,-0.0016824831254780293
1782836036296623000,7.630623046875,0.00006644614040851593,-0.0007202429696917534,0.0013892073184251785
1782836036306552800,7.640552734375,0.00027196481823921204,-0.0009176228195428848,-0.000564836896955967
1782836036316481800,7.650481689453125,-0.00019249040633440018,0.0001029008999466896,-0.0045989928767085075
1782836036326412000,7.660412109375,0.0011762585490942001,0.001925337128341198,-0.0005818190984427929
1782836036336341000,7.670341064453125,0.00007557496428489685,0.0002139899879693985,0.0013529672287404537
1782836036346270700,7.680270751953125,0.0003723353147506714,0.00012569408863782883,-0.0006365380249917507
1782836036356201000,7.690200927734375,-0.0022809719666838646,-0.0005534123629331589,0.0038253222592175007
1782836036366130000,7.7001298828125,0.000490785576403141,0.0007585259154438972,0.0022585573606193066
1782836036376060000,7.710059814453125,-0.0005033724009990692,0.0006115194410085678,-0.001680524554103613
1782836036385988900,7.71998876953125,-0.0018094908446073532,0.0002360353246331215,-0.0009006047621369362
1782836036395918800,7.7299189453125,0.00004406925290822983,-0.0004268251359462738,0.0010046204552054405
1782836036405849000,7.73984912109375,0.000905933789908886,-0.0008035609498620033,-0.0005732518620789051
1782836036415778000,7.749778076171875,-0.0010110093280673027,-0.002624097280204296,-0.0002360958606004715
1782836036425707800,7.759707763671875,0.00009296182543039322,-0.000628066249191761,0.0005089910700917244
1782836036435637000,7.769636962890625,-0.0010966723784804344,0.0018707774579524994,0.0015433626249432564
1782836036445567000,7.77956689453125,-0.001034848392009735,-0.00023485906422138214,0.0016289534978568554
1782836036455496700,7.78949658203125,0.0007582586258649826,0.0012381356209516525,-0.002333031501621008
1782836036465426000,7.799426025390625,0.0006991298869252205,-0.0010800259187817574,0.0007069427520036697
1782836036475356000,7.80935595703125,-0.0011355215683579445,-0.0015929508954286575,-0.0014885668642818928
1782836036485284900,7.819284912109375,0.00046906527131795883,-0.0017882417887449265,0.00004889536648988724
1782836036495214800,7.82921484375,-0.0004017883911728859,-0.0007530711591243744,0.001220952719449997
1782836036505144800,7.839144775390625,0.0007047150284051895,0.0014274949207901955,-0.0006451471708714962
1782836036515073800,7.84907373046875,0.000016820617020130157,0.0012892773374915123,0.0009128022938966751
1782836036525004000,7.859004150390625,-0.0012006228789687157,-0.0024863937869668007,0.0015573729760944843
1782836036534932700,7.8689326171875,-0.000515391118824482,-0.0009489506483078003,0.0023608491756021976
1782836036544863000,7.878863037109375,-0.000018629245460033417,-0.0022026551887392998,0.0012231585569679737
1782836036554793000,7.88879296875,-0.002242368645966053,0.003401700407266617,0.0000969073735177517
1782836036564722000,7.898721923828125,0.0025023911148309708,-0.0008852519094944,0.0011633485555648804
1782836036574652000,7.90865185546875,-0.000492599792778492,0.0014090612530708313,-0.0008915462531149387
1782836036584580900,7.918580810546875,0.002811690792441368,0.0009593004360795021,0.0006612259894609451
1782836036594510800,7.9285107421875,0.00021777208894491196,-0.0008596386760473251,-0.00029884418472647667
1782836036604440800,7.93844091796875,-0.0003632698208093643,0.0012519452720880508,0.0014115232042968273
1782836036614369800,7.948369873046875,0.0004790881648659706,0.0007432810962200165,-0.00032832007855176926
1782836036624300000,7.958300048828125,-0.0006765769794583321,-0.000680774450302124,-0.00006400328129529953
1782836036634229000,7.96822900390625,-0.0002880217507481575,0.0009821029379963875,0.0007056505419313908
1782836036644158700,7.97815869140625,0.0009019374847412109,-0.0018912795931100845,0.00032542645931243896
1782836036654089000,7.9880888671875,-0.0017801318317651749,-0.0023714471608400345,-0.0032690423540771008
1782836036664018000,7.998017822265625,-0.0006139427423477173,-0.00017580203711986542,-0.0002589737996459007
1782836036673948000,8.007947998046875,0.00014985166490077972,-0.001724429428577423,0.00015408219769597054
1782836036683876900,8.017876953125,-0.0009161736816167831,-0.0013202056288719177,0.00128177460283041
1782836036693806800,8.027806884765624,0.0008159466087818146,-0.0026930654421448708,-0.0012809853069484234
1782836036703736800,8.03773681640625,0.0014265216886997223,-0.0013058064505457878,0.0005069104954600334
1782836036713666000,8.047666015625,-0.00034847576171159744,0.0006537474691867828,0.0013058586046099663
1782836036723595800,8.057595703125,-0.0007614977657794952,-0.002927909605205059,0.0006935121491551399
1782836036733524700,8.067524658203125,0.0005362611263990402,0.0026737842708826065,0.0006687445566058159
1782836036743455000,8.077455078125,-0.0005659684538841248,-0.00016442686319351196,0.0014737648889422417
1782836036753384700,8.087384765625,0.00046440865844488144,0.0012712832540273666,0.000011956319212913513
1782836036763314000,8.09731396484375,-0.0011931676417589188,0.001382916234433651,-0.0003215959295630455
1782836036773244000,8.107243896484375,0.0013546785339713097,-0.000802207738161087,-0.0003916369751095772
1782836036783172900,8.1171728515625,-0.00017416011542081833,-0.0008058538660407066,-0.0007439935579895973
1782836036793103000,8.12710302734375,-0.00019067153334617615,-0.0005949307233095169,-0.00010723201557993889
1782836036803032800,8.13703271484375,0.0012982133775949478,-0.0025111911818385124,0.0008880989626049995
1782836036812961800,8.1469619140625,-0.00016119889914989471,-0.0013220896944403648,-0.0001958077773451805
1782836036822892000,8.15689208984375,-0.0011618807911872864,-0.0020939381793141365,0.0032593565993010998
1782836036832821000,8.166821044921875,-0.001170402392745018,-0.0018824832513928413,-0.0012797354720532894
1782836036842750700,8.176750732421874,0.0007829666137695312,-0.00032611191272735596,0.002060040831565857
1782836036852681000,8.186680908203124,0.00009054504334926605,-0.0010145390406250954,-0.0005767545662820339
1782836036862610000,8.19660986328125,-0.00013758335262537003,-0.0007832637056708336,0.0026788273826241493
1782836036872540000,8.206539794921875,0.0025780415162444115,-0.00023119058459997177,-0.0013798298314213753
1782836036882468900,8.21646875,-0.0009676599875092506,-0.0018281061202287674,-0.001669325865805149
1782836036892398800,8.22639892578125,-0.00099216029047966,-0.0002184910699725151,-0.0013390937820076942
1782836036902329000,8.2363291015625,0.0007401490584015846,0.002066178247332573,-0.0014194385148584843
1782836036912257800,8.2462578125,0.00019393488764762878,0.002241147682070732,0.0005185436457395554
1782836036922187800,8.256187744140625,-0.002015015110373497,0.00046821217983961105,-0.00045516109094023705
1782836036932117000,8.266116943359375,0.00041804928332567215,0.0014855396002531052,-0.0003172094002366066
1782836036942047000,8.276046875,0.001438826322555542,-0.00012206099927425385,0.0014669271185994148
1782836036951976700,8.285976806640624,0.0018598726019263268,-0.00014150235801935196,0.0005936771631240845
1782836036961906000,8.295906005859376,0.00023694150149822235,0.0006718272343277931,-0.0013546915724873543
1782836036971836000,8.3058359375,-0.0005449336022138596,-0.0016974778845906258,-0.0002964325249195099
1782836036981766000,8.315765869140625,-0.00016591418534517288,-0.001355919986963272,-0.0016615204513072968
1782836036991694800,8.32569482421875,0.00021624937653541565,0.0012601036578416824,-0.00017254706472158432
1782836037001624800,8.335624755859374,-0.0014407187700271606,-0.0020719049498438835,-0.00023053446784615517
1782836037011554000,8.345553955078126,0.0010099224746227264,-0.0006511081010103226,-0.0003999117761850357
1782836037021483800,8.35548388671875,0.00015463866293430328,-0.0007486287504434586,0.0005272091366350651
1782836037031413800,8.365413818359375,-0.0007071606814861298,0.0007752319797873497,0.00040283938869833946
1782836037041343000,8.375343017578125,0.0007993318140506744,0.0011022593826055527,-0.00007766252383589745
1782836037051273000,8.38527294921875,0.0028941743075847626,0.002126511186361313,-0.00003265542909502983
1782836037061202200,8.3952021484375,-0.0002679750323295593,-0.0003186604008078575,-0.00043443217873573303
1782836037071132000,8.4051318359375,-0.0009255092591047287,0.0008874852210283279,-0.0010578781366348267
1782836037081062100,8.415062255859375,-0.002238333225250244,0.0013602916151285172,-0.0012798127718269825
1782836037090991000,8.4249912109375,0.00033454690128564835,-0.0004527885466814041,0.0008523142896592617
1782836037100920800,8.4349208984375,0.0010327007621526718,-0.0018249107524752617,-0.0004239981062710285
1782836037110850000,8.44485009765625,-0.0019484423100948334,0.0005572875961661339,0.0013757660053670406
1782836037120780000,8.454780029296876,0.00146502535790205,-0.0018383357673883438,-0.0011439565569162369
1782836037130710000,8.4647099609375,-0.0019230479374527931,-0.0008526993915438652,-0.0003814934752881527
1782836037140639000,8.474638916015625,0.0007707234472036362,0.0005205534398555756,-0.00026323599740862846
1782836037150569000,8.48456884765625,0.0033201677724719048,-0.0002658786252140999,-0.000408112071454525
1782836037160498000,8.494497802734376,-0.00148050207644701,-0.0018370924517512321,0.0002943640574812889
1782836037170428200,8.50442822265625,0.0018844017758965492,-0.0022445563226938248,0.0003601443022489548
1782836037180358000,8.51435791015625,0.0004301397129893303,-0.0009521618485450745,0.0006856294348835945
1782836037190287000,8.524287109375,-0.0010559037327766418,-0.000787045806646347,0.001234239898622036
1782836037200217000,8.534217041015625,0.0003822222352027893,0.002301032654941082,0.0012978101149201393
1782836037210146000,8.54414599609375,-0.0006971573457121849,-0.001271064393222332,0.0013281702995300293
1782836037220076000,8.554075927734376,0.0007736915722489357,0.0016216868534684181,0.0008790139108896255
1782836037230006000,8.564006103515625,0.002479179762303829,0.0008789310231804848,0.0008590398356318474
1782836037239935000,8.57393505859375,0.0005036573857069016,0.002315012738108635,-0.0015252740122377872
1782836037249865000,8.583864990234375,0.0002426672726869583,-0.0005942247807979584,0.000049985479563474655
1782836037259794000,8.5937939453125,-0.001844894140958786,0.0014466717839241028,-0.00035241618752479553
1782836037269724200,8.60372412109375,-0.00023128464818000793,0.001573970541357994,0.0005378779023885727
1782836037279654100,8.613654052734375,0.002670804038643837,-0.002954629249870777,0.0014378069899976254
1782836037289582800,8.623582763671875,-0.0006988933309912682,0.0012070918455719948,-0.00014570867642760277
1782836037299513000,8.63351318359375,0.00129704549908638,0.000028283335268497467,0.00048078037798404694
1782836037309443000,8.643443115234374,0.0013359272852540016,-0.0029533924534916878,0.0012379176914691925
1782836037319372000,8.6533720703125,-0.0004139179363846779,-0.0023859823122620583,-0.0002456754446029663
1782836037329302000,8.663302001953125,-0.0010149935260415077,-0.00025971513241529465,0.0003828303888440132
1782836037339231000,8.67323095703125,-0.0011307168751955032,-0.0005807001143693924,0.002210722304880619
1782836037349161000,8.683160888671875,-0.0012284545227885246,-0.0023556966334581375,0.00011428166180849075
1782836037359091000,8.693091064453125,0.0029843533411622047,-0.0004604002460837364,-0.0006523509509861469
1782836037369020000,8.70302001953125,-0.001659933477640152,0.0008136555552482605,0.0008712434209883213
1782836037378950100,8.7129501953125,0.0010958723723888397,-0.00011762604117393494,0.00034294696524739265
1782836037388879000,8.722879150390625,-0.0001709936186671257,0.002010505646467209,0.00022337166592478752
1782836037398808800,8.732808837890625,-0.002122354693710804,-0.00017347000539302826,-0.0012770723551511765
1782836037408739000,8.742739013671875,-0.00017691589891910553,0.00046515557914972305,-0.00017399108037352562
1782836037418668000,8.75266796875,0.0010438943281769753,0.0011389581486582756,-0.0006826622411608696
1782836037428598000,8.762597900390626,-0.00017583370208740234,0.0006936779245734215,0.000509635079652071
1782836037438527200,8.77252734375,0.0006633829325437546,-0.00030847545713186264,-0.0004323837347328663
1782836037448457000,8.78245703125,-0.001536121591925621,-0.0013684136793017387,0.001349803525954485
1782836037458387000,8.792386962890625,-0.00014876388013362885,-0.0022561196237802505,-0.0008148751221597195
1782836037468316200,8.802316162109374,0.002041952684521675,0.00019558705389499664,0.001285294070839882
1782836037478246000,8.812245849609376,-0.003100840374827385,-0.0017575286328792572,0.00006027286872267723
1782836037488174800,8.8221748046875,-0.0008209086954593658,-0.0010355450212955475,0.0016073030419647694
1782836037498105000,8.83210498046875,0.0006618145853281021,0.0014634579420089722,-0.0016319085843861103
1782836037508035000,8.84203515625,0.00011879578232765198,-0.0007448354735970497,-0.0002979310229420662
1782836037517964000,8.851964111328124,-0.0006204470992088318,-0.0000068694353103637695,0.00007033441215753555
1782836037527894000,8.86189404296875,-0.0014249878004193306,-0.000639103353023529,0.003478115424513817
1782836037537824000,8.871823974609375,-0.00003402493894100189,0.001221945509314537,0.0003553442656993866
1782836037547753200,8.881753173828125,0.0009063370525836945,0.0007966393604874611,-0.0011986098252236843
1782836037557683000,8.891682861328125,-0.0013286732137203217,-0.001337842084467411,0.0024626879021525383
1782836037567612000,8.90161181640625,0.0001389952376484871,0.0010166587308049202,-0.0005658585578203201
1782836037577542100,8.911542236328126,-0.00019253697246313095,-0.0017899097874760628,-0.0035422351211309433
1782836037587472000,8.921471923828125,-0.00019546598196029663,0.000398942269384861,-0.0005930503830313683
1782836037597400800,8.93140087890625,0.00039055757224559784,-0.0024977168068289757,-0.00005376804620027542
1782836037607331000,8.9413310546875,0.0008630026131868362,0.0013433601707220078,-0.0004748138599097729
1782836037617260000,8.951260009765624,-0.0005474677309393883,0.0015573613345623016,0.0028864885680377483
1782836037627190000,8.96118994140625,0.0016855932772159576,-0.0007872860878705978,-0.00034738797694444656
1782836037637120000,8.9711201171875,-0.0010170452296733856,0.0002969931811094284,-0.0019996189512312412
1782836037647049000,8.981049072265625,0.002406981773674488,-0.0016077002510428429,0.00041959621012210846
1782836037656979200,8.990979248046875,-0.0003285808488726616,-0.002374541014432907,0.0007798606529831886
1782836037666908000,9.000907958984374,-0.00125136598944664,0.0005959486588835716,0.0004727989435195923
1782836037676838000,9.010837890625,0.0027022287249565125,-0.001980855129659176,-0.0012595425359904766
1782836037686768000,9.02076806640625,0.0003402708098292351,-0.00011531077325344086,0.0016478300094604492
1782836037696697000,9.030697021484375,0.0007244525477290154,-0.0025012288242578506,0.0012446865439414978
1782836037706627000,9.040626953125,-0.0008042026311159134,0.0009409068152308464,-0.0011255266144871712
1782836037716557000,9.05055712890625,-0.0005939416587352753,0.00036446284502744675,-0.000979771837592125
1782836037726486000,9.060486083984374,-0.0016972888261079788,-0.00006989855319261551,-0.0004018661566078663
1782836037736416000,9.070416015625,-0.00009744986891746521,0.001230018213391304,-0.0011683986522257328
1782836037746345000,9.080344970703125,-0.0007419353350996971,-0.00010076258331537247,-0.0017622835002839565
1782836037756275000,9.09027490234375,0.0012254314497113228,0.001003236509859562,-0.0017183502204716206
1782836037766205200,9.100205078125,-0.00047739315778017044,-0.0025723231956362724,0.0009586592204868793
1782836037776134000,9.1101337890625,0.000014874152839183807,-0.0016889404505491257,0.0018920102156698704
1782836037786064000,9.12006396484375,0.0003307247534394264,0.0000844588503241539,0.00011701276525855064
1782836037795993000,9.1299931640625,-0.002926178276538849,-0.00009220745414495468,0.0005528489127755165
1782836037805923000,9.139923095703125,0.0009660320356488228,0.0011869082227349281,-0.0027041975408792496
1782836037815853000,9.14985302734375,-0.00009621679782867432,-0.00045497529208660126,-0.0013357414864003658
1782836037825782000,9.159781982421874,-0.0023306086659431458,-0.00020304042845964432,0.0006030402146279812
1782836037835712000,9.1697119140625,-0.0002668648958206177,-0.0009274417534470558,0.0011674868874251842
1782836037845641000,9.179640869140625,-0.0006445012986660004,-0.0026209456846117973,0.0017573772929608822
1782836037855571000,9.189571044921875,0.000356452539563179,-0.0009817583486437798,0.0007467637769877911
1782836037865501000,9.1995009765625,-0.0011125477030873299,-0.000011302530765533447,-0.0008221045136451721
1782836037875430100,9.20943017578125,-0.0015153838321566582,0.00043984223157167435,0.0009460248984396458
1782836037885360000,9.219360107421876,0.000507020391523838,0.0016073724254965782,0.0015612146817147732
1782836037895289900,9.229289794921876,0.0015357248485088348,0.0006580259650945663,0.000016270671039819717
1782836037905219000,9.239218994140625,-0.000954863615334034,0.0001951688900589943,-0.0005842722021043301
1782836037915149000,9.249149169921875,0.00045605283230543137,-0.0004131486639380455,0.002389698289334774
1782836037925078000,9.259078125,-0.0009812545031309128,0.0028162002563476562,-0.0015358012169599533
1782836037935008000,9.269008056640626,-0.0014584315940737724,-0.00007170159369707108,-0.002510386984795332
1782836037944938000,9.27893798828125,0.0020484188571572304,-0.0008211145177483559,0.0010822173207998276
1782836037954867200,9.2888671875,-0.0023051323369145393,0.0010800324380397797,0.000036685727536678314
1782836037964797000,9.298796875,-0.0004941830411553383,-0.000554082915186882,-0.0002597239799797535
1782836037974726000,9.308725830078124,0.000028541311621665955,-0.0008626701310276985,-0.0016451911069452763
1782836037984656100,9.31865625,-0.0018103718757629395,-0.00038436707109212875,-0.0008161491714417934
1782836037994583000,9.3285830078125,0.0013163769617676735,-0.002011585980653763,0.0003741406835615635
1782836038004513000,9.338512939453125,0.0010508596897125244,-0.0018248986452817917,0.00016614748165011406
1782836038014443000,9.348443115234375,-0.0009270310401916504,-0.0007374584674835205,0.0020423736423254013
1782836038024372200,9.358372314453124,-0.0022450294345617294,-0.002487155608832836,-0.0017648818902671337
1782836038034302000,9.368302001953126,-0.0003748396411538124,-0.0007708994671702385,0.003045042045414448
1782836038044231000,9.37823095703125,0.0002105236053466797,-0.0002800785005092621,-0.0006663389503955841
1782836038054161200,9.3881611328125,-0.00005304720252752304,0.00017969124019145966,-0.0009373552165925503
1782836038064091100,9.398091064453125,0.0026740292087197304,0.0009810365736484528,-0.0015805084258317947
1782836038074020000,9.40802001953125,0.0000036032870411872864,-0.00048165395855903625,-0.00025509437546133995
1782836038083950300,9.417950439453126,-0.00007762294262647629,0.0012501999735832214,0.002162523102015257
1782836038093879300,9.42787939453125,-0.000013726763427257538,-0.00037263892590999603,-0.001386761199682951
1782836038103809000,9.43780908203125,0.0015026768669486046,0.0017190081998705864,-0.0014030062593519688
1782836038113739300,9.4477392578125,0.0008230730891227722,-0.00013093184679746628,-0.0002106921747326851
1782836038123668200,9.457668212890624,0.0003474326804280281,-0.0002779383212327957,-3.585591912269592e-8
1782836038133598200,9.46759814453125,0.0008208071812987328,-0.0015903385356068611,-0.002780540846288204
1782836038143528200,9.477528076171875,0.0014570364728569984,-0.0012563783675432205,-0.00020925840362906456
1782836038153457200,9.48745703125,-0.0012031858786940575,0.0011195782572031021,0.004002873785793781
1782836038163387400,9.497387451171875,0.0013281488791108131,-0.0006998926401138306,-0.0015162606723606586
1782836038173316400,9.50731640625,0.0002009877935051918,0.00132822897285223,0.00006324658170342445
1782836038183246000,9.51724609375,0.0008952738717198372,-0.0017272159457206726,0.00007017096504569054
1782836038193176300,9.52717626953125,0.0004409719258546829,0.001104426570236683,-0.0017767860554158688
1782836038203105300,9.537105224609375,-0.0012176446616649628,-0.001302005723118782,0.0011665397323668003
1782836038213035000,9.547034912109375,0.0013308702036738396,0.001033843494951725,0.000394351314753294
1782836038222964200,9.556964111328124,-0.0017994092777371407,0.0006351685151457787,0.001476926263421774
1782836038232894200,9.566894287109376,-0.0021005691960453987,0.0017823027446866035,-0.0006162715144455433
1782836038242824200,9.57682421875,-0.0008813738822937012,0.002657683566212654,0.001377370674163103
1782836038252753200,9.586753173828125,0.0004914784803986549,0.0016303984448313713,-0.000325892586261034
1782836038262683100,9.59668310546875,-0.000529843382537365,-0.0006026625633239746,-0.0013405568897724152
1782836038272613400,9.60661328125,-0.001081046648323536,-0.0000443020835518837,-0.0002110847271978855
1782836038282542300,9.616542236328126,0.0010936902835965157,0.00013679265975952148,-0.0017682346515357494
1782836038292472000,9.62647216796875,-0.00004889443516731262,0.00007913447916507721,0.0019930079579353333
1782836038302401300,9.6364013671875,-0.0013594357296824455,0.0001350603997707367,0.0021032625809311867
1782836038312331300,9.646331298828125,-0.0011159908026456833,-0.0009458223357796669,-0.00005245395004749298
1782836038322261200,9.65626123046875,-0.00014633405953645706,0.0007732482627034187,0.0012884479947388172
1782836038332190200,9.666190185546874,0.0024081123992800713,0.0024228906258940697,0.004600206855684519
1782836038342120200,9.6761201171875,0.0024222275242209435,0.036059681326150894,0.005264931824058294
1782836038352050400,9.686050537109375,0.009167875163257122,-0.019198156893253326,-0.009438510052859783
1782836038361979100,9.695979248046875,0.003883897326886654,0.015835992991924286,0.011294998228549957
1782836038371909000,9.7059091796875,0.005213909316807985,-0.00481751374900341,-0.006584434770047665
1782836038381838300,9.71583837890625,0.006658940576016903,0.00692223384976387,-0.0010325424373149872
1782836038391768300,9.725768310546876,0.0037224125117063522,-0.00275317020714283,0.005290804896503687
1782836038401698000,9.735697998046875,0.004591668490320444,0.0014154762029647827,-0.004654770717024803
1782836038411627300,9.745627197265625,-0.0008169608190655708,-0.0006021270528435707,-0.0022061048075556755
1782836038421557200,9.75555712890625,0.00025203172117471695,-0.0010713757947087288,0.001037092413753271
1782836038431486200,9.765486328125,-0.002131621353328228,0.00038949865847826004,-0.002182761672884226
1782836038441416200,9.775416259765626,0.0005190223455429077,0.00017990823835134506,-0.000800048466771841
1782836038451346200,9.78534619140625,0.0004990212619304657,0.0010606441646814346,0.002418667543679476
1782836038461275400,9.795275390625,-0.00042696017771959305,0.003485984168946743,-0.002794736996293068
1782836038471205000,9.805205078125,0.0006366493180394173,0.0031944243237376213,0.001267154235392809
1782836038481135000,9.815135009765624,-0.002874462865293026,0.0012599043548107147,0.0030152532272040844
1782836038491064300,9.825064208984376,-0.0016335844993591309,0.0035839276388287544,-0.0002490314655005932
1782836038500994300,9.834994384765626,-0.00023329444229602814,-0.003567725419998169,0.0033579538576304913
1782836038510923300,9.84492333984375,-0.00011136289685964584,0.0018190965056419373,0.0012281066738069057
1782836038520853200,9.854853271484375,0.0014351345598697662,0.0014190897345542908,-0.0034681116230785847
1782836038530783200,9.864783203125,-0.000043773092329502106,0.002119290642440319,0.0009002774022519588
1782836038540712200,9.874712158203126,-0.0008144918829202652,0.005235987715423107,0.0016438323073089123
1782836038550642200,9.88464208984375,0.0010413946583867073,0.001877947710454464,0.00139341177418828
1782836038560572200,9.894572265625,0.0011335397139191628,-0.0006914697587490082,-0.00003910250961780548
1782836038570501400,9.90450146484375,0.0005617178976535797,0.002492913044989109,0.000023892614990472794
1782836038580431000,9.91443115234375,0.0016070092096924782,-0.0035077212378382683,0.00010085804387927055
1782836038590360000,9.924360107421874,-0.0019298940896987915,0.00012612063437700272,-0.0011176830157637596
1782836038600290300,9.934290283203126,0.001142062246799469,-0.0025783199816942215,0.000025345943868160248
1782836038610220300,9.94422021484375,-0.001068740151822567,-0.001194964163005352,-0.00034212833270430565
1782836038620149200,9.954149169921875,0.001392553560435772,0.002601638436317444,0.0012629586271941662
1782836038630079200,9.964079345703125,0.0018245447427034378,-0.002197675406932831,-0.0019272309727966785
1782836038640009200,9.97400927734375,-0.00017974991351366043,0.0033401008695364,0.0008834688924252987
1782836038649938200,9.983938232421876,0.001753426156938076,0.0005858801305294037,0.00015549128875136375
1782836038659868200,9.9938681640625,0.00016138795763254166,0.00251906830817461,0.0006979773752391338
1782836038669797000,10.003797119140625,0.00044132769107818604,0.0009019514545798302,0.00035215215757489204
1782836038679727400,10.013727294921875,0.0015683770179748535,0.0060450490564107895,0.0011678780429065228
1782836038689657000,10.023656982421874,0.00406905822455883,0.0024504782631993294,-0.0002459893003106117
1782836038699586000,10.0335859375,0.007190283387899399,0.03980663791298866,0.026600273326039314
1782836038709516300,10.043516357421876,-0.014575171284377575,0.2506144344806671,0.09437956660985947
1782836038719445200,10.0534453125,0.007067007012665272,-0.16443653404712677,-0.06390567868947983
1782836038729375200,10.063375244140625,0.0024068960919976234,0.11685717105865479,0.06173885613679886
1782836038739305200,10.07330517578125,-0.002680807374417782,0.01135444175451994,0.0009157215245068073
1782836038749234200,10.083234130859376,0.0009529497474431992,-0.05101586878299713,-0.03159914165735245
1782836038759164400,10.093164306640626,0.0017851879820227623,0.004050048068165779,0.009517136961221695
1782836038769094100,10.10309423828125,0.0010613268241286278,-0.059578049927949905,-0.0379791334271431
1782836038779023000,10.113023193359375,0.0005758320912718773,-0.09298527240753174,-0.05247871205210686
1782836038788953300,10.122953369140625,0.0017470484599471092,-0.033048659563064575,-0.00045691151171922684
1782836038798882300,10.13288232421875,-0.00426423829048872,0.016237130388617516,-0.00047342339530587196
1782836038808812000,10.14281201171875,-0.0019573401659727097,-0.022501952946186066,-0.011684153228998184
1782836038818742300,10.1527421875,-0.005419716238975525,-0.008560304529964924,0.012424645945429802
