time,seconds_elapsed,z,y,x
1782831039544307200,0.08330712890625,0.0824573339343071,-0.20517828919589517,0.04439443752169609
1782831039554236200,0.093236083984375,0.08733400005996227,-0.10813932607099414,0.011104436333011836
1782831039564166100,0.103166259765625,0.09562895019650458,-0.07771788432225585,0.03587483005011454
1782831039574095000,0.11309521484375,0.10205869098305702,-0.06944412310421466,0.07742715774737298
1782831039584025000,0.123025146484375,0.01995265470445156,-0.11841682832688093,0.1346049245997332
1782831039593954000,0.1329541015625,-0.014228431838750838,-0.18286928062364458,0.20642755860462783
1782831039603883000,0.142883056640625,-0.005151391413807869,-0.12872267989441752,0.210056909816619
1782831039613813200,0.152813232421875,-0.04238835839629173,-0.0625787673793733,0.12208799112029373
1782831039623738400,0.16273828125,-0.05945990470647811,-0.09382613855823874,0.08134853244218974
1782831039633668000,0.172668212890625,-0.12806816150844097,-0.11858911615386604,0.06724040251486003
1782831039643597000,0.18259716796875,-0.053766076979041094,-0.12202055190727114,0.04518390739895403
1782831039653526000,0.192526123046875,0.013012626308202742,-0.11793927394300699,0.008420549277588724
1782831039663456300,0.202456298828125,-0.10975625974833965,-0.12374562213420867,0.017230353601090608
1782831039673385200,0.21238525390625,-0.20490590199530123,-0.18269377792626618,-0.03203680452350527
1782831039683314200,0.222314208984375,-0.26134149044454097,-0.137815502410382,-0.056474349557049566
1782831039693244200,0.232244140625,-0.32327859891951083,-0.11541370098814367,-0.06986534419097006
1782831039703173000,0.242173095703125,-0.28329671714305876,-0.17574381265789268,0.004636464161612093
1782831039713103000,0.25210302734375,-0.20785890658199785,-0.13456497618183494,0.10355331345498561
1782831039723032300,0.2620322265625,-0.16026304267048835,-0.0844286340072751,0.09965802304949611
1782831039732961300,0.271961181640625,-0.19052549446523187,-0.08508972826451063,-0.021061565794423222
1782831039742891000,0.28189111328125,-0.17359481793045997,-0.07558686364293098,-0.13581287561738864
1782831039752820200,0.2918203125,-0.08650748610794544,-0.06934621568769216,-0.1507338380312547
1782831039762749200,0.301749267578125,0.05490706370770931,-0.12285013459920882,-0.08110562706440687
1782831039772679200,0.31167919921875,0.08286942186653613,-0.21477862284258006,-0.008550167006626724
1782831039782608400,0.3216083984375,0.10409224263727665,-0.315714739536494,-0.017371917496249077
1782831039792538000,0.3315380859375,0.18931728771924972,-0.27638839905932544,-0.07354859928097575
1782831039802467000,0.341467041015625,0.28909985046386716,-0.1420947871647775,-0.10624445223510265
1782831039812396300,0.351396240234375,0.3755699271708727,-0.0670208414800465,-0.13403667799141258
1782831039822326300,0.361326171875,0.3728659289091825,-0.026735154451429842,-0.09386073494758457
1782831039832255200,0.371255126953125,0.3978384576022625,-0.12032909168899059,-0.01671443996820599
1782831039842184200,0.38118408203125,0.3072124302595854,-0.22338322345018385,0.006264028830826282
1782831039852114200,0.3911142578125,0.17511165223419664,-0.2011319364145398,-0.0020284370876848695
1782831039862043100,0.401043212890625,0.23718320074379443,-0.08216141972765326,-0.13766297872979194
1782831039871973400,0.410973388671875,0.2710258491128683,0.015622808806598186,-0.2049225243365392
1782831039881902300,0.42090234375,0.395388726362586,0.1067936105504632,-0.22267982442118225
1782831039891831000,0.4308310546875,0.5018979670137167,0.16603022789508104,-0.20571060597430912
1782831039901761000,0.440760986328125,0.6228115805923938,0.10835150751695036,-0.2060986189112067
1782831039911690200,0.450690185546875,0.7143769346117973,-0.05126666137874126,-0.25538079194184393
1782831039921619200,0.460619140625,0.8024000859797,-0.10417115309238434,-0.24985654862765222
1782831039931549200,0.470549072265625,1.0055009843796492,-0.08125468014627694,-0.1812754355609417
1782831039941478100,0.48047802734375,1.2005460020959378,0.01706409365609288,-0.18883151349630206
1782831039951408000,0.490408203125,1.3853367523014544,0.14505962831974029,-0.1317265378855169
1782831039961337000,0.500337158203125,1.4428683192938565,0.23179347052946686,-0.08880067507904023
1782831039971266300,0.510266357421875,1.472991070356965,0.2890238626182079,-0.16186700726840644
1782831039981196300,0.5201962890625,1.5468103398054838,0.3523908577658236,-0.33294870986677705
1782831039991125000,0.530125,1.83520291878283,0.45606399820819493,-0.540355379169248
1782831040001054200,0.54005419921875,2.093340060228109,0.5823536057367921,-0.5230992700723931
1782831040010984200,0.549984130859375,2.2227076138973234,0.7034460830137134,-0.4064979667348787
1782831040020913200,0.5599130859375,2.3721289445579052,0.6415453610263765,-0.24461875757202506
1782831040030843100,0.569843017578125,2.4633780722349883,0.48579774995371694,-0.1692624147493392
1782831040040772000,0.579772216796875,2.6687796487927433,0.3899544263541698,-0.1767781241416931
1782831040050701000,0.589701171875,2.7734628430604933,0.4230729982323944,-0.13425401053652167
1782831040060631300,0.59963134765625,2.645141583573818,0.47333691230937835,-0.062423869078606364
1782831040070560300,0.609560302734375,2.3955565818965434,0.3970575363576412,0.03608063655421138
1782831040080489200,0.6194892578125,1.9541396793305872,0.29423765174373984,0.1435340992528945
1782831040090419000,0.6294189453125,1.2540011134296656,0.16547829310074447,0.2234517586417496
1782831040100348200,0.63934814453125,0.053147068297863004,0.01876490622460842,0.20216471352837978
1782831040110278100,0.649278076171875,-1.3838666797488928,-0.06327785555943846,0.021660919927060603
1782831040120207000,0.65920703125,-3.0543285336643455,-0.09333002560436725,-0.1325671534281224
1782831040130136300,0.66913623046875,-5.279938883265853,-0.17504896226152777,-0.3808769475378096
1782831040140066000,0.679066162109375,-7.460756735938787,-0.36847529273480173,-0.6757889914117753
1782831040149995000,0.6889951171875,-9.234845553067325,-0.43907633078917857,-0.9340447177354246
1782831040159924200,0.69892431640625,-10.753609363561868,-0.3959887380823493,-1.1373862199582159
1782831040169854200,0.708854248046875,-11.418543929612635,-0.23914251811802387,-1.0175120324298739
1782831040179783200,0.718783203125,-11.572144591784477,0.00940378816127777,-0.8549564949080347
1782831040189713200,0.728713134765625,-11.339039600265025,0.04829568274393677,-0.7721634992785751
1782831040199642000,0.73864208984375,-10.858422321689128,-0.16255217652097342,-0.7058462760232389
1782831040209571000,0.748571044921875,-10.287208826386928,-0.3755000768050551,-0.4987536045733839
1782831040219501300,0.758501220703125,-9.240252965068816,-0.5056513281978666,-0.20716369085945188
1782831040229430300,0.76843017578125,-8.110378582045435,-0.564492662614584,0.051099780379235744
1782831040239359200,0.778359130859375,-6.7230854349791995,-0.6189135502405464,0.1627740756433457
1782831040249289200,0.788289306640625,-5.0034126831710335,-0.7365794140696525,0.24417539771869778
1782831040259218200,0.79821826171875,-3.070964026644826,-1.025148810918629,0.34324652425833047
1782831040269148200,0.808148193359375,-1.2563397855103016,-1.3014563998267055,0.4835789048604667
1782831040279077000,0.8180771484375,0.22893559688031673,-1.453977888459712,0.6391654801525175
1782831040289006300,0.82800634765625,1.5591875908195971,-1.3642562626108525,0.7832306175421923
1782831040298936000,0.83793603515625,2.7009043873280287,-0.8131057505197823,0.8747389806773513
1782831040308865000,0.847864990234375,3.47394686139822,-0.34724034313485025,0.8299583933822811
1782831040318794200,0.857794189453125,4.047731668493151,-0.2438562487669289,0.6584728226907551
1782831040328724200,0.86772412109375,4.523924700886011,-0.13074351819753646,0.7546338339373468
1782831040338653200,0.877653076171875,4.786748538842797,0.06397066012918949,0.769618564036116
1782831040348583200,0.887583251953125,4.961707046341896,0.34781858141422267,0.683300463020429
1782831040358512000,0.89751220703125,5.240691745504736,0.7013862278744578,0.8337178189810365
1782831040368441000,0.907441162109375,5.679552533847093,0.9289119579568504,0.9067508334226906
1782831040378371300,0.917371337890625,6.050550330796837,1.0991884451195597,0.8286492835450917
1782831040388300300,0.92730029296875,6.3781666666597125,1.1819060374252497,0.728984794222191
1782831040398229200,0.937229248046875,6.829770616719126,1.114231115950644,0.7000904889754951
1782831040408159200,0.9471591796875,7.2777856023758645,0.9877854410775005,0.7906587947815656
1782831040418088200,0.957088134765625,7.655536380717158,0.8920946776911616,0.8113808264233171
1782831040428018200,0.96701806640625,7.828602790859341,0.9674576694503426,0.9270284822978079
1782831040437947400,0.976947509765625,7.898826666164398,1.13428723102957,1.0271697953522205
1782831040447876000,0.9868759765625,7.803954671815037,1.2267651698492468,1.0922345343284308
1782831040457806000,0.99680615234375,7.690528783643245,1.240639235292375,1.1861160563357174
1782831040467735000,1.006735107421875,7.96972917138338,1.2693681939095258,0.9615729953259229
1782831040477664300,1.016664306640625,7.81549430296123,1.442259247484803,0.7333785722017288
1782831040487594200,1.02659423828125,7.593645449471473,1.7433961572229861,0.5994902166398242
1782831040497523000,1.03652294921875,7.607107573112845,2.010060303995013,0.5165185034425929
1782831040507453200,1.046453125,7.7820426997363565,2.2195216773375868,0.48063057644888757
1782831040517382100,1.056382080078125,7.854190236580371,2.360545766530931,0.2856889277755283
1782831040527311000,1.06631103515625,7.661066542315482,2.316092584559321,0.020207542780973017
1782831040537241300,1.076241455078125,7.370085700410604,2.2730402092963455,-0.12978663759781048
1782831040547170000,1.086170166015625,6.910438144627213,2.125330358728766,-0.03942008317522704
1782831040557099000,1.09609912109375,6.464086123746633,1.8376871368139982,0.06485873154271393
1782831040567029200,1.106029296875,5.983690378966927,1.7176763172939418,-0.08031959125325083
1782831040576958200,1.115958251953125,5.1153632380932565,1.740759086717665,-0.6044975599404424
1782831040586888200,1.12588818359375,4.5916608510285615,2.0045178674370048,-1.459425194080174
1782831040596817200,1.135817138671875,4.266284403046965,2.5118670855939387,-1.853200640027225
1782831040606746000,1.14574609375,3.118385118511319,2.9568562936887144,-2.0175456913143397
1782831040616676000,1.155676025390625,-0.07161854453384876,2.726805136781931,-1.8717828831613064
1782831040626605300,1.165605224609375,-4.662150683793425,1.2857529269993304,-1.1495965899728238
1782831040636534300,1.1755341796875,-8.662852305564284,-0.7673471850380301,0.09397738359719514
1782831040646464300,1.18546435546875,-11.784478013432025,-1.9257216863587499,1.5258157748326657
1782831040656393200,1.195393310546875,-14.885651884901522,-1.7167231082223355,2.3750309496097266
1782831040666323200,1.2053232421875,-17.242469863080977,-1.5021403002128004,2.413305735207349
1782831040676252400,1.21525244140625,-17.924375437676904,-1.5317847662396729,2.0467242933951315
1782831040686181400,1.225181396484375,-18.23237171179056,-1.3939841691374777,1.966730865356326
1782831040696111000,1.235111083984375,-17.714876947194337,-1.3706985706180332,2.1744665839500725
1782831040706040000,1.2450400390625,-16.24664213145375,-1.4003531196475028,2.4719185215651986
1782831040715969300,1.25496923828125,-13.729357696986197,-1.2406230148099362,2.4276395271167157
1782831040725899300,1.264899169921875,-10.661976205003262,-1.1972151041075587,1.7200339863359928
1782831040735828200,1.274828125,-7.5745993882179254,-0.9922957581087947,0.8934685963928699
1782831040745758200,1.28475830078125,-4.877919340586662,-0.6249664205387234,0.20760434729903934
1782831040755687200,1.294687255859375,-2.924799651953578,-0.1857094724856317,-0.28663024547994137
1782831040765616000,1.3046162109375,-2.4175918880939484,0.18201807062178849,-0.12639935151338577
1782831040775546400,1.31454638671875,-2.980716184964776,-0.20836773288697003,0.41132922281622886
1782831040785475300,1.324475341796875,-2.9095331092387435,-0.5217412430595606,0.276039585621655
1782831040795404300,1.334404296875,-3.188334268528223,-0.258246958495304,-0.23472090228348969
1782831040805334300,1.344334228515625,-2.910543163064122,-0.23796266068369148,-0.47618572586923835
1782831040815263200,1.35426318359375,-2.241601114937663,-0.49176761814355846,-0.4928904846936464
1782831040825192200,1.364192138671875,-1.7885037114501,-0.8475451957382262,-0.41690760747045275
1782831040835122400,1.374122314453125,-1.0142845948159693,-1.1317566896386444,-0.16116978225186465
1782831040845051400,1.384051513671875,0.021274843218922614,-1.34373691393435,0.1293423461627215
1782831040854981000,1.393981201171875,0.7207879706978797,-1.599707232734561,0.39119416074957697
1782831040864910300,1.403910400390625,1.3682190287619829,-1.8416417196586727,0.5193532154118642
1782831040874839300,1.41383935546875,2.3245739971786734,-1.9283833067834377,0.43628852670155466
1782831040884769300,1.423769287109375,3.3497342062741517,-1.94026809810549,0.4356543935164809
1782831040894698200,1.4336982421875,4.226398382860422,-2.0250731642097235,0.6945446914166211
1782831040904628200,1.443628173828125,4.41325717151165,-2.1596067223399875,1.0879747579921035
1782831040914557200,1.45355712890625,4.484131035158038,-1.7720815689593552,0.8785060050606727
1782831040924486100,1.463486083984375,5.310108980602026,-1.1530893274594098,0.958741863553226
1782831040934416400,1.47341650390625,5.546988229963183,-1.086439876575023,1.0447712107554077
1782831040944345300,1.483345458984375,5.331928013700247,-1.208296470092237,0.7054892792791128
1782831040954274300,1.4932744140625,5.225691744771599,-1.3491218218430876,0.7911787270024419
1782831040964204300,1.503204345703125,5.0660728452235455,-1.3104828791081904,1.1923501284196971
1782831040974133200,1.51313330078125,4.821108489084243,-1.1575346164304763,1.1672745046783237
1782831040984063200,1.523063232421875,4.943139123994111,-1.080940840767324,0.9634939534511416
1782831040993992400,1.532992431640625,5.211042457172274,-0.9528510519489646,0.7577212054934352
1782831041003921200,1.542921142578125,5.3752451773792504,-0.8728513402998447,0.5204184334905818
1782831041013851100,1.55285107421875,5.527685563600063,-0.9249571559164672,0.4239878480549901
1782831041023780400,1.5627802734375,5.385545037597417,-0.8719179319072514,0.7581881654180586
1782831041033709300,1.572709228515625,4.99698528047204,-0.8646268250510096,0.8815740873944014
1782831041043639300,1.582639404296875,4.90957178543508,-0.8625430775795131,0.7138928043566644
1782831041053568300,1.592568359375,5.1809460095942015,-0.5357384234257042,0.37587219805307687
1782831041063498200,1.602498291015625,5.474810297980905,-0.1083855559170246,0.2520418202448636
1782831041073427200,1.61242724609375,4.75069289059937,-0.07777312164083122,0.39063992440029977
1782831041083356200,1.622356201171875,4.043586823773384,-0.3506899721320718,0.47327414927147327
1782831041093286400,1.632286376953125,3.3696395147055385,-0.2530775930333882,0.5076046542227268
1782831041103215000,1.642215087890625,2.523435358312726,0.10762399695999919,0.20456994803920386
1782831041113144000,1.65214404296875,2.1966946362406015,0.5021786836512386,-0.47758134494610127
1782831041123074300,1.66207421875,1.7543839997053146,1.102371093743667,-0.4713347787067294
1782831041133003300,1.672003173828125,0.6489227579265833,1.7077677944809198,-0.1262558513894677
1782831041142933200,1.681933349609375,-0.30739597013294695,1.8428427660115063,-0.01076645481660962
1782831041152862200,1.6918623046875,-1.662318879470229,1.7919579435572026,0.04792407295256853
1782831041162791200,1.701791259765625,-3.9388153667002914,1.649718925616145,-0.05106397841349244
1782831041172721200,1.71172119140625,-5.653086551725864,1.1707273485459386,0.244326935018599
1782831041182650400,1.721650390625,-7.252017539390921,0.3891374108828604,1.0862705113574862
1782831041192579300,1.731579345703125,-10.542831939184666,-0.34069062923043963,2.172011299752444
1782831041202509000,1.741509033203125,-14.92521115735173,-0.8610464823462068,3.314344912984967
1782831041212438300,1.751438232421875,-16.597218487143515,-1.4372738602876662,3.053609571740031
1782831041222367200,1.7613671875,-17.011476164627073,-0.8173148926474153,2.1474474979907274
1782831041232297200,1.771297119140625,-17.340952449142932,0.3824560334227979,1.3574563733376561
1782831041242226400,1.781226318359375,-16.12334776021838,0.6570436666704714,0.7992340231642127
1782831041252156200,1.79115625,-14.93582490582466,0.3223759509913623,0.9761427879482507
1782831041262085000,1.801085205078125,-13.577550347971915,-0.13557751422524453,1.6679742748834192
1782831041272014000,1.81101416015625,-11.709275765192508,-0.905960121436417,2.061915286655724
1782831041281944300,1.8209443359375,-8.980624123761057,-1.308606709972769,1.5840160348668693
1782831041291873300,1.830873291015625,-5.447208005306124,-0.5410315613977611,0.6387650826580822
1782831041301802200,1.84080224609375,-2.802290293616056,0.08977832447215914,0.19672376458346844
1782831041311732200,1.850732177734375,-0.8577391113638877,-0.11267200106456875,-0.07142696748450399
1782831041321661200,1.8606611328125,0.5916559793502092,-0.29684973393827674,-0.27616540395841
1782831041331591400,1.87059130859375,1.2775842335909604,-0.5513289373978972,-0.31569077413901686
1782831041341520400,1.880520263671875,1.7636106777340173,-1.1756098598904907,-0.37998109467662866
1782831041351449300,1.890449462890625,2.6213158868283033,-2.0153677627533675,-0.3460074403390288
1782831041361379000,1.900379150390625,3.2437779233306645,-2.044883780094981,-0.17969101591370998
1782831041371308300,1.910308349609375,3.5465146694809198,-1.52272160820961,0.12784114781953393
1782831041381237200,1.9202373046875,4.3103702130109065,-1.354430449645221,0.16856252285167575
1782831041391167200,1.930167236328125,5.103725407269597,-1.2066349666208027,-0.21608210665658115
1782831041401096400,1.940096435546875,5.881485557511448,-0.9986843631673603,-0.5861391886901111
1782831041411026200,1.950026123046875,6.583112316143512,-0.6349729968987405,-0.6434041406355798
1782831041420955100,1.959955078125,7.30888450499475,-0.46952926365472375,-0.7466119285885244
1782831041430884400,1.96988427734375,7.730324202936887,-0.5234809263337403,-0.811262241544947
1782831041440814300,1.979814453125,8.221697853326797,-0.6326599707160144,-0.8307987897291779
1782831041450743300,1.989743408203125,8.652556536999345,-0.6864687177930027,-0.6361375106334686
1782831041460673300,1.99967333984375,8.469349841114878,-0.4615690253652632,0.13546674732714892
1782831041470602200,2.009602294921875,8.151313819023967,-0.1712524195227772,0.09683664548583328
1782831041480531200,2.01953125,7.804303046861291,0.049032399520650506,-0.37935613117869943
1782831041490461400,2.02946142578125,7.62099230608046,0.1509263283960521,-0.5708614304615184
1782831041500390400,2.039390380859375,7.6283187034457915,0.14958645809441803,-0.7997154500056057
1782831041510319400,2.0493193359375,7.7263851099222896,0.1732851674593985,-0.8937618802510201
1782831041520249300,2.059249267578125,7.656136684697866,0.4749148291505873,-0.20372503991397098
1782831041530178300,2.06917822265625,7.474426949372887,0.9009485768847167,0.8579535578321665
1782831041540108300,2.0791083984375,7.652701449552178,1.3101986553393303,1.0788679800160228
1782831041550037200,2.089037353515625,7.809503538113832,1.6824845924034715,1.1079695713378488
1782831041559966200,2.09896630859375,7.5584028711766,1.8664191641710697,0.8092265709988773
1782831041569896200,2.108896240234375,7.287956867778301,1.8175310684919357,0.31859047763589765
1782831041579825200,2.1188251953125,7.308488783675432,1.8012416124701498,-0.13017182838995942
1782831041589754400,2.12875439453125,7.550674907273054,1.867193509544432,-0.03479288003230467
1782831041599684400,2.138684326171875,7.6532625905662774,1.96943690944463,0.08870753516918048
1782831041609613000,2.148613037109375,7.437151988467574,2.1982316365495325,0.007146912612579762
1782831041619543600,2.15854345703125,7.127740002337098,2.4966464278474447,-0.00028247020319104195
1782831041629472800,2.16847265625,6.630535161575675,2.637669055736065,-0.2772669719921425
1782831041639401700,2.178401611328125,5.519583505687117,2.6213354683116075,-0.5722403541319072
1782831041649331500,2.18833154296875,3.9053181707680222,2.4730168381959197,-0.780559133310616
1782831041659260400,2.198260498046875,1.4809972666800022,2.1843962956815957,-1.058070252789557
1782831041669189600,2.208189697265625,-2.2584598952800032,1.9905553930580615,-1.6770182898215948
1782831041679119600,2.21811962890625,-5.451619392007589,1.8800339941561222,-2.0409362115129825
1782831041689048600,2.228048583984375,-6.869647869077324,1.497372062897682,-0.8108227541491388
1782831041698978600,2.237978515625,-9.18041721278727,0.05898819554150104,1.0721766656838356
1782831041708907500,2.247907470703125,-14.74341315922141,-1.8361407841548323,2.6294471708357334
1782831041718836500,2.25783642578125,-19.23841337891817,-3.2355235974654555,3.5318928544104096
1782831041728766700,2.2677666015625,-20.16777980264425,-3.6535832975804805,4.1205756631687285
1782831041738695700,2.27769580078125,-20.211616606283187,-2.266588256677985,4.480663943569362
1782831041748624600,2.287624755859375,-19.19689829622507,-0.5295515514843165,3.910369316677749
1782831041758554600,2.2975546875,-18.140157538473606,-0.37057284953594205,3.2220746255666017
1782831041768483600,2.307483642578125,-17.866489065897465,-1.2464942449308931,2.915362253783643
1782831041778413600,2.31741357421875,-16.0473271813333,-1.9465563845947385,2.797476755854487
1782831041788342800,2.3273427734375,-13.51118607070446,-2.201575394019484,2.2532887762524187
1782831041798271700,2.337271728515625,-10.467283653986453,-2.270584194446355,1.1069207929372786
1782831041808201500,2.347201416015625,-7.324836691886186,-2.1051238753937183,0.40258199886754154
1782831041818130700,2.357130615234375,-4.394567084088921,-1.4097034240558743,-0.1514556129671633
1782831041828059600,2.3670595703125,-2.051691706544161,-0.6966356723465025,-0.4804027590423822
1782831041837989600,2.37698974609375,-0.33229660263359545,-0.39386064001247284,-0.25481734937280415
1782831041847918600,2.386918701171875,0.8466846333861351,-0.13714754002094268,-0.07061550497114658
1782831041857848600,2.3968486328125,1.518182211214304,-0.1231497020676732,0.10145049595683812
1782831041867777500,2.406777587890625,1.989877347666025,-0.5233056428320706,0.09546747602447866
1782831041877706500,2.41670654296875,2.5339018072694537,-1.0236261313959956,-0.1460885329760611
1782831041887636700,2.42663671875,2.9961709437280892,-1.1184481491237879,-0.16894465403705836
1782831041897565700,2.436565673828125,3.10885273553431,-1.0886086719814687,0.3540703352853656
1782831041907494700,2.44649462890625,3.241426391768455,-1.2206554547972976,1.1807254493385553
1782831041917424600,2.456424560546875,4.043613711780309,-1.0139449145328252,1.3342752581059931
1782831041927353600,2.466353515625,5.149254401779174,-0.6606566695358603,0.7827372080020606
1782831041937283600,2.47628369140625,5.937763909572363,-0.23885303365215657,0.14133885423094034
1782831041947212800,2.486212890625,6.605853724783659,0.2297042431652546,-0.5122595673564821
1782831041957141800,2.496141845703125,7.36117758681178,0.48075493348091836,-0.8810308473631739
1782831041967071500,2.506071533203125,8.286039684855938,0.3515112984523177,-1.042806924945116
1782831041977000700,2.516000732421875,8.976129734951257,0.1762677634667605,-0.6076951138727367
1782831041986929700,2.5259296875,8.901643526026605,0.3498716414865106,0.29851774021573363
1782831041996859600,2.535859619140625,8.143932476601004,0.36741891554966566,0.7764247369196265
1782831042006788600,2.54578857421875,7.349749599346518,0.17888802896775305,0.8216315137375145
1782831042016718600,2.555718505859375,7.233859366887807,-0.06330766617581247,0.3632604806959629
1782831042026647600,2.5656474609375,7.364529819849133,-0.2586658414945006,-0.1108475621163845
1782831042036576800,2.57557666015625,7.56179718979001,0.006643821928650141,-0.32909269202575087
1782831042046506800,2.5855068359375,7.536815308746695,0.568412393341586,-0.21008673869930206
1782831042056435700,2.595435791015625,7.276418405675888,0.8609663297820835,0.18060002051740884
1782831042066364400,2.605364501953125,7.237953942725062,0.9174232532802968,0.3872828690573573
1782831042076294700,2.615294677734375,7.775346416968107,0.9256777983412146,0.15997341207414864
1782831042086223600,2.6252236328125,7.995695971810817,0.9541879996411502,0.07101407583467662
1782831042096153900,2.63515380859375,7.758839518803358,1.1049949394412337,0.33610870826765893
1782831042106082600,2.64508251953125,7.556916432011127,1.1273116929285227,-0.022852321668714284
1782831042116011500,2.655011474609375,7.639592961654067,1.0245831398598848,-0.06759089645296334
1782831042125941500,2.66494140625,7.237741176757216,0.8357266015201806,0.147000679384917
1782831042135870700,2.67487060546875,6.211938578104973,0.718105599746108,0.2264167459271848
1782831042145800700,2.68480078125,5.289475942417979,0.6282268836393952,0.28013255402371284
1782831042155729400,2.6947294921875,4.923146721801161,0.9264071355290711,-0.1706949317704886
1782831042165658600,2.70465869140625,4.026401880216598,1.3967026343159377,-0.5896199434779584
1782831042175588600,2.714588623046875,2.3890637127459047,1.8935782431229948,-0.7975344527047127
1782831042185517600,2.724517578125,0.05931903493106365,2.362568796791136,-0.8801791989699006
1782831042195446800,2.73444677734375,-3.071733841973543,2.295669097472727,-0.4901787415169179
1782831042205376500,2.74437646484375,-7.170622866252065,1.4822922749266028,0.7817123949989676
1782831042215305500,2.754305419921875,-10.37855556921959,-0.2311342759683728,1.2763088068276642
1782831042225235700,2.764235595703125,-10.219119040501116,-1.9171185470558703,1.6221452745139597
1782831042235164700,2.77416455078125,-12.692695266145467,-3.00842252253592,3.231193751567602
1782831042245093600,2.78409375,-15.48646790678501,-3.8854178307726976,4.4387300509423016
1782831042255023600,2.794023681640625,-16.699238599681852,-3.4794548111647368,4.477625598786771
1782831042264952600,2.80395263671875,-17.750031262683866,-2.4740339062839745,3.517753269898891
1782831042274881500,2.813881591796875,-18.948654187762735,-2.521492992073297,2.518908820798993
1782831042284811800,2.823811767578125,-19.10717535520196,-2.767933850505948,2.5658874295949934
1782831042294740700,2.83374072265625,-18.138965113818646,-2.563817929844558,3.1197663437366483
1782831042304670500,2.84367041015625,-17.111920406150816,-2.4641359048649667,3.3985736405059694
1782831042314599400,2.853599365234375,-15.693380472427606,-2.286355617943406,2.7627912269204855
1782831042324528600,2.863528564453125,-13.09730482531786,-1.5297411315828562,1.5049956896439194
1782831042334458600,2.873458740234375,-9.963394220894575,-0.44602351957857606,0.2868614238873124
1782831042344387600,2.8833876953125,-6.985655590435862,0.09221680366545915,-0.4274564740136266
1782831042354316800,2.89331689453125,-4.118768613746762,0.16581293188259005,-0.690227412739396
1782831042364246500,2.90324658203125,-1.7343758154213427,0.10945844584554433,-0.6768731333866715
1782831042374175500,2.913175537109375,0.12833061183691025,-0.2668449101664126,-0.6961284534767269
1782831042384105700,2.923105712890625,1.643269895607233,-0.821959503582865,-0.715050596089661
1782831042394034700,2.93303466796875,2.801600557786226,-1.0591520566768944,-0.6865890562370419
1782831042403963600,2.942963623046875,3.6907168041884897,-1.0097701861314474,-0.5460222092919051
1782831042413893600,2.9528935546875,4.137761483508348,-0.9302271322086453,-0.3543397998765111
1782831042423822600,2.962822509765625,4.395560771301389,-0.9038464902833103,-0.122841878227517
1782831042433751600,2.97275146484375,4.936126030361652,-0.7715970245022327,-0.13671060990840195
1782831042443681800,2.982681884765625,5.725193172037601,-0.5730106809172779,-0.3663673606701195
1782831042453610800,2.99261083984375,6.630182110354304,-0.3778039698332548,-0.6225533680476248
1782831042463540500,3.00254052734375,7.548602777174115,-0.2546417736101895,-0.9736960523832588
1782831042473469700,3.0124697265625,8.314853691408038,-0.2916477083157748,-1.3317065766617655
1782831042483398700,3.022398681640625,8.89837078796625,-0.36883864615447814,-1.2900073695734142
1782831042493328600,3.03232861328125,9.07107011836171,-0.4232618718679994,-0.8601014565810561
1782831042503257600,3.042257568359375,8.789369145977497,-0.3782131351560354,-0.01960026107020676
1782831042513187600,3.0521875,8.449426997026801,-0.43274179400540885,0.5799192912619561
1782831042523116500,3.062116455078125,8.303604567641019,-0.6028349604904651,0.31454036199487745
1782831042533045500,3.07204541015625,8.338854160198569,-0.6610337592199445,-0.2739564957372844
1782831042542975700,3.081975830078125,8.53628110461533,-0.6703717156033963,-0.6697505149651318
1782831042552904700,3.09190478515625,8.674754340282082,-0.4755602874472737,-0.754570121051371
1782831042562833700,3.101833740234375,8.758008962073921,-0.2816916930992156,-0.8231913104001433
1782831042572763600,3.111763671875,8.882404572549461,-0.259112708479166,-0.5937171496637165
1782831042582692600,3.121692626953125,8.741942208892107,-0.3180162944771349,-0.18070684189274905
1782831042592622600,3.13162255859375,8.252424415501952,-0.5101330767218023,0.02905190696120262
1782831042602551800,3.1415517578125,7.884585959365963,-0.7188491115897894,-0.17396394350379704
1782831042612480800,3.151480712890625,7.659367337182164,-0.6201196380946785,-0.23996866674385964
1782831042622414300,3.161414306640625,7.145183889091014,-0.42812085620649154,-0.03209631615839898
1782831042632343300,3.17134326171875,6.507503825190663,-0.42353688941709694,0.11970153437517583
1782831042642272500,3.1812724609375,6.090071609324217,-0.478739136679098,0.05071962195523083
1782831042652202200,3.1912021484375,6.047800155305862,-0.2962335748013109,-0.4749720392305404
1782831042662131200,3.201131103515625,5.82793809171915,0.15659714057408272,-1.0080641128659247
1782831042672061400,3.2110615234375,5.016701203811168,0.33241467605531216,-1.1753738591775298
1782831042681990400,3.220990478515625,3.666227090576291,-0.1858026306618005,-1.01715094403252
1782831042691919400,3.23091943359375,2.1168688198536634,-0.46571781560778613,-1.1080590031869708
1782831042701849300,3.240849365234375,0.7083709721952677,-0.13928520963676272,-0.6488625521719456
1782831042711778300,3.2507783203125,-0.9842752409994602,0.1513954802777618,0.10721344339773058
1782831042721707300,3.260707275390625,-3.298186389866471,0.1544618090458214,0.7979669258378446
1782831042731637500,3.270637451171875,-5.923714925953745,0.3064613196313381,1.0569592228077351
1782831042741566500,3.28056640625,-9.55228360926509,-0.1719436897225678,1.1302912932612001
1782831042751496200,3.29049609375,-12.660585140657425,-1.5145906164631247,1.84700368508324
1782831042761425400,3.30042529296875,-15.541379062145948,-2.2942560158044096,2.9772794885143634
1782831042771354400,3.310354248046875,-18.256575594198704,-2.3087854764163493,3.288768280918896
1782831042781284400,3.320284423828125,-19.39070938823223,-1.5013110097818076,3.5648043594092127
1782831042791213300,3.33021337890625,-19.151175824970007,-1.242683308340609,3.506408576802909
1782831042801142500,3.340142578125,-19.324997437393666,-1.5782102711975574,3.666267714847624
1782831042811072300,3.350072265625,-18.681719407355786,-1.8363446361638605,3.714433195340633
1782831042821001200,3.360001220703125,-17.607197493720054,-1.6592095152780413,3.4660005785688757
1782831042830931500,3.369931396484375,-16.371796451342107,-1.6004953143723308,3.2419875327825545
1782831042840860400,3.3798603515625,-14.818483305513858,-1.5568363515183328,2.9606361044883727
1782831042850789400,3.389789306640625,-12.640720748758316,-1.3320651808410882,2.3045393632791935
1782831042860719400,3.39971923828125,-9.47954453626871,-0.8892262826479971,1.1654279269635677
1782831042870648300,3.4096484375,-5.948147940942644,-0.23717677100300788,-0.0008308978661894798
1782831042880578300,3.419578369140625,-2.575623226189613,0.2682450592879206,-0.720023854457587
1782831042890507500,3.429507568359375,0.22089666733145713,0.2761727835472673,-0.9691410924926399
1782831042900436500,3.4394365234375,2.282365087002516,0.05261230383403599,-0.8760682565197349
1782831042910366200,3.4493662109375,3.7478853830873966,-0.13211108022369444,-0.6355794383592903
1782831042920295400,3.45929541015625,4.742307339569926,-0.17912929037772118,-0.041491994078457356
1782831042930224400,3.469224365234375,5.260791115203499,-0.19037147294729947,0.5731476782351732
1782831042940154400,3.479154296875,5.511798258638382,-0.3352289297584444,0.6876745133861899
1782831042950083600,3.48908349609375,5.883346090686321,-0.2741144627779722,0.6740759038835763
1782831042960013300,3.499013427734375,6.281884805512428,-0.01589388083294034,0.5691632117088884
1782831042969942300,3.5089423828125,6.746571524506807,0.14740509546734393,0.2709920199085027
1782831042979871200,3.518871337890625,7.36902946935594,0.19967530786544083,-0.3559224659580737
1782831042989801500,3.528801513671875,8.118522725534438,0.2989027940105647,-0.7404800017047674
1782831042999730400,3.53873046875,8.81681595582962,0.3569179798014462,-0.7436591431975365
1782831043009660400,3.548660400390625,9.283905644312501,0.4360541334237903,-0.6333159504067153
1782831043019589400,3.55858935546875,9.556485737130044,0.5191054146632552,-0.5382420768097043
1782831043029518300,3.568518310546875,9.64808440889716,0.6329996509991586,-0.4760749589711427
1782831043039448300,3.5784482421875,9.700945061469078,0.7654097872346639,-0.3126349667649716
1782831043049377500,3.58837744140625,9.764488436096906,0.7975953160464763,0.043800490216538306
1782831043059306500,3.598306396484375,9.61460884027481,0.6177833041016012,0.4115761833146214
1782831043069236200,3.608236328125,9.326794937968254,0.32932642771638926,0.5679246828898787
1782831043079165400,3.61816552734375,8.950898847582936,0.11115377852134406,0.4607334513239562
1782831043089095400,3.628095458984375,8.675700681221485,0.14635332139208912,0.26333777882829307
1782831043099024400,3.6380244140625,8.482139180061221,0.28763547699972986,0.14617160814963281
1782831043108953600,3.64795361328125,7.94544696304202,0.5304407554090023,0.20763759198151527
1782831043118883300,3.65788330078125,7.086566280427575,0.6903240049816668,0.36646026311796154
1782831043128812300,3.667812255859375,6.941476256969571,0.6633199704609811,0.1784752103831619
1782831043138741500,3.677741455078125,7.125830953845381,0.9949540175326168,0.14816259930375963
1782831043148671500,3.68767138671875,7.188757073357701,1.2539634117677807,0.20002689778208732
1782831043158600400,3.697600341796875,7.118942947897315,1.3405879483841359,0.2199311467675492
1782831043168530400,3.707530517578125,7.077035651016235,1.4036458775825797,0.25333416161034256
1782831043178459400,3.71745947265625,7.114049330636859,1.4346153086028992,0.12921835445687174
1782831043188388400,3.727388427734375,6.728781600794195,1.5012727235980332,-0.12871939195878804
1782831043198318600,3.737318603515625,6.3570788704454895,1.5246063990429042,-0.48939387474954127
1782831043208247300,3.747247314453125,5.860493038365244,1.511201266285777,-0.7442012872502207
1782831043218177300,3.75717724609375,5.124133404526114,1.4882558595061302,-0.799774778977409
1782831043228106200,3.767106201171875,3.6080467042863367,1.450611626897007,-0.4187682867757976
1782831043238035500,3.777035400390625,0.5257733481198549,1.4278427457280456,0.020148615667968987
1782831043247965400,3.78696533203125,-4.178351852571964,1.341318162354827,-0.44502033388540146
1782831043257894400,3.796894287109375,-8.072389919912814,1.1220187010869382,-1.4856407085716723
1782831043267823400,3.8068232421875,-8.776558764243125,0.710598877377808,-1.5628933134697376
1782831043277753300,3.81675341796875,-11.169013872992991,0.0893332110531628,-0.4444764362670481
1782831043287682300,3.826682373046875,-15.585827275681496,-1.159365119793266,1.0039425028912723
1782831043297612500,3.836612548828125,-18.89761841253042,-2.2185751902677118,2.7383073585271833
1782831043307541200,3.846541259765625,-20.63619927842617,-1.9355371240608392,3.6514787265166637
1782831043317470200,3.85647021484375,-21.875310865759847,-1.4863339515328406,3.284767520844936
1782831043327400400,3.866400390625,-22.954169931817052,-1.6333051125623286,3.248611042575538
1782831043337329400,3.876329345703125,-23.41250289787054,-2.002637752778828,3.7828167034760116
1782831043347258400,3.88625830078125,-23.007167362511158,-2.380957124788314,4.337931004631519
1782831043357188400,3.896188232421875,-21.20394772796631,-2.2174248511888086,4.225257980653644
1782831043367117300,3.906117431640625,-18.478806140482426,-1.4808962905235588,3.356960358135402
1782831043377047300,3.91604736328125,-14.96648541702628,-1.3155733341149984,2.423083617378026
1782831043386976500,3.9259765625,-10.69269633743763,-1.2573759966902434,1.4436873805917798
1782831043396905500,3.935905517578125,-6.373504520067573,-0.9738764504514634,0.6456694552190602
1782831043406835200,3.945835205078125,-2.8663813652545214,-0.8531262838061898,0.1969597652964294
1782831043416764400,3.955764404296875,-0.27292262264490125,-0.929597309872508,0.1213404606886208
1782831043426694400,3.9656943359375,1.3459066591888664,-1.0330614837393164,0.106059158796072
1782831043436623400,3.975623291015625,2.0193916114419697,-1.053818878955394,-0.030129034673422574
1782831043446552300,3.98555224609375,2.346601120069623,-1.278675097567588,-0.06590908084586262
1782831043456482300,3.995482421875,2.8132693682700394,-1.7189131656125187,0.007890022597461938
1782831043466411300,4.005411376953125,3.445422777703404,-1.6245727939218282,-0.05202493240013718
1782831043476340200,4.01534033203125,4.135428656646609,-1.06621921858415,-0.2529457102820277
1782831043486270500,4.0252705078125,4.868388711175323,-0.6279820420328527,-0.41237361730262634
1782831043496199400,4.035199462890625,5.626393190589547,-0.4253068216990679,-0.5445176499478519
1782831043506129200,4.045129150390625,6.272447115081548,-0.40399515360109506,-0.5777823522984982
1782831043516058400,4.055058349609375,6.673864015692472,-0.2304408138114959,-0.6985299616605043
1782831043525987300,4.0649873046875,7.125407759997248,-0.11683028978779911,-0.8939394287750124
1782831043535917300,4.074917236328125,7.725082210630178,-0.17033742356970905,-0.977227660575509
1782831043545846500,4.084846435546875,8.374916238182783,-0.12073803781606256,-1.0057091472376138
1782831043555775500,4.094775390625,8.922681053358316,0.14042955736629664,-0.9010361821029335
1782831043565705200,4.104705322265625,9.21152371419072,0.33852431804202493,-0.6095462216321379
1782831043575634400,4.114634521484375,9.311530733340978,0.4068901443902403,-0.28460027402229604
1782831043585564400,4.124564453125,9.217174287298322,0.47337651366740463,-0.1079163309700787
1782831043595493400,4.134493408203125,9.049180358114839,0.6536299127042293,0.0800919199772179
1782831043605422600,4.144422607421875,8.953812689203023,0.7819217999659478,0.05646423002183437
1782831043615352300,4.154352294921875,9.019610564759374,0.7788976298391819,-0.4533944136727601
1782831043625277200,4.164277099609375,8.965124941334128,0.7433928934767842,-0.6334119581270963
1782831043635207200,4.174207275390625,8.250196218058466,0.6347587696261704,-0.37962007934451103
1782831043645136400,4.184136474609375,7.266093411016464,0.7760410713642835,-0.04904379769749939
1782831043655065300,4.1940654296875,6.529221151480078,0.9580382453285157,-0.051706367970257995
1782831043664995000,4.2039951171875,6.966904128214717,1.0708360647298396,-0.48887058152779933
1782831043674924000,4.213924072265625,8.100309023451805,1.2396037547647953,-0.6592610504589974
1782831043684853200,4.223853271484375,8.53213859798312,1.4521828217364847,-0.808423803248629
1782831043694783200,4.233783203125,8.506137895286082,1.4639797886446118,-0.9163453949157148
1782831043704712200,4.243712158203125,8.23180072966814,1.3031497597411275,-0.6851476252570748
1782831043714642200,4.25364208984375,7.568252649539708,1.1579359637729822,-0.4820385435506701
1782831043724571100,4.263571044921875,6.869721518835425,1.2994487132661043,-0.7376026927027851
1782831043734500000,4.2735,6.343940571931004,1.6291729811936615,-0.8087427330046891
1782831043744430300,4.283430419921875,5.7683285494089125,1.8769030026540159,-0.38440051855407653
1782831043754359300,4.293359375,5.222140189769863,1.9480869551628828,-0.22541290264688432
1782831043764289000,4.3032890625,4.446604145318269,1.9456256796158848,-0.34784693072587247
1782831043774218200,4.31321826171875,3.631528117638826,2.155125046881288,-1.0054647440224886
1782831043784147200,4.323147216796875,2.680899125653505,2.4857091465085746,-1.5533583001442253
1782831043794077200,4.3330771484375,0.8510580261647701,2.6579697932258246,-1.5055666213996708
1782831043804006400,4.34300634765625,-2.0280138938367367,2.319856321007013,-1.2043969784356654
1782831043813935400,4.352935302734375,-5.775199019700288,1.1894723810262977,-0.34604558039233085
1782831043823865000,4.362864990234375,-8.88229526695609,-0.5042030290856957,0.9025950289174914
1782831043833794300,4.372794189453125,-12.242457928264141,-1.710376515674591,2.094730053281784
1782831043843724300,4.382724365234375,-16.191730976092813,-1.9187306584276258,2.0336372866764663
1782831043853653200,4.3926533203125,-19.131546410870552,-1.6786263095401226,0.975745020802319
1782831043863582500,4.40258251953125,-19.630260487151144,-1.309556996434927,0.1994070123180747
1782831043873512200,4.41251220703125,-18.765883545207977,-1.0092840100497007,0.40388782076910135
1782831043883441200,4.422441162109375,-18.952839364492892,-1.0709009466595947,1.7834420441463588
1782831043893371400,4.432371337890625,-19.780933863699435,-1.5034965371273457,3.4902684661239385
1782831043903300400,4.44230029296875,-20.10328833351135,-1.7637768280811608,4.394773128055036
1782831043913229300,4.452229248046875,-18.48750382620096,-1.3271421913556753,2.7888655793756243
1782831043923159300,4.4621591796875,-15.454070196527242,-0.31557335830442607,0.9016327597565948
1782831043933088300,4.472088134765625,-12.026977440762519,-0.06471380664668977,-0.1701001076824963
1782831043943017200,4.482017333984375,-8.322080720052123,-0.4361701610188931,-0.2850252945013344
1782831043952947200,4.491947265625,-5.497641722992062,-0.732962757942453,0.12433160532861948
1782831043962876400,4.50187646484375,-3.557921614158153,-1.170894156480208,0.27962884228527546
1782831043972806100,4.51180615234375,-2.060391730350256,-1.767962150941789,0.08768164445385336
1782831043982735000,4.521735107421875,-0.9266197553664446,-2.3130969098746776,-0.020437954003363845
1782831043992664300,4.531664306640625,0.5595248110741377,-2.5581828465670347,-0.1889667207159102
1782831044002594300,4.54159423828125,1.23233990124166,-2.383019902537018,0.26411373163685203
1782831044012523300,4.551523193359375,1.7042752761900424,-1.941517075253278,0.45566564654037356
1782831044022452500,4.561452392578125,2.7250995019078252,-1.6436217777848243,0.5006172064881772
1782831044032382200,4.57138232421875,3.269295226424932,-1.4942011777766049,0.6570557224344462
1782831044042311200,4.581311279296875,4.003371717762946,-1.4738755981065332,0.651337929309532
1782831044052241400,4.591241455078125,4.8747278510689735,-1.4097177448421716,0.43597763412147755
1782831044062170400,4.60117041015625,5.493230920812487,-1.228885961395502,0.1046434467792511
1782831044072099300,4.611099365234375,6.106555126613378,-1.0124408666454254,-0.28159396834578365
1782831044082029300,4.621029296875,6.753417444878816,-0.8726275414813309,-0.40461533132605254
1782831044091958300,4.630958251953125,7.302489835521579,-0.8323501108244061,-0.3406998354502022
1782831044101888300,4.64088818359375,7.860660309377312,-0.9151970285981893,0.12644183894824235
1782831044111817500,4.6508173828125,7.802428485161066,-1.0432520383641124,0.6200937730010598
1782831044121746200,4.66074609375,7.452833541724085,-1.1079878376469015,0.4472141176026314
1782831044131676200,4.67067626953125,7.435023744267225,-1.0587851230606435,0.2026312350615859
1782831044141605000,4.680605224609375,7.380047706976533,-0.8555133981384336,0.5101280352205038
1782831044151535400,4.690535400390625,7.172515548130869,-0.580416280998662,0.5740211000688373
1782831044161464300,4.70046435546875,6.7682105248630045,-0.3006725801620632,0.6154967275343834
1782831044171393300,4.710393310546875,6.65361267030239,-0.08366703851763159,0.5332370350640266
1782831044181323300,4.7203232421875,7.133035186135769,0.07780037497393787,0.3135634432541206
1782831044191252200,4.730252197265625,7.456231951990723,0.19809161887057125,-0.15950217783320694
1782831044201181200,4.74018115234375,7.671585013720393,0.2788928561609238,-0.48553361912481485
1782831044211111400,4.750111328125,7.608153867295384,0.29595402720756825,-0.16822912617884575
1782831044221040000,4.7600400390625,7.505203780430555,0.14539813955910502,0.09086129740327596
1782831044230970000,4.76997021484375,7.408751823413372,0.0384307798769325,0.2143501317648217
1782831044240899300,4.7798994140625,7.17797907423377,0.03798164786994457,0.1408708348603919
1782831044250828300,4.789828369140625,7.122975564414262,0.008167816625535488,-0.254850228729099
1782831044260758300,4.79975830078125,6.98480218847692,0.13240399875566364,-0.6414600208304823
1782831044270687200,4.809687255859375,6.775283239728212,0.22952128781378267,-0.8314529427889734
1782831044280616200,4.8196162109375,6.337133814525604,0.2532468851856887,-0.3915830504693091
1782831044290546200,4.829546142578125,5.203984939876198,0.25491189578846096,-0.04072312859781086
1782831044300475400,4.839475341796875,3.5610821240156887,0.2131869697369635,-0.4389548963665962
1782831044310405400,4.8494052734375,1.6594588138639925,0.07134718024656177,-1.2236696149867028
1782831044320334000,4.859333984375,0.23276012360453605,0.1518510420255363,-2.0556065419003366
1782831044330263000,4.869262939453125,-1.1952256838560105,0.5587853908836842,-2.1051709294058383
1782831044340193300,4.879193359375,-3.5697681192964312,0.5193063440628349,-1.555295551817119
1782831044350122200,4.889122314453125,-6.245668998271227,-0.190088856613636,-0.7879201635979115
1782831044360052200,4.89905224609375,-8.402908991479872,-0.9925687298312783,0.14996844314932822
1782831044369981200,4.908981201171875,-9.908658422100544,-1.4321699612773955,0.777269517180696
1782831044379910100,4.91891015625,-12.872695274943112,-1.3964645877763628,0.6907463220469653
1782831044389840400,4.92884033203125,-16.950536250495908,-1.6866212538167833,0.4512544059693813
1782831044399769300,4.938769287109375,-19.281202719330786,-2.6797067009985445,0.5825974244300276
1782831044409699300,4.94869921875,-18.88161887936592,-2.948757450646162,1.12728918883577
1782831044419628000,4.9586279296875,-18.645867172729968,-1.990430159243196,1.4819272410064934
1782831044429557200,4.96855712890625,-18.880099122452734,-1.6623979360558092,1.2555769844442606
1782831044439487200,4.9784873046875,-18.37522886162996,-1.4210906411193311,0.716918581918627
1782831044449416200,4.988416259765625,-16.905399470174313,-0.8634085353024303,0.5919011497503146
1782831044459345400,4.998345458984375,-14.502991122686861,-0.462514051130414,0.09763926710560918
1782831044469275100,5.008275146484375,-11.026610312139987,-0.04690598195120692,-0.7393797123126685
1782831044479204000,5.0182041015625,-7.464328749206662,0.21747999075576663,-1.085875739886239
1782831044489134300,5.02813427734375,-4.365759507277608,0.15193126765489579,-0.9307886385489255
1782831044499063300,5.038063232421875,-1.6845044077932834,-0.057863137034326786,-0.6179441206865012
1782831044508992300,5.0479921875,0.40000352668166156,-0.15371522846221922,-0.2036924345523119
1782831044518922200,5.057922119140625,1.5097083973795176,-0.33726109317317604,0.5493938046168536
1782831044528851200,5.067851318359375,1.9573428592860698,-0.6830274182327092,1.0017556603714823
1782831044538780200,5.0777802734375,2.8153865065544843,-0.7719672460541128,0.7621988623641431
1782831044548710400,5.08771044921875,4.090250375270843,-0.5658823634073138,0.47173320343978703
1782831044558639400,5.097639404296875,5.087357625314593,-0.2953622718594968,0.32954555035978556
1782831044568569000,5.107569091796875,5.791202059996127,-0.31229104869812724,0.49416751889213917
1782831044578498300,5.117498291015625,6.3161126538068055,-0.5345895456515253,0.835495203917101
1782831044588427300,5.12742724609375,6.856840409952402,-0.6133774703580885,0.9460798042483627
1782831044598357200,5.137357177734375,7.430152338838576,-0.46581996080800886,0.8960311403572558
1782831044608286200,5.1472861328125,7.834464960891008,-0.24759317027293143,0.8277765923637896
1782831044618216200,5.15721630859375,7.831537675267458,-0.06396306134462357,0.8778316859956831
1782831044628148700,5.167148681640625,7.730173980811238,0.022255524819344282,0.8871667197696864
1782831044638077700,5.17707763671875,7.742160186681151,0.16469218422435222,0.9830810627788305
1782831044648008000,5.187008056640625,7.7999483587831255,0.36713849117308855,1.0585925230979918
1782831044657937000,5.19693701171875,7.893575321507454,0.5274522411175072,0.8299505023367703
1782831044667865900,5.206865966796875,8.095866072568297,0.6634533145170658,0.5800174909394235
1782831044677795600,5.216795654296875,8.305633443120122,0.7490222776658833,0.45149438873771575
1782831044687724800,5.226724853515625,8.507244395223259,0.7643405505679547,0.2938276461707428
1782831044697654800,5.23665478515625,8.673879311013222,0.8003725256748497,0.2188420728892088
1782831044707583700,5.246583740234375,8.565046595850587,0.8779555315710603,0.2477653302357532
1782831044717513000,5.256512939453125,8.144730348980426,0.8012601221643387,0.0966605582665652
1782831044727442700,5.266442626953125,7.713007157433032,0.6004670623153447,-0.06631952481027692
1782831044737371600,5.27637158203125,7.607294620117544,0.6192512577623128,0.039342268698662516
1782831044747302000,5.286302001953125,7.970082222604751,0.9161983145952224,0.10860701664797962
1782831044757230800,5.29623095703125,8.026514888444542,1.3176926643565297,0.18727807350922374
1782831044767159800,5.306159912109375,7.944211283767223,1.6617375724509358,0.020545359900593755
1782831044777089800,5.31608984375,8.146746949499844,1.878752722173929,-0.47518191912155594
1782831044787015700,5.326015625,8.32286690199375,1.9686143410153685,-0.7056718693044036
1782831044796945000,5.33594482421875,8.30686853787303,1.9299733524538576,-0.6029258536443114
1782831044806873900,5.345873779296875,7.938824914553761,1.703377450567484,-0.4858605129916221
1782831044816803600,5.355803466796875,7.169092003422975,1.3630606230854987,-0.2739274157732725
1782831044826732500,5.365732666015625,6.11345306943357,1.013217696236819,-0.3873571764025837
1782831044836662800,5.375662841796875,4.628244322538375,0.8506922615922987,-0.6778370830480009
1782831044846591700,5.385591796875,2.8761574938595293,0.8885489679083227,-1.1017987006831913
1782831044856520700,5.395520751953125,0.8660691328138113,0.7389606101177633,-1.4112971229881048
1782831044866450700,5.40545068359375,-1.5878016908854244,0.7355215755797923,-1.274525576672703
1782831044876379600,5.415379638671875,-4.39522174860537,1.2002883740730583,-1.0004327412046492
1782831044886308600,5.42530859375,-7.4787956659764045,1.7453018447138369,-0.8974686258144676
1782831044896238800,5.43523876953125,-11.201452499783038,1.4825105938524006,-0.6422866809129715
1782831044906167800,5.445167724609375,-15.16089505944848,-0.04992226103246212,-0.44517333249002694
1782831044916097500,5.45509765625,-19.51781016601324,-1.383100809942931,-0.32133184876590964
1782831044926026800,5.46502685546875,-20.69270851663351,-1.5636137366987763,0.611628800059855
1782831044935955700,5.474955810546875,-20.651361776244638,-1.0802448213271796,1.9311254450984299
1782831044945885700,5.4848857421875,-21.355034946012495,-1.3690660009801388,2.9027970789819952
1782831044955815000,5.49481494140625,-21.45961760251522,-2.0761768901117144,3.2577877439826723
1782831044965744600,5.50474462890625,-20.99416983602047,-2.0325947918862104,3.6513954321473836
1782831044975673600,5.514673583984375,-19.743667086100576,-1.4984930297516286,3.453105148899555
1782831044985602800,5.524602783203125,-17.41867281768322,-0.945872298977524,2.559633045375347
1782831044995532800,5.53453271484375,-14.261349773490428,-0.34352819074392316,1.5714819858558475
1782831045005461800,5.544461669921875,-10.272550186437368,0.13259469902217388,0.5159001888811588
1782831045015391000,5.554390869140625,-6.293987331238388,0.3998388376392424,-0.10349997583255172
1782831045025320700,5.56432080078125,-3.2067478770971296,0.40261663178950546,-0.06488704432174563
1782831045035249700,5.574249755859375,-1.0228729749411345,0.09890212664827704,0.23293474951907991
1782831045045180000,5.584179931640625,0.29343291123211385,-0.3556530013669282,0.6119120739806443
1782831045055108900,5.59410888671875,1.0878080961883068,-0.9242348329912871,0.9823893541876226
1782831045065037800,5.604037841796875,1.7032722366273403,-1.4929557077601552,1.2649673286020755
1782831045074967800,5.6139677734375,2.4822289031773805,-1.5727452837899327,1.2694427204504608
1782831045084896800,5.623896728515625,3.2327076632618903,-1.1703855493709445,1.1471584030404687
1782831045094826800,5.63382666015625,4.064233305960894,-0.9865850523117929,1.1244175058569759
1782831045104755700,5.643755615234375,5.122794264876842,-0.9369239994987845,1.147355386917293
1782831045114685000,5.653684814453125,6.0844502623111,-0.8482578009869903,0.9980781409025191
1782831045124614700,5.66361474609375,7.023738360592723,-0.7449987943034618,0.9971320191588252
1782831045134543600,5.673543701171875,7.836554626646637,-0.6145427147451787,1.1000490074716507
1782831045144472800,5.683472900390625,8.3654276943475,-0.4983012576960027,0.8336557865954936
1782831045154402800,5.69340283203125,8.734793506181239,-0.43041722351536155,0.7477494812510908
1782831045164331800,5.703331787109375,8.742128671374916,-0.4127729918837547,0.9369522757451981
1782831045174261800,5.71326171875,8.621334884783625,-0.5313404076624662,0.784855588395521
1782831045184190700,5.723190673828125,8.707067879387736,-0.5001128371626138,0.7046142500102519
1782831045194119700,5.73311962890625,8.878941280353068,-0.40990569281913336,0.6334210912816226
1782831045204050000,5.7430498046875,8.94083747229576,-0.3272684722732752,0.4136545604912564
1782831045213979000,5.752978759765625,8.775060050117968,-0.26465594875477255,0.2195536917572841
1782831045223908600,5.76290869140625,8.523165017932653,-0.2298851526901126,0.10922105689309537
1782831045233837800,5.772837890625,8.373220540180801,-0.18108597740344703,0.12838738352544604
1782831045243766800,5.782766845703125,8.361472234719992,-0.041723683942481875,0.2258516959229484
1782831045253696800,5.79269677734375,8.337991405889392,0.2751972895786166,0.33802659765295684
1782831045263626000,5.8026259765625,8.014591226416826,0.4828524902820587,0.3275759307872504
1782831045273554700,5.8125546875,7.8281077008187765,0.45398887243457137,0.08749346493799239
1782831045283484700,5.822484619140625,8.041718887317181,0.5676035611767322,-0.25158757367134094
1782831045293413600,5.83241357421875,8.075538739332556,0.899511091427505,-0.07747391949854791
1782831045303343900,5.84234375,7.82787798371613,1.1999361996345221,0.23211393465548752
1782831045313272800,5.85227294921875,7.596611898061632,1.1876261686377227,-0.05184128292892128
1782831045323201500,5.862201416015625,7.451137259200215,1.0210147798538207,-0.36557569883577523
1782831045333131800,5.8721318359375,7.343593999326228,0.8678459332279861,-0.4699244004521519
1782831045343060700,5.882060791015625,7.029621573412418,0.7364515499062836,-0.372707012020424
1782831045352991000,5.891990966796875,6.240678350377083,0.568526740436256,-0.019329042913392186
1782831045362919700,5.901919677734375,4.8107191970169545,0.4523218890704214,0.09797054488658904
1782831045372848600,5.9118486328125,3.2010692469388244,0.6122375796079635,-0.24937625429742036
1782831045382778600,5.921778564453125,1.951963504335284,0.816212338232994,-1.0802305736061184
1782831045392707800,5.931707763671875,0.3754600370556116,1.042300582858175,-1.7696391442433
1782831045402637800,5.941637939453125,-1.2378402522236107,1.6497387993603945,-2.186827322220802
1782831045412566800,5.95156689453125,-2.96873465526998,2.2740099311113355,-2.0197849946737287
1782831045422495700,5.961495849609375,-4.980434543165564,2.1282693347901103,-1.5067378571361303
1782831045432425700,5.97142578125,-9.145867877453565,0.8038565683983266,-0.7429587398432195
1782831045442354700,5.981354736328125,-14.906444497561454,-0.9595653087653219,0.05773688030615449
1782831045452284000,5.991283935546875,-17.867032671254872,-2.1043718879826367,1.3380628138206898
1782831045462213600,6.001213623046875,-20.51370219504833,-1.8032151045002043,2.67376562051177
1782831045472142600,6.011142578125,-21.61496949226856,-1.2910364203602074,3.4415590880125757
1782831045482072800,6.02107275390625,-21.325958489131928,-0.8258469394754618,3.349022843134403
1782831045492001800,6.031001708984375,-20.50367179942131,0.30371413981504736,2.8515532139569517
1782831045501930800,6.0409306640625,-18.640050010883808,1.4139087667912245,2.429759588010609
1782831045511860700,6.05086083984375,-15.537807633399963,1.6973048526555299,1.5645010409273206
1782831045521789700,6.060789794921875,-11.848819844961165,1.7369520956501363,0.9801005856633186
1782831045531718700,6.07071875,-8.563205936419964,1.5947193613193928,0.04348901311457157
1782831045541649000,6.08064892578125,-6.041294426673651,1.1101565599881111,-1.0137643703341483
1782831045551577900,6.090577880859375,-4.123550587326288,0.3297315013859421,-1.292796123509109
1782831045561507600,6.100507568359375,-3.290932473215461,-0.3272736599050462,0.17277020367458462
1782831045571436500,6.1104365234375,-3.9087417154759168,-1.1380872078344226,1.5524284719482064
1782831045581365800,6.12036572265625,-4.015527434980869,-2.2617688736975192,2.4243157895214855
1782831045591295700,6.130295654296875,-3.270944747197628,-3.0008062023133037,2.5208102705061433
1782831045601224700,6.140224609375,-2.410604513424635,-2.822934729976952,2.1649996674247083
1782831045611154700,6.15015478515625,-1.6540858886539935,-2.579521110410988,1.9546116807565093
1782831045621083600,6.160083740234375,-0.8301765661776065,-2.844650010439753,1.7648950184561312
1782831045631009300,6.17000927734375,0.2376151624202728,-3.093554628637433,1.463893571665883
1782831045640939500,6.179939453125,1.3711550822138785,-3.188811822912097,0.9877953779496252
1782831045650868500,6.189868408203125,2.855650127881765,-3.213095492558181,0.5947823677424341
1782831045660798200,6.199798095703125,4.347583799117803,-3.1570249380290507,0.14485658002831042
1782831045670727400,6.2097275390625,5.622616594660282,-3.0932600296050308,-0.2159696957906708
1782831045680656400,6.219656494140625,6.870816912856697,-3.023372546647489,-0.25376700006965547
1782831045690586400,6.22958642578125,7.865354604673385,-2.8310169141456485,0.05159848714899271
1782831045700515300,6.239515380859375,8.419405368250608,-2.6753485057890414,0.3631040480252355
1782831045710444500,6.249444580078125,8.34489460940659,-2.7356118358328936,0.6723256992153823
1782831045720374300,6.259374267578125,7.348336809939146,-2.985591097524762,1.2534031475365162
1782831045730303200,6.26930322265625,5.913219835424423,-3.21765739364624,1.8810294349342584
1782831045740233500,6.2792333984375,5.993726619812846,-3.4152167322710154,1.2984896589756012
1782831045750162400,6.289162353515625,7.160812835377454,-3.1647073092252014,0.36446262302733956
1782831045760091400,6.29909130859375,7.556094594234228,-2.231337348946184,0.20311448853388428
1782831045770021400,6.309021484375,7.692106992745399,-1.6286124247014522,-0.08880231904685497
1782831045779950300,6.318950439453125,7.984338126972317,-1.6153193740166722,-0.3326978769108653
1782831045789880300,6.32888037109375,8.16910082012713,-1.7224980383619666,-0.37795017337091263
1782831045799809500,6.3388095703125,8.391159516975284,-1.587627503362298,-0.2667835353679955
1782831045809738500,6.348738525390625,8.639442203882336,-1.3145147649727762,0.11465353027060628
1782831045819668200,6.358668212890625,8.434635086086391,-0.9523964400492608,0.44684053504988547
1782831045829597400,6.368597412109375,7.875497813025117,-0.7247437225863337,0.6638445057917386
1782831045839526400,6.3785263671875,7.372382286915182,-0.7254150459766388,0.7333001001380384
1782831045849456400,6.388456298828125,7.0758151693105695,-0.8028370160922408,0.13406557529233395
1782831045859385600,6.398385498046875,6.9490598439663644,-0.7559383406646549,-0.3048668900467455
1782831045869315300,6.4083154296875,6.597021014508605,-0.30428843257166444,-0.00797813927233219
1782831045879244300,6.418244384765625,6.144222301706671,0.22785642334148287,-0.015453808915242551
1782831045889173200,6.42817333984375,5.318180058854818,0.3862903508886695,-0.08833601670935749
1782831045899103500,6.438103515625,4.693415590628981,0.5023518482610583,-0.475867453700304
1782831045909032400,6.448032470703125,3.811026022133231,0.721420204186812,-0.6998328609526157
1782831045918962400,6.45796240234375,2.1811744110256432,1.0618619732227175,-0.7813561289072036
1782831045928891400,6.467891357421875,0.0024140754044055935,1.402520672944933,-0.9133360570318997
1782831045938820400,6.4778203125,-2.5752964784532786,1.6182932752609251,-0.8768244817145169
1782831045948750600,6.48775048828125,-5.1528223233938215,1.6304716427020727,-0.8295308156199753
1782831045958679600,6.497679443359375,-6.957098188993334,0.9638396250836551,-0.41967254213914273
1782831045968608300,6.507608154296875,-9.60319312776923,0.008372399286925793,0.4300172644123435
1782831045978538200,6.517538330078125,-14.767120198023319,-0.3061569298572838,1.3074112165778875
1782831045988467500,6.527467529296875,-18.939519279670716,-0.46035950344502924,1.4651606689922512
1782831045998397400,6.5373974609375,-20.739402463269233,-0.4017600149601698,0.6855222307231277
1782831046008326400,6.547326416015625,-22.77607312629223,-0.2818964949563145,0.6227337661158293
1782831046018255400,6.55725537109375,-22.783569035005566,-0.5213272554311901,1.1928771479684859
1782831046028185300,6.567185302734375,-21.97239995163679,-0.18374686717577277,1.399469760941714
1782831046038114300,6.5771142578125,-20.205862572801113,0.16820384560711682,0.8775549148809164
1782831046048044500,6.58704443359375,-16.346503020131586,0.1973049254722893,-0.07739113658592105
1782831046057973500,6.596973388671875,-11.72762273826599,0.2113594620488584,-1.0159934445604681
1782831046067902200,6.606902099609375,-6.828363672530651,0.026700740725174546,-1.407747613812983
1782831046077832400,6.61683251953125,-2.7856536315917966,-0.14927417727485298,-1.2878656813696026
1782831046087761400,6.626761474609375,-0.03162146518826484,-0.405342257361114,-0.6727662095244974
1782831046097690400,6.6366904296875,1.1863485499173403,-0.8454450085885822,0.371221595768258
1782831046107620400,6.646620361328125,0.9312672889113426,-1.320515320561826,0.8215471964549272
1782831046117549300,6.65654931640625,0.5996002163529396,-1.8644028559125958,0.5856569581311196
1782831046127479300,6.666479248046875,0.5540408267050981,-2.453003100953996,0.6483502918008714
1782831046137408500,6.676408447265625,1.1343617575705052,-2.4944126774460074,0.41745654659010467
1782831046147337500,6.68633740234375,1.8723329182595014,-2.0363735797725617,0.30249738443642854
1782831046157267500,6.696267333984375,2.8310791657269,-1.8098389065541325,0.12916896235719322
1782831046167196200,6.706196044921875,3.8320465983301397,-1.792055120321363,0.054027723589912056
1782831046177126400,6.71612646484375,4.760064530056715,-1.767760783150792,0.09762881877683102
1782831046187055400,6.726055419921875,5.7515410807371135,-1.7030829976655542,0.029731852049380537
1782831046196984300,6.735984375,6.5876464524418115,-1.6652128473460672,-0.17762984560020267
1782831046206914300,6.745914306640625,7.358210553699731,-1.655828932929039,-0.2703334098692983
1782831046216843300,6.75584326171875,7.887854605773091,-1.6953578102409839,-0.1265663055781275
1782831046226772200,6.765772216796875,7.532229150000214,-1.6442337722033262,0.37485008846372364
1782831046236702500,6.775702392578125,7.1202055151790375,-1.5250611570730805,0.48996787524521346
1782831046246631400,6.78563134765625,7.095100300016999,-1.4421534490227699,0.4403443779636174
1782831046256561200,6.79556103515625,7.047123912355303,-1.3297580729424954,0.3256952316071838
1782831046266490400,6.805490478515625,6.933977425646781,-1.3048922194942831,-0.0040025867048650975
1782831046276419300,6.81541943359375,6.944976958566904,-1.1612637930214404,-0.3320112828861922
1782831046286349300,6.825349365234375,7.136950898274779,-0.8896087791595607,-0.4536590559583157
1782831046296278500,6.835278564453125,7.161009234732389,-0.6905461232997476,-0.4787736234705895
1782831046306208300,6.845208251953125,7.421400292584299,-0.4317221321014687,-0.626829803257808
1782831046316137200,6.85513720703125,8.017822463423013,-0.3135962495451793,-0.6706008481841534
1782831046326066400,6.86506640625,8.567934133985638,-0.34168519322574137,-0.6749139621429145
1782831046335996400,6.874996337890625,8.957686900287866,-0.2733309111848473,-0.7088694963019341
1782831046345925400,6.88492529296875,9.211437204951048,-0.17957177344821393,-0.6936752881709486
1782831046355855400,6.89485546875,9.25764716746211,-0.05621204535905271,-0.4842899757392704
1782831046365784300,6.904784423828125,8.727082493412494,0.08362294364757836,-0.1734936956435442
1782831046375713300,6.91471337890625,8.037979700788854,0.1981655608896166,0.10452705385796725
1782831046385643500,6.9246435546875,7.0839932150691745,0.41270504121407864,0.3751585698910057
1782831046395572500,6.934572509765625,6.132678578907251,0.8426058396399021,0.09691051443964242
1782831046405501400,6.94450146484375,5.782518987324834,1.2218559166282414,-0.36597609633021055
1782831046415431200,6.95443115234375,5.255534509849548,1.3853579412199557,-0.4847160191316157
1782831046425360400,6.9643603515625,4.22653399193883,1.3288009183481335,-0.4263742317348718
1782831046435290400,6.974290283203125,2.995314619159698,1.3975323631383478,-1.083866957347095
1782831046445219300,6.98421923828125,1.548852074766159,1.8895165466420352,-1.5347770799234508
1782831046455148500,6.9941484375,-0.7303355512440204,2.3306617926597593,-1.3260447515077889
1782831046465078300,7.004078369140625,-3.86063731752038,2.1370709192745387,-0.2558813253425062
1782831046475007200,7.01400732421875,-7.180788286435604,1.5565104805648327,1.0158275864742696
1782831046484937500,7.0239375,-11.924501401150225,0.5913182718284428,1.9861764473214745
1782831046494866400,7.033866455078125,-17.094484118181466,-0.47066900827437635,1.9172125089496372
1782831046504795400,7.04379541015625,-18.41915451259613,-1.4172257823847234,1.2354280765153467
1782831046514725400,7.053725341796875,-18.837191708618402,-0.6197840494647622,1.8730061413459478
1782831046524654300,7.063654296875,-20.031090527784823,0.20351649346351622,2.495616792538762
1782831046534583300,7.073583251953125,-19.902329707837104,-0.364744874034822,3.01554725984931
1782831046544513500,7.083513427734375,-18.734288968026636,-0.5145469476412982,3.6713103851899502
1782831046554442500,7.0934423828125,-17.51742194572687,0.31886319363005455,3.552306696885824
1782831046564372200,7.103372314453125,-15.758866797816752,0.914056699456647,2.495129885804653
1782831046574301400,7.113301513671875,-12.446542577004433,1.131003825444728,1.05744466823712
1782831046584230400,7.12323046875,-8.35792886302471,1.3161612170055508,-0.4699624674402177
1782831046594160400,7.133160400390625,-4.378474027422071,1.3751476589813827,-1.1595861421328038
1782831046604089300,7.14308935546875,-2.210906701466441,1.2890377938888966,-0.4239044806204736
1782831046614019300,7.153019287109375,-1.9318927762091158,0.40625067744292315,0.20750300581641495
1782831046623948300,7.1629482421875,-2.210582291817665,-0.7819237727273255,0.42226138958856463
1782831046633877800,7.172877685546875,-1.4165700949549673,-1.7275024225205182,-0.11023564076311886
1782831046643807700,7.182807861328125,0.1015840592086315,-1.9042180028200149,-0.31935514186546204
1782831046653736700,7.19273681640625,0.9808896902143954,-1.425815039292723,0.31292269766516984
1782831046663665700,7.202665771484375,1.7066671397626398,-1.2285896087974308,0.6946930138461291
1782831046673595600,7.212595703125,2.5572055259674786,-1.2062266780808568,0.8729487362597137
1782831046683524600,7.222524658203125,3.6574843966722486,-1.3068638118281959,0.6952392495520413
1782831046693454800,7.232454833984375,4.949698044118285,-1.2904054289802909,0.5232720328234136
1782831046703383800,7.2423837890625,6.085899876597523,-1.1212487396277486,0.4064971264846623
1782831046713312500,7.2523125,6.86234543710947,-1.0625255516979843,0.07910279934201389
1782831046723242800,7.26224267578125,7.550828052008152,-1.1735176368515938,-0.24104572139084338
1782831046733171700,7.272171630859375,8.20311590245366,-1.3951184338644147,-0.12937321622502057
1782831046743101700,7.282101806640625,8.426875558000802,-1.4483556646637619,0.2955850477647036
1782831046753030700,7.29203076171875,8.558238084879518,-1.3912139737717806,0.41779242748096584
1782831046762959600,7.301959716796875,8.472656481444835,-1.1656809518765658,0.5141165203347802
1782831046772889600,7.3118896484375,8.271110995793341,-1.0673141742140053,0.3542293617719784
1782831046782818600,7.321818603515625,8.243950601667166,-1.2818145646370946,-0.36520514849033203
1782831046792747800,7.331747802734375,8.257048568171262,-1.4393226095110176,-0.8439069853663445
1782831046802677500,7.341677490234375,8.230349946337938,-1.433771989646554,-0.9013470746830106
1782831046812606500,7.3516064453125,8.246965565574168,-1.244392596476525,-0.8006758194703608
1782831046822536700,7.36153662109375,8.245614150965213,-0.9726304689783603,-0.8129745984207838
1782831046832465700,7.371465576171875,8.001631791600584,-0.6190088273085653,-0.6407851172436029
1782831046842394600,7.38139453125,7.8432257749736305,-0.27575779127189887,-0.5036549667488783
1782831046852324600,7.39132470703125,7.952519093385338,-0.18930068364432082,-0.42324046375378965
1782831046862253600,7.401253662109375,7.919361504670977,-0.2815495264158584,-0.2943479802504182
1782831046872183600,7.41118359375,7.50153882818222,-0.365039473067224,-0.05090469619855285
1782831046882112800,7.42111279296875,7.116722349238395,-0.3491917694635689,-0.004390855370089411
1782831046892041700,7.431041748046875,6.863454275134205,-0.17370222382768988,-0.2953942744329572
1782831046901971500,7.440971435546875,6.701670891028642,0.1614576227499172,-0.6212038531348109
1782831046911900700,7.450900634765625,6.645891136139631,0.5584381118159741,-0.8463657036300748
1782831046921830700,7.46083056640625,6.312955651080608,0.824897748991847,-0.6327479412604123
1782831046931759600,7.470759521484375,5.439180766195059,0.9019520548388361,-0.27718831726536153
1782831046941688800,7.480688720703125,4.089015865039825,0.9493833027731626,-0.14720869611240922
1782831046951618600,7.49061865234375,2.1812632583528755,1.1660622062791137,-0.48186574426703155
1782831046961547500,7.500547607421875,-0.16512509574890136,1.465924492971599,-0.9533467265114187
1782831046971476500,7.5104765625,-3.500121751618385,1.9737154635466634,-1.5963568993933497
1782831046981406700,7.52040673828125,-6.652209233245253,2.5218542266011235,-1.7631132496058939
1782831046991335700,7.530335693359375,-8.507518535989522,1.9254761871650814,-0.9397656526654958
1782831047001265700,7.540265625,-10.626191774916649,0.00527224131450057,0.1354680625014007
1782831047011194600,7.550194580078125,-13.763096300458907,-1.4608786077588796,1.3964580119051038
1782831047021123600,7.56012353515625,-16.475357363581658,-2.0141402667850254,3.2421029758557673
1782831047031053800,7.5700537109375,-16.847545831620693,-2.0036103972032664,4.533424935159087
1782831047040982800,7.579982666015625,-16.507863794910907,-1.8696251206055283,4.263417323178053
1782831047050912500,7.58991259765625,-16.846070498371123,-1.4073127295270562,4.238232613039017
1782831047060841500,7.599841552734375,-17.29586359961629,-1.1612711726102978,4.172806493404507
1782831047070770700,7.609770751953125,-18.147244281864165,-1.1301293076325207,4.30525389291048
1782831047080700700,7.61970068359375,-18.144817346978186,-1.110569963094592,4.234876872870326
1782831047090629600,7.629629638671875,-16.798754620444775,-0.6263909003838897,3.8472093884095546
1782831047100558800,7.639558837890625,-14.652595993220805,0.15523315874449908,3.1357287597611543
1782831047110488600,7.649488525390625,-11.326124004590511,0.6683203360315412,1.9001570369914174
1782831047120417500,7.65941748046875,-7.7098238512218,0.7418995861791073,0.6259560160979628
1782831047130347800,7.66934765625,-4.532362858885526,0.7520003436286002,0.18009470134377478
1782831047140276700,7.67927685546875,-2.098110927891731,0.5159066916871815,0.1242041795566678
1782831047150205700,7.689205810546875,-0.15352350528240202,-0.009769698864221573,0.1981068895049393
1782831047160135700,7.6991357421875,1.2511936547935008,-0.617553806194663,0.23583310130909083
1782831047170064600,7.709064697265625,2.1088030022978783,-1.0998364606995135,0.32160131335705516
1782831047179994600,7.71899462890625,2.6368419572621584,-1.4135609762668608,0.24795506238788365
1782831047189923800,7.728923828125,3.4114199703365564,-1.5431667226061223,0.22665165066160262
1782831047199852800,7.738852783203125,4.094356057024002,-1.237209553104639,0.21914361311905084
1782831047209782500,7.748782470703125,4.69198175843358,-0.8531642046637833,0.2348115031763911
1782831047219711700,7.758711669921875,5.479481796923279,-0.7958261874821037,0.49945861103758216
1782831047229640700,7.768640625,6.14146452743113,-0.7201166473075747,0.4618264341924339
1782831047239570700,7.77857080078125,6.835165753760934,-0.607998480733484,0.13639065723903476
1782831047249499600,7.788499755859375,7.453548996517061,-0.5354664015512913,-0.06456658019572496
1782831047259429600,7.7984296875,7.790990560823679,-0.49496213986855,-0.19634535972513256
1782831047269358600,7.808358642578125,7.929243431738018,-0.5024462120136246,-0.2295700953915715
1782831047279287600,7.81828759765625,8.1782556019634,-0.4929789301620796,-0.2163423650279641
1782831047289217800,7.8282177734375,8.167237948864697,-0.38436844291537997,0.10961882403902709
1782831047299146800,7.838146728515625,8.14729815364182,-0.29107575364671645,0.3364082757361233
1782831047309076700,7.84807666015625,8.3972625100255,-0.11169862598776817,0.12166662390306592
1782831047319005700,7.858005615234375,8.460109134560822,0.15086612264141439,-0.1981196759212762
1782831047328934700,7.8679345703125,8.367545417153835,0.3607611381608993,-0.34127515112012624
1782831047338864600,7.87786474609375,8.372228606534003,0.5424731385082006,-0.49295551275387406
1782831047348793900,7.8877939453125,8.467359544080495,0.6049284256383777,-0.6163193690288812
1782831047358723600,7.8977236328125,8.587094761529565,0.4737863365773111,-0.6026801352549344
1782831047368652500,7.907652587890625,8.489361532530188,0.462113069114089,-0.275065041501075
1782831047378581800,7.917581787109375,7.949217713752389,0.5097397665552794,0.12807700240202247
1782831047388511700,7.92751171875,7.330571436145902,0.15719422968439756,0.10290434802696108
1782831047398440700,7.937440673828125,7.3941001977264875,-0.06306253230832516,-0.405696112300083
1782831047408369700,7.94736962890625,7.831025634092092,0.20597068168260155,-0.6445559410192072
1782831047418299600,7.957299560546875,7.802347236618399,0.6185248431839049,-0.7966035285301506
1782831047428228600,7.967228515625,7.336444127571582,0.8783356899950653,-0.8224412957504391
1782831047438158800,7.977158935546875,5.90058130312562,0.955011737114191,-0.4587064755409956
1782831047448087800,7.987087890625,4.313082394579053,1.0427575328454375,-0.6447441570676863
1782831047458016500,7.9970166015625,3.304962167611718,1.3252329967334866,-0.971973977831006
1782831047467946800,8.00694677734375,2.4341467170536517,1.6329554223418234,-1.269040423259884
1782831047477875700,8.016875732421875,1.7320090862900017,1.7591634890668093,-1.4710453431166708
1782831047487805700,8.0268056640625,0.6905307796001434,1.5313364379502832,-1.1966396423071621
1782831047497735000,8.03673486328125,-1.3754361205339432,1.0394438782528042,-0.7486826704479753
1782831047507663600,8.04666357421875,-4.49886040225625,0.3762698921337724,-0.6175675424590706
1782831047517593600,8.056593505859375,-6.997456502866744,-0.48928895307034254,-0.5756245897427201
1782831047527522600,8.0665224609375,-9.0925565585047,-0.7746246286951005,0.09556143791824578
1782831047537451800,8.07645166015625,-12.693932114464044,-0.5337216767758131,1.390148390366882
1782831047547381800,8.0863818359375,-15.41705125620961,-0.8221450892828405,1.820381781747937
1782831047557310500,8.096310546875,-16.48476582791805,-1.0140238980531693,2.0901761893697084
1782831047567240700,8.10624072265625,-16.865618079406023,-0.4720093169674277,2.816832321448624
1782831047577169700,8.116169677734375,-17.44888441607356,-0.09499554766379296,3.3139275643557307
1782831047587098600,8.1260986328125,-18.92339465882182,-0.44997569127045567,3.7944799610018727
1782831047597028600,8.136028564453126,-19.830071111834048,-0.9605501550842076,4.315459645104408
1782831047606957600,8.14595751953125,-19.667520250487325,-0.7893783265169709,4.189145633786916
1782831047616887600,8.155887451171875,-18.379348571908473,-0.17946020283252,3.0573622022718188
1782831047626816800,8.165816650390624,-15.105270787382125,0.5732601256337017,1.373261699104309
1782831047636744700,8.17574462890625,-11.227724420636891,1.0176097206506878,-0.058589405482262366
1782831047646675000,8.185675048828125,-7.030154657375812,0.7661116518937051,-0.6116580261543393
1782831047656604000,8.19560400390625,-3.48591962326467,0.3346336672790348,-0.8173883962750434
1782831047666532900,8.205532958984374,-0.771691059461236,-0.22333682702518998,-0.7082828555203974
1782831047676462800,8.215462890625,1.081222288057208,-0.879536809413135,-0.47052521588951346
1782831047686391800,8.225391845703125,2.2731126900106666,-1.3314357968963682,-0.1226812077730894
1782831047696321800,8.23532177734375,3.2653672393262383,-1.4996861850589513,0.042726796570420264
1782831047706251000,8.2452509765625,4.0705473114132875,-1.409642341518402,0.3235702753424644
1782831047716180000,8.255179931640624,4.281708182150125,-1.2109355133589357,0.7247307900395243
1782831047726109700,8.265109619140626,4.88003004913032,-1.0682399107567966,0.7976371824268251
1782831047736038700,8.27503857421875,5.723343744778632,-0.923940233958885,0.7303334323521703
1782831047745969000,8.284968994140625,6.292932853749394,-0.798709414768219,0.5473941552322358
1782831047755897900,8.29489794921875,6.887984905278683,-0.6667786595474928,0.20425306410975752
1782831047765826800,8.304826904296876,7.51491093545258,-0.5867608277197927,0.0016943462951108813
1782831047775756800,8.3147568359375,8.159825626781583,-0.5436908802675083,-0.26824001778662204
1782831047785685800,8.324685791015625,8.665820507720113,-0.5185706867320463,-0.35289168342743066
1782831047795614700,8.33461474609375,8.845696597877144,-0.4904601522741839,0.00603697860930115
1782831047805545000,8.344544921875,8.876526620426773,-0.5397635872885584,-0.04846775137521326
1782831047815474000,8.354473876953126,8.864419418525696,-0.5803838035011664,-0.23087241016179322
1782831047825403600,8.364403564453125,8.863538544037938,-0.5873795806726441,-0.30849530967697497
1782831047835332900,8.374332763671875,8.889472026717662,-0.554342987989448,-0.45648317346833645
1782831047845261800,8.38426171875,8.71899563306868,-0.5147327525369823,-0.3971945336755365
1782831047855191800,8.39419189453125,8.332302838858961,-0.5342530802387744,-0.24613785689808426
1782831047865120800,8.404120849609376,7.827617871475219,-0.5602773830071092,-0.0896362856529653
1782831047875050800,8.41405078125,7.511018019667268,-0.5531260134151205,-0.19324724757932124
1782831047884979700,8.423979736328125,7.566715941491722,-0.47688028400465843,-0.5940781649958342
1782831047894909000,8.433908935546874,7.519324660241604,-0.29537735983077434,-0.6557680207114667
1782831047904839000,8.4438388671875,7.337598558303713,-0.13327435184940695,-0.6682820498477667
1782831047914767600,8.453767578125,7.376963769486546,-0.024162819745391605,-0.8706977424625307
1782831047924697900,8.46369775390625,7.527964478293061,0.12049531510137021,-0.8351462443489581
1782831047934626800,8.473626708984375,7.5878937540769575,0.14694127734787762,-0.5540873692605645
1782831047944555800,8.4835556640625,7.190998130282759,-0.07090075165331364,-0.4738934502135962
1782831047954486000,8.493486083984376,6.500432863891124,-0.1949745097633451,-0.4794420242514461
1782831047964414700,8.503414794921875,6.05815612962544,-0.1027201505664736,-0.7373552938129753
1782831047974343700,8.51334375,5.803052072265744,0.1587518343899399,-0.8933411706209182
1782831047984274000,8.52327392578125,4.803347791466116,0.26165662080831825,-0.730732222411409
1782831047994203000,8.533202880859376,2.8813012864887715,-0.06633380906395614,-0.7264647011600435
1782831048004132900,8.5431328125,0.19163024083673952,-0.2924957765124738,-0.7283709001075476
1782831048014061600,8.5530615234375,-2.5250965695232153,-0.2828838254932314,-0.5129757528018206
1782831048023990800,8.56299072265625,-4.468490398433804,-0.18510748800449073,-0.28350531839244064
1782831048033920800,8.572920654296874,-6.40349809179306,0.07488061506971716,0.45288960595577954
1782831048043849700,8.582849609375,-8.453510466948151,0.1768057428009808,1.0636696802318095
1782831048053780000,8.592780029296875,-10.311966835546492,-0.21667554250508544,1.5271256883874536
1782831048063708700,8.602708740234375,-13.034072416335343,-0.7957876090373843,1.686187976966053
1782831048073637600,8.6126376953125,-15.090989748573302,-1.0690158635653555,1.7064331848762928
1782831048083567900,8.62256787109375,-15.214731863576173,-0.9869733940422535,1.5477813767947255
1782831048093496800,8.632496826171876,-15.142228937423228,-0.6554590278275311,1.5241773599758743
1782831048103425800,8.64242578125,-15.500149226135015,-0.5899655420452355,1.7643753784961997
1782831048113355800,8.652355712890625,-15.046248105049132,-0.596719327154383,2.0255494034193453
1782831048123284700,8.66228466796875,-14.53236919286251,-0.40755438045263287,2.50235282279551
1782831048133214700,8.672214599609376,-14.651679462897777,-0.5749227981489151,2.6475951142057776
1782831048143144000,8.68214404296875,-14.631552036148308,-0.9675179482702165,2.5498241835445166
1782831048153073000,8.692072998046875,-14.217141213929652,-1.0251199501503259,2.345849424919486
1782831048163002600,8.702002685546875,-13.040150274944304,-0.9304496889181435,1.761026214198768
1782831048172931800,8.711931884765624,-10.640428390061855,-0.5991697159811854,0.9103634709618985
1782831048182861800,8.72186181640625,-7.538776964208483,-0.10907616852968931,0.039238004606589674
1782831048192790800,8.731790771484375,-4.2955882389426225,0.01729125347547233,-0.6927006709851324
1782831048202719700,8.7417197265625,-1.7398673985749482,-0.18563494594469665,-1.0305076345380395
1782831048212649700,8.751649658203124,-0.046240357649326325,-0.5828707614786922,-0.8471718323811889
1782831048222578700,8.76157861328125,1.2352443905115127,-1.0010860905468464,-0.505154119265452
1782831048232507600,8.771507568359375,2.290667635923624,-1.3556037312082945,-0.3930083340320736
1782831048242438000,8.78143798828125,3.1957337311297653,-1.468177240334451,-0.4207883944265544
1782831048252366800,8.791366943359375,3.8409044430464503,-1.420787420389056,-0.24942403896190224
1782831048262296600,8.801296630859374,4.094803216269612,-1.2029939067047088,-0.02110745076276362
1782831048272225800,8.811225830078126,4.509292948943377,-0.7996190769590437,-0.005096227160468697
1782831048282154800,8.82115478515625,5.030829097884893,-0.496777482194826,0.035852380756288764
1782831048292084700,8.831084716796875,5.6388224640518425,-0.34346455092318356,-0.1418962689179927
1782831048302014000,8.841013916015624,6.429454370826482,-0.3342180356828496,-0.3400772465724498
1782831048311943700,8.850943603515624,7.299903326159715,-0.3447618972573429,-0.46223698775470257
1782831048321872600,8.86087255859375,7.9638968119680875,-0.28005948878750203,-0.34171193510219455
1782831048331801900,8.8708017578125,8.17443282880485,-0.2374509848345071,-0.12191891816370189
1782831048341731800,8.88073193359375,8.070258753103017,-0.33344233860261735,-0.08647636031731963
1782831048351660800,8.890660888671874,7.930343501934408,-0.4945682817127555,-0.2851942213274538
1782831048361590000,8.900590087890626,7.966209765085577,-0.4503400676034391,-0.40203517863973975
1782831048371519700,8.910519775390625,7.975337074393034,-0.21496303949877618,-0.4249185530338436
1782831048381448700,8.92044873046875,7.872610274890064,-0.07667787375003099,-0.17690321182608604
1782831048391379000,8.93037890625,7.586108624225854,-0.013940774003788828,0.10465002265051007
1782831048401308000,8.940307861328124,7.25787561776936,0.008500774906948208,-0.00122062783613801
1782831048411236900,8.95023681640625,7.277922965019941,-0.0005549304690212011,-0.20422164605818688
1782831048421166800,8.960166748046875,7.3817556799381965,0.01972184162326157,-0.3614662907555699
1782831048431095800,8.970095703125,7.310154086539149,0.023666341465339063,-0.4322377169407904
1782831048441025800,8.98002587890625,7.107301025420427,0.04677592583075166,-0.4230337622005492
1782831048450955000,8.989955078125,6.879108940383792,0.14943214431554078,-0.3653977119203657
1782831048460884000,8.999884033203125,6.765648565420508,0.2447061435945332,-0.3890423530105501
1782831048470813700,9.009813720703125,6.124871704548597,0.287351691622287,-0.09692834235727786
1782831048480742700,9.01974267578125,5.299222260406613,0.35489392662793395,0.4241691594386473
1782831048490671900,9.029671875,5.293427310392261,0.42982276475355025,0.08868366110324859
1782831048500601900,9.039601806640626,5.391972440296411,0.6951540554866195,-0.45494971682336177
1782831048510530800,9.04953076171875,5.143548883613944,1.1575035637050866,-0.6720610569298267
1782831048520460800,9.059460693359375,4.388475196954608,1.4241821773938834,-0.4423985340144485
1782831048530389800,9.0693896484375,3.558959140512347,1.0915689100265502,-0.559519404246658
1782831048540318700,9.079318603515626,2.1238865896612404,0.7834576312310993,-0.4363941790331155
1782831048550249000,9.0892490234375,-0.1388929223835468,0.4679007126048207,-0.14940912876613438
1782831048560178000,9.099177978515625,-2.445447863268852,-0.09695537649467587,0.003438450016081333
1782831048570107600,9.109107666015625,-3.7921956494569775,-0.38027255190387366,0.666214157532528
1782831048580036900,9.119036865234374,-4.954828392744064,-0.21365049559548496,1.1614558084622024
1782831048589965800,9.1289658203125,-6.2784396334946155,-0.20676745808348057,1.188604000693932
1782831048599895800,9.138895751953125,-8.001761555460096,-0.3463547924719751,1.0276781102005392
1782831048609824800,9.14882470703125,-9.889521175432204,-0.48088981190696356,0.4656774835973978
1782831048619753700,9.158753662109374,-10.07843631209135,-0.2610198572747409,-0.22744170506075023
1782831048629684000,9.16868408203125,-9.500129059135913,0.47049219040274615,-0.28617870232015846
1782831048639613000,9.178613037109375,-9.311777401578425,0.7664750783786177,-0.14782383233606813
1782831048649543000,9.18854296875,-8.742780413281917,0.1798158844023943,0.36567302173040805
1782831048659472000,9.198471923828125,-8.357267768767475,-0.4361174809835851,0.7416394739381968
1782831048669400800,9.20840087890625,-7.677798481407761,-0.49525209925845265,0.5327659104209393
1782831048679330800,9.218330810546876,-6.402987804183364,-0.48453795915097,0.39137751795984804
1782831048689259800,9.228259765625,-5.495625706994534,-0.6166441440038383,0.4094553917683661
1782831048699190000,9.23818994140625,-5.068529590725898,-0.7645585772328078,0.464219174547866
1782831048709118700,9.24811865234375,-4.5599563837319605,-0.936541576052457,0.5058724236026406
1782831048719047700,9.258047607421876,-3.843797826400399,-1.0609957848474383,0.28945136731527743
1782831048728978000,9.26797802734375,-3.110394704279303,-1.1671380918823182,0.23423326489701865
1782831048738907000,9.277906982421875,-2.641457926625013,-1.2780343154460192,0.3657643532756716
1782831048748835800,9.2878359375,-2.3143816889882087,-1.2740883542992174,0.29688758173063395
1782831048758765800,9.297765869140624,-1.7652531842440367,-1.049591032127291,0.019991963801532984
1782831048768694800,9.30769482421875,-1.3395745335578917,-0.7126832824364304,-0.2537649177104235
1782831048778624800,9.317624755859375,-0.9902437940150499,-0.3975134634315967,-0.522259494780004
1782831048788554000,9.327553955078125,-0.146117612940073,-0.0866820389572531,-0.57487873981148
1782831048798483000,9.33748291015625,0.7773924859732388,0.28496516181193293,-0.5782553035724908
1782831048808412700,9.34741259765625,1.4757231256693601,0.44717195896133777,-0.5754653805930167
1782831048818342000,9.357341796875,1.509988967886567,0.20679609965607523,-0.3247020558513701
1782831048828271900,9.36727197265625,1.1830495083719492,-0.3197873958028853,-0.17227277554646134
1782831048838200800,9.377200927734375,1.055137998729944,-0.7395156867172569,0.11419336541295051
1782831048848130000,9.387130126953124,1.4311656065404414,-0.8792915294151753,0.27302988241165876
1782831048858059800,9.397059814453126,2.054337837138772,-0.6343455857153981,0.2832437448468059
1782831048867988700,9.40698876953125,2.106192527538538,-0.47474312584549183,0.3552875290554017
1782831048877917700,9.416917724609375,1.7356962503701447,-0.49086621232442557,0.22181970046050845
1782831048887848000,9.426847900390625,1.5352257004737853,-0.22989172856137155,0.09047982380501926
1782831048897777000,9.43677685546875,1.3027356259822844,0.1415761701181531,0.00395662867128849
1782831048907707000,9.446706787109376,0.9352923066437244,0.4032365903187543,-0.0979891765218228
1782831048917635800,9.4566357421875,0.753242379578948,0.4035305317640304,-0.03261244898699224
1782831048927564800,9.466564697265625,0.9085293874025344,0.12997633321732283,0.12410912168435752
1782831048937495000,9.4764951171875,1.1667413476496935,-0.05542582688480615,0.32963658964410425
1782831048947424000,9.486424072265624,1.641257386741042,-0.07431742822900414,0.43815198248587545
1782831048957353700,9.496353759765626,2.3303327068358657,-0.16622816161997617,0.39360067390203474
1782831048967282700,9.50628271484375,2.8537901792287825,-0.30481041061915454,0.39791853710114955
1782831048977212000,9.5162119140625,3.1647014640063045,-0.5143102893412113,0.49086745443344115
1782831048987142000,9.526141845703124,3.506446862986684,-0.7076797750607132,0.2535532477211207
1782831048997070800,9.53607080078125,3.877295606854558,-0.6812389273807407,0.13894107237420975
1782831049007000000,9.546,4.1611768458873035,-0.5074512172266841,0.1378280696310103
1782831049016929800,9.5559296875,4.24523752336502,-0.41844899169355626,0.07652637298274785
1782831049026858800,9.565858642578124,4.0146909841567275,-0.4752152734018862,-0.004675188736803829
1782831049036789000,9.5757890625,3.853900118219852,-0.49839770380780096,-0.30542969329496844
1782831049046718000,9.585718017578126,4.124160828179121,-0.44068047805018723,-0.4543940922345966
1782831049056647000,9.59564697265625,4.608021618720889,-0.3289824365843087,-0.3184932278065011
1782831049066577000,9.605576904296875,4.868097619274258,-0.1982885296821594,-0.17687972135264426
1782831049076505900,9.615505859375,4.631676050552725,-0.15770378664173185,-0.26151808912046254
1782831049086435800,9.625435791015626,4.824424481764435,-0.032381343644857404,-0.5850844554727896
1782831049096365000,9.635364990234375,5.199894455692172,0.30219094883576036,-0.7409802793771028
1782831049106294000,9.6452939453125,5.137023281237482,0.4182186900690198,-0.634091830150038
1782831049116223700,9.6552236328125,4.192412526628375,0.11743198200799525,-0.4872178458847105
1782831049126153000,9.665153076171874,2.9085885218650103,-0.3029372371584177,-0.2769208254355937
1782831049136082000,9.67508203125,1.6806120765298604,-0.4939679777320474,-0.10116170561071484
1782831049146012000,9.685011962890625,0.25451544381678104,-0.44483474818542595,-0.03660290686264634
1782831049155940900,9.69494091796875,-1.7643243789613245,-0.34804859077781436,-0.14848551111519337
1782831049165870800,9.704870849609375,-4.484147986292839,-0.2855053331032395,-0.6957659768398851
1782831049175799800,9.7147998046875,-6.614311756527424,-0.4146471151925623,-1.5599952539406716
1782831049185728800,9.724728759765625,-7.416932207259535,-0.265903756858781,-1.888045305045694
1782831049195659000,9.734658935546875,-7.507528423985838,0.07883928956761956,-1.5022716715075075
1782831049205588000,9.744587890625,-7.78653065880537,0.29825002919025717,-0.5722778365980833
1782831049215518000,9.75451806640625,-8.803738447591662,-0.009329700011759996,0.6865098535209894
1782831049225447000,9.764447021484376,-9.750761524039506,-0.4553513198941946,1.3026415179580448
1782831049235375900,9.7743759765625,-10.311036276698111,-0.38570626739040015,0.9029954264119266
1782831049245305900,9.784305908203125,-10.857358491849899,-0.08620499603003264,0.14465930389054119
1782831049255235000,9.794235107421875,-11.363944908940791,-0.1281223759137094,0.02820332730785012
1782831049265163800,9.804163818359376,-11.30704637915492,-0.4032205890320241,0.603455284345895
1782831049275093800,9.81409375,-10.6738022518754,-0.4029343194365501,0.8932980621315538
1782831049285023000,9.82402294921875,-10.187236878550053,-0.1980743024095893,0.8176168712686747
1782831049294953000,9.833952880859375,-9.336732979136706,0.1102163515407592,0.3476267121039331
1782831049304882000,9.8438818359375,-7.896663935172557,0.6301649390298872,0.1062829028156586
1782831049314811000,9.853810791015626,-5.615936093983054,0.7170465922124684,-0.011075703428871929
1782831049324740900,9.863740966796875,-2.542814597043395,0.6159985395766794,0.0822332063222304
1782831049334669800,9.873669921875,0.16370061590373516,0.2388531067173928,-0.5420834816034883
1782831049344600000,9.88360009765625,2.0992419777482745,-0.1609310050599277,-0.5393278992850333
1782831049354529000,9.893529052734374,2.7952754464179277,-0.23622253901809454,0.5665269814537838
1782831049364457700,9.903457763671875,2.9073569342434404,-0.5466902447465807,0.788510530706495
1782831049374388000,9.913387939453125,2.4661247405946254,-0.8219142031364143,1.394660460963845
1782831049384317000,9.92331689453125,2.276960013088584,-1.0806287060782314,1.6504551309362052
1782831049394246000,9.933245849609374,2.669444834703207,-1.1204581007067114,1.629826038274914
1782831049404177000,9.943177001953124,5.067168823766708,-0.24296507208086549,1.7027013048715889
1782831049414105900,9.95310595703125,2.9648347252219915,0.24966427745856343,1.6950294550694525
1782831049424035800,9.963035888671875,2.1157997293174264,-0.6001124401913955,0.5513293757893145
1782831049433965000,9.972965087890625,2.350371286258101,-0.9269558554530143,-0.6213914115961641
1782831049443894800,9.982894775390625,2.408305004310608,-0.40455187416840344,-0.4819531302895397
1782831049453823700,9.99282373046875,2.654673382028937,-0.016510697557032106,-0.12262765095494686
1782831049463753000,10.0027529296875,3.4828695880442857,0.014399550621956586,0.3105940355218947
1782831049473683000,10.012682861328125,4.8779795463413,0.054969205691106617,0.602910802205652
1782831049483612000,10.02261181640625,5.950180908074975,0.320551146716997,0.6617725218232721
1782831049493540900,10.032540771484374,6.299892755889892,0.6577766571201383,0.858419860169664
1782831049503470800,10.042470947265626,5.869586445403098,0.8672440218120813,0.9842608471479266
1782831049513399800,10.05239990234375,5.325740264976024,0.7240876698303967,0.7353677001923322
1782831049523330000,10.062330078125,4.801239421010017,0.44478871708661316,0.35990981856118887
1782831049533259000,10.072259033203125,4.187009790802001,0.39220658919513224,-0.3599369257638231
1782831049543188000,10.08218798828125,3.5092058063060043,0.6522831742703914,-1.1892221325922756
1782831049553118000,10.092117919921876,2.8055945958584547,1.0438229701198636,-1.5827993525534867
1782831049563047000,10.102046875,2.465646601688862,1.2905161958783864,-1.3938323395766317
1782831049572975900,10.111975830078125,2.6358231356084345,1.20592214217633,-0.9717134271986781
1782831049582905900,10.12190576171875,2.846685900181532,1.2626131666913627,-0.6366229560628534
1782831049592835000,10.1318349609375,2.36415606598258,1.5808105168238282,-0.6738115538589656
1782831049602764800,10.141764892578125,1.438253518974781,1.6759319558896124,-0.7971242644686252
1782831049612693800,10.15169384765625,1.0271107586413621,1.4623685540556908,-0.6330122182197868
1782831049622623000,10.161623046875,1.0331003544449806,1.2672215372696518,-0.2741001419916749
1782831049632553200,10.17155322265625,0.12438158195018767,1.1443819240644573,0.12459887796267867
1782831049642482200,10.181482177734376,-0.6123246733695268,0.8376382803604007,0.4297745416976511
1782831049652412400,10.191412353515625,-0.9264040667891502,0.8777662926092743,0.5072160932965576
1782831049662341400,10.20134130859375,-1.4786428125083446,1.5272376243293284,0.02790061803422868
1782831049672270300,10.211270263671874,-2.230114090761542,1.862337009423971,-0.14044183232598006
1782831049682200300,10.221200439453124,-3.7816935446649786,1.3808601914092897,0.24844072701297698
1782831049692129300,10.23112939453125,-5.456347589573264,0.48054801273196934,0.6517327738460152
1782831049702058200,10.241058349609375,-5.681690130397677,0.04582651615142822,0.7306455670412629
1782831049711988500,10.250988525390625,-4.9608191575914615,0.46457039913833137,0.6835469120621681
1782831049721917400,10.26091748046875,-4.019481141042709,1.1493199649885295,0.2866394151670858
1782831049731847200,10.27084716796875,-2.838587349399924,1.563404623992741,-0.07092257989263162
1782831049741776400,10.2807763671875,-1.574343074375391,1.4363909399732946,-0.3589867488995194
1782831049751705300,10.290705322265625,-1.175091827365756,1.0608215973243116,-0.1838920478001237
1782831049761635300,10.30063525390625,-1.2597381957769394,0.7107727726399898,0.0330813816729933
1782831049771564500,10.310564453125,-0.7081412550926208,0.4235714492738247,0.02771287690978497
1782831049781493500,10.320493408203125,0.000987257471680641,0.15058306791633366,-0.09328954746350646
1782831049791423200,10.33042333984375,0.3221154003590345,-0.09794511818438768,-0.18222765825185924
1782831049801352200,10.340352294921875,0.9566098199605941,-0.12561696896404026,-0.11203061615480109
1782831049811282400,10.350282470703124,1.388226628524065,0.19075024313181638,-0.05624017547499388
1782831049821211400,10.36021142578125,1.431651344230771,0.3897086348995566,-0.12773922181501984
1782831049831140400,10.370140380859375,1.3073720536112785,0.4073933446720242,-0.18559925357680768
1782831049841070300,10.3800703125,1.0213438656777143,0.42393414510637517,-0.39009840140212326
1782831049850999300,10.389999267578125,1.0376526109218598,0.4149529662713408,-0.5261038221832365
1782831049860929500,10.399929443359374,0.9713210668802261,0.25090192949473855,-0.2417458324842155
1782831049870858500,10.4098583984375,0.7143003622442483,0.009064765465259552,0.07459226311501115
1782831049880787500,10.419787353515625,0.5275666612774134,-0.07199439210891723,0.28377193343937396
1782831049890717200,10.42971728515625,0.47895898997485636,-0.001271042849123478,0.2965383299015462
1782831049900646400,10.439646484375,0.36432080340385437,0.17408289370834826,0.026853848927654324
1782831049910575400,10.449575439453126,0.1606564259022474,0.16638357137739657,-0.19136618307307363
1782831049920505300,10.45950537109375,-0.16301555624902248,0.11976648937016725,-0.18182747995313256
1782831049930434600,10.4694345703125,-0.4382791890621185,0.1425888542920351,-0.14297799974009393
1782831049940364300,10.4793642578125,-0.5476046561777591,0.21156901314631102,-0.11003843769058584
1782831049950293200,10.489293212890624,-0.46002924857735633,0.4272647508338093,-0.33754754543174054
1782831049960222500,10.499222412109376,-0.6143289989292621,0.47059345882013437,-0.4334037650454789
1782831049970152400,10.50915234375,-1.050761098819971,0.2986567833602428,-0.5161519351525232
1782831049980081400,10.519081298828125,-1.0926648885697126,0.0645182110093534,-0.513545296318084
1782831049990011400,10.529011474609375,-0.4746621695637703,-0.022638240526616574,-0.4346325031228363
1782831049999940400,10.5389404296875,0.15654723701775072,-0.03960296546146273,-0.13324118023216724
1782831050009869300,10.548869384765625,0.29730536875128744,-0.003078238401561975,0.37267245216369627
1782831050019799600,10.558799560546875,0.4069137444615364,0.22088687658980488,0.4705842526003718
1782831050029728500,10.568728515625,0.6995850236713886,0.48018970081359147,0.007444251591339707
1782831050039657500,10.578657470703124,0.7842699705272913,0.48268882415294645,-0.35034919587038454
1782831050049587500,10.58858740234375,0.14702771352231503,0.3097800887905061,-0.5766342051766813
1782831050059516400,10.598516357421875,-0.5297258851379156,0.05129238034188747,-0.739942387696728
1782831050069446400,10.6084462890625,-0.2950070286810398,-0.09939838573262094,-0.6935781844720244
1782831050079375400,10.618375244140625,0.07045593049526214,-0.03536240528225899,-0.4108456405503675
1782831050089304300,10.62830419921875,0.37998014482855796,-0.11965177694931625,0.3101650329874828
1782831050099234300,10.638234375,0.5801970122247934,-0.38493060684278607,0.4919257313147187
1782831050109163300,10.648163330078125,0.35761458376348015,-0.6920424993373453,-0.04034910765364766
1782831050119092500,10.658092529296875,-0.1612584834486246,-0.727964876589924,-0.5243475531004369
1782831050129022500,10.6680224609375,-0.22372633779942988,-0.48745370046719905,-0.3991875341236591
1782831050138951400,10.677951416015626,0.04323299252688884,-0.21519640986323355,-0.024689108641818166
1782831050148881400,10.68788134765625,-0.3649433192163706,-0.11516352561935782,-0.05165836411006748
1782831050158810400,10.697810302734375,-0.8816197531670331,-0.23176687478348612,-0.7345960582327097
1782831050168739300,10.7077392578125,-0.4737304416716098,-0.23833266303986309,-1.2965750575259327
1782831050178669600,10.717669677734374,0.4818628947228193,0.011168313615769147,-0.6988352282173931
1782831050188598300,10.727598388671876,1.985973910486698,0.1541888373233378,0.13927198482900857
1782831050198527200,10.73752734375,3.436159859317541,0.1224590894550085,0.9123842361997813
1782831050208457500,10.74745751953125,-0.7573281875878572,-0.41866380348801613,0.7467025294814258
1782831050218386400,10.757386474609374,-3.0680466778934,-1.4086593218304215,0.07290573480017483
1782831050228316400,10.76731640625,-2.1207757641643283,-1.8787347481258212,0.05547090813554823
1782831050238245400,10.777245361328125,-0.9138456139892339,-0.929765067654848,0.24701800073347985
1782831050248174300,10.78717431640625,-0.4570487714618444,-0.15264190014228224,0.14031959418579934
1782831050258104300,10.797104248046875,0.6969213574200869,0.1601148663714528,0.15266623086594044
1782831050268033300,10.807033203125,2.177056454312801,0.2771101374626159,0.268064295893535
