time,seconds_elapsed,z,y,x
1782831039544307200,0.08330712890625,0.04237106442451477,-0.0418681725859642,0.022317469120025635
1782831039554236200,0.093236083984375,0.07752825319766998,0.0015192478895187378,-0.02151656523346901
1782831039564166100,0.103166259765625,0.10820578038692474,0.028246749192476273,-0.04742405191063881
1782831039574095000,0.11309521484375,0.13253508508205414,0.016777580603957176,-0.05563324689865112
1782831039584025000,0.123025146484375,0.14464755356311798,-0.018325600773096085,-0.023095566779375076
1782831039593954000,0.1329541015625,0.1491703987121582,-0.03484625369310379,0.024388592690229416
1782831039603883000,0.142883056640625,0.15708477795124054,-0.03648249804973602,0.05246124044060707
1782831039613813200,0.152813232421875,0.17810697853565216,-0.030964162200689316,0.046764738857746124
1782831039623738400,0.16273828125,0.2032221257686615,-0.040280070155858994,0.023651055991649628
1782831039633668000,0.172668212890625,0.20846456289291382,-0.04391954466700554,0.021835314109921455
1782831039643597000,0.18259716796875,0.2009400725364685,-0.02417578361928463,0.04235267639160156
1782831039653526000,0.192526123046875,0.1734890192747116,-0.016334105283021927,0.07448077946901321
1782831039663456300,0.202456298828125,0.16130037605762482,-0.014153189025819302,0.11162684857845306
1782831039673385200,0.21238525390625,0.16564638912677765,-0.001032327301800251,0.13129347562789917
1782831039683314200,0.222314208984375,0.18794351816177368,0.015205398201942444,0.11148180812597275
1782831039693244200,0.232244140625,0.20647059381008148,0.0278727225959301,0.06835377961397171
1782831039703173000,0.242173095703125,0.20716220140457153,0.044319067150354385,0.03442651033401489
1782831039713103000,0.25210302734375,0.1916854977607727,0.09443442523479462,0.018448874354362488
1782831039723032300,0.2620322265625,0.17880874872207642,0.1705094426870346,0.01720135658979416
1782831039732961300,0.271961181640625,0.19061587750911713,0.25298088788986206,0.015252722427248955
1782831039742891000,0.28189111328125,0.20422431826591492,0.312316358089447,-0.0039420174434781075
1782831039752820200,0.2918203125,0.21281301975250244,0.3429190218448639,-0.043496616184711456
1782831039762749200,0.301749267578125,0.21065109968185425,0.3389138877391815,-0.07898148149251938
1782831039772679200,0.31167919921875,0.20561426877975464,0.3027265965938568,-0.10900143533945084
1782831039782608400,0.3216083984375,0.20666353404521942,0.2629956901073456,-0.1104273721575737
1782831039792538000,0.3315380859375,0.20555990934371948,0.24146004021167755,-0.0795738473534584
1782831039802467000,0.341467041015625,0.20204314589500427,0.24285218119621277,-0.04752920940518379
1782831039812396300,0.351396240234375,0.19556555151939392,0.2127981334924698,-0.025830570608377457
1782831039822326300,0.361326171875,0.19872885942459106,0.149588942527771,-0.01652211882174015
1782831039832255200,0.371255126953125,0.21491661667823792,0.09045398235321045,-0.013964684680104256
1782831039842184200,0.38118408203125,0.245503231883049,0.03269131854176521,0.014849448576569557
1782831039852114200,0.3911142578125,0.25863713026046753,0.045280348509550095,0.05710476264357567
1782831039862043100,0.401043212890625,0.25827574729919434,0.09186956286430359,0.09590171277523041
1782831039871973400,0.410973388671875,0.24944497644901276,0.14355060458183289,0.13079310953617096
1782831039881902300,0.42090234375,0.22625315189361572,0.20118887722492218,0.13269276916980743
1782831039891831000,0.4308310546875,0.20311960577964783,0.2539929747581482,0.07577674835920334
1782831039901761000,0.440760986328125,0.21107184886932373,0.27451956272125244,-0.014356138184666634
1782831039911690200,0.450690185546875,0.22733284533023834,0.24993090331554413,-0.1287604719400406
1782831039921619200,0.460619140625,0.24965618550777435,0.19801557064056396,-0.24257390201091766
1782831039931549200,0.470549072265625,0.271071195602417,0.13060057163238525,-0.350311815738678
1782831039941478100,0.48047802734375,0.28283169865608215,0.05493112653493881,-0.41080552339553833
1782831039951408000,0.490408203125,0.28284236788749695,-0.02976085990667343,-0.4131741523742676
1782831039961337000,0.500337158203125,0.27139344811439514,-0.09168201684951782,-0.3468979299068451
1782831039971266300,0.510266357421875,0.2537899315357208,-0.08062510937452316,-0.1972695291042328
1782831039981196300,0.5201962890625,0.23618952929973602,0.005692284554243088,0.02300412580370903
1782831039991125000,0.530125,0.21395985782146454,0.13959017395973206,0.2635253667831421
1782831040001054200,0.54005419921875,0.19154073297977448,0.24034027755260468,0.4537166655063629
1782831040010984200,0.549984130859375,0.17924678325653076,0.29893913865089417,0.5604228973388672
1782831040020913200,0.5599130859375,0.171778604388237,0.3179533779621124,0.5933029651641846
1782831040030843100,0.569843017578125,0.16471298038959503,0.29805824160575867,0.586837887763977
1782831040040772000,0.579772216796875,0.14921265840530396,0.25944751501083374,0.5691946148872375
1782831040050701000,0.589701171875,0.11562566459178925,0.19033795595169067,0.5393046140670776
1782831040060631300,0.59963134765625,0.07680521160364151,0.08604119718074799,0.5187830924987793
1782831040070560300,0.609560302734375,0.037246622145175934,-0.0017778761684894562,0.4946249723434448
1782831040080489200,0.6194892578125,0.014016084372997284,-0.07524265348911285,0.4702118933200836
1782831040090419000,0.6294189453125,-0.012489824555814266,-0.16746419668197632,0.41968053579330444
1782831040100348200,0.63934814453125,-0.04576994851231575,-0.240175262093544,0.3252071440219879
1782831040110278100,0.649278076171875,-0.0842243954539299,-0.24975065886974335,0.16799327731132507
1782831040120207000,0.65920703125,-0.10874468088150024,-0.22146643698215485,-0.05009574443101883
1782831040130136300,0.66913623046875,-0.09027326852083206,-0.1611090749502182,-0.3244609832763672
1782831040140066000,0.679066162109375,-0.026985134929418564,-0.08145967870950699,-0.6229897737503052
1782831040149995000,0.6889951171875,0.06773897260427475,-0.0711260735988617,-0.8696871399879456
1782831040159924200,0.69892431640625,0.1525474339723587,-0.0667700320482254,-0.9624601602554321
1782831040169854200,0.708854248046875,0.20390702784061432,-0.003600381314754486,-0.901793897151947
1782831040179783200,0.718783203125,0.24676072597503662,0.13009148836135864,-0.7237898707389832
1782831040189713200,0.728713134765625,0.2969905734062195,0.2764473557472229,-0.5167474746704102
1782831040199642000,0.73864208984375,0.3616335093975067,0.34635040163993835,-0.33412668108940125
1782831040209571000,0.748571044921875,0.427585631608963,0.3905045688152313,-0.18348148465156555
1782831040219501300,0.758501220703125,0.47459518909454346,0.39012637734413147,-0.08858773857355118
1782831040229430300,0.76843017578125,0.5057333707809448,0.3716791868209839,-0.07165642827749252
1782831040239359200,0.778359130859375,0.5322057008743286,0.3548109829425812,-0.10964269936084747
1782831040249289200,0.788289306640625,0.5653042793273926,0.3174785375595093,-0.1562996804714203
1782831040259218200,0.79821826171875,0.6213936805725098,0.2087041437625885,-0.1672135591506958
1782831040269148200,0.808148193359375,0.6953393220901489,-0.04534970596432686,-0.12234250456094742
1782831040279077000,0.8180771484375,0.7639431953430176,-0.407755583524704,-0.000015132594853639603
1782831040289006300,0.82800634765625,0.7476385235786438,-0.7909479141235352,0.15981155633926392
1782831040298936000,0.83793603515625,0.6496934294700623,-1.130307912826538,0.29287758469581604
1782831040308865000,0.847864990234375,0.5690721273422241,-1.3677690029144287,0.3708259165287018
1782831040318794200,0.857794189453125,0.5153295397758484,-1.4466094970703125,0.39512279629707336
1782831040328724200,0.86772412109375,0.5095653533935547,-1.4369871616363525,0.37571021914482117
1782831040338653200,0.877653076171875,0.5501998662948608,-1.3757741451263428,0.3370251953601837
1782831040348583200,0.887583251953125,0.6052016019821167,-1.2309887409210205,0.3207109272480011
1782831040358512000,0.89751220703125,0.6503991484642029,-0.9741976261138916,0.3308885097503662
1782831040368441000,0.907441162109375,0.6700580716133118,-0.6639121770858765,0.3626336455345154
1782831040378371300,0.917371337890625,0.6716126203536987,-0.35318875312805176,0.39868810772895813
1782831040388300300,0.92730029296875,0.646411657333374,-0.05075674504041672,0.4406999945640564
1782831040398229200,0.937229248046875,0.5763004422187805,0.21634483337402344,0.48194220662117004
1782831040408159200,0.9471591796875,0.47803032398223877,0.4012872278690338,0.5178166031837463
1782831040418088200,0.957088134765625,0.3431766927242279,0.46787121891975403,0.5388249158859253
1782831040428018200,0.96701806640625,0.18463526666164398,0.4418225884437561,0.542739987373352
1782831040437947400,0.976947509765625,0.04046168550848961,0.3220002353191376,0.5694491267204285
1782831040447876000,0.9868759765625,-0.060217250138521194,0.1682000309228897,0.6416506171226501
1782831040457806000,0.99680615234375,-0.09251472353935242,0.1507483422756195,0.7598289847373962
1782831040467735000,1.006735107421875,-0.06236960366368294,0.21214459836483002,0.860788106918335
1782831040477664300,1.016664306640625,-0.01597392000257969,0.3177712559700012,0.882573127746582
1782831040487594200,1.02659423828125,0.02517218515276909,0.4667740762233734,0.8395721316337585
1782831040497523000,1.03652294921875,0.045360267162323,0.6521344780921936,0.7824715971946716
1782831040507453200,1.046453125,0.04749026149511337,0.8273478150367737,0.7291175723075867
1782831040517382100,1.056382080078125,0.010280626825988293,0.938458263874054,0.6612257957458496
1782831040527311000,1.06631103515625,-0.049674052745103836,0.9931001663208008,0.5655093789100647
1782831040537241300,1.076241455078125,-0.1520141214132309,1.0573872327804565,0.46883049607276917
1782831040547170000,1.086170166015625,-0.2927491366863251,1.1899362802505493,0.41679152846336365
1782831040557099000,1.09609912109375,-0.4430699646472931,1.433929443359375,0.4002690315246582
1782831040567029200,1.106029296875,-0.5604216456413269,1.6334116458892822,0.4094177782535553
1782831040576958200,1.115958251953125,-0.6146305799484253,1.7854185104370117,0.4026070833206177
1782831040586888200,1.12588818359375,-0.5963889956474304,2.021373748779297,0.3203990161418915
1782831040596817200,1.135817138671875,-0.5695856213569641,2.2910354137420654,0.13349305093288422
1782831040606746000,1.14574609375,-0.5712197422981262,2.347766876220703,-0.22788459062576294
1782831040616676000,1.155676025390625,-0.5421838760375977,1.9584563970565796,-0.6867091655731201
1782831040626605300,1.165605224609375,-0.46033427119255066,1.349692463874817,-1.0768063068389893
1782831040636534300,1.1755341796875,-0.37948986887931824,0.8106194734573364,-1.330129623413086
1782831040646464300,1.18546435546875,-0.3805631399154663,0.3689836859703064,-1.4400806427001953
1782831040656393200,1.195393310546875,-0.5049826502799988,0.11300274729728699,-1.435835838317871
1782831040666323200,1.2053232421875,-0.6296068429946899,0.21683087944984436,-1.2908073663711548
1782831040676252400,1.21525244140625,-0.7017106413841248,0.5446703433990479,-1.1063750982284546
1782831040686181400,1.225181396484375,-0.680166482925415,0.9506109356880188,-0.9545840620994568
1782831040696111000,1.235111083984375,-0.5774911642074585,1.3627476692199707,-0.8604490756988525
1782831040706040000,1.2450400390625,-0.42112764716148376,1.688037633895874,-0.84249347448349
1782831040715969300,1.25496923828125,-0.21142250299453735,1.7478358745574951,-0.8745627403259277
1782831040725899300,1.264899169921875,0.0033462578430771828,1.458783507347107,-0.9149567484855652
1782831040735828200,1.274828125,0.1801401525735855,0.879774272441864,-0.9314669370651245
1782831040745758200,1.28475830078125,0.3110523521900177,0.1446288824081421,-0.914479672908783
1782831040755687200,1.294687255859375,0.3471170663833618,-0.7415791749954224,-0.951873242855072
1782831040765616000,1.3046162109375,0.36623403429985046,-1.7010270357131958,-1.1359988451004028
1782831040775546400,1.31454638671875,0.468809574842453,-2.3535878658294678,-1.2708563804626465
1782831040785475300,1.324475341796875,0.5635110139846802,-2.75836181640625,-1.3131343126296997
1782831040795404300,1.334404296875,0.61127769947052,-2.930814266204834,-1.2966769933700562
1782831040805334300,1.344334228515625,0.6445344090461731,-2.840862989425659,-1.223694920539856
1782831040815263200,1.35426318359375,0.6921355724334717,-2.7214841842651367,-1.0618103742599487
1782831040825192200,1.364192138671875,0.7498188018798828,-2.61431884765625,-0.8077629208564758
1782831040835122400,1.374122314453125,0.8050383925437927,-2.4679760932922363,-0.4906849265098572
1782831040845051400,1.384051513671875,0.8030495643615723,-2.2044031620025635,-0.2141398787498474
1782831040854981000,1.393981201171875,0.7040544748306274,-1.8391156196594238,-0.06737150251865387
1782831040864910300,1.403910400390625,0.5376207232475281,-1.4156615734100342,-0.018713155761361122
1782831040874839300,1.41383935546875,0.33105650544166565,-0.9970940351486206,-0.018536370247602463
1782831040884769300,1.423769287109375,0.14818443357944489,-0.6415844559669495,-0.0009240866638720036
1782831040894698200,1.4336982421875,0.042441096156835556,-0.4428466260433197,0.06796681135892868
1782831040904628200,1.443628173828125,-0.004204167984426022,-0.476115882396698,0.15263774991035461
1782831040914557200,1.45355712890625,-0.11222589761018753,-0.477916955947876,0.19393713772296906
1782831040924486100,1.463486083984375,-0.2459442913532257,-0.38945820927619934,0.15087328851222992
1782831040934416400,1.47341650390625,-0.31929710507392883,-0.29618340730667114,0.0002897665835916996
1782831040944345300,1.483345458984375,-0.3226867914199829,-0.17674702405929565,-0.18791237473487854
1782831040954274300,1.4932744140625,-0.35704952478408813,-0.030858367681503296,-0.3204471468925476
1782831040964204300,1.503204345703125,-0.4726994037628174,0.11795428395271301,-0.39095538854599
1782831040974133200,1.51313330078125,-0.6067638397216797,0.32941189408302307,-0.3761574923992157
1782831040984063200,1.523063232421875,-0.7226108312606812,0.5872719287872314,-0.28946492075920105
1782831040993992400,1.532992431640625,-0.7888640761375427,0.7848021984100342,-0.1696312129497528
1782831041003921200,1.542921142578125,-0.7859354019165039,0.8205037713050842,0.00913853757083416
1782831041013851100,1.55285107421875,-0.8080040812492371,0.7815905213356018,0.18392205238342285
1782831041023780400,1.5627802734375,-0.8525965809822083,0.6821240782737732,0.3394293785095215
1782831041033709300,1.572709228515625,-0.8798558712005615,0.5812482237815857,0.5239351987838745
1782831041043639300,1.582639404296875,-0.8909508585929871,0.5770750641822815,0.7361417412757874
1782831041053568300,1.592568359375,-0.9030354619026184,0.7023425698280334,0.9088936448097229
1782831041063498200,1.602498291015625,-0.938035786151886,0.8352891802787781,0.9177489280700684
1782831041073427200,1.61242724609375,-0.9672415256500244,0.9488746523857117,0.7840026617050171
1782831041083356200,1.622356201171875,-1.0124834775924683,1.0097955465316772,0.5986924171447754
1782831041093286400,1.632286376953125,-1.02988600730896,1.0356682538986206,0.4829232692718506
1782831041103215000,1.642215087890625,-0.9320768713951111,1.0780918598175049,0.5476908087730408
1782831041113144000,1.65214404296875,-0.7795211672782898,1.1199969053268433,0.7519943118095398
1782831041123074300,1.66207421875,-0.7030777931213379,1.1402111053466797,0.8981422185897827
1782831041133003300,1.672003173828125,-0.6717475056648254,1.1802256107330322,0.9150878190994263
1782831041142933200,1.681933349609375,-0.6201303601264954,1.2389805316925049,0.8285912871360779
1782831041152862200,1.6918623046875,-0.4623461365699768,1.1493797302246094,0.6909610629081726
1782831041162791200,1.701791259765625,-0.1991664618253708,0.9262909889221191,0.5846263766288757
1782831041172721200,1.71172119140625,0.10480989515781403,0.6831160187721252,0.4992975890636444
1782831041182650400,1.721650390625,0.30262815952301025,0.20762299001216888,0.3262789249420166
1782831041192579300,1.731579345703125,0.2683607339859009,-0.578575849533081,-0.06981433182954788
1782831041202509000,1.741509033203125,0.18331722915172577,-0.9482119679450989,-0.43579789996147156
1782831041212438300,1.751438232421875,0.16156664490699768,-0.7105160355567932,-0.5161256194114685
1782831041222367200,1.7613671875,0.16950152814388275,-0.2743499279022217,-0.3539334535598755
1782831041232297200,1.771297119140625,0.2665256857872009,0.24766846001148224,-0.021869590505957603
1782831041242226400,1.781226318359375,0.4032997786998749,0.4346018433570862,0.22662198543548584
1782831041252156200,1.79115625,0.4780273139476776,0.20370835065841675,0.21999135613441467
1782831041262085000,1.801085205078125,0.5126265287399292,-0.20310655236244202,0.022922217845916748
1782831041272014000,1.81101416015625,0.5695428252220154,-0.5291532278060913,-0.13642072677612305
1782831041281944300,1.8209443359375,0.6031210422515869,-0.5958518385887146,-0.11419585347175598
1782831041291873300,1.830873291015625,0.5095359086990356,-0.6189724802970886,0.009904412552714348
1782831041301802200,1.84080224609375,0.34462738037109375,-0.6906977891921997,0.09329170733690262
1782831041311732200,1.850732177734375,0.15695030987262726,-0.7094995379447937,-0.008153291419148445
1782831041321661200,1.8606611328125,-0.015809208154678345,-0.6552695631980896,-0.3432106375694275
1782831041331591400,1.87059130859375,-0.1300988644361496,-0.5568755269050598,-0.8259387612342834
1782831041341520400,1.880520263671875,-0.15517465770244598,-0.3755190670490265,-1.2333818674087524
1782831041351449300,1.890449462890625,-0.14196975529193878,-0.18680445849895477,-1.4348371028900146
1782831041361379000,1.900379150390625,-0.18891675770282745,-0.15314795076847076,-1.4387726783752441
1782831041371308300,1.910308349609375,-0.22601935267448425,-0.14717954397201538,-1.2786760330200195
1782831041381237200,1.9202373046875,-0.1872842013835907,-0.13619239628314972,-1.0286563634872437
1782831041391167200,1.930167236328125,-0.11036641895771027,-0.16113631427288055,-0.7498686909675598
1782831041401096400,1.940096435546875,-0.05089323967695236,-0.22609452903270721,-0.45207640528678894
1782831041411026200,1.950026123046875,0.007559171412140131,-0.3524913489818573,-0.131138414144516
1782831041420955100,1.959955078125,0.10160497575998306,-0.5569179654121399,0.21676841378211975
1782831041430884400,1.96988427734375,0.20251120626926422,-0.7767369747161865,0.5777108073234558
1782831041440814300,1.979814453125,0.2744293510913849,-0.9128995537757874,0.9317482709884644
1782831041450743300,1.989743408203125,0.20421548187732697,-0.8198259472846985,1.1436963081359863
1782831041460673300,1.99967333984375,0.07194505631923676,-0.6140251159667969,1.211793065071106
1782831041470602200,2.009602294921875,0.005393883213400841,-0.5073150992393494,1.1977163553237915
1782831041480531200,2.01953125,0.026522338390350342,-0.4991748631000519,1.142318606376648
1782831041490461400,2.02946142578125,0.12981735169887543,-0.591779351234436,1.1151448488235474
1782831041500390400,2.039390380859375,0.2873273491859436,-0.8265681266784668,1.174919843673706
1782831041510319400,2.0493193359375,0.4085243344306946,-1.1439670324325562,1.3155490159988403
1782831041520249300,2.059249267578125,0.3718089461326599,-1.358792781829834,1.4814647436141968
1782831041530178300,2.06917822265625,0.23170849680900574,-1.3726252317428589,1.6390612125396729
1782831041540108300,2.0791083984375,0.038127318024635315,-1.0858651399612427,1.7023558616638184
1782831041550037200,2.089037353515625,-0.1594896912574768,-0.5905165672302246,1.6139800548553467
1782831041559966200,2.09896630859375,-0.32003462314605713,-0.00004872214049100876,1.3910300731658936
1782831041569896200,2.108896240234375,-0.39181002974510193,0.4865882694721222,1.1214667558670044
1782831041579825200,2.1188251953125,-0.4473305642604828,0.8076544404029846,0.8669860363006592
1782831041589754400,2.12875439453125,-0.5415183901786804,1.0088317394256592,0.6566863656044006
1782831041599684400,2.138684326171875,-0.6624637246131897,1.0745362043380737,0.542191207408905
1782831041609613000,2.148613037109375,-0.777708888053894,1.059202790260315,0.4738709032535553
1782831041619543600,2.15854345703125,-0.8502997756004333,1.0698211193084717,0.43413278460502625
1782831041629472800,2.16847265625,-0.8636474609375,1.1553477048873901,0.370247483253479
1782831041639401700,2.178401611328125,-0.807668924331665,1.3106627464294434,0.23463399708271027
1782831041649331500,2.18833154296875,-0.6527625322341919,1.4947556257247925,0.05413881316781044
1782831041659260400,2.198260498046875,-0.4396313726902008,1.4523159265518188,-0.11309225112199783
1782831041669189600,2.208189697265625,-0.29599255323410034,1.2451061010360718,-0.2800368666648865
1782831041679119600,2.21811962890625,-0.41032710671424866,1.5205261707305908,-0.48395031690597534
1782831041689048600,2.228048583984375,-0.7603275775909424,2.354663848876953,-0.7390893697738647
1782831041698978600,2.237978515625,-1.241355299949646,2.848130464553833,-1.2859247922897339
1782831041708907500,2.247907470703125,-1.5834996700286865,2.4533889293670654,-1.9805374145507812
1782831041718836500,2.25783642578125,-1.5135111808776855,1.7360321283340454,-2.233180046081543
1782831041728766700,2.2677666015625,-1.0866615772247314,0.956872820854187,-1.8709230422973633
1782831041738695700,2.27769580078125,-0.4610711932182312,0.28488031029701233,-1.0715488195419312
1782831041748624600,2.287624755859375,0.16602778434753418,-0.17422807216644287,-0.18915224075317383
1782831041758554600,2.2975546875,0.6430593132972717,-0.6257762908935547,0.3074854910373688
1782831041768483600,2.307483642578125,0.8733364343643188,-0.8580693006515503,0.4051721692085266
1782831041778413600,2.31741357421875,0.8710227012634277,-0.9152123928070068,0.26850274205207825
1782831041788342800,2.3273427734375,0.7113157510757446,-0.9494767189025879,0.08430358022451401
1782831041798271700,2.337271728515625,0.43356239795684814,-0.8887734413146973,-0.020656118169426918
1782831041808201500,2.347201416015625,0.11141365021467209,-0.7689781785011292,-0.07102184742689133
1782831041818130700,2.357130615234375,-0.1751914769411087,-0.7134867310523987,-0.1328796148300171
1782831041828059600,2.3670595703125,-0.38784533739089966,-0.7298409938812256,-0.25140464305877686
1782831041837989600,2.37698974609375,-0.5266554355621338,-0.7621475458145142,-0.47099822759628296
1782831041847918600,2.386918701171875,-0.6389057636260986,-0.7420060634613037,-0.8257392644882202
1782831041857848600,2.3968486328125,-0.7300412654876709,-0.619757890701294,-1.2725223302841187
1782831041867777500,2.406777587890625,-0.7468823194503784,-0.4443754255771637,-1.6302813291549683
1782831041877706500,2.41670654296875,-0.7035865187644958,-0.3951790928840637,-1.7773168087005615
1782831041887636700,2.42663671875,-0.6779595017433167,-0.5863645672798157,-1.6749000549316406
1782831041897565700,2.436565673828125,-0.6991106271743774,-0.8743646740913391,-1.3663115501403809
1782831041907494700,2.44649462890625,-0.6936529874801636,-0.9956285357475281,-0.955951988697052
1782831041917424600,2.456424560546875,-0.597165584564209,-0.9027523994445801,-0.5380988121032715
1782831041927353600,2.466353515625,-0.43801549077033997,-0.7405692338943481,-0.17057642340660095
1782831041937283600,2.47628369140625,-0.23754630982875824,-0.6456712484359741,0.15349699556827545
1782831041947212800,2.486212890625,-0.02653348259627819,-0.5807832479476929,0.42331305146217346
1782831041957141800,2.496141845703125,0.1593703329563141,-0.5408384799957275,0.6441439390182495
1782831041967071500,2.506071533203125,0.2685738503932953,-0.4847349524497986,0.819875180721283
1782831041977000700,2.516000732421875,0.22006972134113312,-0.3889162540435791,0.9059597253799438
1782831041986929700,2.5259296875,0.04524366185069084,-0.3359065353870392,0.8510709404945374
1782831041996859600,2.535859619140625,-0.15301509201526642,-0.2768748998641968,0.6394715905189514
1782831042006788600,2.54578857421875,-0.26620474457740784,-0.1683875471353531,0.36066383123397827
1782831042016718600,2.555718505859375,-0.2869749963283539,0.018324539065361023,0.12614290416240692
1782831042026647600,2.5656474609375,-0.25799429416656494,0.21930180490016937,-0.00015417439863085747
1782831042036576800,2.57557666015625,-0.22261366248130798,0.2992275357246399,-0.035946525633335114
1782831042046506800,2.5855068359375,-0.1935291439294815,0.2206968367099762,0.019345443695783615
1782831042056435700,2.595435791015625,-0.14011119306087494,0.04591038450598717,0.18972675502300262
1782831042066364400,2.605364501953125,-0.018006503582000732,-0.07818568497896194,0.43796733021736145
1782831042076294700,2.615294677734375,0.141029492020607,-0.1368790864944458,0.6918022632598877
1782831042086223600,2.6252236328125,0.24689097702503204,-0.10093905031681061,0.8733221292495728
1782831042096153900,2.63515380859375,0.3232414126396179,-0.07325655966997147,0.9686643481254578
1782831042106082600,2.64508251953125,0.3542371988296509,-0.0079383859410882,0.9734925627708435
1782831042116011500,2.655011474609375,0.30932801961898804,0.079145647585392,0.8453149199485779
1782831042125941500,2.66494140625,0.21106413006782532,0.05944722145795822,0.6539947390556335
1782831042135870700,2.67487060546875,0.12867897748947144,0.049853451550006866,0.49485519528388977
1782831042145800700,2.68480078125,0.08780032396316528,0.21531422436237335,0.4458602964878082
1782831042155729400,2.6947294921875,0.03620797023177147,0.5809651613235474,0.4676169753074646
1782831042165658600,2.70465869140625,-0.028911851346492767,1.0872032642364502,0.5408110022544861
1782831042175588600,2.714588623046875,-0.01798250526189804,1.6883230209350586,0.6664552092552185
1782831042185517600,2.724517578125,0.16874635219573975,2.210474967956543,0.7852831482887268
1782831042195446800,2.73444677734375,0.43521133065223694,2.368887186050415,0.8102931380271912
1782831042205376500,2.74437646484375,0.6974625587463379,1.9069240093231201,0.7234463691711426
1782831042215305500,2.754305419921875,0.9666413068771362,1.6189981698989868,0.6452812552452087
1782831042225235700,2.764235595703125,0.9962949156761169,1.2534202337265015,0.3759166896343231
1782831042235164700,2.77416455078125,0.8426656723022461,0.5492596626281738,-0.0228623915463686
1782831042245093600,2.78409375,0.6764808893203735,0.08161713927984238,-0.35687825083732605
1782831042255023600,2.794023681640625,0.5560418367385864,0.08799567818641663,-0.6155849099159241
1782831042264952600,2.80395263671875,0.5791056752204895,0.23615163564682007,-0.8441795706748962
1782831042274881500,2.813881591796875,0.6316578388214111,0.295634388923645,-0.9936891198158264
1782831042284811800,2.823811767578125,0.6341688632965088,0.19118639826774597,-1.0367953777313232
1782831042294740700,2.83374072265625,0.6434971690177917,-0.07653559744358063,-1.086042881011963
1782831042304670500,2.84367041015625,0.6723935604095459,-0.3322470784187317,-1.137022852897644
1782831042314599400,2.853599365234375,0.6558356285095215,-0.3538535535335541,-1.0121896266937256
1782831042324528600,2.863528564453125,0.573502242565155,-0.15302295982837677,-0.7358733415603638
1782831042334458600,2.873458740234375,0.4664866030216217,0.041608307510614395,-0.4615733027458191
1782831042344387600,2.8833876953125,0.38526564836502075,0.08239896595478058,-0.30318939685821533
1782831042354316800,2.89331689453125,0.33399635553359985,-0.08191195130348206,-0.3002298176288605
1782831042364246500,2.90324658203125,0.29262787103652954,-0.41044560074806213,-0.46253877878189087
1782831042374175500,2.913175537109375,0.2750595510005951,-0.7938776612281799,-0.7168181538581848
1782831042384105700,2.923105712890625,0.2742236852645874,-1.1277252435684204,-0.9984936714172363
1782831042394034700,2.93303466796875,0.27548521757125854,-1.3736857175827026,-1.194191575050354
1782831042403963600,2.942963623046875,0.2732839584350586,-1.5822465419769287,-1.2512484788894653
1782831042413893600,2.9528935546875,0.2564692795276642,-1.7005263566970825,-1.1605172157287598
1782831042423822600,2.962822509765625,0.21396254003047943,-1.637221336364746,-0.9736249446868896
1782831042433751600,2.97275146484375,0.16473320126533508,-1.3870326280593872,-0.7570905089378357
1782831042443681800,2.982681884765625,0.10998531430959702,-0.9878973960876465,-0.5805014967918396
1782831042453610800,2.99261083984375,0.05135582014918327,-0.5491570234298706,-0.4575425982475281
1782831042463540500,3.00254052734375,0.04196504130959511,-0.21223919093608856,-0.3456191420555115
1782831042473469700,3.0124697265625,0.07219724357128143,-0.0038710711523890495,-0.22647784650325775
1782831042483398700,3.022398681640625,0.0852736234664917,0.04576612263917923,-0.07195635885000229
1782831042493328600,3.03232861328125,-0.003510306589305401,-0.0005553048104047775,0.043901801109313965
1782831042503257600,3.042257568359375,-0.19608743488788605,0.005723791196942329,0.04126104339957237
1782831042513187600,3.0521875,-0.34468623995780945,0.1114339753985405,-0.0551387295126915
1782831042523116500,3.062116455078125,-0.39982157945632935,0.2859206199645996,-0.19635441899299622
1782831042533045500,3.07204541015625,-0.3367254137992859,0.4825654923915863,-0.28426429629325867
1782831042542975700,3.081975830078125,-0.2285790592432022,0.6089734435081482,-0.27332377433776855
1782831042552904700,3.09190478515625,-0.12603405117988586,0.5680238604545593,-0.18246738612651825
1782831042562833700,3.101833740234375,-0.05852120369672775,0.4223787188529968,-0.024141548201441765
1782831042572763600,3.111763671875,-0.03997574746608734,0.22502703964710236,0.1550431251525879
1782831042582692600,3.121692626953125,-0.044106416404247284,-0.028133774176239967,0.3111433982849121
1782831042592622600,3.13162255859375,-0.03961046785116196,-0.23567338287830353,0.4177958071231842
1782831042602551800,3.1415517578125,-0.04269057884812355,-0.29434022307395935,0.4716033339500427
1782831042612480800,3.151480712890625,-0.0938621535897255,-0.19713538885116577,0.4380616247653961
1782831042622414300,3.161414306640625,-0.1588606834411621,0.029622748494148254,0.32332807779312134
1782831042632343300,3.17134326171875,-0.19913353025913239,0.3409593403339386,0.19939495623111725
1782831042642272500,3.1812724609375,-0.1927502602338791,0.7087721824645996,0.13949666917324066
1782831042652202200,3.1912021484375,-0.18131251633167267,1.0822259187698364,0.1214580237865448
1782831042662131200,3.201131103515625,-0.20856155455112457,1.3464518785476685,0.11597418785095215
1782831042672061400,3.2110615234375,-0.24041883647441864,1.4260311126708984,0.18112069368362427
1782831042681990400,3.220990478515625,-0.2626717686653137,1.2625441551208496,0.37079277634620667
1782831042691919400,3.23091943359375,-0.3462018072605133,1.0509028434753418,0.6123026013374329
1782831042701849300,3.240849365234375,-0.4947154223918915,1.0500819683074951,0.8190215229988098
1782831042711778300,3.2507783203125,-0.6666185259819031,1.25443696975708,0.8904402852058411
1782831042721707300,3.260707275390625,-0.7599570155143738,1.449279546737671,0.7764114737510681
1782831042731637500,3.270637451171875,-0.673936128616333,1.3333662748336792,0.4783395528793335
1782831042741566500,3.28056640625,-0.44686466455459595,1.0973094701766968,0.09298237413167953
1782831042751496200,3.29049609375,-0.18327483534812927,0.9441139698028564,-0.2322082370519638
1782831042761425400,3.30042529296875,0.11284878104925156,0.6407236456871033,-0.38638049364089966
1782831042771354400,3.310354248046875,0.3044949173927307,0.29180213809013367,-0.333011269569397
1782831042781284400,3.320284423828125,0.4525507986545563,0.07288233935832977,-0.12207674235105515
1782831042791213300,3.33021337890625,0.5560166835784912,-0.2653633654117584,0.05580936372280121
1782831042801142500,3.340142578125,0.5983297228813171,-0.5950042605400085,0.17350932955741882
1782831042811072300,3.350072265625,0.56704181432724,-0.8434223532676697,0.2166980803012848
1782831042821001200,3.360001220703125,0.5105030536651611,-1.0551761388778687,0.15732118487358093
1782831042830931500,3.369931396484375,0.41713210940361023,-1.1377007961273193,-0.029096633195877075
1782831042840860400,3.3798603515625,0.2917536199092865,-1.0611101388931274,-0.2696691155433655
1782831042850789400,3.389789306640625,0.1694687008857727,-0.7793886065483093,-0.4261506199836731
1782831042860719400,3.39971923828125,0.07226112484931946,-0.45526596903800964,-0.41855505108833313
1782831042870648300,3.4096484375,-0.015031171962618828,-0.2700018286705017,-0.2872558832168579
1782831042880578300,3.419578369140625,-0.08645391464233398,-0.33142656087875366,-0.12959006428718567
1782831042890507500,3.429507568359375,-0.13588857650756836,-0.632070004940033,-0.03246618062257767
1782831042900436500,3.4394365234375,-0.14011135697364807,-1.0875953435897827,0.009144004434347153
1782831042910366200,3.4493662109375,-0.13789799809455872,-1.5321565866470337,-0.011229177936911583
1782831042920295400,3.45929541015625,-0.1854463666677475,-1.7857997417449951,-0.13003325462341309
1782831042930224400,3.469224365234375,-0.23153316974639893,-1.7836220264434814,-0.2825937569141388
1782831042940154400,3.479154296875,-0.2779364585876465,-1.5657246112823486,-0.3820972442626953
1782831042950083600,3.48908349609375,-0.34020355343818665,-1.2399119138717651,-0.38650983572006226
1782831042960013300,3.499013427734375,-0.4145871698856354,-0.8791808485984802,-0.33721107244491577
1782831042969942300,3.5089423828125,-0.44518983364105225,-0.5848578214645386,-0.2475690394639969
1782831042979871200,3.518871337890625,-0.43694502115249634,-0.35595783591270447,-0.1457265019416809
1782831042989801500,3.528801513671875,-0.4134940207004547,-0.16730351746082306,-0.0459892675280571
1782831042999730400,3.53873046875,-0.3808346688747406,-0.05170754715800285,0.041279345750808716
1782831043009660400,3.548660400390625,-0.3523944914340973,-0.01519374456256628,0.11536608636379242
1782831043019589400,3.55858935546875,-0.32391107082366943,-0.026753142476081848,0.17333567142486572
1782831043029518300,3.568518310546875,-0.3247060179710388,-0.024395179003477097,0.23105889558792114
1782831043039448300,3.5784482421875,-0.3383782207965851,0.012253609485924244,0.2807249426841736
1782831043049377500,3.58837744140625,-0.3592236042022705,0.02988719940185547,0.33300065994262695
1782831043059306500,3.598306396484375,-0.36032891273498535,-0.02382909506559372,0.3807077407836914
1782831043069236200,3.608236328125,-0.330005943775177,-0.16689437627792358,0.42277291417121887
1782831043079165400,3.61816552734375,-0.2796538770198822,-0.34272947907447815,0.43600863218307495
1782831043089095400,3.628095458984375,-0.22266677021980286,-0.49955984950065613,0.41650205850601196
1782831043099024400,3.6380244140625,-0.1641187071800232,-0.6789105534553528,0.3823065459728241
1782831043108953600,3.64795361328125,-0.11636477708816528,-0.7392261028289795,0.32806116342544556
1782831043118883300,3.65788330078125,-0.055289655923843384,-0.7426214218139648,0.32698875665664673
1782831043128812300,3.667812255859375,0.015154415741562843,-0.627697229385376,0.41407227516174316
1782831043138741500,3.677741455078125,0.058478161692619324,-0.42144009470939636,0.5177769660949707
1782831043148671500,3.68767138671875,0.07947691529989243,-0.19097653031349182,0.6165517568588257
1782831043158600400,3.697600341796875,0.07377812266349792,0.0938270092010498,0.698317289352417
1782831043168530400,3.707530517578125,0.05289015173912048,0.4648527503013611,0.7467788457870483
1782831043178459400,3.71745947265625,0.02270643226802349,0.725997805595398,0.7566177845001221
1782831043188388400,3.727388427734375,-0.009803306311368942,0.8428075313568115,0.7535144090652466
1782831043198318600,3.737318603515625,-0.03714953362941742,0.862618088722229,0.7469949722290039
1782831043208247300,3.747247314453125,-0.07867779582738876,0.8522690534591675,0.7366089224815369
1782831043218177300,3.75717724609375,-0.16144156455993652,0.9385842680931091,0.6514108777046204
1782831043228106200,3.767106201171875,-0.26689180731773376,1.119193434715271,0.4091428220272064
1782831043238035500,3.777035400390625,-0.3509279489517212,1.1050091981887817,-0.057319436222314835
1782831043247965400,3.78696533203125,-0.2768702208995819,0.8878653645515442,-0.6673364639282227
1782831043257894400,3.796894287109375,-0.04808451235294342,1.1508342027664185,-1.043687105178833
1782831043267823400,3.8068232421875,0.16747280955314636,1.619657278060913,-1.1289540529251099
1782831043277753300,3.81675341796875,0.282286673784256,1.524822473526001,-1.0419540405273438
1782831043287682300,3.826682373046875,0.2641071379184723,1.0819859504699707,-0.8621411323547363
1782831043297612500,3.836612548828125,0.08501145988702774,0.8319063186645508,-0.6485146284103394
1782831043307541200,3.846541259765625,-0.06477190554141998,0.626347005367279,-0.4549368917942047
1782831043317470200,3.85647021484375,-0.07132349908351898,0.35041573643684387,-0.38500502705574036
1782831043327400400,3.866400390625,0.012186571955680847,0.06626737117767334,-0.4575500786304474
1782831043337329400,3.876329345703125,0.07429496198892593,-0.12041980773210526,-0.5882086753845215
1782831043347258400,3.88625830078125,0.10735917091369629,-0.05631725862622261,-0.6327841281890869
1782831043357188400,3.896188232421875,0.16820518672466278,0.22524316608905792,-0.6014431715011597
1782831043367117300,3.906117431640625,0.29337507486343384,0.526091456413269,-0.4856257140636444
1782831043377047300,3.91604736328125,0.46650323271751404,0.6416056752204895,-0.23215825855731964
1782831043386976500,3.9259765625,0.5962833166122437,0.5333175659179688,0.09035773575305939
1782831043396905500,3.935905517578125,0.6617043018341064,0.16527727246284485,0.36366114020347595
1782831043406835200,3.945835205078125,0.6618154048919678,-0.3438400328159332,0.5214347839355469
1782831043416764400,3.955764404296875,0.5897054076194763,-0.8123165965080261,0.5066350698471069
1782831043426694400,3.9656943359375,0.4096352159976959,-1.1343199014663696,0.2788388729095459
1782831043436623400,3.975623291015625,0.14920170605182648,-1.2181751728057861,-0.14332376420497894
1782831043446552300,3.98555224609375,-0.11741641163825989,-1.0381470918655396,-0.6166359186172485
1782831043456482300,3.995482421875,-0.351885050535202,-0.6660032272338867,-0.998041033744812
1782831043466411300,4.005411376953125,-0.5245867967605591,-0.2943574786186218,-1.1853736639022827
1782831043476340200,4.01534033203125,-0.6061463356018066,-0.03715085610747337,-1.1640207767486572
1782831043486270500,4.0252705078125,-0.5869100689888,0.08211322128772736,-0.9919123649597168
1782831043496199400,4.035199462890625,-0.4441421627998352,0.05597434937953949,-0.7344644069671631
1782831043506129200,4.045129150390625,-0.2565237879753113,-0.16726353764533997,-0.4278562664985657
1782831043516058400,4.055058349609375,-0.05241144821047783,-0.5489985346794128,-0.09919805824756622
1782831043525987300,4.0649873046875,0.15534493327140808,-0.9141296148300171,0.2328169047832489
1782831043535917300,4.074917236328125,0.3201391398906708,-1.1278390884399414,0.5401656031608582
1782831043545846500,4.084846435546875,0.3776434361934662,-1.1740511655807495,0.7750433087348938
1782831043555775500,4.094775390625,0.3186134994029999,-1.09041428565979,0.905450165271759
1782831043565705200,4.104705322265625,0.20785848796367645,-0.8856741189956665,0.9307049512863159
1782831043575634400,4.114634521484375,0.07675859332084656,-0.6099857091903687,0.8839908242225647
1782831043585564400,4.124564453125,-0.08225847780704498,-0.2254081666469574,0.729745090007782
1782831043595493400,4.134493408203125,-0.25561147928237915,0.13139091432094574,0.5279303193092346
1782831043605422600,4.144422607421875,-0.35049858689308167,0.35219278931617737,0.3637927770614624
1782831043615352300,4.154352294921875,-0.372951865196228,0.5947577953338623,0.2330712378025055
1782831043625277200,4.164277099609375,-0.3700639307498932,0.8177152276039124,0.18540865182876587
1782831043635207200,4.174207275390625,-0.33202022314071655,0.8395467400550842,0.22328650951385498
1782831043645136400,4.184136474609375,-0.2643439769744873,0.5205269455909729,0.31841808557510376
1782831043655065300,4.1940654296875,-0.17268948256969452,0.08710251748561859,0.45972883701324463
1782831043664995000,4.2039951171875,-0.05176970362663269,-0.1342165470123291,0.6629253625869751
1782831043674924000,4.213924072265625,0.05474274232983589,-0.20960792899131775,0.8616259694099426
1782831043684853200,4.223853271484375,0.15384162962436676,-0.17646515369415283,0.9867426156997681
1782831043694783200,4.233783203125,0.20144689083099365,0.00598345510661602,1.0188963413238525
1782831043704712200,4.243712158203125,0.17222535610198975,0.22779759764671326,0.9821625351905823
1782831043714642200,4.25364208984375,0.14409463107585907,0.31437990069389343,0.9222145676612854
1782831043724571100,4.263571044921875,0.15374939143657684,0.20036596059799194,0.8624817132949829
1782831043734500000,4.2735,0.1742076873779297,0.019672835245728493,0.8212648630142212
1782831043744430300,4.283430419921875,0.17734436690807343,-0.013965819962322712,0.7623125910758972
1782831043754359300,4.293359375,0.16487739980220795,0.21733787655830383,0.6773958802223206
1782831043764289000,4.3032890625,0.1703970730304718,0.5629270076751709,0.6186233758926392
1782831043774218200,4.31321826171875,0.2148256152868271,0.8887832760810852,0.5644031167030334
1782831043784147200,4.323147216796875,0.23947104811668396,0.9345699548721313,0.4748159646987915
1782831043794077200,4.3330771484375,0.23618720471858978,0.6238691210746765,0.27356481552124023
1782831043804006400,4.34300634765625,0.16546829044818878,0.15680846571922302,-0.07323708385229111
1782831043813935400,4.352935302734375,0.03943810611963272,-0.050799623131752014,-0.5103923082351685
1782831043823865000,4.362864990234375,-0.13848581910133362,0.09554960578680038,-0.982778787612915
1782831043833794300,4.372794189453125,-0.4097871780395508,0.4810020327568054,-1.460963487625122
1782831043843724300,4.382724365234375,-0.6221463680267334,0.8654136061668396,-1.8496683835983276
1782831043853653200,4.3926533203125,-0.6794919967651367,1.2879223823547363,-1.9265310764312744
1782831043863582500,4.40258251953125,-0.6458906531333923,1.4390106201171875,-1.5886547565460205
1782831043873512200,4.41251220703125,-0.5559797286987305,0.815811038017273,-1.0748218297958374
1782831043883441200,4.422441162109375,-0.438894659280777,-0.35292938351631165,-0.6602440476417542
1782831043893371400,4.432371337890625,-0.3606111705303192,-1.3175760507583618,-0.542846143245697
1782831043903300400,4.44230029296875,-0.19978497922420502,-1.6281448602676392,-0.5564360022544861
1782831043913229300,4.452229248046875,-0.05729122459888458,-1.337141752243042,-0.4996297359466553
1782831043923159300,4.4621591796875,0.06158030033111572,-0.8166384100914001,-0.3990256190299988
1782831043933088300,4.472088134765625,0.11194613575935364,-0.29008105397224426,-0.26619386672973633
1782831043943017200,4.482017333984375,-0.014155336655676365,0.07596724480390549,-0.24781112372875214
1782831043952947200,4.491947265625,-0.26586294174194336,0.21012265980243683,-0.4629022777080536
1782831043962876400,4.50187646484375,-0.5216097235679626,0.15434302389621735,-0.8546692728996277
1782831043972806100,4.51180615234375,-0.7123692631721497,0.01086617074906826,-1.3148084878921509
1782831043982735000,4.521735107421875,-0.8016874194145203,-0.10588521510362625,-1.6432191133499146
1782831043992664300,4.531664306640625,-0.8393763899803162,-0.34751614928245544,-1.7443143129348755
1782831044002594300,4.54159423828125,-0.7786222100257874,-0.7925439476966858,-1.6152186393737793
1782831044012523300,4.551523193359375,-0.6088637709617615,-1.2208219766616821,-1.3222068548202515
1782831044022452500,4.561452392578125,-0.3797461986541748,-1.597915530204773,-0.9523177146911621
1782831044032382200,4.57138232421875,-0.15165536105632782,-1.7830523252487183,-0.5612922310829163
1782831044042311200,4.581311279296875,0.02120642177760601,-1.6836227178573608,-0.19428172707557678
1782831044052241400,4.591241455078125,0.11813091486692429,-1.340975284576416,0.11692997068166733
1782831044062170400,4.60117041015625,0.16361103951931,-0.8735670447349548,0.36378926038742065
1782831044072099300,4.611099365234375,0.1516801416873932,-0.3734850287437439,0.5305641293525696
1782831044082029300,4.621029296875,0.09606534987688065,0.019646279513835907,0.6011890172958374
1782831044091958300,4.630958251953125,-0.02823854610323906,0.2738998532295227,0.6128100156784058
1782831044101888300,4.64088818359375,-0.21276499330997467,0.3877353370189667,0.5499697923660278
1782831044111817500,4.6508173828125,-0.3645758330821991,0.30504298210144043,0.4212714433670044
1782831044121746200,4.66074609375,-0.4168563485145569,0.10808862000703812,0.2713192403316498
1782831044131676200,4.67067626953125,-0.4095899760723114,-0.09653632342815399,0.18081572651863098
1782831044141605000,4.680605224609375,-0.3237419128417969,-0.2896525263786316,0.18110840022563934
1782831044151535400,4.690535400390625,-0.20672783255577087,-0.4520663917064667,0.25804927945137024
1782831044161464300,4.70046435546875,-0.09680131822824478,-0.520672082901001,0.4054829478263855
1782831044171393300,4.710393310546875,-0.022273892536759377,-0.41556689143180847,0.6128000617027283
1782831044181323300,4.7203232421875,0.04823542386293411,-0.22879859805107117,0.8325009942054749
1782831044191252200,4.730252197265625,0.10417842864990234,-0.05710095912218094,0.992414653301239
1782831044201181200,4.74018115234375,0.08795525133609772,0.07600196450948715,1.047792673110962
1782831044211111400,4.750111328125,0.017154444009065628,0.1723792999982834,1.020742416381836
1782831044221040000,4.7600400390625,-0.0998440757393837,0.2611680328845978,0.9313169717788696
1782831044230970000,4.76997021484375,-0.22885684669017792,0.29604578018188477,0.8288915157318115
1782831044240899300,4.7798994140625,-0.3084978461265564,0.29125022888183594,0.7704806923866272
1782831044250828300,4.789828369140625,-0.3378443419933319,0.2851076126098633,0.7396119236946106
1782831044260758300,4.79975830078125,-0.33438223600387573,0.25244075059890747,0.7423906326293945
1782831044270687200,4.809687255859375,-0.36733418703079224,0.245826855301857,0.7711784243583679
1782831044280616200,4.8196162109375,-0.42153802514076233,0.29741811752319336,0.7340912818908691
1782831044290546200,4.829546142578125,-0.39145132899284363,0.3666606843471527,0.6115032434463501
1782831044300475400,4.839475341796875,-0.25707995891571045,0.42110902070999146,0.43365201354026794
1782831044310405400,4.8494052734375,-0.038151372224092484,0.5020167231559753,0.2933880388736725
1782831044320334000,4.859333984375,0.1260088086128235,0.5531483888626099,0.2085229754447937
1782831044330263000,4.869262939453125,0.18045614659786224,0.3870956599712372,0.10997433215379715
1782831044340193300,4.879193359375,0.18051713705062866,0.06628089398145676,0.042969733476638794
1782831044350122200,4.889122314453125,0.1469203382730484,-0.15901784598827362,0.09599349647760391
1782831044360052200,4.89905224609375,0.13273446261882782,0.05306059122085571,0.24260744452476501
1782831044369981200,4.908981201171875,0.13706724345684052,0.3930453658103943,0.33586442470550537
1782831044379910100,4.91891015625,0.15772618353366852,0.36769235134124756,0.17940478026866913
1782831044389840400,4.92884033203125,0.23102490603923798,-0.029342103749513626,-0.17601004242897034
1782831044399769300,4.938769287109375,0.35054194927215576,-0.36117851734161377,-0.42419877648353577
1782831044409699300,4.94869921875,0.4041057527065277,-0.6780767440795898,-0.474902868270874
1782831044419628000,4.9586279296875,0.4451620876789093,-1.0266869068145752,-0.44165173172950745
1782831044429557200,4.96855712890625,0.5251931548118591,-1.217041254043579,-0.389575332403183
1782831044439487200,4.9784873046875,0.5649906396865845,-1.170047640800476,-0.33575525879859924
1782831044449416200,4.988416259765625,0.5763911008834839,-0.9820234775543213,-0.256285160779953
1782831044459345400,4.998345458984375,0.5906994938850403,-0.6909034848213196,-0.12011135369539261
1782831044469275100,5.008275146484375,0.5689407587051392,-0.3999332785606384,0.02670210413634777
1782831044479204000,5.0182041015625,0.4630902111530304,-0.15315279364585876,0.1033734455704689
1782831044489134300,5.02813427734375,0.2842583656311035,0.014685843139886856,0.08721281588077545
1782831044499063300,5.038063232421875,0.063057541847229,0.08933264762163162,-0.022888386622071266
1782831044508992300,5.0479921875,-0.1941145658493042,0.090988889336586,-0.25821059942245483
1782831044518922200,5.057922119140625,-0.36802005767822266,0.028990233317017555,-0.5722289681434631
1782831044528851200,5.067851318359375,-0.3872573673725128,-0.0077890739776194096,-0.8665714859962463
1782831044538780200,5.0777802734375,-0.3189390301704407,0.03171892091631889,-1.0356236696243286
1782831044548710400,5.08771044921875,-0.25016728043556213,0.008078242652118206,-1.0387306213378906
1782831044558639400,5.097639404296875,-0.22496923804283142,-0.11938197910785675,-0.9143540263175964
1782831044568569000,5.107569091796875,-0.24846751987934113,-0.26565083861351013,-0.7040704488754272
1782831044578498300,5.117498291015625,-0.2911691963672638,-0.335453599691391,-0.46091076731681824
1782831044588427300,5.12742724609375,-0.32830366492271423,-0.27805420756340027,-0.22063522040843964
1782831044598357200,5.137357177734375,-0.33278098702430725,-0.1488882154226303,-0.002415547613054514
1782831044608286200,5.1472861328125,-0.2982679009437561,-0.043797172605991364,0.1695883870124817
1782831044618216200,5.15721630859375,-0.2158137708902359,-0.051700904965400696,0.3242751657962799
1782831044628148700,5.167148681640625,-0.11739841103553772,-0.11473321169614792,0.4797191917896271
1782831044638077700,5.17707763671875,-0.05034906417131424,-0.13504274189472198,0.6165335178375244
1782831044648008000,5.187008056640625,-0.015234173275530338,-0.07046706229448318,0.6860842704772949
1782831044657937000,5.19693701171875,0.013461919501423836,0.040127627551555634,0.6930742859840393
1782831044667865900,5.206865966796875,0.03350919857621193,0.1641589254140854,0.6498072147369385
1782831044677795600,5.216795654296875,0.04661434888839722,0.26433318853378296,0.5963101387023926
1782831044687724800,5.226724853515625,0.03753175586462021,0.3515051603317261,0.5449792742729187
1782831044697654800,5.23665478515625,-0.02419259399175644,0.41767778992652893,0.4815010130405426
1782831044707583700,5.246583740234375,-0.12071489542722702,0.3932880163192749,0.3947960138320923
1782831044717513000,5.256512939453125,-0.2070026397705078,0.25326886773109436,0.3463895916938782
1782831044727442700,5.266442626953125,-0.28044623136520386,0.13293300569057465,0.3530190885066986
1782831044737371600,5.27637158203125,-0.34511762857437134,0.12974973022937775,0.4236791431903839
1782831044747302000,5.286302001953125,-0.382158488035202,0.2261977195739746,0.5333895683288574
1782831044757230800,5.29623095703125,-0.38245731592178345,0.41559934616088867,0.6186834573745728
1782831044767159800,5.306159912109375,-0.3174038231372833,0.6316172480583191,0.6717261075973511
1782831044777089800,5.31608984375,-0.2110254466533661,0.8100079894065857,0.6852565407752991
1782831044787015700,5.326015625,-0.13062167167663574,0.926235556602478,0.6686142086982727
1782831044796945000,5.33594482421875,-0.08985519409179688,0.8734493255615234,0.6346533894538879
1782831044806873900,5.345873779296875,-0.12149098515510559,0.6812806725502014,0.5729546546936035
1782831044816803600,5.355803466796875,-0.20364950597286224,0.43443626165390015,0.48309004306793213
1782831044826732500,5.365732666015625,-0.2662704586982727,0.2029588520526886,0.30631908774375916
1782831044836662800,5.375662841796875,-0.2517482340335846,0.09732669591903687,0.026122312992811203
1782831044846591700,5.385591796875,-0.16638633608818054,0.07395980507135391,-0.22186167538166046
1782831044856520700,5.395520751953125,-0.0778743177652359,0.07334247976541519,-0.3364149034023285
1782831044866450700,5.40545068359375,-0.01822209171950817,0.10595345497131348,-0.25386911630630493
1782831044876379600,5.415379638671875,-0.013683533295989037,0.30045396089553833,-0.06140940636396408
1782831044886308600,5.42530859375,-0.040396131575107574,0.6979979872703552,0.031028810888528824
1782831044896238800,5.43523876953125,-0.01841120421886444,1.2842172384262085,-0.09168566018342972
1782831044906167800,5.445167724609375,0.057221002876758575,1.5529135465621948,-0.47358497977256775
1782831044916097500,5.45509765625,0.13360364735126495,1.573001742362976,-0.8033431768417358
1782831044926026800,5.46502685546875,0.10810718685388565,1.371117353439331,-0.9070190191268921
1782831044935955700,5.474955810546875,0.02470683865249157,0.8027811646461487,-0.8657402992248535
1782831044945885700,5.4848857421875,0.023717230185866356,0.1590120792388916,-0.7780641317367554
1782831044955815000,5.49481494140625,0.00900326482951641,-0.26963940262794495,-0.7226203083992004
1782831044965744600,5.50474462890625,-0.026132863014936447,-0.46473219990730286,-0.7515575885772705
1782831044975673600,5.514673583984375,0.03439998999238014,-0.46741294860839844,-0.796114444732666
1782831044985602800,5.524602783203125,0.15611104667186737,-0.37081602215766907,-0.7637513279914856
1782831044995532800,5.53453271484375,0.3326863646507263,-0.2529551684856415,-0.5952190160751343
1782831045005461800,5.544461669921875,0.49852094054222107,-0.2316340208053589,-0.32959869503974915
1782831045015391000,5.554390869140625,0.5712124705314636,-0.40094873309135437,-0.10825563967227936
1782831045025320700,5.56432080078125,0.542064368724823,-0.6836308240890503,-0.02929365076124668
1782831045035249700,5.574249755859375,0.42200425267219543,-0.9730615615844727,-0.13822972774505615
1782831045045180000,5.584179931640625,0.23838962614536285,-1.1496248245239258,-0.419709712266922
1782831045055108900,5.59410888671875,0.06789751350879669,-1.205869436264038,-0.7505885362625122
1782831045065037800,5.604037841796875,-0.030921149998903275,-1.131152868270874,-0.9789589643478394
1782831045074967800,5.6139677734375,-0.10152101516723633,-1.0444155931472778,-1.0490522384643555
1782831045084896800,5.623896728515625,-0.10679111629724503,-1.0006623268127441,-0.9879526495933533
1782831045094826800,5.63382666015625,-0.05645444616675377,-1.0006998777389526,-0.8203340768814087
1782831045104755700,5.643755615234375,0.06882607191801071,-1.073654294013977,-0.5810363292694092
1782831045114685000,5.653684814453125,0.22533871233463287,-1.1296714544296265,-0.3216465711593628
1782831045124614700,5.66361474609375,0.3461304008960724,-1.0232317447662354,-0.07609143853187561
1782831045134543600,5.673543701171875,0.42475810647010803,-0.8017581701278687,0.12080325186252594
1782831045144472800,5.683472900390625,0.46791747212409973,-0.47849494218826294,0.26831552386283875
1782831045154402800,5.69340283203125,0.40801018476486206,-0.09925680607557297,0.34694990515708923
1782831045164331800,5.703331787109375,0.29953810572624207,0.20081636309623718,0.3824611008167267
1782831045174261800,5.71326171875,0.16315443813800812,0.45002564787864685,0.3783678114414215
1782831045184190700,5.723190673828125,0.023166220635175705,0.6488805413246155,0.33131954073905945
1782831045194119700,5.73311962890625,-0.0734974667429924,0.7830905318260193,0.27090147137641907
1782831045204050000,5.7430498046875,-0.11141380667686462,0.8157591223716736,0.1831052005290985
1782831045213979000,5.752978759765625,-0.10118167102336884,0.7007808685302734,0.1127290353178978
1782831045223908600,5.76290869140625,-0.04756597429513931,0.4265967905521393,0.1115257665514946
1782831045233837800,5.772837890625,0.03432436287403107,0.08111663162708282,0.1964491903781891
1782831045243766800,5.782766845703125,0.11771980673074722,-0.23968754708766937,0.3314204514026642
1782831045253696800,5.79269677734375,0.1735207438468933,-0.46953460574150085,0.4922388792037964
1782831045263626000,5.8026259765625,0.2089354693889618,-0.5788804888725281,0.6792430281639099
1782831045273554700,5.8125546875,0.25267842411994934,-0.5220723748207092,0.8681349158287048
1782831045283484700,5.822484619140625,0.2449025958776474,-0.2812204360961914,0.9667759537696838
1782831045293413600,5.83241357421875,0.15243764221668243,0.08443183451890945,0.9658142924308777
1782831045303343900,5.84234375,0.05443136766552925,0.4450336694717407,0.9112391471862793
1782831045313272800,5.85227294921875,-0.005740892142057419,0.7510764002799988,0.8001307845115662
1782831045323201500,5.862201416015625,-0.02560827136039734,0.9420824646949768,0.6583274006843567
1782831045333131800,5.8721318359375,-0.0457332469522953,0.9665137529373169,0.5020205974578857
1782831045343060700,5.882060791015625,-0.12015630304813385,0.8488770723342896,0.359976589679718
1782831045352991000,5.891990966796875,-0.2091444879770279,0.6411404013633728,0.25157368183135986
1782831045362919700,5.901919677734375,-0.23584774136543274,0.6080273985862732,0.14868521690368652
1782831045372848600,5.9118486328125,-0.15920808911323547,0.859169602394104,0.11189097911119461
1782831045382778600,5.921778564453125,0.0031812014058232307,1.2871049642562866,0.1827678382396698
1782831045392707800,5.931707763671875,0.15282821655273438,1.7048543691635132,0.34035322070121765
1782831045402637800,5.941637939453125,0.21068352460861206,2.0886170864105225,0.4781613051891327
1782831045412566800,5.95156689453125,0.2345649003982544,2.5902488231658936,0.4336321949958801
1782831045422495700,5.961495849609375,0.3077903985977173,2.9132468700408936,0.07892337441444397
1782831045432425700,5.97142578125,0.4347320795059204,2.2412149906158447,-0.6437498927116394
1782831045442354700,5.981354736328125,0.5653464794158936,1.1486831903457642,-1.4477444887161255
1782831045452284000,5.991283935546875,0.4882216155529022,0.15977153182029724,-2.1013855934143066
1782831045462213600,6.001213623046875,0.16864600777626038,-0.2603972554206848,-2.454263687133789
1782831045472142600,6.011142578125,-0.12678244709968567,-0.07989432662725449,-2.462148666381836
1782831045482072800,6.02107275390625,-0.2458033412694931,0.27721506357192993,-2.2267673015594482
1782831045492001800,6.031001708984375,-0.17932231724262238,0.6509386301040649,-1.961342453956604
1782831045501930800,6.0409306640625,0.07122617214918137,0.845312237739563,-1.6833693981170654
1782831045511860700,6.05086083984375,0.3568424582481384,0.7619907855987549,-1.3973935842514038
1782831045521789700,6.060789794921875,0.6616411805152893,0.20369215309619904,-1.1065661907196045
1782831045531718700,6.07071875,0.9687255024909973,-0.5999159216880798,-0.8204973340034485
1782831045541649000,6.08064892578125,1.1694769859313965,-1.3723772764205933,-0.5503494143486023
1782831045551577900,6.090577880859375,1.0751608610153198,-1.896406888961792,-0.40385133028030396
1782831045561507600,6.100507568359375,0.7926869988441467,-2.5136587619781494,-0.44270744919776917
1782831045571436500,6.1104365234375,0.4350751042366028,-2.9848246574401855,-0.6569942235946655
1782831045581365800,6.12036572265625,0.08187421411275864,-3.0052692890167236,-0.9716140627861023
1782831045591295700,6.130295654296875,-0.24758116900920868,-2.6612725257873535,-1.3117700815200806
1782831045601224700,6.140224609375,-0.5752063989639282,-2.112070083618164,-1.6421672105789185
1782831045611154700,6.15015478515625,-0.8422303795814514,-1.4903501272201538,-1.8446407318115234
1782831045621083600,6.160083740234375,-1.0036718845367432,-0.8905061483383179,-1.8282848596572876
1782831045631009300,6.17000927734375,-1.037600040435791,-0.4254332482814789,-1.5889854431152344
1782831045640939500,6.179939453125,-0.9482510089874268,-0.057685308158397675,-1.1925300359725952
1782831045650868500,6.189868408203125,-0.7801088690757751,0.16497944295406342,-0.7227633595466614
1782831045660798200,6.199798095703125,-0.5735984444618225,0.19775715470314026,-0.27383121848106384
1782831045670727400,6.2097275390625,-0.42132025957107544,0.1692216545343399,0.10549508780241013
1782831045680656400,6.219656494140625,-0.38878268003463745,0.19414226710796356,0.41517120599746704
1782831045690586400,6.22958642578125,-0.46962401270866394,0.34214290976524353,0.6300081610679626
1782831045700515300,6.239515380859375,-0.6075665950775146,0.5769022107124329,0.7074294090270996
1782831045710444500,6.249444580078125,-0.768473207950592,0.7809602618217468,0.6493250727653503
1782831045720374300,6.259374267578125,-0.9321029186248779,0.765190064907074,0.4740152359008789
1782831045730303200,6.26930322265625,-0.9774746298789978,0.6171886324882507,0.31777849793434143
1782831045740233500,6.2792333984375,-0.8185750842094421,0.5694113373756409,0.3393782079219818
1782831045750162400,6.289162353515625,-0.6682697534561157,0.6076484322547913,0.45625048875808716
1782831045760091400,6.29909130859375,-0.5361000895500183,0.5387841463088989,0.6562787890434265
1782831045770021400,6.309021484375,-0.3844258785247803,0.35505956411361694,0.9129723310470581
1782831045779950300,6.318950439453125,-0.20697106420993805,0.06390436738729477,1.2083735466003418
1782831045789880300,6.32888037109375,-0.03767950087785721,-0.21831907331943512,1.5022648572921753
1782831045799809500,6.3388095703125,0.0560486875474453,-0.36417263746261597,1.777724266052246
1782831045809738500,6.348738525390625,-0.0035845497623085976,-0.3287728428840637,1.938372015953064
1782831045819668200,6.358668212890625,-0.1896842122077942,-0.17507879436016083,1.9112422466278076
1782831045829597400,6.368597412109375,-0.42255899310112,-0.012782818637788296,1.740793228149414
1782831045839526400,6.3785263671875,-0.5715087056159973,0.05395057052373886,1.4842875003814697
1782831045849456400,6.388456298828125,-0.5870922207832336,0.07102489471435547,1.220639944076538
1782831045859385600,6.398385498046875,-0.5705468058586121,0.1262350082397461,0.954842209815979
1782831045869315300,6.4083154296875,-0.5708820819854736,0.18694628775119781,0.7451659440994263
1782831045879244300,6.418244384765625,-0.5806578993797302,0.29007476568222046,0.6299487948417664
1782831045889173200,6.42817333984375,-0.578732430934906,0.47231194376945496,0.6104155778884888
1782831045899103500,6.438103515625,-0.5433580875396729,0.6687486171722412,0.6594182848930359
1782831045909032400,6.448032470703125,-0.46489229798316956,0.717628002166748,0.7531253099441528
1782831045918962400,6.45796240234375,-0.3161415159702301,0.49308356642723083,0.8577787280082703
1782831045928891400,6.467891357421875,-0.09174329787492752,0.15039171278476715,0.9102142453193665
1782831045938820400,6.4778203125,0.19713011384010315,-0.1363498866558075,0.9188254475593567
1782831045948750600,6.48775048828125,0.480959951877594,-0.038078971207141876,0.8778340816497803
1782831045958679600,6.497679443359375,0.6431934833526611,0.43024009466171265,0.7155377864837646
1782831045968608300,6.507608154296875,0.6420344710350037,0.5349640846252441,0.26618900895118713
1782831045978538200,6.517538330078125,0.6215323209762573,-0.040807224810123444,-0.3609015643596649
1782831045988467500,6.527467529296875,0.7258936166763306,-0.7294354438781738,-0.8414980173110962
1782831045998397400,6.5373974609375,0.8055542707443237,-1.3455312252044678,-1.0944998264312744
1782831046008326400,6.547326416015625,0.7915918827056885,-1.3501079082489014,-1.0986127853393555
1782831046018255400,6.55725537109375,0.6830021142959595,-0.8495094776153564,-1.0008782148361206
1782831046028185300,6.567185302734375,0.6241760849952698,-0.16671547293663025,-0.9463440775871277
1782831046038114300,6.5771142578125,0.68641597032547,0.5732553005218506,-0.848608672618866
1782831046048044500,6.58704443359375,0.8139228224754333,1.001141905784607,-0.6543909907341003
1782831046057973500,6.596973388671875,0.9468697905540466,1.037463903427124,-0.39986059069633484
1782831046067902200,6.606902099609375,1.0089377164840698,0.7356484532356262,-0.18782000243663788
1782831046077832400,6.61683251953125,0.9544444680213928,0.21858465671539307,-0.07444405555725098
1782831046087761400,6.626761474609375,0.7262147665023804,-0.2695687711238861,-0.10516655445098877
1782831046097690400,6.6366904296875,0.33845531940460205,-0.6132920384407043,-0.38531529903411865
1782831046107620400,6.646620361328125,-0.06549213081598282,-0.7508075833320618,-0.8487535119056702
1782831046117549300,6.65654931640625,-0.38468754291534424,-0.6278918981552124,-1.371221661567688
1782831046127479300,6.666479248046875,-0.5643129944801331,-0.3463260531425476,-1.7498831748962402
1782831046137408500,6.676408447265625,-0.660873293876648,-0.10590477287769318,-1.8642081022262573
1782831046147337500,6.68633740234375,-0.6750447750091553,0.032624080777168274,-1.7328814268112183
1782831046157267500,6.696267333984375,-0.5972260236740112,0.03802863508462906,-1.4271947145462036
1782831046167196200,6.706196044921875,-0.46164605021476746,-0.04519008845090866,-1.02772855758667
1782831046177126400,6.71612646484375,-0.2971514165401459,-0.13146652281284332,-0.5860932469367981
1782831046187055400,6.726055419921875,-0.1251910924911499,-0.23862865567207336,-0.14615792036056519
1782831046196984300,6.735984375,0.017296023666858673,-0.3277914524078369,0.2512812316417694
1782831046206914300,6.745914306640625,0.08318688720464706,-0.34951165318489075,0.5885652899742126
1782831046216843300,6.75584326171875,0.0041517047211527824,-0.30628854036331177,0.7804054617881775
1782831046226772200,6.765772216796875,-0.17073647677898407,-0.22793887555599213,0.8002084493637085
1782831046236702500,6.775702392578125,-0.36964869499206543,-0.022361837327480316,0.6662103533744812
1782831046246631400,6.78563134765625,-0.5347982048988342,0.2941244840621948,0.4144532084465027
1782831046256561200,6.79556103515625,-0.5918666124343872,0.5628587007522583,0.13890932500362396
1782831046266490400,6.805490478515625,-0.5514392852783203,0.7107230424880981,-0.08454585820436478
1782831046276419300,6.81541943359375,-0.45099788904190063,0.748895525932312,-0.1818506419658661
1782831046286349300,6.825349365234375,-0.35063159465789795,0.6419999599456787,-0.10427968949079514
1782831046296278500,6.835278564453125,-0.2693631052970886,0.41391241550445557,0.11972511559724808
1782831046306208300,6.845208251953125,-0.1934230476617813,0.17617017030715942,0.3860580027103424
1782831046316137200,6.85513720703125,-0.09975095093250275,0.008767965249717236,0.6462754011154175
1782831046326066400,6.86506640625,-0.003419356420636177,-0.11096322536468506,0.8820836544036865
1782831046335996400,6.874996337890625,0.060706429183483124,-0.1975439041852951,1.0657899379730225
1782831046345925400,6.88492529296875,0.06177835166454315,-0.24573807418346405,1.2137998342514038
1782831046355855400,6.89485546875,-0.01495472900569439,-0.2327536642551422,1.2613694667816162
1782831046365784300,6.904784423828125,-0.1256338357925415,-0.13135913014411926,1.2119470834732056
1782831046375713300,6.91471337890625,-0.20596452057361603,0.14499302208423615,1.0590839385986328
1782831046385643500,6.9246435546875,-0.1944090723991394,0.27287906408309937,0.9264749884605408
1782831046395572500,6.934572509765625,-0.09579804539680481,0.349152147769928,0.8573700785636902
1782831046405501400,6.94450146484375,0.03874805197119713,0.5443458557128906,0.805138349533081
1782831046415431200,6.95443115234375,0.174591064453125,0.8021230697631836,0.8166245222091675
1782831046425360400,6.9643603515625,0.32178449630737305,0.9731131792068481,0.9256604313850403
1782831046435290400,6.974290283203125,0.4370454251766205,0.8742577433586121,1.1236145496368408
1782831046445219300,6.98421923828125,0.5060495138168335,0.5472553968429565,1.3366352319717407
1782831046455148500,6.9941484375,0.5435239672660828,0.20576365292072296,1.501192331314087
1782831046465078300,7.004078369140625,0.5611287951469421,0.2835671007633209,1.4880187511444092
1782831046475007200,7.01400732421875,0.5062116980552673,0.7799168825149536,1.0847548246383667
1782831046484937500,7.0239375,0.38876551389694214,1.1883262395858765,0.14266054332256317
1782831046494866400,7.033866455078125,0.39165347814559937,1.5301040410995483,-0.8945318460464478
1782831046504795400,7.04379541015625,0.3834647834300995,1.6283243894577026,-1.630033016204834
1782831046514725400,7.053725341796875,0.3581472933292389,0.9233898520469666,-1.9082635641098022
1782831046524654300,7.063654296875,0.4136321246623993,-0.06443837285041809,-1.78191339969635
1782831046534583300,7.073583251953125,0.49433475732803345,-0.7247390747070312,-1.3527809381484985
1782831046544513500,7.083513427734375,0.55324387550354,-1.0174026489257812,-0.8589732646942139
1782831046554442500,7.0934423828125,0.7066615223884583,-1.1694568395614624,-0.4806380569934845
1782831046564372200,7.103372314453125,0.9480408430099487,-1.195929765701294,-0.1756048947572708
1782831046574301400,7.113301513671875,1.2162948846817017,-1.1887158155441284,0.09913547337055206
1782831046584230400,7.12323046875,1.401746392250061,-1.1252751350402832,0.32656916975975037
1782831046594160400,7.133160400390625,1.2670681476593018,-0.9989748001098633,0.33035728335380554
1782831046604089300,7.14308935546875,0.8263002634048462,-0.8846303820610046,-0.04069801792502403
1782831046614019300,7.153019287109375,0.23341155052185059,-0.7213804125785828,-0.7758001089096069
1782831046623948300,7.1629482421875,-0.32518595457077026,-0.4446055293083191,-1.6241284608840942
1782831046633877800,7.172877685546875,-0.7243233323097229,-0.04976159334182739,-2.242736339569092
1782831046643807700,7.182807861328125,-0.9800927639007568,0.22152744233608246,-2.509823799133301
1782831046653736700,7.19273681640625,-1.044710636138916,0.1334218531847,-2.41621470451355
1782831046663665700,7.202665771484375,-0.9319683313369751,-0.21922221779823303,-2.073259115219116
1782831046673595600,7.212595703125,-0.6660276651382446,-0.6463775038719177,-1.5932024717330933
1782831046683524600,7.222524658203125,-0.3138357996940613,-0.9277604818344116,-1.0496292114257812
1782831046693454800,7.232454833984375,0.03797048702836037,-1.0496708154678345,-0.5207453370094299
1782831046703383800,7.2423837890625,0.33948907256126404,-1.1114262342453003,-0.028320716693997383
1782831046713312500,7.2523125,0.5629814267158508,-1.1399157047271729,0.4193439483642578
1782831046723242800,7.26224267578125,0.654864490032196,-0.9951942563056946,0.7825331091880798
1782831046733171700,7.272171630859375,0.5528302788734436,-0.6105270981788635,0.9643373489379883
1782831046743101700,7.282101806640625,0.3334018290042877,-0.13401061296463013,1.0048285722732544
1782831046753030700,7.29203076171875,0.06237451359629631,0.3437211513519287,0.9109216928482056
1782831046762959600,7.301959716796875,-0.18764518201351166,0.7195925116539001,0.6902980208396912
1782831046772889600,7.3118896484375,-0.3144732713699341,0.9321706891059875,0.44731009006500244
1782831046782818600,7.321818603515625,-0.3369087874889374,1.024591326713562,0.22310121357440948
1782831046792747800,7.331747802734375,-0.33043259382247925,1.0419838428497314,0.015248037874698639
1782831046802677500,7.341677490234375,-0.31593993306159973,1.0154800415039062,-0.15356041491031647
1782831046812606500,7.3516064453125,-0.284270316362381,0.9249580502510071,-0.2393229454755783
1782831046822536700,7.36153662109375,-0.25255313515663147,0.663087010383606,-0.22328007221221924
1782831046832465700,7.371465576171875,-0.23868176341056824,0.25721076130867004,-0.13116289675235748
1782831046842394600,7.38139453125,-0.20148219168186188,-0.1783367097377777,0.022501233965158463
1782831046852324600,7.39132470703125,-0.1428084373474121,-0.5065397024154663,0.22622869908809662
1782831046862253600,7.401253662109375,-0.13529592752456665,-0.6312702298164368,0.4164692163467407
1782831046872183600,7.41118359375,-0.16790927946567535,-0.523218035697937,0.5839111804962158
1782831046882112800,7.42111279296875,-0.1783885508775711,-0.2340320497751236,0.7127008438110352
1782831046892041700,7.431041748046875,-0.1198115274310112,0.11152800172567368,0.8109614253044128
1782831046901971500,7.440971435546875,-0.031873151659965515,0.39996564388275146,0.902093768119812
1782831046911900700,7.450900634765625,0.06243562698364258,0.586983323097229,0.978946328163147
1782831046921830700,7.46083056640625,0.12521059811115265,0.6753531098365784,1.0073055028915405
1782831046931759600,7.470759521484375,0.1872679442167282,0.7766711115837097,0.9625041484832764
1782831046941688800,7.480688720703125,0.2616226077079773,0.9167587161064148,0.8731135129928589
1782831046951618600,7.49061865234375,0.3450821042060852,1.0832501649856567,0.7505521178245544
1782831046961547500,7.500547607421875,0.42660731077194214,1.1110553741455078,0.6633564829826355
1782831046971476500,7.5104765625,0.46830135583877563,1.1052669286727905,0.5839740633964539
1782831046981406700,7.52040673828125,0.4691498279571533,1.4860342741012573,0.4871905446052551
1782831046991335700,7.530335693359375,0.48768144845962524,1.9979337453842163,0.3854120373725891
1782831047001265700,7.540265625,0.45013460516929626,2.0494959354400635,0.161790132522583
1782831047011194600,7.550194580078125,0.26399660110473633,1.5520457029342651,-0.2432170808315277
1782831047021123600,7.56012353515625,-0.05400719493627548,1.0694236755371094,-0.6704277992248535
1782831047031053800,7.5700537109375,-0.23220597207546234,0.6862567067146301,-0.8812313079833984
1782831047040982800,7.579982666015625,-0.2391301840543747,0.23482877016067505,-0.9089047312736511
1782831047050912500,7.58991259765625,-0.1104154884815216,-0.33840712904930115,-0.827549934387207
1782831047060841500,7.599841552734375,0.043444909155368805,-0.9974526166915894,-0.7607280015945435
1782831047070770700,7.609770751953125,0.17802080512046814,-1.430933952331543,-0.7082547545433044
1782831047080700700,7.61970068359375,0.3035227954387665,-1.4603826999664307,-0.5696633458137512
1782831047090629600,7.629629638671875,0.4361211657524109,-1.2729177474975586,-0.3143289387226105
1782831047100558800,7.639558837890625,0.6076047420501709,-0.983385443687439,0.05394521728157997
1782831047110488600,7.649488525390625,0.8403719663619995,-0.6404194235801697,0.42110273241996765
1782831047120417500,7.65941748046875,1.0101261138916016,-0.3651028871536255,0.6767430305480957
1782831047130347800,7.66934765625,1.0461125373840332,-0.2808365225791931,0.7471208572387695
1782831047140276700,7.67927685546875,0.9479665160179138,-0.37811219692230225,0.6515445113182068
1782831047150205700,7.689205810546875,0.7300420999526978,-0.5293942093849182,0.3864634037017822
1782831047160135700,7.6991357421875,0.4359889030456543,-0.6519392728805542,-0.003986649215221405
1782831047170064600,7.709064697265625,0.156491219997406,-0.7449718713760376,-0.46332111954689026
1782831047179994600,7.71899462890625,-0.031931422650814056,-0.7421689033508301,-0.8374877572059631
1782831047189923800,7.728923828125,-0.1347479373216629,-0.7237694263458252,-1.0026190280914307
1782831047199852800,7.738852783203125,-0.18209654092788696,-0.7678881287574768,-0.9608784317970276
1782831047209782500,7.748782470703125,-0.23330830037593842,-0.7557877898216248,-0.7868042588233948
1782831047219711700,7.758711669921875,-0.2886570394039154,-0.6625055074691772,-0.5490268468856812
1782831047229640700,7.768640625,-0.30175504088401794,-0.47390565276145935,-0.3261745870113373
1782831047239570700,7.77857080078125,-0.28675928711891174,-0.22260898351669312,-0.1426771730184555
1782831047249499600,7.788499755859375,-0.2596602439880371,0.010197383351624012,-0.006528649944812059
1782831047259429600,7.7984296875,-0.24576734006404877,0.1236690878868103,0.0892692506313324
1782831047269358600,7.808358642578125,-0.24118903279304504,0.10930363088846207,0.16504481434822083
1782831047279287600,7.81828759765625,-0.2968680262565613,0.022951696068048477,0.22198691964149475
1782831047289217800,7.8282177734375,-0.39944130182266235,-0.07693777978420258,0.29245972633361816
1782831047299146800,7.838146728515625,-0.5012835264205933,-0.02935747802257538,0.35229989886283875
1782831047309076700,7.84807666015625,-0.5583322048187256,0.11009466648101807,0.378682941198349
1782831047319005700,7.858005615234375,-0.5515885353088379,0.316536009311676,0.3566082715988159
1782831047328934700,7.8679345703125,-0.4843777120113373,0.497405081987381,0.3371371626853943
1782831047338864600,7.87786474609375,-0.37005913257598877,0.5812463760375977,0.3343147337436676
1782831047348793900,7.8877939453125,-0.22675968706607819,0.547435998916626,0.3790401816368103
1782831047358723600,7.8977236328125,-0.11677432060241699,0.4522048234939575,0.4207921624183655
1782831047368652500,7.907652587890625,-0.08324158191680908,0.30822598934173584,0.4032622277736664
1782831047378581800,7.917581787109375,-0.09298235923051834,0.08901295065879822,0.3602255582809448
1782831047388511700,7.92751171875,-0.10597951710224152,-0.05459940433502197,0.347947359085083
1782831047398440700,7.937440673828125,-0.1390509158372879,-0.0478014200925827,0.4066697955131531
1782831047408369700,7.94736962890625,-0.1934170424938202,0.014560719951987267,0.5124918222427368
1782831047418299600,7.957299560546875,-0.22730256617069244,0.10780810564756393,0.5908319354057312
1782831047428228600,7.967228515625,-0.24630291759967804,0.12958475947380066,0.6453261375427246
1782831047438158800,7.977158935546875,-0.17183001339435577,0.11590836942195892,0.7274079322814941
1782831047448087800,7.987087890625,-0.01954837515950203,0.2502950429916382,0.8242902159690857
1782831047458016500,7.9970166015625,0.1515599936246872,0.49905186891555786,0.8927209377288818
1782831047467946800,8.00694677734375,0.2889625132083893,0.7365180253982544,0.9007288813591003
1782831047477875700,8.016875732421875,0.33047372102737427,0.8426604270935059,0.8354478478431702
1782831047487805700,8.0268056640625,0.2587796449661255,0.8444393873214722,0.6574998497962952
1782831047497735000,8.03673486328125,0.09072884172201157,0.7129647135734558,0.35347843170166016
1782831047507663600,8.04666357421875,-0.06401092559099197,0.6483360528945923,-0.0060638668946921825
1782831047517593600,8.056593505859375,-0.20751535892486572,0.938127875328064,-0.3716423809528351
1782831047527522600,8.0665224609375,-0.4092487692832947,1.2669986486434937,-0.8293086290359497
1782831047537451800,8.07645166015625,-0.4518739879131317,1.3508857488632202,-1.247978925704956
1782831047547381800,8.0863818359375,-0.20798759162425995,1.2061389684677124,-1.4478739500045776
1782831047557310500,8.096310546875,0.11976657807826996,0.8100728392601013,-1.4039820432662964
1782831047567240700,8.10624072265625,0.38402318954467773,0.08593251556158066,-1.181776762008667
1782831047577169700,8.116169677734375,0.5037527680397034,-0.8877551555633545,-0.9074686169624329
1782831047587098600,8.1260986328125,0.49240851402282715,-1.6489311456680298,-0.6537302136421204
1782831047597028600,8.136028564453126,0.4378323554992676,-1.94196355342865,-0.4440547227859497
1782831047606957600,8.14595751953125,0.46246033906936646,-1.8390597105026245,-0.2704326808452606
1782831047616887600,8.155887451171875,0.5564534068107605,-1.3058851957321167,-0.053752291947603226
1782831047626816800,8.165816650390624,0.6322020888328552,-0.5752708911895752,0.12258487194776535
1782831047636744700,8.17574462890625,0.6081129908561707,0.13952824473381042,0.20856156945228577
1782831047646675000,8.185675048828125,0.4661436080932617,0.5425716638565063,0.1431048959493637
1782831047656604000,8.19560400390625,0.21645788848400116,0.5555838942527771,-0.05920693278312683
1782831047666532900,8.205532958984374,-0.07117502391338348,0.2520333230495453,-0.3528374135494232
1782831047676462800,8.215462890625,-0.3487328588962555,-0.1902809888124466,-0.6580785512924194
1782831047686391800,8.225391845703125,-0.572493314743042,-0.6456590294837952,-0.9077737331390381
1782831047696321800,8.23532177734375,-0.6831830739974976,-1.011554479598999,-1.0296000242233276
1782831047706251000,8.2452509765625,-0.7355033755302429,-1.3266984224319458,-1.0339419841766357
1782831047716180000,8.255179931640624,-0.7142705321311951,-1.5250844955444336,-0.9021264910697937
1782831047726109700,8.265109619140626,-0.6444457173347473,-1.5100983381271362,-0.696872889995575
1782831047736038700,8.27503857421875,-0.5362622737884521,-1.3704754114151,-0.47500520944595337
1782831047745969000,8.284968994140625,-0.38762497901916504,-1.200543999671936,-0.2640399932861328
1782831047755897900,8.29489794921875,-0.21813420951366425,-0.9993599653244019,-0.07293661683797836
1782831047765826800,8.304826904296876,-0.05740293860435486,-0.7622305154800415,0.1018078625202179
1782831047775756800,8.3147568359375,0.05365433543920517,-0.4968920052051544,0.23451504111289978
1782831047785685800,8.324685791015625,0.05469463765621185,-0.1234000101685524,0.3075929582118988
1782831047795614700,8.33461474609375,-0.01789621263742447,0.2341139167547226,0.3387197256088257
1782831047805545000,8.344544921875,-0.09038940072059631,0.48784735798835754,0.334628164768219
1782831047815474000,8.354473876953126,-0.14073725044727325,0.6135719418525696,0.29757747054100037
1782831047825403600,8.364403564453125,-0.1521325707435608,0.5953463315963745,0.27520614862442017
1782831047835332900,8.374332763671875,-0.1533709466457367,0.4612174928188324,0.25548091530799866
1782831047845261800,8.38426171875,-0.14225414395332336,0.20502804219722748,0.24273090064525604
1782831047855191800,8.39419189453125,-0.14770270884037018,-0.09565296024084091,0.22095529735088348
1782831047865120800,8.404120849609376,-0.14983081817626953,-0.29350370168685913,0.19992664456367493
1782831047875050800,8.41405078125,-0.14961722493171692,-0.3256126642227173,0.20237143337726593
1782831047884979700,8.423979736328125,-0.1542322337627411,-0.21140871942043304,0.21780042350292206
1782831047894909000,8.433908935546874,-0.17368581891059875,-0.027050860226154327,0.24529676139354706
1782831047904839000,8.4438388671875,-0.18070673942565918,0.13371245563030243,0.3214115500450134
1782831047914767600,8.453767578125,-0.20721769332885742,0.26462575793266296,0.4183034598827362
1782831047924697900,8.46369775390625,-0.28513917326927185,0.41439881920814514,0.47270143032073975
1782831047934626800,8.473626708984375,-0.3787785768508911,0.49862897396087646,0.4434862732887268
1782831047944555800,8.4835556640625,-0.46256890892982483,0.4958707094192505,0.3681814670562744
1782831047954486000,8.493486083984376,-0.49793732166290283,0.47288766503334045,0.29480019211769104
1782831047964414700,8.503414794921875,-0.51368248462677,0.5084692239761353,0.2685849964618683
1782831047974343700,8.51334375,-0.573615312576294,0.6323208212852478,0.20870409905910492
1782831047984274000,8.52327392578125,-0.598289430141449,0.6849837899208069,0.13153262436389923
1782831047994203000,8.533202880859376,-0.5811890363693237,0.5695469379425049,0.017722701653838158
1782831048004132900,8.5431328125,-0.5070050954818726,0.32719647884368896,-0.09687057137489319
1782831048014061600,8.5530615234375,-0.36498939990997314,0.1444237232208252,-0.0568871945142746
1782831048023990800,8.56299072265625,-0.24515585601329803,0.14861971139907837,0.13788506388664246
1782831048033920800,8.572920654296874,-0.18206797540187836,0.3501794636249542,0.36315253376960754
1782831048043849700,8.582849609375,-0.16746090352535248,0.7065825462341309,0.5065221786499023
1782831048053780000,8.592780029296875,-0.21847908198833466,0.95551598072052,0.4799741208553314
1782831048063708700,8.602708740234375,-0.3408043682575226,0.9968429803848267,0.31605762243270874
1782831048073637600,8.6126376953125,-0.42392560839653015,1.0030341148376465,0.16438394784927368
1782831048083567900,8.62256787109375,-0.4532521069049835,0.9601804614067078,0.060599591583013535
1782831048093496800,8.632496826171876,-0.39187371730804443,0.649934709072113,0.028986800462007523
1782831048103425800,8.64242578125,-0.2156698852777481,0.16157691180706024,0.10785108804702759
1782831048113355800,8.652355712890625,-0.05473373457789421,-0.35217908024787903,0.20944242179393768
1782831048123284700,8.66228466796875,0.04379795491695404,-0.8783078193664551,0.22800299525260925
1782831048133214700,8.672214599609376,0.11363882571458817,-1.3290462493896484,0.19227589666843414
1782831048143144000,8.68214404296875,0.13724245131015778,-1.5716540813446045,0.11469821631908417
1782831048153073000,8.692072998046875,0.15130047500133514,-1.5165503025054932,0.018455039709806442
1782831048163002600,8.702002685546875,0.1917857825756073,-1.1649856567382812,-0.015500470995903015
1782831048172931800,8.711931884765624,0.2537927031517029,-0.6719224452972412,0.04404754564166069
1782831048182861800,8.72186181640625,0.29652392864227295,-0.21176935732364655,0.1614750772714615
1782831048192790800,8.731790771484375,0.26881346106529236,0.09567233920097351,0.22173762321472168
1782831048202719700,8.7417197265625,0.1387738287448883,0.18694919347763062,0.1418214738368988
1782831048212649700,8.751649658203124,-0.07848178595304489,0.154940664768219,-0.08266517519950867
1782831048222578700,8.76157861328125,-0.31497645378112793,0.057357057929039,-0.36134621500968933
1782831048232507600,8.771507568359375,-0.517379641532898,-0.03657955676317215,-0.6299664974212646
1782831048242438000,8.78143798828125,-0.6575751304626465,-0.1178191676735878,-0.8112841844558716
1782831048252366800,8.791366943359375,-0.7097483277320862,-0.2392667680978775,-0.8663511872291565
1782831048262296600,8.801296630859374,-0.6427212357521057,-0.3759787678718567,-0.8164201974868774
1782831048272225800,8.811225830078126,-0.5008037686347961,-0.49280259013175964,-0.6733048558235168
1782831048282154800,8.82115478515625,-0.3079303503036499,-0.5315147638320923,-0.4730578362941742
1782831048292084700,8.831084716796875,-0.11721686273813248,-0.46939998865127563,-0.2586004137992859
1782831048302014000,8.841013916015624,0.04763176292181015,-0.3495718240737915,-0.029399780556559563
1782831048311943700,8.850943603515624,0.13741491734981537,-0.21039584279060364,0.19046175479888916
1782831048321872600,8.86087255859375,0.14036600291728973,-0.10097745805978775,0.36260342597961426
1782831048331801900,8.8708017578125,0.08040466159582138,-0.06163644418120384,0.487549364566803
1782831048341731800,8.88073193359375,0.02761932462453842,-0.11551360785961151,0.5852115750312805
1782831048351660800,8.890660888671874,-0.008482221513986588,-0.19331705570220947,0.6594663262367249
1782831048361590000,8.900590087890626,-0.05768344923853874,-0.21414238214492798,0.6559179425239563
1782831048371519700,8.910519775390625,-0.12092341482639313,-0.15014556050300598,0.5481219291687012
1782831048381448700,8.92044873046875,-0.1713201254606247,-0.05991385504603386,0.385780394077301
1782831048391379000,8.93037890625,-0.19184750318527222,-0.010352695360779762,0.236194908618927
1782831048401308000,8.940307861328124,-0.17737020552158356,0.03359457105398178,0.12865880131721497
1782831048411236900,8.95023681640625,-0.13867047429084778,0.08679121732711792,0.08360157161951065
1782831048421166800,8.960166748046875,-0.10838250815868378,0.0958876982331276,0.08079218119382858
1782831048431095800,8.970095703125,-0.08831452578306198,0.022539986297488213,0.13991382718086243
1782831048441025800,8.98002587890625,-0.06095012649893761,-0.1397525817155838,0.2821595072746277
1782831048450955000,8.989955078125,-0.0037297122180461884,-0.31426045298576355,0.48412084579467773
1782831048460884000,8.999884033203125,0.05193198099732399,-0.47558557987213135,0.7140029072761536
1782831048470813700,9.009813720703125,0.038351722061634064,-0.5573698878288269,0.9282376766204834
1782831048480742700,9.01974267578125,0.024387409910559654,-0.40090852975845337,1.0745916366577148
1782831048490671900,9.029671875,0.05572908744215965,-0.028883054852485657,1.0921319723129272
1782831048500601900,9.039601806640626,0.09737331420183182,0.36450597643852234,1.0036845207214355
1782831048510530800,9.04953076171875,0.09787158668041229,0.6408094167709351,0.8758062124252319
1782831048520460800,9.059460693359375,0.14194466173648834,0.7980210185050964,0.7910855412483215
1782831048530389800,9.0693896484375,0.173855721950531,0.7641746401786804,0.7165346145629883
1782831048540318700,9.079318603515626,0.1596653312444687,0.46688076853752136,0.6495139002799988
1782831048550249000,9.0892490234375,0.135659322142601,-0.026193398982286453,0.5646021962165833
1782831048560178000,9.099177978515625,0.13666008412837982,-0.44112592935562134,0.4532930552959442
1782831048570107600,9.109107666015625,0.111074298620224,-0.5578911304473877,0.26296359300613403
1782831048580036900,9.119036865234374,0.04625922068953514,-0.33488941192626953,-0.049557335674762726
1782831048589965800,9.1289658203125,-0.038082025945186615,0.07961615175008774,-0.5001596808433533
1782831048599895800,9.138895751953125,-0.06202322989702225,0.49178245663642883,-0.9336835145950317
1782831048609824800,9.14882470703125,0.05361947789788246,0.8145362734794617,-1.036976933479309
1782831048619753700,9.158753662109374,0.18741673231124878,0.9467618465423584,-0.7991223335266113
1782831048629684000,9.16868408203125,0.24334606528282166,0.6415364146232605,-0.3697099983692169
1782831048639613000,9.178613037109375,0.241378515958786,0.17952856421470642,0.06917654722929001
1782831048649543000,9.18854296875,0.2109023630619049,-0.19850687682628632,0.34739965200424194
1782831048659472000,9.198471923828125,0.14480996131896973,-0.3688682019710541,0.4275209307670593
1782831048669400800,9.20840087890625,0.029926244169473648,-0.20684200525283813,0.3581855297088623
1782831048679330800,9.218330810546876,-0.09415417909622192,0.08165369182825089,0.19859659671783447
1782831048689259800,9.228259765625,-0.18803301453590393,0.2975716292858124,-0.05467134714126587
1782831048699190000,9.23818994140625,-0.2462441623210907,0.3884253203868866,-0.3395475149154663
1782831048709118700,9.24811865234375,-0.2896590232849121,0.41389524936676025,-0.6080061197280884
1782831048719047700,9.258047607421876,-0.37219470739364624,0.36611345410346985,-0.7860990166664124
1782831048728978000,9.26797802734375,-0.49504393339157104,0.2760773003101349,-0.874382495880127
1782831048738907000,9.277906982421875,-0.5951077938079834,0.11882437765598297,-0.8656894564628601
1782831048748835800,9.2878359375,-0.6133381724357605,-0.06586290895938873,-0.7704005241394043
1782831048758765800,9.297765869140624,-0.5543039441108704,-0.21696028113365173,-0.6150451302528381
1782831048768694800,9.30769482421875,-0.4482842683792114,-0.29222044348716736,-0.4358311891555786
1782831048778624800,9.317624755859375,-0.3222196400165558,-0.14294962584972382,-0.257890522480011
1782831048788554000,9.327553955078125,-0.24264678359031677,0.21166199445724487,-0.15192042291164398
1782831048798483000,9.33748291015625,-0.17681854963302612,0.565487265586853,-0.11234420537948608
1782831048808412700,9.34741259765625,-0.10644876956939697,0.7036547660827637,-0.14708061516284943
1782831048818342000,9.357341796875,0.004336608108133078,0.5181382298469543,-0.23223675787448883
1782831048828271900,9.36727197265625,0.12213301658630371,0.10537175089120865,-0.3000405728816986
1782831048838200800,9.377200927734375,0.19861900806427002,-0.3131566643714905,-0.30299198627471924
1782831048848130000,9.387130126953124,0.18164242804050446,-0.5778440237045288,-0.23210635781288147
1782831048858059800,9.397059814453126,0.08756939321756363,-0.7095628976821899,-0.14795254170894623
1782831048867988700,9.40698876953125,0.0056076860055327415,-0.7480711340904236,-0.11221212148666382
1782831048877917700,9.416917724609375,-0.028402451425790787,-0.6843056082725525,-0.1410958617925644
1782831048887848000,9.426847900390625,0.006321176886558533,-0.5173128843307495,-0.20672520995140076
1782831048897777000,9.43677685546875,0.08163397759199142,-0.3235791027545929,-0.288797527551651
1782831048907707000,9.446706787109376,0.1595436930656433,-0.16370423138141632,-0.37273821234703064
1782831048917635800,9.4566357421875,0.23176194727420807,-0.1001255214214325,-0.4059300720691681
1782831048927564800,9.466564697265625,0.2769690752029419,-0.18070131540298462,-0.3691568672657013
1782831048937495000,9.4764951171875,0.3011735677719116,-0.35165825486183167,-0.28075993061065674
1782831048947424000,9.486424072265624,0.3085116744041443,-0.518956184387207,-0.17038041353225708
1782831048957353700,9.496353759765626,0.2643323242664337,-0.6254236698150635,-0.09132799506187439
1782831048967282700,9.50628271484375,0.17837563157081604,-0.6683498620986938,-0.09619039297103882
1782831048977212000,9.5162119140625,0.0991082489490509,-0.6595092415809631,-0.15463924407958984
1782831048987142000,9.526141845703124,0.04140261188149452,-0.6454970240592957,-0.22261697053909302
1782831048997070800,9.53607080078125,-0.009791738353669643,-0.6754999160766602,-0.23126579821109772
1782831049007000000,9.546,-0.05675631761550903,-0.6770848035812378,-0.2065575271844864
1782831049016929800,9.5559296875,-0.08325812220573425,-0.5988050103187561,-0.18281707167625427
1782831049026858800,9.565858642578124,-0.0658317282795906,-0.4238851070404053,-0.15922652184963226
1782831049036789000,9.5757890625,-0.04408171772956848,-0.1419910043478012,-0.1169087290763855
1782831049046718000,9.585718017578126,-0.042495012283325195,0.2082652896642685,-0.03672095015645027
1782831049056647000,9.59564697265625,-0.05884455889463425,0.4805973768234253,0.08736322820186615
1782831049066577000,9.605576904296875,-0.07728801667690277,0.5705845355987549,0.21669670939445496
1782831049076505900,9.615505859375,-0.05005938559770584,0.5578354597091675,0.34198546409606934
1782831049086435800,9.625435791015626,-0.03095865808427334,0.5531807541847229,0.43115130066871643
1782831049096365000,9.635364990234375,-0.06522739678621292,0.5422911047935486,0.44778013229370117
1782831049106294000,9.6452939453125,-0.12194899469614029,0.4262632727622986,0.37461698055267334
1782831049116223700,9.6552236328125,-0.17278888821601868,0.1531607210636139,0.26239338517189026
1782831049126153000,9.665153076171874,-0.22205950319766998,-0.17877808213233948,0.17464596033096313
1782831049136082000,9.67508203125,-0.3092946410179138,-0.46242567896842957,0.13303020596504211
1782831049146012000,9.685011962890625,-0.39514511823654175,-0.6443052291870117,0.06741578131914139
1782831049155940900,9.69494091796875,-0.4104577898979187,-0.6667709946632385,-0.0678735077381134
1782831049165870800,9.704870849609375,-0.3197191059589386,-0.4224339425563812,-0.17329765856266022
1782831049175799800,9.7147998046875,-0.17616146802902222,0.08633124083280563,-0.10631203651428223
1782831049185728800,9.724728759765625,-0.046425580978393555,0.6610395312309265,0.1940818876028061
1782831049195659000,9.734658935546875,0.031133215874433517,1.022818684577942,0.6204007267951965
1782831049205588000,9.744587890625,0.028279375284910202,1.0715446472167969,0.9621085524559021
1782831049215518000,9.75451806640625,-0.012138730846345425,0.8516255021095276,1.0589252710342407
1782831049225447000,9.764447021484376,-0.0024805106222629547,0.46833905577659607,0.8689540028572083
1782831049235375900,9.7743759765625,0.044797807931900024,-0.1035822257399559,0.4565189480781555
1782831049245305900,9.784305908203125,0.09178768843412399,-0.7923520803451538,-0.027829090133309364
1782831049255235000,9.794235107421875,0.03215666487812996,-1.3308460712432861,-0.41554000973701477
1782831049265163800,9.804163818359376,-0.1554233431816101,-1.4758186340332031,-0.6549550294876099
1782831049275093800,9.81409375,-0.38750141859054565,-1.3270292282104492,-0.8018234968185425
1782831049285023000,9.82402294921875,-0.527185320854187,-0.927238404750824,-0.8660046458244324
1782831049294953000,9.833952880859375,-0.6165526509284973,-0.37010657787323,-0.813413143157959
1782831049304882000,9.8438818359375,-0.5897202491760254,0.15540140867233276,-0.6063830256462097
1782831049314811000,9.853810791015626,-0.528023898601532,0.5659623146057129,-0.2437058538198471
1782831049324740900,9.863740966796875,-0.3980795443058014,0.7275141477584839,0.15295574069023132
1782831049334669800,9.873669921875,-0.1881956309080124,0.7748934626579285,0.42634448409080505
1782831049344600000,9.88360009765625,-0.14813129603862762,0.7954463958740234,0.39337989687919617
1782831049354529000,9.893529052734374,-0.16197842359542847,0.5767831802368164,0.14683932065963745
1782831049364457700,9.903457763671875,-0.20183715224266052,0.15118713676929474,-0.2667432129383087
1782831049374388000,9.913387939453125,-0.19152754545211792,-0.3582269847393036,-0.7237424254417419
1782831049384317000,9.92331689453125,-0.07584328949451447,-0.7257347106933594,-1.0538759231567383
1782831049394246000,9.933245849609374,0.0015711411833763123,-0.7085012197494507,-0.9166209101676941
1782831049404177000,9.943177001953124,-0.09315536171197891,-0.8359279036521912,-0.7383257746696472
1782831049414105900,9.95310595703125,-0.08061905205249786,-0.8664892315864563,-0.6491965651512146
1782831049424035800,9.963035888671875,0.02351267635822296,-0.5596686005592346,-0.5988598465919495
1782831049433965000,9.972965087890625,0.06764756143093109,-0.23433725535869598,-0.47296321392059326
1782831049443894800,9.982894775390625,0.05969642475247383,0.010624022223055363,-0.3073015511035919
1782831049453823700,9.99282373046875,0.09454786777496338,0.16114000976085663,-0.07755375653505325
1782831049463753000,10.0027529296875,0.20178377628326416,0.17742924392223358,0.2991831600666046
1782831049473683000,10.012682861328125,0.33341920375823975,0.09922972321510315,0.7613697648048401
1782831049483612000,10.02261181640625,0.39292940497398376,0.06319156289100647,1.2171082496643066
1782831049493540900,10.032540771484374,0.31772321462631226,0.10287832468748093,1.5827218294143677
1782831049503470800,10.042470947265626,0.1955445557832718,0.17936217784881592,1.8800592422485352
1782831049513399800,10.05239990234375,0.11908503621816635,0.381488174200058,2.0891940593719482
1782831049523330000,10.062330078125,0.1327342689037323,0.6782349348068237,2.1925790309906006
1782831049533259000,10.072259033203125,0.21630464494228363,0.9852036833763123,2.1382083892822266
1782831049543188000,10.08218798828125,0.3211735188961029,1.2040013074874878,1.931203842163086
1782831049553118000,10.092117919921876,0.3818292021751404,1.3031156063079834,1.6192916631698608
1782831049563047000,10.102046875,0.3695288598537445,1.346177577972412,1.3126931190490723
1782831049572975900,10.111975830078125,0.3341410458087921,1.3624359369277954,1.0702214241027832
1782831049582905900,10.12190576171875,0.31280702352523804,1.1717400550842285,0.9445210695266724
1782831049592835000,10.1318349609375,0.281659334897995,0.7243688702583313,0.8902080655097961
1782831049602764800,10.141764892578125,0.27830907702445984,0.2780168950557709,0.8385853171348572
1782831049612693800,10.15169384765625,0.29501721262931824,0.04996855929493904,0.7823575139045715
1782831049622623000,10.161623046875,0.2816787660121918,-0.10908900201320648,0.7253235578536987
1782831049632553200,10.17155322265625,0.238694965839386,-0.20314352214336395,0.6936065554618835
1782831049642482200,10.181482177734376,0.16422925889492035,-0.15176953375339508,0.6595114469528198
1782831049652412400,10.191412353515625,0.07209321856498718,-0.16158820688724518,0.5328333377838135
1782831049662341400,10.20134130859375,0.018311742693185806,-0.3452957272529602,0.3007173240184784
1782831049672270300,10.211270263671874,0.005767663009464741,-0.8060047626495361,-0.04491964727640152
1782831049682200300,10.221200439453124,0.04130301997065544,-1.4169113636016846,-0.4368727505207062
1782831049692129300,10.23112939453125,0.1295708268880844,-1.7649688720703125,-0.7235255837440491
1782831049702058200,10.241058349609375,0.190699964761734,-1.6318912506103516,-0.8097794651985168
1782831049711988500,10.250988525390625,0.20027798414230347,-1.1979966163635254,-0.6558722257614136
1782831049721917400,10.26091748046875,0.1589459776878357,-0.6092171669006348,-0.3491913974285126
1782831049731847200,10.27084716796875,0.12504513561725616,0.006997883319854736,-0.0003526974469423294
1782831049741776400,10.2807763671875,0.11752862483263016,0.43047645688056946,0.2355133593082428
1782831049751705300,10.290705322265625,0.12333039939403534,0.4369085431098938,0.2972477078437805
1782831049761635300,10.30063525390625,0.14222420752048492,0.21328158676624298,0.23946483433246613
1782831049771564500,10.310564453125,0.14228256046772003,-0.04384206235408783,0.14068979024887085
1782831049781493500,10.320493408203125,0.08496014773845673,-0.2640404999256134,0.07598163187503815
1782831049791423200,10.33042333984375,-0.016767967492341995,-0.3183019459247589,0.10741796344518661
1782831049801352200,10.340352294921875,-0.15758368372917175,-0.19485828280448914,0.16378484666347504
1782831049811282400,10.350282470703124,-0.28878509998321533,0.020720601081848145,0.19167560338974
1782831049821211400,10.36021142578125,-0.3723188638687134,0.2264506071805954,0.16731911897659302
1782831049831140400,10.370140380859375,-0.38606172800064087,0.36432984471321106,0.060667481273412704
1782831049841070300,10.3800703125,-0.34809359908103943,0.5028538703918457,-0.11108457297086716
1782831049850999300,10.389999267578125,-0.3431924879550934,0.58246248960495,-0.27759844064712524
1782831049860929500,10.399929443359374,-0.3614572584629059,0.5052193403244019,-0.3733771741390228
1782831049870858500,10.4098583984375,-0.36797434091567993,0.33815547823905945,-0.40896493196487427
1782831049880787500,10.419787353515625,-0.34783124923706055,0.11748488992452621,-0.3766256272792816
1782831049890717200,10.42971728515625,-0.29746878147125244,-0.07946746796369553,-0.31588035821914673
1782831049900646400,10.439646484375,-0.23620913922786713,-0.22066374123096466,-0.2532505393028259
1782831049910575400,10.449575439453126,-0.20471134781837463,-0.31105566024780273,-0.19235901534557343
1782831049920505300,10.45950537109375,-0.23918810486793518,-0.3601821959018707,-0.08882702142000198
1782831049930434600,10.4694345703125,-0.3138400912284851,-0.31856849789619446,0.03781013563275337
1782831049940364300,10.4793642578125,-0.3546602129936218,-0.1265260875225067,0.06894781440496445
1782831049950293200,10.489293212890624,-0.34230345487594604,0.12026810646057129,-0.025785455480217934
1782831049960222500,10.499222412109376,-0.26551997661590576,0.24384863674640656,-0.2152043879032135
1782831049970152400,10.50915234375,-0.15510711073875427,0.248491108417511,-0.4340681731700897
1782831049980081400,10.519081298828125,-0.10064812749624252,0.2466663122177124,-0.602794349193573
1782831049990011400,10.529011474609375,-0.1416887640953064,0.20386889576911926,-0.6384872198104858
1782831049999940400,10.5389404296875,-0.2340218871831894,0.05251506716012955,-0.5156124234199524
1782831050009869300,10.548869384765625,-0.3324795067310333,-0.12578371167182922,-0.32058387994766235
1782831050019799600,10.558799560546875,-0.35590627789497375,-0.16774021089076996,-0.17334914207458496
1782831050029728500,10.568728515625,-0.27702343463897705,-0.07737743109464645,-0.11430801451206207
1782831050039657500,10.578657470703124,-0.13133227825164795,-0.06567762792110443,-0.1399524062871933
1782831050049587500,10.58858740234375,0.038311757147312164,-0.13322503864765167,-0.23872028291225433
1782831050059516400,10.598516357421875,0.18141937255859375,-0.10369937121868134,-0.33660581707954407
1782831050069446400,10.6084462890625,0.23379160463809967,-0.039491839706897736,-0.3636329770088196
1782831050079375400,10.618375244140625,0.11049683392047882,-0.021238800138235092,-0.2967729866504669
1782831050089304300,10.62830419921875,-0.11792296171188354,0.06714116036891937,-0.2408030927181244
1782831050099234300,10.638234375,-0.2961321175098419,0.2257465124130249,-0.27516961097717285
1782831050109163300,10.648163330078125,-0.3218546509742737,0.26150962710380554,-0.38324880599975586
1782831050119092500,10.658092529296875,-0.24602650105953217,0.1280466467142105,-0.45860907435417175
1782831050129022500,10.6680224609375,-0.16704528033733368,-0.05652022361755371,-0.3988901376724243
1782831050138951400,10.677951416015626,-0.09113134443759918,-0.19016748666763306,-0.24794535338878632
1782831050148881400,10.68788134765625,0.02262890711426735,-0.1604727953672409,-0.12814486026763916
1782831050158810400,10.697810302734375,0.19734346866607666,0.01550037320703268,-0.019207194447517395
1782831050168739300,10.7077392578125,0.31744185090065,0.2729237675666809,0.08707538992166519
1782831050178669600,10.717669677734374,0.2753079831600189,0.5829322338104248,0.16642507910728455
1782831050188598300,10.727598388671876,0.045562371611595154,1.1768993139266968,0.4437559247016907
1782831050198527200,10.73752734375,-0.19657063484191895,0.9257767796516418,0.3686337471008301
1782831050208457500,10.74745751953125,-0.2281378209590912,0.0014118487015366554,-0.04695776849985123
1782831050218386400,10.757386474609374,-0.11350337415933609,-0.6712307333946228,-0.4893985986709595
1782831050228316400,10.76731640625,-0.12320543825626373,-0.7924127578735352,-0.7812406420707703
1782831050238245400,10.777245361328125,-0.20978666841983795,-0.7463390231132507,-0.9633515477180481
1782831050248174300,10.78717431640625,-0.27929410338401794,-0.643951952457428,-0.9339014887809753
1782831050258104300,10.797104248046875,-0.27946722507476807,-0.4857407212257385,-0.6382562518119812
1782831050268033300,10.807033203125,-0.22733049094676971,-0.41967564821243286,-0.20973840355873108
