time,seconds_elapsed,z,y,x
1782829538540244200,0.078244140625,-0.14270225153863428,-0.18921923417225478,0.19670432923063635
1782829538550173200,0.088173095703125,-0.23967560208141803,-0.20149536289945244,0.16228985405666752
1782829538560101400,0.098101318359375,-0.23599019156694412,-0.12729206256940961,0.1261045698178932
1782829538570030300,0.1080302734375,-0.19758184271752832,-0.02797068759575486,0.06005368761485442
1782829538579958500,0.11795849609375,-0.052528644138574596,0.06611600159481168,0.11329358529532328
1782829538589887500,0.127887451171875,0.019430092135071752,0.1082923246756196,0.29012563158133997
1782829538599815400,0.1378154296875,-0.007999766582250595,0.0783197957381606,0.38625370867270975
1782829538609744400,0.147744384765625,-0.04521393721103668,0.012120792035013437,0.37063287262748923
1782829538619672300,0.15767236328125,0.09325111514925956,0.05121595410481095,0.22293898681402205
1782829538629601300,0.167601318359375,0.148788293454051,0.12333441098481417,0.1391507330695167
1782829538639530500,0.177530517578125,0.183300219386816,0.14115984440222382,0.11804742875890806
1782829538649458400,0.18745849609375,0.19870412474572657,0.09811156079247593,0.20084939314611255
1782829538659387400,0.197387451171875,0.07762859860360621,-0.032763036438822744,0.3172236827947199
1782829538669315300,0.2073154296875,0.04314180711209774,-0.07758958176746963,0.3510387125045061
1782829538679244300,0.217244384765625,0.08519464994370937,0.01790112900212407,0.26255906780706717
1782829538689172200,0.227172119140625,0.040566403666138645,0.07738470684513449,0.15202513821711763
1782829538699101400,0.237101318359375,-0.04514087197482586,0.10808744975328445,0.14179189522806554
1782829538709029400,0.247029296875,-0.018846154767274855,0.1222768647558987,0.20462257327558472
1782829538718958300,0.256958251953125,-0.08445464523136616,0.11128405383750796,0.23325104892663656
1782829538728886300,0.26688623046875,-0.1292570790320635,0.05815320602208376,0.22608137649297713
1782829538738815200,0.276815185546875,-0.019459318229556082,0.0549704843327403,0.10126270916662178
1782829538748744200,0.286744140625,0.014943302109837532,0.07831424278020858,0.011042586610559374
1782829538758672100,0.296672119140625,-0.05175356811285019,0.014318594340234993,0.09288704021037555
1782829538768601300,0.306601318359375,-0.04285363782048225,-0.012881985665857791,0.15833074116734788
1782829538778529300,0.316529296875,0.03712181617021561,0.04762509000599384,0.12686444827448576
1782829538788458200,0.326458251953125,0.011110592079162597,0.06464329869374633,0.14022112964685074
1782829538798386400,0.336386474609375,-0.03362462170422077,0.10164061170145869,0.13720156262996605
1782829538808315400,0.3463154296875,-0.062189621931314464,0.12744009273797272,0.09468511174144223
1782829538818243300,0.356243408203125,-0.17921733398735523,0.09728241649195551,0.11956726787048391
1782829538828172500,0.366172607421875,-0.2918301522105932,0.052109395813196895,0.2304003356706351
1782829538838100500,0.3761005859375,-0.2550958740532398,0.08246858598068356,0.18743032319517805
1782829538848029400,0.386029541015625,-0.20466040280163286,0.11939634088352322,0.05233783427421003
1782829538857958400,0.39595849609375,-0.16306933226287365,0.09362228654921054,0.07414458327959292
1782829538867886300,0.40588623046875,-0.08557517369389533,0.0787463505871594,0.16950882725846023
1782829538877815300,0.415815185546875,-0.1363321319848299,-0.02214461179077625,0.20078436508588493
1782829538887743200,0.4257431640625,-0.0648375060915947,-0.10433321178629994,0.14735382193783297
1782829538897672400,0.43567236328125,-0.05826163483262062,-0.032480566235631704,0.17367926307721063
1782829538907600400,0.445600341796875,0.011413374418020247,0.07391556942984462,0.12945845595621502
1782829538917529300,0.455529296875,0.06071721129119396,0.13208558045625685,0.1731159666386433
1782829538927457300,0.465457275390625,-0.010597966381907463,0.14420052727237342,0.12575920871263369
1782829538937386200,0.47538623046875,-0.016947627669572828,0.15196955383867025,0.16598677234584464
1782829538947314200,0.485314208984375,-0.0689589699357748,0.11671148571372031,0.10541183733586221
1782829538957243400,0.495243408203125,-0.040621348723769185,0.0968887409992516,0.15623126640375704
1782829538967172400,0.50517236328125,-0.10171090045869349,0.03517418923377991,0.2347932368673384
1782829538977100300,0.515100341796875,-0.09056465254426002,0.0376328344322741,0.1747182690024376
1782829538987029200,0.525029296875,-0.08670563902854919,0.04230491789653897,0.13744600237770938
1782829538996957200,0.534957275390625,-0.08289806343913078,0.014922989974170922,0.16836248850123955
1782829539006886100,0.54488623046875,-0.08459493048489093,-0.022768881168961523,0.1785759308112785
1782829539016814300,0.554814453125,-0.08541735278367996,-0.031280396665632725,0.1679920842862688
1782829539026743300,0.564743408203125,-0.04468436037898063,0.02443301498889923,0.20741655137566847
1782829539036671500,0.57467138671875,-0.14657763166725635,0.0587887274466455,0.2110968290572986
1782829539046600400,0.584600341796875,-0.14900456655323505,0.12136603352129459,0.16231151789920403
1782829539056529400,0.594529296875,-0.18200784148871899,0.15624635437503456,0.10636797815007157
1782829539066457300,0.604457275390625,-0.1964905403494835,0.13965776927620172,0.1460841673281975
1782829539076386600,0.614386474609375,-0.18623568831682205,0.017972732933610677,0.15863675664290786
1782829539086314500,0.624314453125,-0.13363164085447787,-0.038191783489286896,0.1739772413767874
1782829539096243500,0.634243408203125,-0.15103578011989593,-0.04620572472736239,0.20325356821101156
1782829539106171400,0.64417138671875,-0.19424246916174887,-0.05576470345035195,0.16342629247438162
1782829539116100400,0.654100341796875,-0.23899171147048473,-0.0221294142216444,0.14975764994286
1782829539126028300,0.6640283203125,-0.1666232253521681,0.005199906730651855,0.14898193459631875
1782829539135957200,0.673957275390625,-0.1822895810395479,-0.05747603741288185,0.0330877931474708
1782829539145885200,0.68388525390625,-0.19894903941750525,-0.08410086335763335,0.016917894685012286
1782829539155814400,0.693814453125,-0.2631733820468187,-0.10746259585320948,0.06540317715033889
1782829539165743600,0.70374365234375,-0.2046855372428894,-0.060675856367498636,-0.024909226799057795
1782829539175671600,0.713671630859375,0.0066296472728252405,0.05581818720325827,-0.11970502324020489
1782829539185600500,0.7236005859375,0.07703121723234653,0.1511827873751521,-0.1096845736184623
1782829539195528400,0.733528564453125,0.12077215928137301,0.1832116643205285,-0.06495375288240611
1782829539205457400,0.74345751953125,0.11453940237164496,0.09951908950284123,0.10226139221461489
1782829539215385300,0.75338525390625,0.017698153775930404,0.03483531266823411,0.1489721803872846
1782829539225314600,0.763314453125,-0.06301730492711066,0.01735255520865321,0.06656142097448464
1782829539235242500,0.773242431640625,-0.05923603282272815,0.03923676249757409,-0.042659170127729885
1782829539245171500,0.78317138671875,-0.011456629037857055,0.06836787217482924,-0.011283094535279087
1782829539255099600,0.793099609375,-0.15446692361235617,0.0068881520785391325,0.03984105310023296
1782829539265028400,0.8030283203125,-0.07356967860162257,-0.028011165736615655,0.019503225869941524
1782829539274957300,0.812957275390625,-0.032770050701498986,0.016100070929527283,0.031601121086557396
1782829539284885500,0.822885498046875,-0.13630115232467652,0.035719109765440224,0.03341522815368371
1782829539294814500,0.832814453125,-0.10046060813665389,0.036935499817878005,0.05041979419186245
1782829539304742700,0.84274267578125,-0.030994857722520825,0.14731310633495448,0.0930183384398464
1782829539314671600,0.852671630859375,-0.09005319589078425,0.21447291789427397,0.1387576146992389
1782829539324599600,0.862599609375,-0.11136778659820556,0.22647724394276736,0.1422989497010596
1782829539334528500,0.872528564453125,-0.16426175691783426,0.22716858720779418,0.1460850623773411
1782829539344456400,0.88245654296875,-0.19759177958965302,0.20696619552597403,0.17589487503375856
1782829539354385700,0.8923857421875,-0.1523088687956333,0.15912088689804077,0.14258062531980686
1782829539364314600,0.902314697265625,-0.06283902575075626,0.16211948419213293,0.142096166271111
1782829539374242600,0.91224267578125,-0.0012397709280252457,0.17874299447387457,0.22117082636402918
1782829539384171500,0.922171630859375,-0.009085808253288268,0.17944544365480541,0.27106853747712445
1782829539394099500,0.932099365234375,0.028842063602805137,0.2201484793126583,0.2114779555956833
1782829539404028400,0.9420283203125,0.07565525270402432,0.2752607102036476,0.11044239711528643
1782829539413956400,0.951956298828125,0.07390285607874393,0.2669166602283716,0.12411516783265396
1782829539423885600,0.961885498046875,-0.09474281501173973,0.18662278793826698,0.258230664947629
1782829539433813500,0.9718134765625,-0.13808160600066186,0.19026129057109356,0.2875426110845059
1782829539443742500,0.981742431640625,-0.11394260552227496,0.3081340751491487,0.22198769570486618
1782829539453670400,0.99167041015625,-0.1845598640590906,0.3789369193859398,0.22387705311542375
1782829539463599400,1.001599365234375,-0.2134516120225191,0.3232674930036068,0.24996568982424214
1782829539473528600,1.011528564453125,-0.1938362264484167,0.2350774606361985,0.23049563100496306
1782829539483456500,1.02145654296875,-0.06840367414057254,0.1437473766773939,0.2173060772272758
1782829539493385500,1.031385498046875,0.0466466003626585,0.06405863067358732,0.22979520938433706
1782829539503313700,1.041313720703125,0.07451192788779736,0.044998833155632016,0.26541871328819544
1782829539513242400,1.051242431640625,0.0318587810754776,0.05885565520301461,0.2523689333073795
1782829539523170600,1.061170654296875,0.050640053912997245,0.12188421217650175,0.16628354506902396
1782829539533099500,1.071099609375,0.01813186901807785,0.21093246880844235,0.1798375117123127
1782829539543027500,1.08102734375,-0.10397826086878775,0.19595760251656175,0.2601593862541951
1782829539552956700,1.090956787109375,-0.0967874725818634,0.14806348631083965,0.18993205861672757
1782829539562885600,1.1008857421875,-0.09931202262341976,0.10395210351422428,0.17424612144604323
1782829539572813600,1.1108134765625,-0.14440613284707068,-0.010019435841590166,0.10367750609023496
1782829539582742500,1.120742431640625,-0.06052724167704582,-0.02887523522004485,0.11073197291269898
1782829539592670500,1.13067041015625,-0.109492640376091,-0.05259980967864394,0.15485979538746178
1782829539602599700,1.140599609375,-0.08966682692170143,0.0040222412534058095,0.20685771191651
1782829539612527600,1.150527587890625,-0.0908838014960289,0.04147533520460128,0.18593235798869281
1782829539622456600,1.16045654296875,-0.1565039823979139,-0.0038850247398018833,0.08733731539505533
1782829539632384500,1.170384521484375,-0.15293489173948763,-0.06027005204558372,0.04517927688960917
1782829539642313500,1.1803134765625,-0.17952186989188193,-0.07605901119932532,0.06961817363002337
1782829539652241400,1.190241455078125,-0.18522095831632612,-0.051553953887522215,0.16484596828026696
1782829539662170400,1.20017041015625,-0.170142631649971,-0.03178162418603897,0.1379590755995363
1782829539672099600,1.210099609375,-0.09949673154056071,-0.02157104968652129,0.08500468032956122
1782829539682027500,1.220027587890625,-0.10128186139166355,-0.029368425564467907,0.10125802385834977
1782829539691956500,1.22995654296875,-0.20385843876898288,-0.014746610493957996,0.11138910338087006
1782829539701884400,1.239884521484375,-0.23612053994834423,-0.015957447588443755,0.010301869512163102
1782829539711813400,1.2498134765625,-0.2567220139503479,0.03997004520818591,-0.007157379207666963
1782829539721741300,1.2597412109375,-0.3468377536833286,0.13839096421077846,0.055829877641052
1782829539731670500,1.26967041015625,-0.4609276587218046,0.12924129694104194,0.017262776299659163
1782829539741599500,1.279599609375,-0.4202905279070139,-0.01629617802351713,-0.019922177367797122
1782829539751527400,1.28952734375,-0.2902449288457632,-0.09475319027528166,-0.06605469986163079
1782829539761456400,1.299456298828125,-0.21287235082983968,-0.10821925943940877,-0.004455545503599569
1782829539771384600,1.309384521484375,-0.11349953792989254,-0.1015137704513967,0.06144660327797755
1782829539781313500,1.3193134765625,-0.012046411624550819,-0.08031579186096786,0.05376057882001623
1782829539791241500,1.329241455078125,0.05383797317147255,-0.05113353651836514,0.0842410390133038
1782829539801170700,1.339170654296875,-0.026841245174407957,-0.05072787832692265,0.16492865986134855
1782829539811098600,1.3490986328125,-0.09764613523781299,-0.04082768495082855,0.1717166942999698
1782829539821027600,1.359027587890625,-0.08866495640277862,0.037725627282261844,0.07299710744463372
1782829539830955500,1.36895556640625,-0.10789923370480536,0.1423135444819927,-0.11208197188270277
1782829539840884500,1.378884521484375,-0.0801870509147644,0.2592071087643504,-0.16967790021505205
1782829539850813700,1.388813720703125,-0.04173661648929119,0.2614936122663319,-0.03532930216367822
1782829539860741600,1.39874169921875,-0.07546060691475867,0.055459583023935555,0.09525923096812329
1782829539870670600,1.408670654296875,-0.046776948744058605,-0.08414134149849414,0.17329676656564696
1782829539880598500,1.4185986328125,0.05014379482865333,-0.1175336157515645,0.11415707025686278
1782829539890527500,1.428527587890625,0.1332990478992462,-0.13466186068505048,0.07643015976638999
1782829539900455400,1.438455322265625,0.1042161612778902,-0.09457096557617187,0.11618881354648619
1782829539910384400,1.44838427734375,0.08496727092862129,0.004506517639011144,0.15595681511024012
1782829539920312300,1.458312255859375,0.036598669078946114,0.1382581316113472,0.20184366488046943
1782829539930241500,1.468241455078125,-0.07879355072975158,0.17087693727388978,0.1261967964123003
1782829539940170500,1.47817041015625,-0.11980477555394171,0.17281959577426315,0.06463536654904019
1782829539950098400,1.488098388671875,-0.08361644084155559,0.1568178706526756,0.13685288618961347
1782829539960027400,1.49802734375,-0.07162263618707657,0.15172230107933282,0.24272324441531673
1782829539969955300,1.507955322265625,-0.05748889689445495,0.11002820855751633,0.2456768517902121
1782829539979884500,1.517884521484375,-0.07233926002383231,0.09388678270429372,0.16856000210102648
1782829539989812700,1.527812744140625,0.016256722795963286,0.07759513472542166,0.12309212666153907
1782829539999741400,1.537741455078125,0.12221417478322982,0.05295812159702182,0.22635365409571676
1782829540009669600,1.547669677734375,0.05401157617270946,-0.031138211715966462,0.3466660138456151
1782829540019598600,1.5575986328125,-0.012327566653490066,-0.03497325983420014,0.305722739691101
1782829540029527600,1.567527587890625,-0.006222820037603378,0.03402501919865608,0.17447076051477342
1782829540039455500,1.57745556640625,-0.039568624800443646,0.11517273183912038,0.07935607998333871
1782829540049384700,1.587384765625,-0.1271954703271389,0.10361147338300943,0.10012557662916369
1782829540059312600,1.597312744140625,-0.18096271634995936,0.14779635980725286,0.183928196825739
1782829540069241600,1.60724169921875,-0.13408639888465404,0.17344415741339325,0.18208614915562793
1782829540079169500,1.61716943359375,-0.11568857240676879,0.16945801038667557,0.15979710565917193
1782829540089098500,1.627098388671875,-0.20364275019168854,0.18445304268375037,0.20181882270015775
1782829540099026400,1.6370263671875,-0.19122399812340735,0.14042305456027387,0.18631432477729393
1782829540108955600,1.64695556640625,-0.1281675302296877,0.15207710586637257,0.2054229664056562
1782829540118884600,1.656884521484375,-0.16595920848548412,0.10537307622805236,0.23793690518792718
1782829540128812500,1.6668125,-0.07748246813118458,-0.002831716294586658,0.24657765482114627
1782829540138741500,1.676741455078125,-0.023336451923847198,-0.02821574839800596,0.2211839598402381
1782829540148669400,1.68666943359375,0.0490559995919466,-0.06742240801826119,0.24581088996604084
1782829540158599000,1.696598876953125,-0.017578326788544655,-0.04255027095973491,0.24685365875093265
1782829540168526800,1.70652685546875,-0.12130933489799499,0.05548676329180598,0.22751809476520865
1782829540178455800,1.716455810546875,-0.18595511780977247,0.1560042161822319,0.21493238863218575
1782829540188383700,1.7263837890625,-0.19904548552930354,0.1827742958165705,0.11879231057576835
1782829540198312700,1.736312744140625,-0.14153554584681988,0.16393749339953065,0.015023600804433226
1782829540208240600,1.74624072265625,-0.09725041391849518,0.16900588270500302,0.03466674660171848
1782829540218169900,1.756169921875,-0.1447930863380432,0.10723492457717657,0.17292031620237974
1782829540228098800,1.766098876953125,-0.16805822659134864,0.045847997330874204,0.27411656340351326
1782829540238026800,1.77602685546875,-0.19700316604673862,0.03511515252292156,0.24019056586623191
1782829540247955700,1.785955810546875,-0.12000292847454547,0.043061581482738254,0.1486651237321086
1782829540257884000,1.7958837890625,0.002168576210737228,0.07510740956291556,0.1058253591733519
1782829540267812600,1.8058125,-0.04554302303493023,0.0011313421174883843,0.09227567597953602
1782829540277741000,1.815740966796875,-0.044482115805149075,-0.023048867154121397,0.19006237046550958
1782829540287670000,1.825669921875,-0.13865209936499595,0.04073606114462018,0.18772410024367273
1782829540297598700,1.8355986328125,-0.14100538449287414,0.10387260853722691,0.20482187697365878
1782829540307527000,1.84552685546875,-0.21538930208683013,0.15758344819769263,0.05416323220361955
1782829540317456000,1.855455810546875,-0.24575989043116567,0.17170052861645818,0.032645826100208795
1782829540327383800,1.8653837890625,-0.18193243816494942,0.17370704613327978,0.02934050094450358
1782829540337313000,1.87531298828125,-0.047511692759394646,0.12902546223327516,0.06475680097162258
1782829540347241000,1.885240966796875,-0.06741641666889191,0.006611380963772535,0.15233020384460685
1782829540357170000,1.895169921875,-0.10440145471692085,-0.07915653882324696,0.12666629535388202
1782829540367097900,1.905097900390625,-0.04045592902898788,-0.01641600501090288,0.12603996188277378
1782829540377026800,1.91502685546875,0.004732289218902588,0.08803732602372764,0.12047012586118652
1782829540386955800,1.924955810546875,0.07734276739954948,0.17729440310075878,0.07618803983989637
1782829540396883700,1.9348837890625,0.0887397752046585,0.1734196074940264,0.07732556966957636
1782829540406813000,1.94481298828125,0.0057756607919931405,0.13745821340531109,0.12930246167690493
1782829540416740900,1.954740966796875,-0.013023147702217101,0.1411591137498617,0.1286392576609738
1782829540426669800,1.964669921875,0.032172084808349606,0.09665960841849446,0.1379714236244559
1782829540436597800,1.97459765625,0.029930443361401556,0.10466682765483856,0.13692048979941754
1782829540446526700,1.984526611328125,-0.06664718586206436,0.08861848691254853,0.15580628245733677
1782829540456454700,1.99445458984375,-0.11143383757174015,0.06359773516356945,0.16438362973183393
1782829540466384000,2.0043837890625,-0.11200842258930206,0.10260521894991398,0.14824812216274438
1782829540476312800,2.014312744140625,-0.009537059152126312,0.11434358753859997,-0.026660806007008066
1782829540486240800,2.02424072265625,-0.04401332924962043,0.0766894180573523,0.030494009228027422
1782829540496169700,2.034169677734375,-0.21551497429311275,-0.009966975001990794,0.2134161936492659
1782829540506098000,2.044097900390625,-0.19307517894804477,-0.044875645167380566,0.21587555123381316
1782829540516026600,2.054026611328125,-0.1409241359502077,0.02992547492533922,0.147785655750148
1782829540525954800,2.063954833984375,-0.17136194431185722,0.0998585505902767,0.08493281153659336
1782829540535883800,2.0738837890625,-0.10752221708595752,0.12498334723562002,0.016347177558392285
1782829540545812000,2.08381201171875,-0.07882920656502246,0.14967077537700532,0.09850021305019036
1782829540555741000,2.093740966796875,-0.10265957948565482,0.09125000445991754,0.14434855744093655
1782829540565670000,2.103669921875,-0.060765142086148256,0.06880187967792153,0.12668491785596125
1782829540575597800,2.113597900390625,-0.13010931194722652,0.07029547923654317,0.16021023477101698
1782829540585527000,2.123527099609375,-0.19552432566583156,0.027559184185415506,0.1727517547024414
1782829540595455000,2.133455078125,-0.17736849125027657,0.020379501814395188,0.11218544139033183
1782829540605384000,2.143384033203125,-0.07275660865306854,0.0452370258256793,0.018929535901523194
1782829540615312000,2.153311767578125,-0.11800386361181735,0.04987111536711454,0.15309501420464366
1782829540625240800,2.16324072265625,-0.26197803478240966,0.00438186834603548,0.19643650860730558
1782829540635168800,2.173168701171875,-0.09843816239833832,0.05629121154248714,0.08824353438662365
1782829540645097700,2.18309765625,-0.01323883627951145,0.11741831880882382,0.03850547538122628
1782829540655027000,2.19302685546875,-0.0732721569597721,0.0612764526091516,0.18835881795063614
1782829540664955000,2.202954833984375,-0.14304711945354937,-0.046332858238369225,0.2770717234146781
1782829540674883800,2.2128837890625,-0.026629063728451727,0.003580488835275173,0.14388903190409763
1782829540684811800,2.222811767578125,0.13990414525270461,0.060005263629555695,0.024904874850925986
1782829540694740700,2.23274072265625,0.04784720832407474,0.051599108203500506,0.1195444258510135
1782829540704668700,2.242668701171875,-0.06998363680839538,0.002391279050707817,0.19461256284946574
1782829540714598000,2.252597900390625,-0.016669979771971703,0.04054813735708594,0.13140621988996862
1782829540724525800,2.26252587890625,-0.035785014608502384,0.1146840715393424,0.09884237755136564
1782829540734454800,2.272454833984375,-0.16197160015404224,0.06764627990201115,0.13923463936015032
1782829540744383700,2.2823837890625,-0.08433715633153915,0.05580211285129189,0.14064584873178973
1782829540754311700,2.292311767578125,0.03878010477125644,0.09171367644891143,0.09238803204651921
1782829540764240600,2.30224072265625,0.08271627713143825,0.0897239639364183,0.12090622485666536
1782829540774168800,2.3121689453125,-0.0469295089572668,0.05131181569471955,0.19281181530412286
1782829540784097800,2.322097900390625,-0.24277123000919817,-0.008550240071862936,0.19762142580924555
1782829540794026000,2.33202587890625,-0.1626870549470186,0.08558394152224064,0.057809306221548465
1782829540803955000,2.341954833984375,-0.12971066801846026,0.1992586898885667,0.044388633401994594
1782829540813884000,2.3518837890625,-0.18726795397400856,0.164635266405344,0.07288245895586441
1782829540823811800,2.361811767578125,-0.1861065089792013,0.037123715866357085,0.11175976332416758
1782829540833741000,2.371740966796875,-0.1583873119264841,-0.033639088620990514,0.13839151220005005
1782829540843669000,2.3816689453125,-0.05956394960284233,-0.02294526064917445,0.16467603680714965
1782829540853598000,2.391597900390625,-0.057099020794034,0.025369419056177137,0.18635757939713074
1782829540863526000,2.40152587890625,-0.17694179027080534,0.06440232954472302,0.16694876751210538
1782829540873454800,2.411454833984375,-0.13838321929574013,0.09221139683797955,0.09806426931833848
1782829540883382800,2.4213828125,-0.08092004136443137,0.13928878983333706,0.0710432836628519
1782829540893311700,2.431311767578125,-0.07068915472924708,0.13342033619135618,0.07834701253864913
1782829540903241000,2.441240966796875,-0.044621232014894485,0.10433277339488267,0.15478174344887957
1782829540913169000,2.4511689453125,-0.06304360841214657,0.10122224015891551,0.16705005419580266
1782829540923097900,2.461097900390625,-0.0922346315830946,0.07288432668596506,0.11668313640207051
1782829540933025800,2.47102587890625,-0.1131868187189102,0.07302052028626203,0.13863783337762578
1782829540942954800,2.480954833984375,-0.10160744008421897,0.08966755757406353,0.15391040397444739
1782829540952882700,2.490882568359375,-0.06579436842501163,0.10755231996327638,0.08351546468511223
1782829540962812000,2.50081201171875,-0.05420914457142353,0.09350830478072165,0.06683219160672743
1782829540972739800,2.51073974609375,-0.059603697091341015,0.07418971019610762,0.10997654230236076
1782829540982668800,2.520668701171875,-0.04462999984323978,0.08468699268251657,0.11886931220158002
1782829540992597800,2.53059765625,-0.08866203379333018,0.05792977252975106,0.1323768915530294
1782829541002525700,2.540525634765625,-0.05407645810246467,0.03298091697320342,0.10446673850547522
1782829541012454700,2.55045458984375,-0.0021796821266412735,0.10832052785679698,0.09052336155264638
1782829541022382800,2.5603828125,0.0048871875196695325,0.11045680923312902,0.09041687810402363
1782829541032311800,2.570311767578125,-0.028128946897387503,0.06158493403643369,0.08667973740231245
1782829541042240000,2.580239990234375,-0.0078080434024333945,0.052056496582180256,0.10906698057623579
1782829541052169000,2.5901689453125,0.0067751932233572005,0.013857991091161965,0.13007159201903268
1782829541062097000,2.600096923828125,0.006619710400700569,-0.0344835766211152,0.10594283894002438
1782829541072025900,2.61002587890625,0.020254267999529837,0.02098945040628314,0.08900739489858969
1782829541081955000,2.619955078125,-0.11318564967513084,0.03179258397147059,0.1285788509769365
1782829541091883000,2.629883056640625,-0.23934826982319354,0.03539046233296394,0.10116086536049843
1782829541101812000,2.63981201171875,-0.3372036638975143,0.06003142098411917,0.07610476830350235
1782829541111740000,2.649739990234375,-0.30469606352448464,0.1380022571541369,0.07855568685326725
1782829541121668900,2.6596689453125,-0.19501228449046612,0.1613366632513702,0.06804485989869571
1782829541131596800,2.6695966796875,-0.14660919584929943,0.08051058378070593,0.10040228381184861
1782829541141525800,2.67952587890625,-0.1506447349756956,0.001593114410340786,0.12457635560361668
1782829541151455000,2.689455078125,-0.0568985297858715,-0.025498890654742715,0.1403332939175889
1782829541161383000,2.6993828125,-0.009109773650765419,-0.011885521974414587,0.15128607421969062
1782829541171311900,2.709311767578125,-0.06231529413759708,0.0006967500925064087,0.20513624015245585
1782829541181239800,2.71923974609375,-0.10389292067289352,0.022910043205320835,0.17810714425574986
1782829541191168800,2.729168701171875,-0.12284078224897384,0.05817234911397099,0.13494297918137163
1782829541201096700,2.7390966796875,-0.14247194991409778,0.06630611733943223,0.10480290252412669
1782829541211026000,2.74902587890625,-0.0927267990142107,0.09383958256170154,0.140177719763387
1782829541220953900,2.758953857421875,-0.07412848152816295,0.07640870141983032,0.12778144438839517
1782829541230882800,2.7688828125,-0.052774143332242965,0.09935016267672181,0.12011974152093753
1782829541240811800,2.778811767578125,-0.03018354133963585,0.13110197624638675,0.14080427243020385
1782829541250739700,2.78873974609375,-0.10433189661204814,0.10495660438165068,0.20295677722152322
1782829541260668700,2.798668701171875,-0.13306114749014378,0.08153408160954713,0.1973866489389911
1782829541270596900,2.808596923828125,-0.056822541940212246,0.11741627298220991,0.12921305722724646
1782829541280525800,2.81852587890625,-0.07317161919474602,0.10358940768167375,0.13667349276840687
1782829541290454000,2.8284541015625,-0.09638941317498684,0.021753712777048347,0.1822346177156083
1782829541300383000,2.838383056640625,-0.018353402814269063,0.03424260747209191,0.16122377746142447
1782829541310311000,2.848310791015625,0.009623568391799927,0.09472674065977335,0.1628205816661939
1782829541320239900,2.858239990234375,-0.14390227497816085,0.09353680022284389,0.2424628216471523
1782829541330168800,2.8681689453125,-0.18921674995422363,0.10621303418353199,0.1627648876898922
1782829541340097000,2.878096923828125,-0.07063479419350624,0.17487082921564578,0.0535275509488536
1782829541350026000,2.88802587890625,-0.02248012735545635,0.1778412233285606,0.0437341195825953
1782829541359954000,2.897953857421875,-0.07460194425880909,0.06089826694652438,0.17161197355017066
1782829541369883000,2.9078828125,-0.12851415171027183,0.011040595582872629,0.2271553258674219
1782829541379810800,2.917810791015625,-0.05642623609900474,0.07311170570105315,0.1470603554165922
1782829541389739800,2.92773974609375,-0.03693009299039841,0.10972440330535173,0.08473087749001569
1782829541399669000,2.9376689453125,-0.06774257988333701,0.07897519090697169,0.16147830021176487
1782829541409597000,2.947596923828125,-0.10545651672780514,0.045702597510814666,0.19783364378781987
1782829541419526000,2.95752587890625,-0.04219605069458485,0.01791983370259404,0.1125882500375621
1782829541429453800,2.967453857421875,-0.06331307300329209,-0.04221884704828262,0.08274522923128678
1782829541439382800,2.9773828125,-0.11470949824154376,-0.04155161531120539,0.1220149258840829
1782829541449310700,2.987310791015625,-0.0519230794608593,0.04258154288083315,0.13155078859296626
1782829541459240000,2.997239990234375,-0.057687049815058705,0.10172449059262871,0.09646879855412989
1782829541469167900,3.00716796875,-0.09902794498503208,0.07684490088000893,0.05715784744233824
1782829541479096800,3.017096923828125,-0.07203121698796748,0.07180003858059644,0.0861508546900004
1782829541489025800,3.02702587890625,-0.07687398084402083,0.07244184361547232,0.06904082583321723
1782829541498953700,3.03695361328125,-0.06328267786502838,0.024467355649918317,0.06224528394157532
1782829541508882700,3.046882568359375,-0.07935118461251259,0.010282178431004286,0.14112029784312471
1782829541518810600,3.056810546875,-0.15988777961730957,0.04277750384435058,0.1599178094293922
1782829541528739800,3.06673974609375,-0.1827653818577528,0.0571665330722928,0.11757623105058446
1782829541538668000,3.07666796875,-0.17781448145210743,0.05139598684683442,0.09335920603307894
1782829541548596700,3.0865966796875,-0.09884265154600143,0.05046849673837423,0.08216346555426716
1782829541558525700,3.096525634765625,-0.03914601547420025,0.03835632640123367,0.0846528620840516
1782829541568454000,3.106453857421875,-0.0028530513435602186,-0.010525777928531169,0.1082784605470486
1782829541578382800,3.1163828125,-0.030936405533552168,0.01785772825181484,0.15287954482305793
1782829541588311000,3.12631103515625,-0.142810972610116,0.050621495342999694,0.16557501320717855
1782829541598240000,3.136239990234375,-0.09491641801297664,0.11244915209412575,0.08934482842572034
1782829541608168000,3.14616796875,-0.06164601657390594,0.1885442575201392,0.06426897178890649
1782829541618097000,3.156096923828125,-0.0991968718111515,0.14913359976038335,0.07060008363972883
1782829541628024800,3.16602490234375,-0.03777823425233364,0.09233531547859311,0.10585086807394399
1782829541637953800,3.175953857421875,0.036196518018841745,0.09769874220788478,0.13409264596235007
1782829541647883000,3.185883056640625,0.033628128835558886,0.08722863998934625,0.18079473937191068
1782829541657811000,3.19581103515625,-0.1171872865319252,0.015627192720770833,0.2065239316511899
1782829541667740000,3.205739990234375,-0.08647650644779205,0.021841391060501335,0.11158465335243381
1782829541677667800,3.215667724609375,-0.03172726365029812,0.13037263905853033,0.07893895054981112
1782829541687596800,3.2255966796875,-0.08452128072679042,0.13446809167861937,0.1403030083771795
1782829541697524700,3.235524658203125,-0.07743570638000964,0.08595189805179834,0.15435933505203575
1782829541707453700,3.24545361328125,-0.07941723558604717,0.11536956958547234,0.12176290561808273
1782829541717383000,3.2553828125,-0.04171206656992435,0.10439473271518945,0.13373068078216163
1782829541727310800,3.265310791015625,-0.09864508314728736,0.0688935034841299,0.17667891981722786
1782829541737239800,3.27523974609375,-0.10925941614210605,0.05248685082346201,0.14060281330766156
1782829541747167700,3.285167724609375,-0.09786299285888671,0.04579626714363694,0.10133611232955009
1782829541757096700,3.2950966796875,-0.10372048671543597,0.05789338604211807,0.09663198062605224
1782829541767024600,3.305024658203125,-0.11769523605406283,0.08346110414937138,0.1303532585046254
1782829541776953900,3.314953857421875,-0.11409925738871098,0.08761150182709097,0.1548282677380368
1782829541786882000,3.324882080078125,-0.0992144074678421,0.08931932865828275,0.12701281636976636
1782829541796810800,3.334810791015625,-0.055012277647852895,0.07582081852927804,0.12287884923703968
1782829541806739700,3.34473974609375,-0.06625555619597434,0.0687017803043127,0.17248831799328326
1782829541816668000,3.35466796875,-0.13393909936845302,0.034261312172561884,0.16078507551690563
1782829541826596900,3.364596923828125,-0.06882511442303657,0.07134732637703418,0.06876123714027926
1782829541836524800,3.37452490234375,-0.07243453709185123,0.09995675026774406,0.09999090826567261
1782829541846454000,3.3844541015625,-0.0911976897507906,0.036126813783496615,0.14884930292628704
1782829541856382000,3.3943818359375,-0.10484569135308265,0.016389993786811826,0.12023238071571103
1782829541866311000,3.404310791015625,-0.09688684130311012,-0.0057991877980530255,0.14419502911334856
1782829541876240000,3.414239990234375,-0.08423252691328525,-0.01136748944967985,0.15035020900852977
1782829541886167800,3.424167724609375,-0.13717501254975795,0.013679273523390292,0.14462179402490147
1782829541896097000,3.434096923828125,-0.20356910043358803,0.008206687331199645,0.13153612987995147
1782829541906025000,3.44402490234375,-0.15796177999079228,0.07814677725881337,0.042676600753143425
1782829541915954000,3.453953857421875,-0.10497370164692402,0.16688903668150304,0.06063545585845131
1782829541925881900,3.4638818359375,-0.10582301195263862,0.11204612425118685,0.09369767160667106
1782829541935810800,3.473810791015625,-0.1063812303572893,0.048426469516754146,0.11437861318620852
1782829541945739800,3.48373974609375,-0.0388169296503067,-0.0033021102853119373,0.126349173962418
1782829541955667700,3.493667724609375,0.011297054561972617,-0.016287410195171832,0.10665423861239105
1782829541965597000,3.503596923828125,-0.002579495099186897,-0.02011500565931201,0.1133190667964518
1782829541975524900,3.51352490234375,0.015658172380924224,-0.038133039039373394,0.13715137594584376
1782829541985453800,3.523453857421875,-0.025931729114055634,0.01840074908733368,0.1645434964686632
1782829541995381800,3.5333818359375,-0.17210253354609012,0.03784297005161643,0.17208377404669298
1782829542005310700,3.543310791015625,-0.19242694417238235,0.06734320530220866,0.07369143268461338
1782829542015238700,3.55323876953125,-0.12097206576764583,0.11980813655480742,-0.007427839312655851
1782829542025168000,3.56316796875,-0.14838731143772602,0.07479410583004355,0.06484760736050084
1782829542035096800,3.573096923828125,-0.1915618517756462,-0.027843115693330762,0.15080624568033962
1782829542045024800,3.583024658203125,-0.1411725577533245,-0.012388210799545048,0.15206316867256536
1782829542054953700,3.59295361328125,-0.15361059904396532,0.02989098813384771,0.15416386727886275
1782829542064882000,3.6028818359375,-0.15152151781022546,0.07193316344097256,0.08230661861831322
1782829542074810600,3.612810546875,-0.11881927164793014,0.10782324585914611,0.03300421565040015
1782829542084738800,3.62273876953125,-0.07547989613711834,0.13378493172004818,0.05067919861329719
1782829542094668000,3.63266796875,-0.12219079390764236,0.08150427099317312,0.14177238680999726
1782829542104596700,3.6425966796875,-0.11385083558559417,0.014848755694180727,0.15045913100941105
1782829542114525000,3.65252490234375,-0.11958031914830207,0.020903379558026788,0.1248225671833381
1782829542124454000,3.662453857421875,-0.14572072257697583,0.04567760920003056,0.0992847966897767
1782829542134381800,3.6723818359375,-0.10593231754601001,0.08241963227242231,0.06728388546356
1782829542144311000,3.68231103515625,-0.10264145930707454,0.09925342430397868,0.06942153681307099
1782829542154239000,3.692239013671875,-0.08104454452693462,0.08701324367299676,0.07542257645931094
1782829542164167700,3.702167724609375,-0.016253800186514854,0.08296119180321693,0.05696591419996693
1782829542174095600,3.712095703125,0.003069324442744255,0.0688502488642931,0.08888112903726286
1782829542184024600,3.722024658203125,0.03887304375171661,0.08028685802742838,0.10418706304756924
1782829542193953500,3.73195361328125,0.018698855251073836,0.1201192483305931,0.08386574856066145
1782829542203881500,3.741881591796875,0.002743161228299141,0.15416019575074313,0.07534600865833926
1782829542213810700,3.751810791015625,0.02614975577890873,0.18114976335465907,0.05056303402087651
1782829542223738600,3.761738525390625,0.06449380722045898,0.13304741122573613,0.07398642444266006
1782829542233667600,3.77166748046875,0.05923720186650753,0.07035159333795309,0.1535894466580823
1782829542243595500,3.781595458984375,0.02065758810341358,0.016242548140138386,0.161458937924169
1782829542253524500,3.7915244140625,-0.0019371055424213409,0.010168050532042979,0.1493151120734401
1782829542263453400,3.801453369140625,-0.035407997989654535,0.025505904917418956,0.12793499098229222
1782829542273381600,3.811381591796875,-0.10066869792938232,0.05677212692722678,0.11923719566590152
1782829542283310600,3.821310546875,-0.15108838708996772,0.10607421023473143,0.11518798420717939
1782829542293238500,3.831238525390625,-0.1539735871374607,0.13620368329957128,0.11235262378393672
1782829542303167500,3.84116748046875,-0.1520616160362959,0.10098740848973393,0.11601615126016548
1782829542313095700,3.851095703125,-0.13137947801351546,0.062129854568094015,0.1253013910756912
1782829542323024400,3.8610244140625,-0.10697042842209338,0.06400792339965701,0.13614555990416555
1782829542332953600,3.87095361328125,-0.0818470930814743,0.06509425733163952,0.1500518197169993
1782829542342881800,3.8808818359375,-0.015262451061606406,0.05465075085908174,0.14362466361317783
1782829542352810500,3.890810546875,-0.050748774984478946,0.06293094181790948,0.16043140324102714
1782829542362738700,3.90073876953125,-0.19362404500246047,0.00928030791208148,0.21438777862777933
1782829542372667600,3.910667724609375,-0.22562895655035972,0.03373231986239552,0.16996970450216903
1782829542382595600,3.920595703125,-0.17624737826585768,0.11201222198158502,0.060093124576099215
1782829542392524500,3.930524658203125,-0.22843466162085532,0.12184022690430282,0.08914251991980708
1782829542402453800,3.940453857421875,-0.2695090148091316,0.04559621452689171,0.14789457775102927
1782829542412381700,3.950381591796875,-0.24685411540865898,0.03202390850931406,0.14839724830985068
1782829542422310700,3.960310546875,-0.1409165371656418,0.06233619079515337,0.10932685535512864
1782829542432238600,3.970238525390625,-0.09647942954599857,0.08595292096510529,0.11586429429985583
1782829542442167600,3.98016748046875,-0.11833470300137997,0.06269070332124829,0.14347166500855235
1782829542452095500,3.990095458984375,-0.12144026780128478,0.05927022735327482,0.151744202383887
1782829542462024700,4.000024658203125,-0.07149637945890426,0.05458601505979895,0.11717783371699042
1782829542471952600,4.00995263671875,-0.05262333668470382,0.015489537815749644,0.12432615283536724
1782829542481881600,4.019881591796875,-0.1006564229696989,-0.01677037140652537,0.1710040342522785
1782829542491810600,4.029810546875,-0.015554712006449698,0.030803134542703628,0.11443178641186096
1782829542501738500,4.039738525390625,0.02709434315264225,0.10005991838127375,0.0629088030513376
1782829542511667500,4.04966748046875,-0.021401684468984602,0.11857844862937926,0.0991822861633729
1782829542521595400,4.059595458984375,-0.09529635724127292,0.11288856642469763,0.09104167720517144
1782829542531524600,4.069524658203125,-0.03232055336833,0.12867241101190446,0.03382219923608936
1782829542541452500,4.07945263671875,-0.05033727157413959,0.09262728416249155,0.05197252635946497
1782829542551381500,4.089381591796875,-0.012610475248098373,0.029902678571641444,0.09129699453995563
1782829542561310500,4.099310546875,0.01761807427704334,0.04566138871759176,0.1002586649569217
1782829542571238400,4.10923828125,0.02098959653675556,0.07135945520624518,0.12933778871861284
1782829542581167600,4.119167724609375,-0.05395020137429237,0.0584444440536201,0.11988932116539217
1782829542591095800,4.129095703125,-0.09748597624003887,0.040398645883798594,0.059252107174694535
1782829542601024500,4.1390244140625,-0.04745031796097755,0.03159896109551191,0.061030012700567016
1782829542610952700,4.14895263671875,-0.03918108678758144,0.02645093068256974,0.10563291447432711
1782829542620881700,4.158881591796875,-0.10113339283168316,0.02552840901017189,0.1257683966660872
1782829542630810600,4.168810546875,-0.11380582740008831,0.03438435403034091,0.11001795202498324
1782829542640738600,4.178738525390625,-0.08507657652199267,0.08877718460559844,0.08308517437591217
1782829542650667800,4.188667724609375,-0.129996499222517,0.1101157407104969,0.09746909817047417
1782829542660595700,4.198595703125,-0.1020639516800642,0.09001417905464767,0.07922921133381314
1782829542670524700,4.208524658203125,-0.0701309363245964,0.067492696775496,0.08336524255946279
1782829542680452600,4.21845263671875,-0.07876140202581881,-0.0015973521940410135,0.11573377238851972
1782829542690381600,4.228381591796875,-0.03962649246752262,-0.04280219989418983,0.13160464680520817
1782829542700310800,4.238310791015625,-0.01430325064063072,0.006207768598943948,0.1211357044972945
1782829542710238700,4.24823876953125,-0.05975333469510078,0.0359423971273005,0.11394993944535962
1782829542720167700,4.258167724609375,-0.0855418559461832,0.05532090520560741,0.10618421908100135
1782829542730095600,4.268095703125,-0.15790391232371329,0.09985182858854531,0.10078148325462825
1782829542740024600,4.278024658203125,-0.2020452518671751,0.06481003356277942,0.07824133280762471
1782829542749952500,4.287952392578125,-0.15733634156882761,0.09588365560993552,0.06831666257739998
1782829542759881500,4.297881591796875,-0.18575521132349967,0.06746069420203567,0.10254127773507497
1782829542769809400,4.307809326171875,-0.04466448663473129,0.02627688928991556,0.07466528268544934
1782829542779738600,4.317738525390625,0.01674889022707939,0.004388736478239298,0.06645180028728209
1782829542789667600,4.32766748046875,0.059683776590228076,-0.053783174244314426,0.0962311538733542
1782829542799595500,4.337595458984375,0.055826516640186306,-0.003402501919865608,0.16039050497505813
1782829542809524500,4.3475244140625,-0.1061719715207815,-0.006340747328847646,0.15459957354869694
1782829542819452400,4.357452392578125,-0.14740414561927317,-0.002356207737326622,0.07806356508792378
1782829542829381600,4.367381591796875,-0.12839841637611388,0.07841726476326584,0.06689179000658914
1782829542839309600,4.3773095703125,-0.0962993968039751,0.11156287077888846,0.07962689628135412
1782829542849238500,4.387238525390625,-0.08643266730606555,0.08649857214912772,0.11287076590652577
1782829542859167500,4.39716748046875,-0.1091349129796028,0.032451340141147374,0.1492571348085068
1782829542869095700,4.407095703125,-0.10706336740255355,0.058944210269302126,0.17907522210292517
1782829542879024400,4.4170244140625,-0.1788642827659845,0.05571618813350796,0.18907946037538348
1782829542888952600,4.42695263671875,-0.19307634799182413,0.05216740961074829,0.1395437783745583
1782829542898881800,4.4368818359375,-0.10596388172805309,0.09189122497290372,0.10525010743550955
1782829542908809700,4.446809814453125,-0.0682183807015419,0.0421086646720767,0.12605624629729426
1782829542918738700,4.45673876953125,-0.05873217495381832,-0.007826894233375787,0.1767262478239834
1782829542928667600,4.466667724609375,-0.021176643541455268,0.006712210989743471,0.19248344186628236
1782829542938595600,4.476595703125,-0.009249474382400513,0.05134308761581778,0.16778488954268395
1782829542948524500,4.486524658203125,0.01130173073709011,0.08932765809521079,0.12273699308093637
1782829542958452700,4.49645263671875,-0.016815525722503662,0.13141922550201415,0.13086229487215167
1782829542968381700,4.506381591796875,-0.03179740627706051,0.14198986548557876,0.1494102521441411
1782829542978309600,4.5163095703125,-0.01578033745586872,0.1810743600308895,0.1485945883797016
1782829542988238600,4.526238525390625,-0.13537936130464076,0.1408857036359608,0.1471223604026716
1782829542998167600,4.53616748046875,-0.21104981157779693,0.03592909925431013,0.17309980095513164
1782829543008095500,4.546095458984375,-0.16512801835834978,-0.014684505043178796,0.1319794714669697
1782829543018024700,4.556024658203125,-0.09867898541688919,-0.00888254076614976,0.1834885450331494
1782829543027952600,4.56595263671875,-0.13925181882381438,0.004838379941880703,0.2327523421568796
1782829543037881600,4.575881591796875,-0.16149287672638893,0.021259645649790763,0.14674981902954168
1782829543047809500,4.5858095703125,-0.07392974408566952,0.10647840712144971,0.08320870942403562
1782829543057738500,4.595738525390625,-0.021716741767525673,0.14907953148558736,0.11976300050513818
1782829543067667500,4.60566748046875,-0.0501017092525959,0.09724676065668462,0.1508144929188769
1782829543077595600,4.615595703125,0.024658055916428563,0.07509250425472855,0.1075427940831054
1782829543087524600,4.625524658203125,0.08548223471343516,0.11492197194844483,0.09853729365756735
1782829543097452500,4.63545263671875,-0.00945522608757019,0.08060644537061452,0.1611740931008011
1782829543107381500,4.645381591796875,-0.08307166644036769,0.06165697635933756,0.17534531485959887
1782829543117309700,4.655309814453125,-0.05987140811681747,0.1074734095081687,0.10878587121306918
1782829543127238400,4.66523828125,-0.03444645948112011,0.058512686984241,0.12114629895654506
1782829543137167600,4.675167724609375,-0.04208557605743408,-0.013334405608475208,0.1744199436429888
1782829543147095800,4.685095703125,-0.07724515224397183,-0.031702859861403705,0.19958010386265812
1782829543157024500,4.6950244140625,-0.13335750008821487,-0.0253961609326303,0.14886999865444375
1782829543166953500,4.704953369140625,-0.08771978450715541,0.04348185272142291,0.07725601156470366
1782829543176882400,4.71488232421875,-0.12900924175083636,0.06796747468039394,0.08541343466038816
1782829543186810400,4.724810302734375,-0.13284370534718035,0.06739435096755624,0.11751523984465748
1782829543196739600,4.734739501953125,-0.09639467387199402,0.07860957246497273,0.12055955771030857
1782829543206668500,4.74466845703125,-0.08410042496621609,0.06252221488654613,0.12290901604644022
1782829543216596500,4.754596435546875,-0.0884872617483139,0.01194265898913145,0.14918413350437768
1782829543226525400,4.764525390625,-0.07761340103447437,0.012618512424081563,0.17067220848202705
1782829543236453600,4.77445361328125,-0.05169803853332996,0.06042144321501255,0.16283017147844656
1782829543246382600,4.784382568359375,-0.0792325266689062,0.05074219911321998,0.15411368972789496
1782829543256310800,4.794310791015625,-0.0793809952288866,0.038728082323074335,0.08975234978068619
1782829543266239700,4.80423974609375,-0.12158172209858893,-0.025158260523527858,0.11736342855012044
1782829543276168700,4.814168701171875,-0.15276479586958885,-0.033357202939689155,0.12356880426257848
1782829543286096600,4.8240966796875,-0.14270985032320022,0.06544920824915171,0.08742071022903546
1782829543296025600,4.834025634765625,-0.1980973910242319,0.07779474895074963,0.06672408702317625
1782829543305953500,4.84395361328125,-0.2480991470336914,0.08937471210733056,0.06816641305228695
1782829543315882800,4.8538828125,-0.15472937394082545,0.12873568550646305,0.017837288251984863
1782829543325810700,4.863810791015625,-0.09323708662390709,0.09819923907592892,0.08768244817145168
1782829543335739600,4.87373974609375,-0.10939385617673396,-0.024263065249472856,0.1592524591221474
1782829543345668600,4.883668701171875,-0.062169163665175435,-0.021260814693570135,0.11490633598789572
1782829543355596500,4.893596435546875,-0.02080605666339397,0.06258212838023901,0.058683476973883805
1782829543365525500,4.903525390625,-0.008480243575572966,0.08712064957022667,0.026835235558729617
1782829543375453700,4.91345361328125,-0.06396364586651325,0.07720102084130048,0.07624600340509786
1782829543385382700,4.923382568359375,-0.07757774519920349,0.061435004171729084,0.10579329266780987
1782829543395310600,4.933310546875,-0.0013473229557275771,0.0871573283188045,0.08118950595557689
1782829543405239600,4.943239501953125,-0.05473287618458271,0.075423635905236,0.10353318398240953
1782829543415168500,4.95316845703125,-0.06693652419745921,0.027391280272603034,0.10436148803271353
1782829543425096400,4.963096435546875,-0.0441676430284977,0.06320172158330678,0.11270831448696553
1782829543435025700,4.973025634765625,-0.1212128887861967,0.058154813457280394,0.17678069969126953
1782829543444953600,4.98295361328125,-0.15370529159009455,0.042357817127555604,0.16400447595482692
1782829543454882600,4.992882568359375,-0.15282032544910906,0.06562587999030947,0.08452906217444688
1782829543464810500,5.002810546875,-0.1627747332304716,0.02457169280722737,0.08790834761550649
1782829543474739500,5.012739501953125,-0.16127952623665331,0.034933512345701453,0.13478252792265266
1782829543484668400,5.02266845703125,-0.07189794599711895,0.07925240041315555,0.11475883554229512
1782829543494596600,5.0325966796875,-0.09932079045176505,0.09262538446635007,0.13510716590029187
1782829543504525600,5.042525634765625,-0.08711714243888855,0.08386267068758606,0.11583533306685276
1782829543514453800,5.052453857421875,0.008105565044283867,0.15780980429947375,0.1016552064823918
1782829543524382500,5.062382568359375,-0.0413701212644577,0.13938976598978042,0.14291236889166756
1782829543534310700,5.072310546875,-0.08383505202829837,0.08121639396250248,0.13098833240461535
1782829543544239600,5.082239501953125,-0.0863829829454422,0.10212050417289137,0.0942569494572468
1782829543554168600,5.09216845703125,-0.07765197947919368,0.10128536852300167,0.16185069545442238
1782829543564096800,5.1020966796875,-0.10322773476243019,0.0732538906507194,0.16561969259912146
1782829543574025700,5.112025634765625,-0.07951134361028671,0.057575406134128565,0.15744469731412827
1782829543583953700,5.12195361328125,-0.11609306155443191,0.04279284754395485,0.1773432472111657
1782829543593882600,5.131882568359375,-0.10931962189674377,0.05418006460741162,0.10288001730330287
1782829543603810600,5.141810546875,-0.05796762032210827,0.07254808046892285,0.06473496816572732
1782829543613739500,5.151739501953125,-0.14591010766923426,0.048260465300083155,0.1476560471542645
1782829543623668700,5.161668701171875,-0.21816987271606922,0.04837371641620993,0.15409082030896096
1782829543633596700,5.1715966796875,-0.12334697820544242,0.10123758385851979,0.07598558977008797
1782829543643525600,5.181525634765625,-0.07120645660161971,0.11065773863270878,0.06729562156712636
1782829543653453600,5.19145361328125,-0.10714344690144062,0.010204875411093235,0.11772325657214969
1782829543663382500,5.201382568359375,-0.0948141266822815,-0.03255406986325979,0.15486881894413382
1782829543673310500,5.211310546875,-0.07899871791303158,0.004769552489370108,0.16587489120289683
1782829543683239700,5.22123974609375,-0.1015671080738306,0.03371186159625649,0.12110993986837565
1782829543693168600,5.231168701171875,-0.11423778907656669,0.052667760348320006,0.06418127067256718
1782829543703096600,5.2410966796875,-0.11751637235581874,0.03725537942200899,0.06305246757203713
1782829543713025500,5.251025634765625,-0.11137480086088179,0.019214549688249826,0.13874360444019548
1782829543722953500,5.260953369140625,-0.09054887045323848,0.014963760375976562,0.14039969195099547
1782829543732882400,5.27088232421875,-0.059062429821491236,0.02118672654405236,0.07348386348169296
1782829543742810400,5.280810302734375,-0.04379647162854671,0.040874300571531054,0.07630093019641936
1782829543752739600,5.290739501953125,0.0019137246668338775,0.0681482380747795,0.1445225166352
1782829543762668500,5.30066845703125,-0.10051672223806381,0.07561798943355678,0.11413239247333258
1782829543772596500,5.310596435546875,-0.11403086832761763,0.009891279417276381,0.09315492476578802
1782829543782525400,5.320525390625,-0.13089140223562717,0.02480930095538497,0.10862383991861715
1782829543792452600,5.33045263671875,-0.13103110296726225,0.025576485935598612,0.10863533856016583
1782829543802381600,5.340381591796875,-0.11364742196798323,0.015058160661160945,0.11975423267679289
1782829543812309500,5.3503095703125,-0.12326572966277599,0.007919248691946268,0.11122132733222097
1782829543822238700,5.36023876953125,-0.1260404550731182,0.0745662884235382,0.0902379322073888
1782829543832167700,5.370167724609375,-0.10382570065557956,0.11032646085172891,0.05657952696457505
1782829543842095600,5.380095703125,-0.10365443574190139,0.09966215123534201,0.05296065148082561
1782829543852024600,5.390024658203125,-0.09524842644631862,0.07170549216493964,0.08425637357975356
1782829543861952500,5.399952392578125,-0.09268997413516045,0.05404606296420097,0.11705934017016552
1782829543871881500,5.409881591796875,-0.0607984598338604,0.05361643937528133,0.10970165261742658
1782829543881809700,5.4198095703125,-0.030932898402214047,0.08540902334675192,0.0903327891502995
1782829543891738600,5.429738525390625,-0.008408931905031204,0.11331819001361727,0.09977209614953025
1782829543901667600,5.43966748046875,-0.018560908085107804,0.09236322639882565,0.10576569227483124
1782829543911595500,5.449595458984375,-0.05634323399066925,0.08374532791823149,0.13052940052282064
1782829543921524500,5.4595244140625,-0.04012508963942527,0.0638039252601564,0.0813129222726915
1782829543931452400,5.469452392578125,-0.0046294133663177485,0.07544058704003691,0.052214819815894584
1782829543941381600,5.479381591796875,-0.029497897163033485,0.04709945869669318,0.07258084109420888
1782829543951309600,5.4893095703125,-0.05043488672971725,0.0176961079493165,0.1229769027840346
1782829543961238500,5.499238525390625,-0.006276011529564857,0.06907543592229486,0.09015332266385666
1782829543971167500,5.50916748046875,-0.04070084370076656,0.10402020031437277,0.05970980608062818
1782829543981095700,5.519095703125,-0.03501695284545421,0.06866232507675886,0.06425950527423992
1782829543991024400,5.5290244140625,0.013394319102168083,0.09205562175437808,0.05544812091500498
1782829544000952600,5.53895263671875,0.00825403360426426,0.10159691869020461,0.10127206151685676
1782829544010881500,5.548881591796875,-0.05230360321104526,0.01609992479905486,0.15352368794549257
1782829544020809700,5.558809814453125,-0.021053893944621083,-0.0026871932573616503,0.12166836833558045
1782829544030738700,5.56873876953125,0.003880640825629234,0.052958852249383924,0.10864782358240335
1782829544040667600,5.578667724609375,-0.019487375280261038,0.061456193090230225,0.11590453497869893
1782829544050595600,5.588595703125,-0.08006371679604053,0.03556085046380758,0.14405442419941536
1782829544060524800,5.59852490234375,-0.11210720678865908,0.008852730149775744,0.130902955676103
1782829544070452700,5.60845263671875,-0.1609931105107069,0.016598960362374782,0.13007402143813668
1782829544080381700,5.618381591796875,-0.2013134304612875,0.020088263782858846,0.13742457599719055
1782829544090309600,5.6283095703125,-0.18294483007788656,0.046023792289197445,0.10282150118225253
1782829544100238600,5.638238525390625,-0.24147534497976303,0.03281812762692571,0.10935589878652244
1782829544110167600,5.64816748046875,-0.20732290000915526,0.014329115734249352,0.08829659801442176
1782829544120095500,5.658095458984375,-0.13615619089603423,0.009295651611685753,0.0602827288640663
1782829544130024700,5.668024658203125,-0.11612637930214405,-0.03113894236832857,0.12180255264188163
1782829544139952600,5.67795263671875,-0.11926350828409195,-0.07681611317694187,0.1580814608477056
1782829544149881600,5.687881591796875,-0.03794131585955619,-0.010733721590787173,0.13701156561635433
1782829544159809000,5.69780908203125,-0.11399696605801582,0.04744783374294639,0.10150142242647707
1782829544169738000,5.707738037109375,-0.09110475077033042,0.04608589773997664,0.08285490928399376
1782829544179667000,5.7176669921875,-0.11222469568848609,0.07985182761102914,0.10885415067630819
1782829544189595000,5.727594970703125,-0.12115385207533835,0.04175006049275398,0.14217136866548097
1782829544199523800,5.73752392578125,-0.10766893208026886,0.030549159781634805,0.15937259663678705
1782829544209452000,5.7474521484375,-0.06388356636762618,0.03542860238626599,0.14172947011687792
1782829544219381000,5.757381103515625,-0.05887888994812965,-0.018995207849144935,0.13028263182067312
1782829544229309200,5.76730908203125,-0.0486333902657032,-0.017199556604027746,0.1633806084354408
1782829544239238100,5.777238037109375,-0.05853343751132488,0.03501782962828874,0.15924113401053472
1782829544249166800,5.787166748046875,-0.12658347590863703,0.06518617339879273,0.11172796168010682
1782829544259095000,5.797094970703125,-0.12289864991605282,0.09510463406145572,0.07228872627983801
1782829544269024000,5.80702392578125,-0.07258768182694912,0.1271712126687169,0.0953645179735031
1782829544278952200,5.8169521484375,-0.029181086298823353,0.08761603187173604,0.1630197940327227
1782829544288881200,5.826881103515625,-0.006899696385860443,0.052820612822473044,0.15526063127331435
1782829544298809000,5.83680908203125,0.03911737390160561,0.05883505080640316,0.1294847137754783
1782829544308738000,5.846738037109375,0.010341361272335052,0.06572481032013892,0.17297270397674291
1782829544318667000,5.8566669921875,-0.08617898480594158,0.06731324855536222,0.17109436115054413
1782829544328595000,5.866594970703125,-0.056174891686439514,0.09881079510301351,0.06949848363995552
1782829544338524200,5.876524169921875,-0.06118132167160511,0.13178908172771334,0.08335806390000507
1782829544348452000,5.8864521484375,-0.13920213446319102,0.06844312936812638,0.09786905727349221
1782829544358381000,5.896381103515625,-0.0016734861701726913,0.10894494336545467,0.1504607749772258
1782829544368310000,5.90631005859375,-0.10156652355194092,0.0004958206929266452,0.11743506901422515
1782829544378238000,5.916238037109375,-0.07202011107206344,-0.03364990227594972,0.10172562310378998
1782829544388167000,5.9261669921875,-0.020604981133341787,0.02117942002043128,0.09782641457500867
1782829544398094800,5.9360947265625,-0.039543490359187125,0.03270779912024736,0.09319099159301258
1782829544408024000,5.946024169921875,-0.0556178423255682,0.04110781706646085,0.0455885518102441
1782829544417952000,5.955951904296875,-0.06018120471835136,0.032309447452425956,0.07506789040328003
1782829544427881000,5.965880859375,-0.10582651908397674,0.013419453543424605,0.12751472887676207
1782829544437813000,5.97581298828125,-0.13059329607188702,0.022425620689243076,0.06858049201220273
1782829544447741000,5.985740966796875,-0.1497784735351801,0.017915595918893815,0.08269514301186427
1782829544457670000,5.995669921875,-0.09137070823013782,-0.041499154471606015,0.08672898337151855
1782829544467598000,6.00559814453125,-0.022307108876109122,-0.054657180599868294,0.10334462087405845
1782829544477526800,6.01552685546875,-0.0017833762854337692,-0.04558101695775985,0.08813453018735162
1782829544487456000,6.0254560546875,-0.03169920659959316,-0.05947948618978262,0.07698482994050719
1782829544497384200,6.03538427734375,-0.12890870398581028,-0.04474982683062553,0.08624931922894902
1782829544507313000,6.04531298828125,-0.10467384191751479,0.02684679813235998,0.06584247274990193
1782829544517241000,6.055240966796875,-0.08058452579975128,0.09112988521158695,0.013162976298015563
1782829544527170000,6.065170166015625,-0.14002806389331818,0.03228606657683849,0.04709438979593105
1782829544537099000,6.07509912109375,-0.12139350605010986,-0.04336918612718582,0.09172803376782684
1782829544547027200,6.085027099609375,-0.030977322065830228,-0.01953004537820816,0.09629125916329212
1782829544556956200,6.0949560546875,-0.04606558560431003,-0.019323709151148796,0.1308731815923471
1782829544566884000,6.104884033203125,-0.1050397526204586,-0.022035890719294546,0.11660601604524999
1782829544576813000,6.11481298828125,-0.04286766634583473,0.0806480925552547,0.030653907930897548
1782829544586741000,6.124740966796875,-0.047121232137084,0.08687997268214821,0.030372341910004614
1782829544596670000,6.134669921875,-0.05601064103543758,0.021635931616276503,0.10558541293763556
1782829544606599200,6.14459912109375,0.01793137800991535,0.030543168432265518,0.12103079195125027
1782829544616527000,6.154527099609375,0.13135843522548674,0.038770314029604194,0.09053101513613947
1782829544626456000,6.1644560546875,0.05534837773442268,0.02149184697046876,0.05994876593565568
1782829544636384000,6.174384033203125,0.10380465786755085,0.04583908337205648,0.02809309013271704
1782829544646313000,6.18431298828125,0.07729542112648487,0.08938508737087249,0.03217348218099214
1782829544656241000,6.194240966796875,0.0427513464897871,0.05053659353852272,0.11046958651631139
1782829544666170000,6.204170166015625,0.008699439284205437,0.053984688165783876,0.09100071500712074
1782829544676099000,6.21409912109375,-0.0017658406287431715,0.07822597997486591,0.08672919343407265
1782829544686027000,6.224027099609375,-0.06449848339557647,0.05682780263721943,0.12069539511757903
1782829544695956000,6.2339560546875,-0.13524550579190253,0.051495063307136296,0.12173873015805146
1782829544705884000,6.2438837890625,-0.15580430969595907,0.08200242977365851,0.0943924215383362
1782829544715812900,6.253812744140625,-0.17717209189534186,0.06563333264440298,0.1136437687061727
1782829544725740800,6.26374072265625,-0.1413210263133049,0.06328720790967345,0.12281077983635477
1782829544735670000,6.273669921875,-0.14009177677929402,0.09477394080236554,0.08851456074719316
1782829544745599000,6.283598876953125,-0.11498188544213771,0.0366863473623991,0.08191571960458531
1782829544755527000,6.29352685546875,-0.13591653692126274,-0.005853109942376613,0.12927585679776965
1782829544765456000,6.303455810546875,-0.07047814232707023,0.026536270878463983,0.14215323935374616
1782829544775384000,6.313384033203125,-0.07929740859866141,0.002198386827111244,0.12669660829375498
1782829544785312800,6.323312744140625,-0.11526654760241507,0.01955225721001625,0.10569239870975725
1782829544795241200,6.3332412109375,-0.1265799687772989,0.08388838965073227,0.11558552302424795
1782829544805170200,6.343170166015625,-0.17406886518299577,0.11151464772298932,0.11690904497927986
1782829544815099000,6.353098876953125,-0.22187749506235122,0.06623305210322142,0.11611178452121093
1782829544825027000,6.363027099609375,-0.16926935594677925,0.030630846715718505,0.12842296629548072
1782829544834956000,6.3729560546875,-0.1274871467500925,0.010839520052820444,0.16959950121659784
1782829544844884000,6.382884033203125,-0.05570435156524181,-0.030909225265681742,0.15656413335362449
1782829544854813200,6.392813232421875,0.00011865794360637664,-0.005495528676360845,0.1411005702293478
1782829544864742100,6.4027421875,0.03704290571510792,0.08192351931855082,0.181939927351661
1782829544874670000,6.412670166015625,-0.11245850444436073,0.002537555653601885,0.12367197237610816
1782829544884599000,6.42259912109375,-0.14314415008723735,0.011718348713964223,0.20479915368519722
1782829544894527000,6.43252685546875,-0.14479425538182258,0.10547989760339259,0.17134112071953714
1782829544904456000,6.4424560546875,-0.14886837295293806,0.10808569618761539,0.11774358697412535
1782829544914384100,6.452384033203125,-0.17339257335662842,0.08312880345508455,0.13008700878387316
1782829544924313000,6.46231298828125,-0.16266425859332084,0.06936126712635159,0.15872916590040548
1782829544934242000,6.472241943359375,-0.16847966687381266,0.0422403282277286,0.17193899528114123
1782829544944170000,6.482169921875,-0.14805764109194278,0.01654547660946846,0.13609501702701673
1782829544954099000,6.492098876953125,-0.1415729552477598,0.020310528231412172,0.1579521901785396
1782829544964027000,6.50202685546875,-0.1326677642583847,0.030397914742678403,0.208601998300571
1782829544973956000,6.5119560546875,-0.1491337458908558,0.041420244016498325,0.1709326129838824
1782829544983884000,6.521884033203125,-0.1439917068272829,0.0653863721460104,0.1189573649443686
1782829544993813000,6.53181298828125,-0.1123725797265768,0.07534998614713549,0.1069192462241277
1782829545003742000,6.541741943359375,-0.15258125599622727,0.05266878326162695,0.13997755754878743
1782829545013670000,6.551669921875,-0.1390630182534456,0.05373042114377021,0.11169064361071214
1782829545023598800,6.561598876953125,-0.08718845410943031,0.06539002540782093,0.05551100268391892
1782829545033526800,6.57152685546875,-0.09012450756132602,0.022939707691222427,0.08289804517282172
1782829545043456000,6.5814560546875,-0.08810498443245887,-0.009216156634688376,0.1300939865139313
1782829545053384200,6.59138427734375,-0.09586568156182765,0.018243366568535566,0.12013514001946896
1782829545063313000,6.60131298828125,-0.1369160693526268,0.02009907743781805,0.11149112071692943
1782829545073241900,6.611241943359375,-0.15037702395021915,0.03913403277546167,0.08187133247358724
1782829545083170000,6.621170166015625,-0.16856442254781723,0.07042626600936054,0.06550309386085719
1782829545093099000,6.63109912109375,-0.08879998095929623,0.08821662811338901,0.04707737472904846
1782829545103027200,6.641027099609375,-0.06815583685934543,0.06622603784054518,0.04656821963051334
1782829545112956200,6.6509560546875,-0.12462708114385604,-0.0017240473136305807,0.08043079654276371
1782829545122884000,6.660884033203125,-0.13770751199126244,-0.04093786732703447,0.09075942619768902
1782829545132813000,6.67081298828125,-0.06260054081976413,-0.012773264594376086,0.019445143573731182
1782829545142742000,6.680741943359375,-0.09106500328183173,0.02991846066266298,0.0629675840338692
1782829545152670000,6.690669921875,-0.11173778895437717,0.03488485089838505,0.10391929722316562
1782829545162598400,6.700598388671875,-0.0204302090883255,0.0918086612559855,0.0407216855593957
1782829545172526300,6.7105263671875,-0.03923369375765323,0.12279752762913704,0.05281707829167135
1782829545182455600,6.72045556640625,-0.16908756963908672,0.044944472619891165,0.12824264129251242
1782829545192384500,6.730384521484375,-0.10370587366819381,0.053695642091333866,0.05391033515478484
1782829545202312400,6.7403125,0.0380891998976469,0.08941212150827049,-0.00022337869340553879
1782829545212241400,6.750241455078125,-0.0344599034845829,0.067842386996001,0.10885278983628377
1782829545222169300,6.76016943359375,-0.06995090358257293,0.05539864661693573,0.14284417162681928
1782829545232098600,6.7700986328125,-0.017531565037369728,0.1163258473969996,0.08351515415785833
1782829545242026500,6.780026611328125,0.02061842513680458,0.17041107332780955,0.06030495896218344
1782829545251955500,6.78995556640625,0.08339724513292313,0.17272373418435452,0.0681078603986185
1782829545261884400,6.799884521484375,0.0916857655286789,0.14166457905396818,0.06652322155567816
1782829545271812400,6.809812255859375,0.09025719403028487,0.07866130265221,0.09470166101744398
1782829545281741300,6.8197412109375,0.046641924187541005,0.047044952030479904,0.11696349684656597
1782829545291669200,6.829669189453125,0.00988660324215889,0.0792918556407094,0.09452376543357968
1782829545301598500,6.839598388671875,-0.06951134312152862,0.07576251247078179,0.1289769560495857
1782829545311526700,6.849526611328125,-0.19419746097624302,0.09729936762675642,0.16403134569544345
1782829545321455400,6.859455322265625,-0.24177111305594443,0.067670829821378,0.08631031043487601
1782829545331384300,6.86938427734375,-0.21983985175490378,0.08253405243232846,0.05778110304037109
1782829545341312500,6.8793125,-0.21117489926218985,0.06343830681815743,0.030434438227629288
1782829545351241500,6.889241455078125,-0.15227145939469336,0.03973623645231127,0.052491271270252764
1782829545361169700,6.899169677734375,-0.11665829422175883,0.025533669707179067,0.07115899159754627
1782829545371098600,6.9090986328125,-0.14680910233557223,-0.010332593443989754,0.10669650685153902
1782829545381026600,6.919026611328125,-0.15686872405707836,-0.028632658635824915,0.08536381423184648
1782829545390955500,6.92895556640625,-0.10756780979335308,0.01753726412579417,0.0761769750231877
1782829545400884500,6.938884521484375,-0.13842238226234913,0.0015210720874369143,0.09641684003802947
1782829545410812400,6.9488125,-0.1622995169341564,-0.05037541162744164,0.0897887454014737
1782829545420741600,6.95874169921875,-0.14712942033112048,-0.02470364862382412,0.05617342124856077
1782829545430669600,6.968669677734375,-0.098556235820055,-0.003094458884000778,0.006287437105877324
1782829545440598500,6.9785986328125,-0.11866378882527351,-0.0063464464172720905,0.029011748480750246
1782829545450527500,6.988527587890625,-0.132236387103796,-0.04267141312137246,0.08398001345694064
1782829545460455400,6.998455322265625,-0.14183423653244973,-0.016396861919015644,0.10345286702150479
1782829545470384400,7.00838427734375,-0.1736976937830448,0.01946691701412201,0.07464560987059958
1782829545480312600,7.0183125,-0.28015198937654495,-0.03330854149237275,0.08713581973989494
1782829545490241500,7.028241455078125,-0.30616321346759795,-0.07664952443838119,0.1115690904571209
1782829545500169500,7.03816943359375,-0.24425299299955366,-0.06098726040422916,0.12506720786048098
1782829545510098400,7.048098388671875,-0.27551380818188187,-0.07403831902667879,0.13788537104250861
1782829545520027400,7.05802734375,-0.2605219907552004,-0.04252937430217862,0.08340887163863517
1782829545529955300,7.067955322265625,-0.15340309377312658,0.037153818743675945,0.04445539219500497
1782829545539884500,7.077884521484375,-0.062328153619170185,0.07498027605190873,0.028416723463358357
1782829545549812500,7.0878125,-0.012155132696032524,0.05680617532730102,0.06574511332265101
1782829545559741400,7.097741455078125,0.08121171778738498,0.049562487809360026,0.11025360567807219
1782829545569669400,7.10766943359375,0.16241525226831435,0.036889468719065184,0.10924974413146264
1782829545579598300,7.117598388671875,0.18095570208728312,0.013070201714336871,0.15540471591912208
1782829545589527300,7.12752734375,0.1732271536618471,0.02833747508153319,0.1394281617714092
1782829545599455200,7.137455322265625,0.11826105324327946,0.08775237160250544,0.10910373239004983
1782829545609384400,7.147384521484375,0.07729951277971267,0.11996478842124342,0.09428360913530923
1782829545619312600,7.157312744140625,0.012653145346045494,0.10859569153636693,0.08616556820194236
1782829545629241300,7.167241455078125,0.005765723919868469,0.08227890862748026,0.10784180442914366
1782829545639170300,7.17717041015625,-0.044780221968889235,0.06655322396829724,0.16244782109735534
1782829545649098500,7.187098388671875,-0.055037996610999104,0.060430941695719956,0.11946005376949906
1782829545659027500,7.19702734375,-0.0039028526574373243,0.10821925943940877,0.10109152645133435
1782829545668955600,7.20695556640625,-0.03709317459762096,0.1159255960330367,0.0938441491389647
1782829545678884600,7.216884521484375,0.004750993919372558,0.11277604596093296,0.09022728294921108
1782829545688812500,7.2268125,-0.015503858602046965,0.14294658168852328,0.12250643572807311
1782829545698741500,7.236741455078125,-0.0157376673579216,0.1374617205366492,0.13564778471617028
1782829545708670500,7.24667041015625,-0.035413843208551406,0.11271145629212259,0.1242288938728161
1782829545718598400,7.256598388671875,-0.05969312894046306,0.13584931690394877,0.1322610648873262
1782829545728527600,7.266527587890625,-0.10768939034640788,0.08223214687630534,0.12251029905243777
1782829545738455600,7.27645556640625,-0.1684036790281534,0.08560118491798639,0.13891416610097512
1782829545748384500,7.286384521484375,-0.18004793959259985,0.13517331733852625,0.11709723362829536
1782829545758312400,7.2963125,-0.17928689209222792,0.16172244769856334,0.1050368756767828
1782829545768241400,7.306241455078125,-0.1674929939240217,0.1759625699751079,0.08674997136062011
1782829545778170600,7.316170654296875,-0.14803659830391405,0.12971739002019167,0.09209080266561359
1782829545788098600,7.3260986328125,-0.15456921494305134,0.09926599152460694,0.11930511893611401
1782829545798027500,7.336027587890625,-0.07748422169685364,0.0874186096034944,0.10399377809832804
1782829545807955500,7.34595556640625,-0.10257248572409153,0.051233343631029125,0.12276027349182404
1782829545817884400,7.355884521484375,-0.13509703723192215,0.017424013009667394,0.16249105745088308
1782829545827812400,7.365812255859375,-0.10775544131994247,0.05486760848015546,0.13725794159285723
1782829545837741300,7.3757412109375,-0.10994506031870842,0.10743673075959086,0.08503068242049776
1782829545847670500,7.38567041015625,-0.10451017578840255,0.130319155305624,0.07013471745057032
1782829545857598500,7.395598388671875,-0.09519757304191588,0.1098113509364426,0.06858188938484527
1782829545867527400,7.40552734375,-0.0007587094128131866,0.08476166535392403,0.06485198214151897
1782829545877455400,7.415455322265625,-0.031789222970604894,0.03865940100103617,0.11579708341569639
1782829545887384300,7.42538427734375,-0.049265258428454396,-0.002611789933592081,0.13383265245244838
1782829545897313300,7.435313232421875,-0.013567922103404998,0.04801861936822533,0.11943444440420717
1782829545907241500,7.445241455078125,-0.07662965069413184,0.08978811521381139,0.1282708810063079
1782829545917170400,7.45517041015625,-0.14937866056263446,0.04333849872797727,0.13097203885694034
1782829545927098600,7.4650986328125,-0.15995850676596163,0.021679916888475415,0.10841238912502303
1782829545937027300,7.47502734375,-0.18767185859978197,-0.01621522174179554,0.14137362415022217
1782829545946955500,7.48495556640625,-0.162718034607172,-0.03589826572462916,0.14812574702524578
1782829545956884500,7.494884521484375,-0.2026853033363819,0.005515256290137768,0.1388472018119879
1782829545966813400,7.5048134765625,-0.166356683370471,0.025044424885511396,0.05194991266885772
1782829545976741600,7.51474169921875,-0.11373685381710529,0.048668461579084395,0.05409887999682687
1782829545986670600,7.524670654296875,-0.09949848510622977,0.019967267751693725,0.07311672893604264
1782829545996598500,7.5345986328125,-0.04408580996394157,-0.03465016535967588,0.10927657733946107
1782829546006527500,7.544527587890625,-0.047319385057687756,-0.04926657360270619,0.14386544096595608
1782829546016455400,7.554455322265625,-0.02622866623401642,-0.011239479155838488,0.11143907086928374
1782829546026384400,7.56438427734375,-0.04170739039480686,0.042281537020951505,0.06771321679153479
1782829546036313600,7.574313720703125,-0.08836860380470753,0.045008185505867,0.03903592442953959
1782829546046241500,7.584241455078125,-0.0983989994317293,0.021877777548134327,0.04269610003805719
1782829546056170500,7.59417041015625,-0.07326572721898555,-0.01561170289069414,0.07537428947133011
1782829546066098400,7.604098388671875,-0.0663970104932785,-0.037544133235514164,0.10037803528658114
1782829546076027400,7.61402734375,-0.07628887443244457,-0.018533727817237375,0.07791021029027179
1782829546085956600,7.62395654296875,-0.075969140958786,0.013228607146441937,0.05977754668775014
1782829546095884500,7.633884521484375,-0.10334697722792625,0.03844502759799361,0.025727593977237118
1782829546105813500,7.6438134765625,-0.07459434547424316,0.04385799255743623,0.02051011505727656
1782829546115741400,7.653741455078125,-0.061545478808879846,0.05659691649079322,0.04593660719608888
1782829546125670400,7.66367041015625,-0.027803368204832077,0.019779051703214645,0.029000332037592304
1782829546135598300,7.673598388671875,0.015389876833558082,0.0347799292191863,0.07425905823842621
1782829546145527300,7.68352734375,-0.03660977499485016,0.06406316071823238,0.09145838651359081
1782829546155456500,7.69345654296875,-0.007690554502606391,0.07345438165888189,0.04067575492528267
1782829546165384400,7.703384521484375,-0.08336275834143161,0.0798623490050435,0.05074205298274755
1782829546175313700,7.713313720703125,-0.11373685381710529,0.04508461174294352,0.07518491351222618
1782829546185241600,7.72324169921875,-0.0734989514529705,0.04820186698064208,0.06976487949118018
1782829546195170600,7.733170654296875,-0.055550622308254236,0.05967296293526887,0.07156036633951589
1782829546205098800,7.7430986328125,-0.04710720361173153,0.026705051574110985,0.07877048038141801
1782829546215027500,7.75302734375,-0.046781040397286415,0.015241116012632845,0.09895387510182335
1782829546224956400,7.762956298828125,-0.06674597006142138,0.04249050359651446,0.1033716367451474
1782829546234884600,7.772884521484375,-0.086944708481431,0.06976181075125933,0.10078580323671922
1782829546244813600,7.7828134765625,-0.08729951326847075,0.0836988584280014,0.06534106256640516
1782829546254741800,7.79274169921875,-0.1359311499685049,0.06489654280245304,0.04247537909261882
1782829546264670700,7.802670654296875,-0.1571983944028616,0.015486907467246055,0.09300623701009898
1782829546274599700,7.812599609375,-0.10199906975030898,0.019947247876971958,0.10023164908583275
1782829546284527600,7.822527587890625,-0.1138496665418148,0.034699995850771666,0.10022731083743273
1782829546294456600,7.83245654296875,-0.09925240139067172,0.036550153762102126,0.09519602040564641
1782829546304384800,7.842384765625,-0.0773328305274248,0.06463204664736986,0.09582869228599593
1782829546314313700,7.852313720703125,-0.09954758494496345,0.06674991558417677,0.11452642415906301
1782829546324241700,7.86224169921875,-0.07448036370575428,0.03610635551735759,0.11168986729257739
1782829546334170600,7.872170654296875,-0.08672083659768104,0.03452639284953475,0.09584475750480778
1782829546344099600,7.882099609375,-0.09447042781114577,0.008525105630606412,0.09388428935310802
1782829546354027500,7.892027587890625,-0.06497428421378135,-0.025566987454891204,0.10116671971254981
1782829546363956700,7.901956787109375,-0.018549802169203756,0.04442103326767683,0.10281440472118555
1782829546373884700,7.911884765625,-0.04255144000351429,0.06507438358739018,0.10046281836004928
1782829546383813600,7.921813720703125,-0.08435995268523692,0.061064125032722946,0.07219080059700646
1782829546393741600,7.931741455078125,-0.1295651220679283,0.06440057597905396,0.08448988094152882
1782829546403670500,7.94167041015625,-0.06570727466344833,0.07375380299687385,0.060376389363734045
1782829546413599500,7.951599609375,-0.08849135340154171,0.052471068732440465,0.0710394751374144
1782829546423527400,7.96152734375,-0.1268377429306507,0.008049889334291219,0.08868450135346502
1782829546433456600,7.97145654296875,-0.08731821796894072,0.031790099753439424,0.10476602284614928
1782829546443384600,7.981384521484375,-0.0894844560921192,0.04999854113906622,0.08041857638200745
1782829546453313500,7.9913134765625,-0.053289107117056846,0.018949030619859693,0.06033359140162356
1782829546463242500,8.001242431640625,0.03180442053973675,0.02467880644351244,0.06138577190225478
1782829546473170400,8.01117041015625,0.049722354546189305,0.03974076649695635,0.08614335637013427
1782829546483099600,8.021099609375,0.05083469970226288,0.030533816082030533,0.1137487817169167
1782829546493027600,8.031027587890625,0.020562895557284355,0.036901889809221024,0.08152896704301238
1782829546502956500,8.04095654296875,-0.02037000333368778,0.042337066600471734,0.08921763098263182
1782829546512884700,8.050884765625,-0.08820844480693339,0.049717093849182124,0.1375453436994925
1782829546522813400,8.0608134765625,-0.10448971752226352,0.05125394802764058,0.12509809618908913
1782829546532742400,8.070742431640625,-0.12980243795514107,0.038321255087852474,0.10203967575533315
1782829546542670600,8.080670654296876,-0.20384850189685821,-0.01681874059289694,0.11596635730168782
1782829546552599600,8.090599609375,-0.23993162266910076,-0.02436477205827832,0.11778968200501985
1782829546562527700,8.10052783203125,-0.247628022390604,0.023072686421126126,0.07999356503612362
1782829546572456700,8.110456787109374,-0.19006839834749698,0.052757630588859315,0.08165628321710973
1782829546582385700,8.1203857421875,-0.20815116752684115,0.07270137133449316,0.10309931347663513
1782829546592313600,8.130313720703125,-0.13582535150647163,0.04460676509812474,0.11835115181268192
1782829546602242800,8.140242919921874,-0.060037996855378147,0.04386383777633309,0.1055941624996718
1782829546612170800,8.150170654296875,-0.03698971422314644,0.023266747688502072,0.1438586184995249
1782829546622099700,8.160099609375,-0.051719665843248365,-0.0066186874873936175,0.17031674610786138
1782829546632027600,8.170027587890624,-0.04127952037155628,0.013211656011641025,0.14359412234444172
1782829546641956600,8.17995654296875,-0.11182429819405078,0.013389058405160904,0.12885064452248624
1782829546651885600,8.189885498046875,-0.11491758803427218,0.010503419966250658,0.11070012560286559
1782829546661813500,8.1998134765625,-0.11286416263580322,0.05974734334573149,0.10736920021502301
1782829546671742700,8.20974267578125,-0.17138532518744468,0.07406710672974585,0.1308763325306587
1782829546681670700,8.219670654296875,-0.14481705173552034,0.07569207758307457,0.09743315920741297
1782829546691599600,8.229599609375,-0.08303133442997931,0.11843538689687848,0.07393896400516387
1782829546701527600,8.239527587890626,-0.03467266945242881,0.07397942844629288,0.11562854018206707
1782829546711456500,8.24945654296875,0.013025485789775847,0.02099573401659727,0.1667249869599007
1782829546721385500,8.259385498046875,0.04026420584917068,0.022670389230549336,0.17821588359354062
1782829546731313700,8.269313720703124,0.014814707294106482,0.030161914029717445,0.15492412932794541
1782829546741242600,8.27924267578125,-0.014986556729674338,0.0405795554086566,0.12756653212923555
1782829546751170600,8.289170654296875,-0.0733288555830717,0.11385331980362534,0.11829639855129644
1782829546761099500,8.299099609375,-0.16458967369794844,0.10406301654279232,0.11117089405292645
1782829546771027500,8.30902734375,-0.15390695164203644,0.10124649781733751,0.07886748361564241
1782829546780956400,8.318956298828125,-0.1076712701678276,0.13314020407572388,0.04586271540939342
1782829546790885600,8.3288857421875,-0.10485153657197951,0.09197861099541187,0.07087168995561077
1782829546800813600,8.3388134765625,-0.06638181292414665,0.021569003859907388,0.0892605294094421
1782829546810742500,8.348742431640625,0.000412087932229042,0.026470950557291505,0.05841642810211051
1782829546820670700,8.358670654296875,0.017532149559259413,0.03199818954616785,0.06252428811262362
1782829546830599400,8.368599365234376,-0.06441665033102036,-0.01851122372448444,0.07386590333553031
1782829546840528400,8.3785283203125,-0.0948965442687273,0.008610299696028232,0.05826986380484886
1782829546850456600,8.38845654296875,-0.07863689886331558,0.0914873203471303,0.030618133364617824
1782829546860385500,8.398385498046874,-0.11225684439241886,0.09703633277639746,0.011235990290809423
1782829546870313700,8.408313720703125,-0.09517711477577685,0.05806684291288256,0.023129375911271198
1782829546880242700,8.41824267578125,-0.12045710198283195,0.03843158359453082,0.07355421617100946
1782829546890170600,8.428170654296874,-0.13162848433852195,-0.004367985951155424,0.0466390472438652
1782829546900099600,8.438099609375,-0.01955927147269249,0.01180690378025174,-0.011604357812320812
1782829546910028800,8.44802880859375,-0.02953472204208374,0.029690058734267947,0.026463817563606426
1782829546919956700,8.457956787109374,-0.07134381924569606,-0.023403525810688733,0.08031307018091902
1782829546929885700,8.4678857421875,-0.08865677309632301,-0.025466011298447847,0.0816177687044721
1782829546939813600,8.477813720703125,-0.06156184542179107,0.008043459593504667,0.047920876348484305
1782829546949742600,8.48774267578125,-0.1055751746714115,0.022380320242792368,0.04110054707545787
1782829546959671600,8.497671630859376,-0.11488543933033943,0.01799333733022213,0.0532035933912266
1782829546969599500,8.507599609375,-0.08172142087519169,0.01602642117142677,0.05833901091776788
1782829546979528700,8.51752880859375,-0.08814940809607505,0.014764438411593436,0.08257408304861746
1782829546989456600,8.52745654296875,-0.1024953288346529,0.008984978227317333,0.09091407790328375
1782829546999385600,8.537385498046875,-0.051961657905578613,0.05662321997582912,0.06067004768121987
1782829547009313500,8.5473134765625,-0.09235387404859065,0.047692017762362954,0.06560737621923908
1782829547019242500,8.557242431640624,-0.11489070002734661,0.03725026485547423,0.0978734868534375
1782829547029171700,8.567171630859375,-0.07524199572801589,0.06499313504472375,0.09901127697802148
1782829547039099600,8.577099609375,-0.07642565255463123,0.045652182497829194,0.1045498045458924
1782829547049028600,8.587028564453124,-0.096003044205904,0.017897914131730794,0.1126238419407513
1782829547058956500,8.59695654296875,-0.06090367377400398,0.030047640000283718,0.10054477928876876
1782829547068885500,8.606885498046875,-0.024620061993598938,0.06117912971451878,0.08082695625349878
1782829547078814500,8.616814453125,0.049561026504635806,0.06376490842401981,0.06904791772770695
1782829547088742400,8.626742431640626,0.020954525223374366,0.07251826985254883,0.09756793716875836
1782829547098671600,8.636671630859375,-0.017744331005215642,0.06379647260606289,0.11031807661587371
1782829547108599600,8.646599609375,-0.046154432931542394,0.0758738638907671,0.07815890608802438
1782829547118528500,8.656528564453126,-0.04200374299287796,0.0990064638055861,0.1204188888642937
1782829547128456700,8.666456787109375,-0.04878478143513203,0.08980871961042285,0.11582312203925102
1782829547138385400,8.676385498046875,-0.07201426585316657,0.03217909907102585,0.12030602134065702
1782829547148314400,8.686314453125,-0.11762626247107982,-0.016728724221885205,0.12539108778629451
1782829547158242800,8.696242919921875,-0.11475859808027744,-0.02683876095637679,0.11854104836159385
1782829547168171800,8.706171875,-0.17736849125027657,-0.021975392703711984,0.10812612866270355
1782829547178100000,8.716099853515624,-0.18169862940907477,-0.0082772683493793,0.08284079856025055
1782829547188029000,8.72602880859375,-0.20231647002398967,0.05116977687552571,0.08484559904402121
1782829547197956900,8.735956787109375,-0.1605605643123388,0.01771554330214858,0.07767589007774367
1782829547207886000,8.745885986328124,-0.07128712062239646,0.06332505570203066,0.1022861065307632
1782829547217815000,8.75581494140625,-0.15180150379538535,0.024945494555681944,0.07536353061529807
1782829547227743000,8.765742919921875,-0.07131868480443954,-0.06378770477771759,0.0811108055630233
1782829547237672000,8.775671875,-0.05861760866343975,-0.007258738956600427,0.09736423129020258
1782829547247599900,8.785599853515626,-0.09182955791354179,-0.05871770803704857,0.10157724587535485
1782829547257528800,8.79552880859375,-0.15243044934868813,-0.03733735861703753,0.09909936625342816
1782829547267458000,8.8054580078125,-0.14147475557029246,0.025728607757389544,0.052195311397826294
1782829547277386000,8.815385986328126,-0.13175006489157676,0.04898717213943601,0.04799099157578311
1782829547287315000,8.82531494140625,-0.12380407432317733,0.06283756444603204,0.0758654796549119
1782829547297243000,8.835242919921875,-0.07108662961423397,-0.0021966332614421842,0.09346589041110127
1782829547307171800,8.845171875,-0.04851765493154526,-0.022173107232898472,0.10218548656734637
1782829547317099800,8.855099853515625,-0.033680151283740994,-0.003399287049472332,0.09519250414115377
1782829547327029000,8.865029052734375,-0.03322773134112358,-0.01533200916647911,0.07314022854263894
1782829547336958000,8.8749580078125,-0.06948913128972053,-0.009717822546511889,0.10765800882745534
1782829547346886000,8.884885986328126,-0.06891571531593799,0.01869476359784603,0.10205250783744267
1782829547356814800,8.89481494140625,-0.054880760222673415,0.07082315637245774,0.0947984633222688
1782829547366742800,8.90474267578125,-0.12497194905877113,0.05862213870808482,0.07126646142685786
1782829547376671700,8.914671630859376,-0.14879881484806537,0.012788462163507937,0.10206491066128946
1782829547386601000,8.92460107421875,-0.10675707793235778,0.001977583683282137,0.08627766854059882
1782829547396529000,8.93452880859375,-0.07860825729072093,0.018474252714961767,0.07149962172876112
1782829547406457900,8.944457763671876,-0.10090426025092601,-0.0025737960107624527,0.11771073501729405
1782829547416385800,8.9543857421875,-0.05571954913437366,0.027753683844208715,0.11238826135289855
1782829547426314800,8.964314697265625,-0.031098318096995353,0.09277560659199953,0.08385591215323657
1782829547436243000,8.974242919921876,-0.061626142829656595,0.07937661131471395,0.06063334153317846
1782829547446172000,8.984171875,-0.06573240910470485,0.06910290845111013,0.061490086226677516
1782829547456100900,8.994100830078125,-0.04306640378832817,0.09711115157827735,0.09174360579629429
1782829547466029000,9.004029052734374,-0.06115268009901046,0.06383738913834094,0.09490354026509448
1782829547475957800,9.013957763671876,-0.09050093965828418,0.06492737633213401,0.09269998407252132
1782829547485886000,9.023885986328125,-0.11437339815497398,0.06323313963487744,0.10363861711826175
1782829547495815000,9.03381494140625,-0.07294248661398887,0.06368336762040853,0.11528439378635957
1782829547505744000,9.043743896484376,-0.11922960601449012,0.07081234271749853,0.11745317092649638
1782829547515672000,9.053672119140625,-0.08155249404907226,0.021070845079421995,0.09243056514714844
1782829547525601000,9.06360107421875,-0.024982465565204618,0.05099120543822646,0.06887262509288265
1782829547535529000,9.073529052734376,-0.06044891574382782,0.06636266983225941,0.10348047654763795
1782829547545458000,9.0834580078125,-0.06321253523826599,0.04701777176260948,0.09459837417290545
1782829547555385900,9.0933857421875,-0.05773556513190269,0.0806555452093482,0.058098489293316374
1782829547565314800,9.103314697265626,-0.042240474358201024,0.08313347963020205,0.05665921373781748
1782829547575244000,9.113244140625,-0.06899170316159725,0.050152270396053786,0.07248390179206617
1782829547585172000,9.123171875,-0.10115385109782218,0.046664136019349094,0.07465497135398909
1782829547595101000,9.133100830078124,-0.10673545062243937,0.03794248490333557,0.06217275299490429
1782829547605028900,9.14302880859375,-0.11512100165188312,0.011309767913073301,0.053552963951323175
1782829547614957800,9.152957763671875,-0.10047054500877857,-0.011622633254528045,0.07898587669776752
1782829547624887000,9.162886962890624,-0.11533669022917747,-0.002316460248827934,0.08633640385735779
1782829547634815000,9.17281494140625,-0.06409457876980304,0.016488193464279172,0.07216977607528678
1782829547644744000,9.182743896484375,-0.1212175649613142,0.02113075857311487,0.044770951817044984
1782829547654672000,9.192671875,-0.08813070339560508,0.02065948779955506,0.040921655977750195
1782829547664600800,9.202600830078126,-0.0748012662231922,0.025376141057908533,0.0335205220089294
1782829547674528800,9.21252880859375,-0.05155424614846706,0.009335983622074127,0.04291909513897262
1782829547684457700,9.222457763671875,-0.02007774238884449,0.011228957761824131,0.08270567353903316
1782829547694387000,9.232386962890626,-0.051039866885542864,0.00021861118674278257,0.08349103349675424
1782829547704315000,9.24231494140625,-0.08506137895286082,-0.014334960953146219,0.10287941451510414
1782829547714243800,9.252243896484375,-0.07611936308443545,0.02671542683765292,0.0907548413541168
1782829547724171800,9.262171875,-0.046698622810840605,0.03723550567775964,0.07386069743745029
1782829547734100700,9.272100830078125,-0.03140519208908081,0.03350026467218995,0.0767958193075843
1782829547744030000,9.282030029296875,0.012236965760588645,0.044949733316898347,0.10642713359193876
1782829547753958000,9.2919580078125,0.030358897906541824,0.02883417255729437,0.11041099733002484
1782829547763886800,9.301886962890626,0.03312836261987686,0.024724691411852837,0.11144641392552293
1782829547773815000,9.31181494140625,0.012163316002488135,0.016347323688864705,0.1170415213856846
1782829547783743700,9.32174365234375,-0.0028968904852867123,0.019160627543926237,0.14415595747828483
1782829547793668900,9.3316689453125,-0.0028828619599342345,0.01888721743002534,0.14868107021991162
1782829547803597800,9.341597900390624,-0.06531798308491707,0.0570152880333364,0.10044052432985044
1782829547813526000,9.351526123046876,-0.09194412420392035,0.06871610109061002,0.08720893064187839
1782829547823455000,9.361455078125,-0.14426760115921497,0.05586626412868499,0.08509274220550432
1782829547833383700,9.3713837890625,-0.18237375219166277,0.034559126075357195,0.1096681796060875
1782829547843311900,9.381311767578126,-0.22248539782762528,-0.004263648793846369,0.14403945495914666
1782829547853241000,9.391240966796875,-0.22781565293967723,0.01298486151844263,0.11067846176032907
1782829547863169000,9.4011689453125,-0.1680424445003271,0.06245747908726334,0.05541774404305033
1782829547873098000,9.411097900390626,-0.15202420663535593,0.04806318916231393,0.0681392601838801
1782829547883026000,9.42102587890625,-0.12069500239193438,-0.006548398730158805,0.11320200715488754
1782829547892955000,9.430954833984375,-0.11985562895834445,-0.004397942698001861,0.13152940787822007
1782829547902883800,9.4408837890625,-0.12317571329176426,-0.0083251991443336,0.08574695919738151
1782829547912812000,9.45081201171875,-0.07986381030976772,0.006021159985661506,0.05555674608836416
1782829547922741000,9.460740966796875,-0.0457096117734909,0.041211715832352634,0.08232747874325141
1782829547932669000,9.4706689453125,-0.025647066953778264,0.04496200827658176,0.08041379974219016
1782829547942598000,9.480597900390626,-0.05126783042252064,0.04092003940939903,0.08673601590050384
1782829547952526800,9.49052685546875,-0.0399625925540924,0.04163549420237541,0.05679221530060749
1782829547962454800,9.500454833984374,-0.041779871109127995,0.052703854575008154,0.07302395435236395
1782829547972384000,9.510384033203126,-0.10045827004909515,0.04384381790161133,0.0991830807478167
1782829547982312000,9.52031201171875,-0.08555705351531505,0.02527472651004791,0.08517744308058171
1782829547992241000,9.530240966796875,-0.07873977471590042,0.03515153901055455,0.0774856647352688
1782829548002168800,9.5401689453125,-0.10610650506913662,0.001868424220383167,0.06818240520586259
1782829548012097800,9.550097900390625,-0.096482352155447,-0.045438832008093594,0.10002450000802054
1782829548022026800,9.56002685546875,-0.0634077655494213,-0.025029373446851966,0.11574338960023596
1782829548031954700,9.56995458984375,-0.038781858336925504,-0.011515811879187822,0.05200710904907901
1782829548041884000,9.5798837890625,-0.05169862305521965,0.025719693798571825,0.032464208755875
1782829548051811800,9.589811767578125,-0.086230422732234,0.036670711401849986,0.03881380154488143
1782829548061740800,9.59974072265625,-0.10891630179286002,0.022810382223129273,0.041794150796229945
1782829548071669800,9.609669677734376,-0.12217676538228987,0.06269567175731063,0.053822702537104486
1782829548081597700,9.61959765625,-0.10924480309486388,0.08394903379678725,0.0609645234160358
1782829548091527000,9.62952685546875,-0.12027005497813224,0.07699746109321713,0.039762498838151805
1782829548101454800,9.639454833984376,-0.0762356829404831,0.04573737656325102,0.042922392207756635
1782829548111383800,9.6493837890625,-0.06377952147126198,0.037366292450577016,0.09691053270595147
1782829548121312800,9.659312744140625,-0.058032502251863474,-0.0037242812201380726,0.1339755132555496
1782829548131241000,9.669240966796876,-0.07671382184624671,0.004861468556523323,0.10384175674123688
1782829548141169700,9.679169677734375,-0.08696107509434223,0.053019350264966486,0.057693922513839785
1782829548151097900,9.689097900390625,-0.051636079213023184,0.08036240748167038,0.057784514273586676
1782829548161027000,9.699027099609374,-0.07012099945247173,0.10133110736086964,0.06715999878898728
1782829548170955000,9.708955078125,-0.00990706150829792,0.10568974096179008,0.04689712735789362
1782829548180884000,9.718884033203125,-0.0772282011091709,0.10746434941887854,0.08478066231533885
1782829548190813000,9.72881298828125,-0.08387421499490737,0.10462751855775713,0.1306539493510965
1782829548200740900,9.738740966796875,-0.11867080308794975,0.09520137243419885,0.09016372532686218
1782829548210669800,9.748669921875,-0.12734276984333992,0.03088774408623576,0.0703218786197016
1782829548220597800,9.75859765625,-0.13683598985373974,0.01912789431810379,0.06021071850720327
1782829548230527000,9.76852685546875,-0.1391419287085533,0.018910744436085224,-0.019378695307974703
1782829548240456000,9.7784560546875,-0.1464835236430168,0.029866730475425717,0.08653992707282304
1782829548250384000,9.7883837890625,-0.26979016983807086,-0.06985854912400245,-0.07977689007814041
1782829548260312800,9.798312744140626,-0.293221898829937,-0.04391673700734973,-0.1372204317272175
1782829548270240800,9.80824072265625,-0.1735971560180187,0.14113178735151885,-0.1239233533212915
1782829548280169700,9.818169677734375,-0.0015144962161779403,0.24438787142559884,-0.04618514773021452
1782829548290098000,9.828097900390626,-0.022997429227828978,0.13770985007882117,-0.03621308556115255
1782829548300027000,9.83802685546875,0.9096066612452268,0.12433978863507508,-0.04334302877262235
1782829548309955800,9.847955810546875,0.4997621240288019,0.24879165934249758,0.4368642807628959
1782829548319883800,9.8578837890625,-0.1066255605071783,-0.09641571666002273,0.704290205687657
1782829548329812700,9.867812744140625,-0.021503975799679755,-0.2487410981990397,0.22567288702363147
1782829548339740700,9.87774072265625,-0.10539864906072616,0.04099763469025493,0.07799497509743086
1782829548349670000,9.887669921875,-0.028328268861770627,0.16581819257959723,0.02319503644244978
1782829548359598800,9.897598876953126,-0.2354933479607105,0.09246595612093805,0.09819048038073815
1782829548369526800,9.90752685546875,-0.4384025231808424,0.04189648322612047,0.13074625814389437
1782829548379455700,9.917455810546874,-0.2443430093705654,0.007307984925806522,0.12518444103198126
1782829548389383700,9.9273837890625,-0.24484686723947524,0.09841624282747506,0.16775918884584679
