time,seconds_elapsed,z,y,x
1782829538540244200,0.078244140625,-0.0010048914700746536,-0.08456338196992874,-0.030037827789783478
1782829538550173200,0.088173095703125,-0.04266978055238724,-0.07560477405786514,-0.04310116544365883
1782829538560101400,0.098101318359375,-0.06586357951164246,-0.03909320756793022,-0.04608149081468582
1782829538570030300,0.1080302734375,-0.0675341784954071,0.026800058782100677,-0.03211693838238716
1782829538579958500,0.11795849609375,-0.06090552359819412,0.0775829553604126,-0.001556886825710535
1782829538589887500,0.127887451171875,-0.060732416808605194,0.07920455187559128,0.01792546920478344
1782829538599815400,0.1378154296875,-0.06984049081802368,0.045365288853645325,0.02721993438899517
1782829538609744400,0.147744384765625,-0.0685158371925354,0.03601279854774475,0.030672723427414894
1782829538619672300,0.15767236328125,-0.05546174198389053,0.059768494218587875,0.03830208256840706
1782829538629601300,0.167601318359375,-0.03083868697285652,0.07381773740053177,0.03339041396975517
1782829538639530500,0.177530517578125,-0.009290353395044804,0.05597512423992157,0.027732111513614655
1782829538649458400,0.18745849609375,-0.00219728983938694,-0.013476123102009296,0.020009472966194153
1782829538659387400,0.197387451171875,-0.010670903138816357,-0.11158975213766098,0.015873773023486137
1782829538669315300,0.2073154296875,-0.04004104435443878,-0.16249793767929077,0.026276614516973495
1782829538679244300,0.217244384765625,-0.05109220743179321,-0.14074009656906128,0.023149143904447556
1782829538689172200,0.227172119140625,-0.033180586993694305,-0.11506562680006027,0.0080154649913311
1782829538699101400,0.237101318359375,-0.010081639513373375,-0.08414187282323837,-0.00814011786133051
1782829538709029400,0.247029296875,0.006576167419552803,-0.05919124558568001,-0.025883695110678673
1782829538718958300,0.256958251953125,0.010189586319029331,-0.05751914903521538,-0.04306638240814209
1782829538728886300,0.26688623046875,0.003178016282618046,-0.03538721427321434,-0.04396519809961319
1782829538738815200,0.276815185546875,-0.0011411719024181366,0.0028163129463791847,-0.03691443055868149
1782829538748744200,0.286744140625,0.0006498033180832863,0.011497684754431248,-0.03565901517868042
1782829538758672100,0.296672119140625,0.0043404437601566315,-0.01870507188141346,-0.019880663603544235
1782829538768601300,0.306601318359375,0.005183068104088306,-0.047550301998853683,0.01566001959145069
1782829538778529300,0.316529296875,0.001617714762687683,-0.06415403634309769,0.05925482138991356
1782829538788458200,0.326458251953125,0.0068252598866820335,-0.08655548095703125,0.09117919206619263
1782829538798386400,0.336386474609375,0.011951126158237457,-0.09666188061237335,0.0990796610713005
1782829538808315400,0.3463154296875,0.02681955322623253,-0.08993686735630035,0.088216632604599
1782829538818243300,0.356243408203125,0.02642037719488144,-0.09153062105178833,0.06617861986160278
1782829538828172500,0.366172607421875,0.014094201847910881,-0.06637946516275406,0.06140730157494545
1782829538838100500,0.3761005859375,0.016566403210163116,-0.01014303881675005,0.05842459574341774
1782829538848029400,0.386029541015625,0.025143645703792572,0.03717441111803055,0.04283418506383896
1782829538857958400,0.39595849609375,0.029205046594142914,0.068999744951725,0.02028513140976429
1782829538867886300,0.40588623046875,0.019061865285038948,0.045950088649988174,-0.025974508374929428
1782829538877815300,0.415815185546875,0.00535217858850956,0.008147315122187138,-0.07749495655298233
1782829538887743200,0.4257431640625,-0.006343359127640724,-0.014380363747477531,-0.11009790748357773
1782829538897672400,0.43567236328125,-0.019636578857898712,-0.0392022430896759,-0.1083250567317009
1782829538907600400,0.445600341796875,-0.021629422903060913,-0.028963185846805573,-0.06941041350364685
1782829538917529300,0.455529296875,-0.0063240183517336845,-0.02485933154821396,-0.02618451602756977
1782829538927457300,0.465457275390625,0.017824195325374603,-0.029168592765927315,0.0022404673509299755
1782829538937386200,0.47538623046875,0.04133165255188942,-0.0452604740858078,0.00889810360968113
1782829538947314200,0.485314208984375,0.05846403166651726,-0.055117636919021606,0.007977448403835297
1782829538957243400,0.495243408203125,0.050451669842004776,-0.05447138100862503,0.013868295587599277
1782829538967172400,0.50517236328125,0.029125075787305832,-0.046788960695266724,0.03249258175492287
1782829538977100300,0.515100341796875,0.004257457330822945,-0.009073013439774513,0.047663625329732895
1782829538987029200,0.525029296875,-0.01742546819150448,0.020480085164308548,0.039008885622024536
1782829538996957200,0.534957275390625,-0.04374677315354347,0.03391297161579132,0.02009594440460205
1782829539006886100,0.54488623046875,-0.048225145787000656,0.0012791287153959274,-0.012480907142162323
1782829539016814300,0.554814453125,-0.042966365814208984,-0.03273029625415802,-0.02970263548195362
1782829539026743300,0.564743408203125,-0.04193226248025894,-0.06348448246717453,-0.03438527137041092
1782829539036671500,0.57467138671875,-0.03083895519375801,-0.06338433176279068,-0.028176013380289078
1782829539046600400,0.584600341796875,-0.00011885818094015121,-0.019002750515937805,-0.020465629175305367
1782829539056529400,0.594529296875,0.03450172767043114,0.02129850722849369,-0.023843912407755852
1782829539066457300,0.604457275390625,0.04804283753037453,0.030640875920653343,-0.03465820848941803
1782829539076386600,0.614386474609375,0.05299399048089981,0.010211578570306301,-0.046639274805784225
1782829539086314500,0.624314453125,0.03590394929051399,-0.021700017154216766,-0.04898791387677193
1782829539096243500,0.634243408203125,0.011392549611628056,-0.05728829652070999,-0.04619189724326134
1782829539106171400,0.64417138671875,-0.011890136636793613,-0.07826681435108185,-0.02390097640454769
1782829539116100400,0.654100341796875,-0.05126107856631279,-0.04743596166372299,0.010819163173437119
1782829539126028300,0.6640283203125,-0.10919974744319916,0.024249408394098282,0.02677442692220211
1782829539135957200,0.673957275390625,-0.15947015583515167,0.07708778232336044,-0.002204631455242634
1782829539145885200,0.68388525390625,-0.1832124888896942,0.06799867749214172,-0.053869158029556274
1782829539155814400,0.693814453125,-0.16987602412700653,0.026776202023029327,-0.08900703489780426
1782829539165743600,0.70374365234375,-0.13166765868663788,0.008031544275581837,-0.08528447151184082
1782829539175671600,0.713671630859375,-0.07973922789096832,-0.0007642991840839386,-0.0429186075925827
1782829539185600500,0.7236005859375,-0.032747749239206314,-0.014038825407624245,0.01756604015827179
1782829539195528400,0.733528564453125,-0.006487524136900902,-0.037525638937950134,0.06955316662788391
1782829539205457400,0.74345751953125,-0.002943655475974083,-0.07517261803150177,0.1031326949596405
1782829539215385300,0.75338525390625,-0.007607550360262394,-0.09464968740940094,0.09733248502016068
1782829539225314600,0.763314453125,0.00004317890852689743,-0.08822508156299591,0.07390864938497543
1782829539235242500,0.773242431640625,0.007879579439759254,-0.04992201551795006,0.03252499923110008
1782829539245171500,0.78317138671875,0.004755691159516573,-0.029279854148626328,-0.01779036782681942
1782829539255099600,0.793099609375,-0.005118503235280514,-0.039421990513801575,-0.053726814687252045
1782829539265028400,0.8030283203125,-0.011866421438753605,-0.023354608565568924,-0.07822869718074799
1782829539274957300,0.812957275390625,-0.011988294310867786,-0.036105863749980927,-0.09473374485969543
1782829539284885500,0.822885498046875,-0.006861443631350994,-0.064137764275074,-0.08614691346883774
1782829539294814500,0.832814453125,-0.0011733779683709145,-0.0698116198182106,-0.04558785632252693
1782829539304742700,0.84274267578125,0.0010096151381731033,-0.06768561899662018,0.00802982784807682
1782829539314671600,0.852671630859375,-0.0012373318895697594,-0.053601089864969254,0.060113098472356796
1782829539324599600,0.862599609375,0.008178274147212505,-0.03000575117766857,0.09193334728479385
1782829539334528500,0.872528564453125,0.007315609138458967,-0.01573340967297554,0.09503836184740067
1782829539344456400,0.88245654296875,0.00801016204059124,-0.0016905628144741058,0.07942584902048111
1782829539354385700,0.8923857421875,0.009978788904845715,-0.006061410065740347,0.055868010967969894
1782829539364314600,0.902314697265625,0.008831499144434929,-0.03207436949014664,0.038325235247612
1782829539374242600,0.91224267578125,-0.0022178879007697105,-0.06777450442314148,0.023826949298381805
1782829539384171500,0.922171630859375,-0.012118987739086151,-0.08748935163021088,0.021054333075881004
1782829539394099500,0.932099365234375,-0.009997830726206303,-0.08444603532552719,0.02509273774921894
1782829539404028400,0.9420283203125,-0.0030701495707035065,-0.07300242781639099,0.029638754203915596
1782829539413956400,0.951956298828125,-0.006565944291651249,-0.08644857257604599,0.03376951441168785
1782829539423885600,0.961885498046875,-0.013501615263521671,-0.11471004039049149,0.03525156155228615
1782829539433813500,0.9718134765625,-0.012687374837696552,-0.08874669671058655,0.041667234152555466
1782829539443742500,0.981742431640625,-0.0007143355906009674,-0.03549998998641968,0.054961469024419785
1782829539453670400,0.99167041015625,0.020456332713365555,0.035574063658714294,0.0462065227329731
1782829539463599400,1.001599365234375,0.043371766805648804,0.08957231044769287,0.025846920907497406
1782829539473528600,1.011528564453125,0.04440388083457947,0.10397372394800186,-0.00351916765794158
1782829539483456500,1.02145654296875,0.027314376085996628,0.07718125730752945,-0.031965456902980804
1782829539493385500,1.031385498046875,0.004302801098674536,0.03589853644371033,-0.05143636092543602
1782829539503313700,1.041313720703125,-0.02454375848174095,-0.017559628933668137,-0.07571613043546677
1782829539513242400,1.051242431640625,-0.02617373690009117,-0.04970627278089523,-0.09970599412918091
1782829539523170600,1.061170654296875,-0.006418672390282154,-0.05131695419549942,-0.09996538609266281
1782829539533099500,1.071099609375,0.013747762888669968,-0.04350750893354416,-0.08858853578567505
1782829539543027500,1.08102734375,0.032803479582071304,-0.04315996915102005,-0.07254458963871002
1782829539552956700,1.090956787109375,0.04706186428666115,-0.028785813599824905,-0.07518626749515533
1782829539562885600,1.1008857421875,0.05333520472049713,-0.04892171174287796,-0.078003890812397
1782829539572813600,1.1108134765625,0.05789162591099739,-0.06779266893863678,-0.08014006167650223
1782829539582742500,1.120742431640625,0.05782611295580864,-0.0908665657043457,-0.0810423418879509
1782829539592670500,1.13067041015625,0.05176428705453873,-0.10860684514045715,-0.08657454699277878
1782829539602599700,1.140599609375,0.03296849504113197,-0.0983254462480545,-0.09875744581222534
1782829539612527600,1.150527587890625,0.014054825529456139,-0.07659862190485,-0.11190664768218994
1782829539622456600,1.16045654296875,0.010225731879472733,-0.05759456753730774,-0.1250285804271698
1782829539632384500,1.170384521484375,0.008810367435216904,-0.059222348034381866,-0.1209932193160057
1782829539642313500,1.1803134765625,-0.0011453274637460709,-0.0649966150522232,-0.1200331524014473
1782829539652241400,1.190241455078125,-0.016678480431437492,-0.09149107336997986,-0.09844610095024109
1782829539662170400,1.20017041015625,-0.02303784340620041,-0.11394259333610535,-0.06618722528219223
1782829539672099600,1.210099609375,-0.03499041497707367,-0.12388457357883453,-0.034396179020404816
1782829539682027500,1.220027587890625,-0.05075979232788086,-0.13731782138347626,-0.011845330707728863
1782829539691956500,1.22995654296875,-0.061128415167331696,-0.13193118572235107,-0.010894243605434895
1782829539701884400,1.239884521484375,-0.05321083217859268,-0.07057968527078629,-0.021510668098926544
1782829539711813400,1.2498134765625,-0.041621822863817215,0.011063780635595322,-0.05277218669652939
1782829539721741300,1.2597412109375,-0.027712397277355194,0.08747067302465439,-0.08794694393873215
1782829539731670500,1.26967041015625,-0.017644789069890976,0.1473357081413269,-0.12291720509529114
1782829539741599500,1.279599609375,-0.014044993557035923,0.19781965017318726,-0.1256229728460312
1782829539751527400,1.28952734375,-0.02873508259654045,0.22283287346363068,-0.11002181470394135
1782829539761456400,1.299456298828125,-0.061364930123090744,0.2114792764186859,-0.07819703966379166
1782829539771384600,1.309384521484375,-0.10269423574209213,0.18822713196277618,-0.037061117589473724
1782829539781313500,1.3193134765625,-0.135217547416687,0.16191749274730682,-0.0068139987997710705
1782829539791241500,1.329241455078125,-0.171278715133667,0.12081720679998398,0.00936240702867508
1782829539801170700,1.339170654296875,-0.18634368479251862,0.07466063648462296,0.016237623989582062
1782829539811098600,1.3490986328125,-0.1824893355369568,0.04806435480713844,0.028234755620360374
1782829539821027600,1.359027587890625,-0.14657741785049438,0.07287488877773285,0.030818020924925804
1782829539830955500,1.36895556640625,-0.08144798874855042,0.11656684428453445,0.020327288657426834
1782829539840884500,1.378884521484375,-0.017669549211859703,0.17017735540866852,-0.005421483423560858
1782829539850813700,1.388813720703125,0.025485318154096603,0.18510374426841736,-0.03565207123756409
1782829539860741600,1.39874169921875,0.042576685547828674,0.13759827613830566,-0.061092182993888855
1782829539870670600,1.408670654296875,0.03943193331360817,0.07056385278701782,-0.07464171200990677
1782829539880598500,1.4185986328125,0.009395737200975418,0.01073114387691021,-0.06014319509267807
1782829539890527500,1.428527587890625,-0.0344734825193882,-0.026157520711421967,-0.035382114350795746
1782829539900455400,1.438455322265625,-0.08050169050693512,-0.04549872875213623,0.0017410200089216232
1782829539910384400,1.44838427734375,-0.11535649746656418,-0.028078537434339523,0.03180103749036789
1782829539920312300,1.458312255859375,-0.11915390938520432,0.012021477334201336,0.031243372708559036
1782829539930241500,1.468241455078125,-0.08661079406738281,0.04390620067715645,0.007846103049814701
1782829539940170500,1.47817041015625,-0.045577872544527054,0.05781722441315651,-0.008550181053578854
1782829539950098400,1.488098388671875,-0.024051906540989876,0.0425616055727005,-0.00990108773112297
1782829539960027400,1.49802734375,-0.020502446219325066,0.025737354531884193,0.005864560138434172
1782829539969955300,1.507955322265625,-0.012664057314395905,0.01744348742067814,0.019036386162042618
1782829539979884500,1.517884521484375,-0.00625782273709774,0.001569715328514576,0.026129715144634247
1782829539989812700,1.527812744140625,-0.0013740519061684608,-0.017181796953082085,0.03531651943922043
1782829539999741400,1.537741455078125,-0.02865414321422577,-0.07155422866344452,0.042271099984645844
1782829540009669600,1.547669677734375,-0.0664871484041214,-0.13937917351722717,0.04154149815440178
1782829540019598600,1.5575986328125,-0.09554357826709747,-0.15791237354278564,0.0348827950656414
1782829540029527600,1.567527587890625,-0.10814471542835236,-0.12306053936481476,0.015513269230723381
1782829540039455500,1.57745556640625,-0.09837384521961212,-0.0699525773525238,0.005920830648392439
1782829540049384700,1.587384765625,-0.0739760622382164,-0.032856158912181854,-0.01048776600509882
1782829540059312600,1.597312744140625,-0.046506091952323914,-0.008726056665182114,-0.02249489352107048
1782829540069241600,1.60724169921875,-0.010492095723748207,0.014613424427807331,-0.02209758758544922
1782829540079169500,1.61716943359375,0.02576497755944729,0.012630169279873371,-0.017079126089811325
1782829540089098500,1.627098388671875,0.06368906795978546,-0.013731031678617,-0.0035627279430627823
1782829540099026400,1.6370263671875,0.10240955650806427,-0.028645534068346024,0.02796883136034012
1782829540108955600,1.64695556640625,0.10954093933105469,-0.03345455974340439,0.06386911869049072
1782829540118884600,1.656884521484375,0.08821914345026016,-0.04272742196917534,0.10853539407253265
1782829540128812500,1.6668125,0.03922365978360176,-0.0318751260638237,0.13913558423519135
1782829540138741500,1.676741455078125,-0.017491284757852554,-0.03868216648697853,0.15868717432022095
1782829540148669400,1.68666943359375,-0.06311055272817612,-0.06382337212562561,0.15665481984615326
1782829540158599000,1.696598876953125,-0.07486867904663086,-0.09597225487232208,0.133512482047081
1782829540168526800,1.70652685546875,-0.05455654859542847,-0.11060160398483276,0.09697581082582474
1782829540178455800,1.716455810546875,-0.02796594798564911,-0.10439776629209518,0.054768968373537064
1782829540188383700,1.7263837890625,0.014011481776833534,-0.07852055132389069,0.028858955949544907
1782829540198312700,1.736312744140625,0.051392942667007446,-0.036138735711574554,0.017344512045383453
1782829540208240600,1.74624072265625,0.06594228744506836,-0.0066132331266999245,0.018274566158652306
1782829540218169900,1.756169921875,0.05379720777273178,0.0028332658112049103,0.016111811622977257
1782829540228098800,1.766098876953125,0.030989233404397964,-0.004505745600908995,0.01011631265282631
1782829540238026800,1.77602685546875,0.0201384499669075,-0.02556362748146057,0.01801045425236225
1782829540247955700,1.785955810546875,-0.0010660048574209213,-0.012214231304824352,0.04468159377574921
1782829540257884000,1.7958837890625,-0.03590334951877594,-0.014066459611058235,0.0750589370727539
1782829540267812600,1.8058125,-0.06625787913799286,-0.0256621353328228,0.08830612152814865
1782829540277741000,1.815740966796875,-0.08771443367004395,-0.054142244160175323,0.07287390530109406
1782829540287670000,1.825669921875,-0.08668661117553711,-0.06965574622154236,0.03828490152955055
1782829540297598700,1.8355986328125,-0.048815932124853134,-0.05385441333055496,-0.014052338898181915
1782829540307527000,1.84552685546875,0.0057789115235209465,-0.02116023190319538,-0.06063685938715935
1782829540317456000,1.855455810546875,0.0525384247303009,0.03500423952937126,-0.08193868398666382
1782829540327383800,1.8653837890625,0.06612991541624069,0.0847945511341095,-0.06886693090200424
1782829540337313000,1.87531298828125,0.04729045182466507,0.10574138164520264,-0.03996764495968819
1782829540347241000,1.885240966796875,0.013480634428560734,0.06997115910053253,-0.01087294239550829
1782829540357170000,1.895169921875,-0.008942382410168648,0.02747909352183342,0.01514827087521553
1782829540367097900,1.905097900390625,-0.022201918065547943,0.0017322106286883354,0.03717760741710663
1782829540377026800,1.91502685546875,-0.01891983672976494,-0.0030462993308901787,0.05517711117863655
1782829540386955800,1.924955810546875,0.002521093934774399,0.013808589428663254,0.049875471740961075
1782829540396883700,1.9348837890625,0.029958045110106468,0.01805819384753704,0.02313467487692833
1782829540406813000,1.94481298828125,0.05166129767894745,0.007326727733016014,-0.011111796833574772
1782829540416740900,1.954740966796875,0.060170095413923264,-0.008288983255624771,-0.029501190409064293
1782829540426669800,1.964669921875,0.06330560892820358,-0.013561761938035488,-0.024586759507656097
1782829540436597800,1.97459765625,0.05974709242582321,-0.021040983498096466,-0.01202356442809105
1782829540446526700,1.984526611328125,0.05742490291595459,-0.03608011454343796,-0.000045814551413059235
1782829540456454700,1.99445458984375,0.04562550038099289,-0.04723476245999336,0.022559896111488342
1782829540466384000,2.0043837890625,0.036438874900341034,-0.03926057368516922,0.044908348470926285
1782829540476312800,2.014312744140625,0.0310041606426239,0.008092028088867664,0.04616083204746246
1782829540486240800,2.02424072265625,0.010929499752819538,0.01219921838492155,0.017152931541204453
1782829540496169700,2.034169677734375,-0.0254942886531353,-0.0015317732468247414,-0.0333014540374279
1782829540506098000,2.044097900390625,-0.046943292021751404,0.005800961516797543,-0.07357361167669296
1782829540516026600,2.054026611328125,-0.04821495711803436,0.028602413833141327,-0.09785790741443634
1782829540525954800,2.063954833984375,-0.027899496257305145,0.0409582182765007,-0.09484431147575378
1782829540535883800,2.0738837890625,0.002075713127851486,0.0472792312502861,-0.06126025319099426
1782829540545812000,2.08381201171875,0.006961015984416008,0.025913221761584282,-0.024034587666392326
1782829540555741000,2.093740966796875,0.025843627750873566,-0.0032510533928871155,0.009789422154426575
1782829540565670000,2.103669921875,0.034283652901649475,-0.023394208401441574,0.028064070269465446
1782829540575597800,2.113597900390625,0.0302223302423954,-0.036341696977615356,0.03541971743106842
1782829540585527000,2.123527099609375,0.013944935984909534,-0.02345713973045349,0.04346738010644913
1782829540595455000,2.133455078125,-0.001150127500295639,0.018699366599321365,0.06586030125617981
1782829540605384000,2.143384033203125,-0.012596393935382366,0.05256439000368118,0.080171599984169
1782829540615312000,2.153311767578125,-0.031085655093193054,0.03389722853899002,0.07728846371173859
1782829540625240800,2.16324072265625,-0.022468922659754753,0.027307020500302315,0.05219424143433571
1782829540635168800,2.173168701171875,0.0000699404627084732,0.05599991977214813,0.021957509219646454
1782829540645097700,2.18309765625,0.01966928131878376,0.05901626870036125,-0.009341343306005001
1782829540655027000,2.19302685546875,0.022748693823814392,0.013715630397200584,-0.04003534093499184
1782829540664955000,2.202954833984375,0.022210674360394478,-0.03981053829193115,-0.04443778842687607
1782829540674883800,2.2128837890625,0.018592771142721176,-0.043558672070503235,-0.009777015075087547
1782829540684811800,2.222811767578125,-0.0006336234509944916,-0.014793717302381992,0.029768982902169228
1782829540694740700,2.23274072265625,-0.026033520698547363,-0.013119388371706009,0.04355297237634659
1782829540704668700,2.242668701171875,-0.032521314918994904,-0.01623533107340336,0.03511356934905052
1782829540714598000,2.252597900390625,-0.02773241512477398,-0.005075886379927397,0.012642085552215576
1782829540724525800,2.26252587890625,-0.010481111705303192,-0.012277244590222836,-0.020290935412049294
1782829540734454800,2.272454833984375,0.007712805178016424,-0.03279396891593933,-0.04880353808403015
1782829540744383700,2.2823837890625,0.023052627220749855,-0.03572961315512657,-0.05819946527481079
1782829540754311700,2.292311767578125,0.031417615711688995,-0.029805678874254227,-0.04972821846604347
1782829540764240600,2.30224072265625,0.02915138006210327,-0.03693263977766037,-0.039158809930086136
1782829540774168800,2.3121689453125,0.01866624876856804,-0.06131787598133087,-0.04915977641940117
1782829540784097800,2.322097900390625,0.0156579427421093,-0.06058177724480629,-0.04976963996887207
1782829540794026000,2.33202587890625,0.020256688818335533,0.014803257770836353,-0.028029993176460266
1782829540803955000,2.341954833984375,0.020084887742996216,0.06444519758224487,0.005115239880979061
1782829540813884000,2.3518837890625,0.023044459521770477,0.0808769017457962,0.029359590262174606
1782829540823811800,2.361811767578125,0.012208188883960247,0.05088477209210396,0.051270291209220886
1782829540833741000,2.371740966796875,-0.007745012640953064,0.00982735026627779,0.05602269992232323
1782829540843669000,2.3816689453125,-0.03083696961402893,-0.0077722808346152306,0.04603878781199455
1782829540853598000,2.391597900390625,-0.03997454419732094,-0.022379985079169273,0.015422554686665535
1782829540863526000,2.40152587890625,-0.03465097397565842,-0.032103974372148514,-0.019106825813651085
1782829540873454800,2.411454833984375,-0.023104574531316757,0.006352073512971401,-0.03349827975034714
1782829540883382800,2.4213828125,-0.010791169479489326,0.046369221061468124,-0.03353399783372879
1782829540893311700,2.431311767578125,-0.0013499967753887177,0.05752360448241234,-0.025427337735891342
1782829540903241000,2.441240966796875,0.0041218590922653675,0.04413603991270065,-0.014904833398759365
1782829540913169000,2.4511689453125,0.011513462290167809,0.029878541827201843,-0.015404975041747093
1782829540923097900,2.461097900390625,0.02264820784330368,0.006988744251430035,-0.01740477792918682
1782829540933025800,2.47102587890625,0.030861129984259605,-0.022296972572803497,0.0008136401884257793
1782829540942954800,2.480954833984375,0.03172679990530014,-0.0355711355805397,0.02884703315794468
1782829540952882700,2.490882568359375,0.028760306537151337,-0.01827443577349186,0.05564722418785095
1782829540962812000,2.50081201171875,0.02968568354845047,-0.004523784387856722,0.06501041352748871
1782829540972739800,2.51073974609375,0.023086637258529663,-0.0032441355288028717,0.06375712901353836
1782829540982668800,2.520668701171875,0.012928339652717113,-0.0025804080069065094,0.045582085847854614
1782829540992597800,2.53059765625,0.004229923244565725,-0.00593998609110713,0.014065438881516457
1782829541002525700,2.540525634765625,-0.0008118655532598495,0.006431674584746361,-0.009691685438156128
1782829541012454700,2.55045458984375,-0.0023461123928427696,0.019628968089818954,-0.01992275007069111
1782829541022382800,2.5603828125,0.0022834865376353264,0.027298446744680405,-0.032483842223882675
1782829541032311800,2.570311767578125,0.011446358636021614,0.00877110380679369,-0.040436040610075
1782829541042240000,2.580239990234375,0.004970769863575697,-0.021816018968820572,-0.04404980689287186
1782829541052169000,2.5901689453125,-0.012149628251791,-0.06447160243988037,-0.03701959177851677
1782829541062097000,2.600096923828125,-0.025039248168468475,-0.0832577794790268,-0.020791687071323395
1782829541072025900,2.61002587890625,-0.04803511127829552,-0.07788644731044769,-0.0060454984195530415
1782829541081955000,2.619955078125,-0.06302596628665924,-0.054731033742427826,-0.003790934570133686
1782829541091883000,2.629883056640625,-0.051010049879550934,-0.022789616137742996,-0.014941057190299034
1782829541101812000,2.63981201171875,-0.019473694264888763,0.004432684741914272,-0.018392514437437057
1782829541111740000,2.649739990234375,0.016910146921873093,0.034570880234241486,0.0010102116502821445
1782829541121668900,2.6596689453125,0.04362262412905693,0.04605764150619507,0.023858368396759033
1782829541131596800,2.6695966796875,0.0534273199737072,0.022673754021525383,0.044990550726652145
1782829541141525800,2.67952587890625,0.04507583752274513,-0.016716044396162033,0.06883468478918076
1782829541151455000,2.689455078125,0.021557996049523354,-0.03848791867494583,0.08669198304414749
1782829541161383000,2.6993828125,0.00046449340879917145,-0.05700667202472687,0.08653561025857925
1782829541171311900,2.709311767578125,-0.017390668392181396,-0.055481214076280594,0.06366198509931564
1782829541181239800,2.71923974609375,-0.024442967027425766,-0.028025951236486435,0.020376786589622498
1782829541191168800,2.729168701171875,-0.02350553497672081,0.005156237632036209,-0.025893770158290863
1782829541201096700,2.7390966796875,-0.022161100059747696,0.02868267148733139,-0.055737726390361786
1782829541211026000,2.74902587890625,-0.02254033461213112,0.03247128427028656,-0.05484237149357796
1782829541220953900,2.758953857421875,-0.0184293482452631,0.021211300045251846,-0.03618179261684418
1782829541230882800,2.7688828125,-0.009458223357796669,0.012120331637561321,0.003636459819972515
1782829541240811800,2.778811767578125,-0.0003962600603699684,-0.003842993639409542,0.0337267741560936
1782829541250739700,2.78873974609375,0.00699268002063036,-0.030663423240184784,0.047805577516555786
1782829541260668700,2.798668701171875,0.014075024984776974,-0.029639769345521927,0.05709950998425484
1782829541270596900,2.808596923828125,0.01155168004333973,-0.006336577236652374,0.057931218296289444
1782829541280525800,2.81852587890625,-0.004831986501812935,-0.004961090628057718,0.05310225859284401
1782829541290454000,2.8284541015625,-0.01612831838428974,-0.004002352245151997,0.03967086970806122
1782829541300383000,2.838383056640625,-0.02646120823919773,0.0029421215876936913,0.023944472894072533
1782829541310311000,2.848310791015625,-0.03351832181215286,-0.002614031545817852,-0.003535088151693344
1782829541320239900,2.858239990234375,-0.026985418051481247,-0.017430759966373444,-0.03150641918182373
1782829541330168800,2.8681689453125,-0.0007514180615544319,0.019132841378450394,-0.038099609315395355
1782829541340097000,2.878096923828125,0.02352081798017025,0.060780130326747894,-0.016457894816994667
1782829541350026000,2.88802587890625,0.028303056955337524,0.06824976205825806,0.011409688740968704
1782829541359954000,2.897953857421875,0.02102642133831978,0.01692795567214489,0.03245219215750694
1782829541369883000,2.9078828125,0.025829432532191277,-0.026498347520828247,0.04510966315865517
1782829541379810800,2.917810791015625,0.0280148945748806,-0.02903229370713234,0.04475327953696251
1782829541389739800,2.92773974609375,0.0386747308075428,-0.012412039563059807,0.03419411554932594
1782829541399669000,2.9376689453125,0.032888904213905334,-0.008704333566129208,0.018647775053977966
1782829541409597000,2.947596923828125,0.012303469702601433,-0.011532610282301903,-0.00020634103566408157
1782829541419526000,2.95752587890625,-0.009406852535903454,-0.007248485926538706,-0.016596045345067978
1782829541429453800,2.967453857421875,-0.024912841618061066,-0.015584180131554604,-0.03404773771762848
1782829541439382800,2.9773828125,-0.03595243766903877,-0.0140225226059556,-0.04522157832980156
1782829541449310700,2.987310791015625,-0.031015999615192413,-0.000967441126704216,-0.04096238687634468
1782829541459240000,2.997239990234375,-0.01820487156510353,0.016641933470964432,-0.03712156042456627
1782829541469167900,3.00716796875,0.0015834812074899673,0.02198183909058571,-0.024886731058359146
1782829541479096800,3.017096923828125,0.008930934593081474,0.021638376638293266,-0.00012920843437314034
1782829541489025800,3.02702587890625,0.00863425899296999,0.006469279527664185,0.028680868446826935
1782829541498953700,3.03695361328125,0.006451093591749668,-0.0026904111728072166,0.04586028680205345
1782829541508882700,3.046882568359375,-0.001270475797355175,-0.01573537290096283,0.04820120707154274
1782829541518810600,3.056810546875,0.004301575943827629,-0.01099204272031784,0.024732699617743492
1782829541528739800,3.06673974609375,0.015959031879901886,0.012792116962373257,-0.006770364940166473
1782829541538668000,3.07666796875,0.02065267413854599,0.037730228155851364,-0.025114834308624268
1782829541548596700,3.0865966796875,0.010984334163367748,0.036107033491134644,-0.018947485834360123
1782829541558525700,3.096525634765625,-0.0028712814673781395,0.010395501740276814,0.0054960404522717
1782829541568454000,3.106453857421875,-0.012159322388470173,-0.026526829227805138,0.021838529035449028
1782829541578382800,3.1163828125,-0.026116929948329926,-0.05825313180685043,0.021693605929613113
1782829541588311000,3.12631103515625,-0.02120233327150345,-0.05652900040149689,0.021102651953697205
1782829541598240000,3.136239990234375,-0.0027667125687003136,-0.006590124685317278,0.028617702424526215
1782829541608168000,3.14616796875,0.007282726000994444,0.025588316842913628,0.036206383258104324
1782829541618097000,3.156096923828125,0.00934651680290699,0.041443657130002975,0.03979033604264259
1782829541628024800,3.16602490234375,0.008824003860354424,0.03767288476228714,0.031372349709272385
1782829541637953800,3.175953857421875,-0.0019364915788173676,0.017425917088985443,0.018475176766514778
1782829541647883000,3.185883056640625,-0.021310724318027496,-0.021485794335603714,-0.01708042062819004
1782829541657811000,3.19581103515625,-0.0284755676984787,-0.0439523309469223,-0.05910889059305191
1782829541667740000,3.205739990234375,-0.020795274525880814,-0.019645659253001213,-0.0729765072464943
1782829541677667800,3.215667724609375,-0.01847931742668152,0.009443564340472221,-0.0632549524307251
1782829541687596800,3.2255966796875,-0.016912847757339478,0.014963498339056969,-0.04383624345064163
1782829541697524700,3.235524658203125,-0.0049377139657735825,0.007660961709916592,-0.018713874742388725
1782829541707453700,3.24545361328125,0.009555740281939507,-0.0029749050736427307,0.002672108355909586
1782829541717383000,3.2553828125,0.02265835925936699,-0.02135510742664337,0.012199226766824722
1782829541727310800,3.265310791015625,0.02440166473388672,-0.03999697044491768,0.013460500165820122
1782829541737239800,3.27523974609375,0.017910754308104515,-0.024345077574253082,0.021037694066762924
1782829541747167700,3.285167724609375,-0.00004986952990293503,0.005621875636279583,0.028447140008211136
1782829541757096700,3.2950966796875,-0.013711540028452873,0.030706748366355896,0.031222620978951454
1782829541767024600,3.305024658203125,-0.013361599296331406,0.037139877676963806,0.015108365565538406
1782829541776953900,3.314953857421875,0.002088143490254879,0.03334956243634224,-0.01283724419772625
1782829541786882000,3.324882080078125,0.019586710259318352,0.020540554076433182,-0.043617792427539825
1782829541796810800,3.334810791015625,0.029351109638810158,0.0036832503974437714,-0.04865190014243126
1782829541806739700,3.34473974609375,0.025365423411130905,-0.01672721654176712,-0.03705516457557678
1782829541816668000,3.35466796875,0.02467527613043785,-0.014538267627358437,-0.009014046750962734
1782829541826596900,3.364596923828125,0.027828194200992584,0.001567731611430645,0.028357557952404022
1782829541836524800,3.37452490234375,0.0218961164355278,0.004833224229514599,0.04848824813961983
1782829541846454000,3.3844541015625,0.0249643437564373,-0.006777625065296888,0.0501074492931366
1782829541856382000,3.3943818359375,0.02092713862657547,-0.02744872123003006,0.027595113962888718
1782829541866311000,3.404310791015625,0.00707284128293395,-0.03676499053835869,0.005212841555476189
1782829541876240000,3.414239990234375,-0.0024143634364008904,-0.041016586124897,-0.015809711068868637
1782829541886167800,3.424167724609375,-0.00975483376532793,-0.04079527407884598,-0.04115235060453415
1782829541896097000,3.434096923828125,0.0001635560765862465,-0.012184605933725834,-0.055324848741292953
1782829541906025000,3.44402490234375,0.01844615675508976,0.029959388077259064,-0.04676811397075653
1782829541915954000,3.453953857421875,0.04431885480880737,0.05613746866583824,-0.020346976816654205
1782829541925881900,3.4638818359375,0.059128958731889725,0.05041726306080818,0.003006814979016781
1782829541935810800,3.473810791015625,0.05722685530781746,0.025324642658233643,0.03054741583764553
1782829541945739800,3.48373974609375,0.04661975055932999,0.0031511643901467323,0.052360568195581436
1782829541955667700,3.493667724609375,0.030821815133094788,-0.02252044714987278,0.05560753494501114
1782829541965597000,3.503596923828125,0.01644607074558735,-0.04437568038702011,0.045284055173397064
1782829541975524900,3.51352490234375,0.0029475390911102295,-0.051170624792575836,0.0267445370554924
1782829541985453800,3.523453857421875,-0.005890692584216595,-0.05095677822828293,0.0023553073406219482
1782829541995381800,3.5333818359375,-0.006000458262860775,-0.035951875150203705,-0.0221848301589489
1782829542005310700,3.543310791015625,0.007085782941430807,0.013583186082541943,-0.033353596925735474
1782829542015238700,3.55323876953125,0.018722448498010635,0.05317885801196098,-0.025110384449362755
1782829542025168000,3.56316796875,0.019518200308084488,0.042350441217422485,-0.019597109407186508
1782829542035096800,3.573096923828125,0.013239504769444466,0.010654116049408913,-0.006872196216136217
1782829542045024800,3.583024658203125,0.005215134471654892,-0.02334779128432274,0.011007200926542282
1782829542054953700,3.59295361328125,-0.0033154962584376335,-0.029838737100362778,0.026568569242954254
1782829542064882000,3.6028818359375,0.008761405944824219,-0.006494531407952309,0.04436780512332916
1782829542074810600,3.612810546875,0.020752375945448875,0.021754425019025803,0.055070698261260986
1782829542084738800,3.62273876953125,0.02565152570605278,0.02348414808511734,0.06113152205944061
1782829542094668000,3.63266796875,0.019253773614764214,-0.011606341227889061,0.052162885665893555
1782829542104596700,3.6425966796875,0.0039712232537567616,-0.0341167114675045,0.04193528741598129
1782829542114525000,3.65252490234375,-0.011324161663651466,-0.040183231234550476,0.028008287772536278
1782829542124454000,3.662453857421875,-0.01916317641735077,-0.01632503606379032,0.017875760793685913
1782829542134381800,3.6723818359375,-0.02059035189449787,0.02124892733991146,-0.000018848106265068054
1782829542144311000,3.68231103515625,-0.020864391699433327,0.044613637030124664,-0.012614002451300621
1782829542154239000,3.692239013671875,-0.020694421604275703,0.05012514069676399,-0.019426390528678894
1782829542164167700,3.702167724609375,-0.022751977667212486,0.02946087345480919,-0.011289633810520172
1782829542174095600,3.712095703125,-0.026039738208055496,-0.005767693277448416,0.010754499584436417
1782829542184024600,3.722024658203125,-0.027075976133346558,-0.020962093025445938,0.036137618124485016
1782829542193953500,3.73195361328125,-0.02631719782948494,-0.013826277107000351,0.047392312437295914
1782829542203881500,3.741881591796875,-0.015180657617747784,0.01298696082085371,0.0350930355489254
1782829542213810700,3.751810791015625,-0.004880577325820923,0.03593850135803223,0.012473768554627895
1782829542223738600,3.761738525390625,0.007627757266163826,0.035200539976358414,-0.012820137664675713
1782829542233667600,3.77166748046875,0.00012359488755464554,-0.007729364093393087,-0.03421660512685776
1782829542243595500,3.781595458984375,-0.011583928018808365,-0.05455945432186127,-0.03923852741718292
1782829542253524500,3.7915244140625,-0.024235285818576813,-0.08245735615491867,-0.03078828752040863
1782829542263453400,3.801453369140625,-0.03572922199964523,-0.08465473353862762,-0.017580606043338776
1782829542273381600,3.811381591796875,-0.035517409443855286,-0.05903646722435951,-0.0076178195886313915
1782829542283310600,3.821310546875,-0.025342270731925964,-0.026741910725831985,-0.00024379277601838112
1782829542293238500,3.831238525390625,-0.013742418959736824,0.0017621424049139023,0.005743860732764006
1782829542303167500,3.84116748046875,-0.0060884952545166016,0.016872119158506393,-0.0003720889799296856
1782829542313095700,3.851095703125,0.006287215277552605,0.014429999515414238,-0.0013313596136868
1782829542323024400,3.8610244140625,0.008497105911374092,0.00007582828402519226,-0.0017689168453216553
1782829542332953600,3.87095361328125,0.011545920744538307,-0.012856031768023968,0.004432191606611013
1782829542342881800,3.8808818359375,0.011112358421087265,-0.024434655904769897,0.011842170730233192
1782829542352810500,3.890810546875,0.007320369593799114,-0.04956530034542084,0.008803155273199081
1782829542362738700,3.90073876953125,-0.00654777605086565,-0.06699755787849426,-0.0008169827051460743
1782829542372667600,3.910667724609375,-0.00835866667330265,-0.03234335035085678,-0.007313785143196583
1782829542382595600,3.920595703125,-0.004106663167476654,0.02217714861035347,-0.013779673725366592
1782829542392524500,3.930524658203125,-0.0018825065344572067,0.05177266150712967,-0.019514113664627075
1782829542402453800,3.940453857421875,0.0007737306877970695,0.04791400954127312,-0.01900252141058445
1782829542412381700,3.950381591796875,0.00651205237954855,0.03201118856668472,0.001844421960413456
1782829542422310700,3.960310546875,0.013234935700893402,0.01714356243610382,0.03970392048358917
1782829542432238600,3.970238525390625,0.021313035860657692,0.0008042026311159134,0.06632358580827713
1782829542442167600,3.98016748046875,0.02991051971912384,-0.018400117754936218,0.07503025978803635
1782829542452095500,3.990095458984375,0.03222639113664627,-0.025546669960021973,0.059559982270002365
1782829542462024700,4.000024658203125,0.02969798631966114,-0.019183313474059105,0.03159945458173752
1782829542471952600,4.00995263671875,0.012109317816793919,-0.025522176176309586,0.001011537853628397
1782829542481881600,4.019881591796875,-0.009287850931286812,-0.02393413335084915,-0.016769856214523315
1782829542491810600,4.029810546875,-0.016181975603103638,-0.0029383040964603424,-0.01565052941441536
1782829542501738500,4.039738525390625,-0.011838093400001526,0.024858172982931137,-0.0005544009618461132
1782829542511667500,4.04966748046875,-0.007025041617453098,0.03325589373707771,0.006703048013150692
1782829542521595400,4.059595458984375,0.010497226379811764,0.041328731924295425,0.013501831330358982
1782829542531524600,4.069524658203125,0.02267584204673767,0.043103791773319244,0.02795698307454586
1782829542541452500,4.07945263671875,0.023069191724061966,0.021119127050042152,0.0366348922252655
1782829542551381500,4.089381591796875,0.020817235112190247,0.002976836636662483,0.04899752140045166
1782829542561310500,4.099310546875,0.016278941184282303,-0.021791093051433563,0.052037518471479416
1782829542571238400,4.10923828125,0.01173657551407814,-0.026922766119241714,0.03881606087088585
1782829542581167600,4.119167724609375,0.01335764117538929,-0.026972301304340363,0.006460783537477255
1782829542591095800,4.129095703125,0.01135236769914627,-0.005500823259353638,-0.020700346678495407
1782829542601024500,4.1390244140625,0.00398979289457202,0.011320767924189568,-0.03431016579270363
1782829542610952700,4.14895263671875,-0.013991144485771656,0.010932697914540768,-0.035963669419288635
1782829542620881700,4.158881591796875,-0.0243268720805645,-0.006799694150686264,-0.032294098287820816
1782829542630810600,4.168810546875,-0.013431569561362267,-0.01272137463092804,-0.02749534137547016
1782829542640738600,4.178738525390625,-0.0002664998173713684,-0.01200098916888237,-0.007491007447242737
1782829542650667800,4.188667724609375,0.011553609743714333,-0.01556516345590353,0.011347166262567043
1782829542660595700,4.198595703125,0.02219586819410324,-0.009055598638951778,0.027154892683029175
1782829542670524700,4.208524658203125,0.017774127423763275,-0.02680129185318947,0.03274496644735336
1782829542680452600,4.21845263671875,-0.0004935599863529205,-0.046461813151836395,0.029123865067958832
1782829542690381600,4.228381591796875,-0.020681176334619522,-0.05482875183224678,0.026324903592467308
1782829542700310800,4.238310791015625,-0.03048453852534294,-0.057687923312187195,0.01617027260363102
1782829542710238700,4.24823876953125,-0.03124181181192398,-0.05141524598002434,0.0061319442465901375
1782829542720167700,4.258167724609375,-0.030384276062250137,-0.026314154267311096,-0.004653592128306627
1782829542730095600,4.268095703125,-0.02455424889922142,-0.0076909675262868404,-0.019389774650335312
1782829542740024600,4.278024658203125,-0.013533554971218109,0.03290120139718056,-0.030117787420749664
1782829542749952500,4.287952392578125,-0.0042983731254935265,0.04690367355942726,-0.028473375365138054
1782829542759881500,4.297881591796875,-0.0012852735817432404,0.03806757181882858,-0.0029155518859624863
1782829542769809400,4.307809326171875,-0.012490381486713886,0.029119204729795456,0.025176599621772766
1782829542779738600,4.317738525390625,-0.027479447424411774,-0.009358678013086319,0.036535512655973434
1782829542789667600,4.32766748046875,-0.05037958174943924,-0.034855104982852936,0.028494570404291153
1782829542799595500,4.337595458984375,-0.07618881016969681,-0.05198828503489494,-0.007909511215984821
1782829542809524500,4.3475244140625,-0.0838150829076767,-0.05222354084253311,-0.05674947798252106
1782829542819452400,4.357452392578125,-0.0657026618719101,-0.01635742001235485,-0.08952740579843521
1782829542829381600,4.367381591796875,-0.05063440278172493,0.00987416971474886,-0.08143841475248337
1782829542839309600,4.3773095703125,-0.035567570477724075,0.028530411422252655,-0.045672960579395294
1782829542849238500,4.387238525390625,-0.02121388167142868,0.015726834535598755,-0.005943664815276861
1782829542859167500,4.39716748046875,-0.007102588191628456,-0.017802629619836807,0.03194060176610947
1782829542869095700,4.407095703125,0.00204425398260355,-0.04523036256432533,0.05387866124510765
1782829542879024400,4.4170244140625,0.015925448387861252,-0.052277885377407074,0.06020579859614372
1782829542888952600,4.42695263671875,0.018388021737337112,-0.02671832963824272,0.05461753159761429
1782829542898881800,4.4368818359375,0.006231490056961775,0.014380371198058128,0.045279424637556076
1782829542908809700,4.446809814453125,-0.016159316524863243,0.03791159763932228,0.022631831467151642
1782829542918738700,4.45673876953125,-0.04197387024760246,0.03813024237751961,-0.007537521421909332
1782829542928667600,4.466667724609375,-0.056386496871709824,0.031413063406944275,-0.040149886161088943
1782829542938595600,4.476595703125,-0.04871898889541626,0.014743804931640625,-0.05578557029366493
1782829542948524500,4.486524658203125,-0.021171946078538895,-0.000986986793577671,-0.05147083103656769
1782829542958452700,4.49645263671875,0.00774039514362812,-0.03278672695159912,-0.019729144871234894
1782829542968381700,4.506381591796875,0.041256990283727646,-0.04248037189245224,0.03567187860608101
1782829542978309600,4.5163095703125,0.04761075973510742,-0.04104732722043991,0.08019273728132248
1782829542988238600,4.526238525390625,0.04696153476834297,-0.04193141311407089,0.08802853524684906
1782829542998167600,4.53616748046875,0.029352981597185135,-0.0323653370141983,0.05694758519530296
1782829543008095500,4.546095458984375,0.0029283715412020683,-0.013967912644147873,0.009959248825907707
1782829543018024700,4.556024658203125,-0.03031613491475582,-0.002504868432879448,-0.029644086956977844
1782829543027952600,4.56595263671875,-0.04989999905228615,0.006981990300118923,-0.07077528536319733
1782829543037881600,4.575881591796875,-0.041330479085445404,0.0300431028008461,-0.08341438323259354
1782829543047809500,4.5858095703125,-0.021923478692770004,0.0501461997628212,-0.06667564809322357
1782829543057738500,4.595738525390625,-0.0067096371203660965,0.03882803022861481,-0.031020447611808777
1782829543067667500,4.60566748046875,0.014042606577277184,0.009836047887802124,0.008954301476478577
1782829543077595600,4.615595703125,0.03069721721112728,-0.013563551008701324,0.051179785281419754
1782829543087524600,4.625524658203125,0.04292960464954376,-0.033917974680662155,0.07220553606748581
1782829543097452500,4.63545263671875,0.047222353518009186,-0.05526640638709068,0.0825929269194603
1782829543107381500,4.645381591796875,0.05389748886227608,-0.0461493656039238,0.06499030441045761
1782829543117309700,4.655309814453125,0.05860542505979538,-0.020030679181218147,0.032808128744363785
1782829543127238400,4.66523828125,0.0460621677339077,0.001017468050122261,-0.0003533107228577137
1782829543137167600,4.675167724609375,0.02722163312137127,-0.0006797639653086662,-0.032845474779605865
1782829543147095800,4.685095703125,0.009015675634145737,-0.020180070772767067,-0.05429152026772499
1782829543157024500,4.6950244140625,0.001042969524860382,-0.025776438415050507,-0.05179373919963837
1782829543166953500,4.704953369140625,0.009676224552094936,-0.005230410024523735,-0.037679072469472885
1782829543176882400,4.71488232421875,0.020176004618406296,0.004884541966021061,-0.014231536537408829
1782829543186810400,4.724810302734375,0.03467145189642906,0.012191347777843475,0.010888820514082909
1782829543196739600,4.734739501953125,0.04301965981721878,0.014120275154709816,0.03051365539431572
1782829543206668500,4.74466845703125,0.043927960097789764,-0.002518836408853531,0.03494821488857269
1782829543216596500,4.754596435546875,0.04550668224692345,-0.02839464321732521,0.037172749638557434
1782829543226525400,4.764525390625,0.0438578724861145,-0.05591483414173126,0.03263934329152107
1782829543236453600,4.77445361328125,0.044607825577259064,-0.06672460585832596,0.02499687299132347
1782829543246382600,4.784382568359375,0.04616830497980118,-0.06832795590162277,0.016715316101908684
1782829543256310800,4.794310791015625,0.02661724016070366,-0.06446264684200287,0.004301256965845823
1782829543266239700,4.80423974609375,0.0021833349019289017,-0.05605125427246094,-0.013022111728787422
1782829543276168700,4.814168701171875,-0.02039600908756256,-0.03121115081012249,-0.023858513683080673
1782829543286096600,4.8240966796875,-0.03161349520087242,0.0065652187913656235,-0.018537547439336777
1782829543296025600,4.834025634765625,-0.020998932421207428,0.03490152209997177,-0.010422363877296448
1782829543305953500,4.84395361328125,0.0024515222758054733,0.05308640003204346,0.004182959441095591
1782829543315882800,4.8538828125,0.027774455025792122,0.0561213418841362,0.023988354951143265
1782829543325810700,4.863810791015625,0.028453100472688675,0.012293210253119469,0.03863302618265152
1782829543335739600,4.87373974609375,0.026529766619205475,-0.03572651371359825,0.04465363547205925
1782829543345668600,4.883668701171875,0.016193008050322533,-0.046285245567560196,0.03966439142823219
1782829543355596500,4.893596435546875,0.007594992872327566,-0.009495273232460022,0.03205946832895279
1782829543365525500,4.903525390625,0.0050055296160280704,0.02542591467499733,0.014644045382738113
1782829543375453700,4.91345361328125,0.0009439429268240929,0.03519545495510101,-0.011093808338046074
1782829543385382700,4.923382568359375,0.007978761568665504,0.04467500001192093,-0.029615361243486404
1782829543395310600,4.933310546875,0.011660848744213581,0.03445405513048172,-0.035334501415491104
1782829543405239600,4.943239501953125,0.022137437015771866,0.004880509339272976,-0.029638752341270447
1782829543415168500,4.95316845703125,0.024282079190015793,-0.012007927522063255,-0.007635449059307575
1782829543425096400,4.963096435546875,0.02492421120405197,-0.027048543095588684,0.02047901600599289
1782829543435025700,4.973025634765625,0.01871771365404129,-0.03667720407247543,0.04093102738261223
1782829543444953600,4.98295361328125,0.007751119323074818,-0.024528753012418747,0.03812344744801521
1782829543454882600,4.992882568359375,0.0013912245631217957,0.005403047427535057,0.012198373675346375
1782829543464810500,5.002810546875,-0.003177788108587265,0.02892383188009262,-0.01629015989601612
1782829543474739500,5.012739501953125,-0.015373733825981617,0.044294267892837524,-0.04083971306681633
1782829543484668400,5.02266845703125,-0.014873089268803596,0.05444767326116562,-0.055752385407686234
1782829543494596600,5.0325966796875,-0.005662813782691956,0.03524654358625412,-0.05151449888944626
1782829543504525600,5.042525634765625,0.011329853907227516,0.030639484524726868,-0.020291611552238464
1782829543514453800,5.052453857421875,0.019509220495820045,0.0193982794880867,0.019910400733351707
1782829543524382500,5.062382568359375,0.016994521021842957,0.010085918009281158,0.04420971870422363
1782829543534310700,5.072310546875,0.02507854625582695,-0.0020919181406497955,0.055359847843647
1782829543544239600,5.082239501953125,0.032306231558322906,-0.013666976243257523,0.04753885045647621
1782829543554168600,5.09216845703125,0.03721657022833824,-0.027591045945882797,0.031314074993133545
1782829543564096800,5.1020966796875,0.034923337399959564,-0.026933548972010612,0.000262649729847908
1782829543574025700,5.112025634765625,0.019692186266183853,-0.018880415707826614,-0.02801399491727352
1782829543583953700,5.12195361328125,0.006415796931833029,0.001568666659295559,-0.04893099516630173
1782829543593882600,5.131882568359375,0.003429328091442585,0.02904902771115303,-0.053185127675533295
1782829543603810600,5.141810546875,-0.0030258940532803535,0.03900068998336792,-0.042493101209402084
1782829543613739500,5.151739501953125,0.00017256196588277817,0.017800595611333847,-0.02638869918882847
1782829543623668700,5.161668701171875,0.01577484980225563,0.007041208446025848,-0.006666530389338732
1782829543633596700,5.1715966796875,0.03569023311138153,0.01962970569729805,0.016440652310848236
1782829543643525600,5.181525634765625,0.03970617428421974,0.010547308251261711,0.0334024578332901
1782829543653453600,5.19145361328125,0.03932187706232071,-0.019888361915946007,0.04127556085586548
1782829543663382500,5.201382568359375,0.028197862207889557,-0.038507044315338135,0.05217389762401581
1782829543673310500,5.211310546875,0.016389938071370125,-0.04281284287571907,0.051129139959812164
1782829543683239700,5.22123974609375,0.01324142049998045,-0.010485948994755745,0.04372173547744751
1782829543693168600,5.231168701171875,0.014400694519281387,0.026994049549102783,0.02217090129852295
1782829543703096600,5.2410966796875,0.019517216831445694,0.04637422040104866,0.0026352601125836372
1782829543713025500,5.251025634765625,0.01840774528682232,0.0369919054210186,-0.009621672332286835
1782829543722953500,5.260953369140625,0.019981008023023605,0.026370786130428314,-0.018020575866103172
1782829543732882400,5.27088232421875,0.029185160994529724,0.010948686860501766,-0.016531869769096375
1782829543742810400,5.280810302734375,0.034975383430719376,0.004134019836783409,0.004497196525335312
1782829543752739600,5.290739501953125,0.0371147021651268,-0.004577978979796171,0.022100690752267838
1782829543762668500,5.30066845703125,0.043354373425245285,-0.01686014235019684,0.020395081490278244
1782829543772596500,5.310596435546875,0.03695239871740341,-0.006569954100996256,0.01520245149731636
1782829543782525400,5.320525390625,0.012588773854076862,-0.002202466130256653,0.009601214900612831
1782829543792452600,5.33045263671875,-0.006458686664700508,0.005875966511666775,0.003174206707626581
1782829543802381600,5.340381591796875,-0.014868524856865406,0.013286530040204525,-0.004324059933423996
1782829543812309500,5.3503095703125,-0.014040815643966198,0.02591923251748085,-0.0032007386907935143
1782829543822238700,5.36023876953125,-0.0041398657485842705,0.03715850040316582,0.0022884244099259377
1782829543832167700,5.370167724609375,0.0032554659992456436,0.0345962718129158,0.015284384600818157
1782829543842095600,5.380095703125,0.00045352522283792496,0.021261906251311302,0.02635999768972397
1782829543852024600,5.390024658203125,-0.0010290564969182014,0.004574006423354149,0.028025008738040924
1782829543861952500,5.399952392578125,-0.0004712548106908798,-0.0047887652181088924,0.01994994655251503
1782829543871881500,5.409881591796875,0.005890503991395235,-0.00022650416940450668,0.011022231541574001
1782829543881809700,5.4198095703125,0.011613870039582253,0.008149800822138786,0.001880374737083912
1782829543891738600,5.429738525390625,0.020546644926071167,0.011314434930682182,-0.007536296267062426
1782829543901667600,5.43966748046875,0.015012494288384914,0.006791619583964348,-0.008529274724423885
1782829543911595500,5.449595458984375,0.015959514304995537,0.01059514656662941,0.0020924764685332775
1782829543921524500,5.4595244140625,0.010856365785002708,0.006731698289513588,0.014114517718553543
1782829543931452400,5.469452392578125,0.0016618017107248306,-0.006551083642989397,0.019589444622397423
1782829543941381600,5.479381591796875,-0.006527857854962349,-0.007687200792133808,0.019912652671337128
1782829543951309600,5.4893095703125,-0.01050289161503315,0.0017499765381217003,0.01403399184346199
1782829543961238500,5.499238525390625,-0.012158320285379887,0.013288939371705055,0.004364335909485817
1782829543971167500,5.50916748046875,-0.006492710672318935,0.028813304379582405,0.004937714897096157
1782829543981095700,5.519095703125,-0.005943965166807175,0.034782618284225464,0.0025951056741178036
1782829543991024400,5.5290244140625,-0.008714983239769936,0.009525996632874012,-0.006701989099383354
1782829544000952600,5.53895263671875,-0.006571258418262005,-0.02360200323164463,-0.019474448636174202
1782829544010881500,5.548881591796875,-0.003995981998741627,-0.03588317334651947,-0.03558630496263504
1782829544020809700,5.558809814453125,-0.0020046373829245567,-0.030931588262319565,-0.032707542181015015
1782829544030738700,5.56873876953125,-0.0008597448468208313,-0.025923514738678932,-0.03393712639808655
1782829544040667600,5.578667724609375,-0.0003221603110432625,-0.02036091685295105,-0.034013427793979645
1782829544050595600,5.588595703125,0.0003007529303431511,-0.02047916129231453,-0.03599055856466293
1782829544060524800,5.59852490234375,0.0011175163090229034,-0.030011072754859924,-0.030667105689644814
1782829544070452700,5.60845263671875,-0.00025161541998386383,-0.021758735179901123,-0.012567197903990746
1782829544080381700,5.618381591796875,0.006575132254511118,-0.0022151293233036995,0.002294040285050869
1782829544090309600,5.6283095703125,0.0021662693470716476,0.024155758321285248,0.019200319424271584
1782829544100238600,5.638238525390625,0.001278507523238659,0.048855919390916824,0.02135515958070755
1782829544110167600,5.64816748046875,-0.00060993991792202,0.05462432652711868,0.017648039385676384
1782829544120095500,5.658095458984375,-0.014306065626442432,0.025731481611728668,-0.00272403284907341
1782829544130024700,5.668024658203125,-0.016645651310682297,-0.004736411850899458,-0.011701814830303192
1782829544139952600,5.67795263671875,-0.012993019074201584,-0.02427288144826889,-0.006092528346925974
1782829544149881600,5.687881591796875,0.0016580959782004356,-0.03179897367954254,0.014722738415002823
1782829544159809000,5.69780908203125,0.00601925840601325,-0.01800239086151123,0.03525098040699959
1782829544169738000,5.707738037109375,0.012937618419528008,-0.008625400252640247,0.04807383194565773
1782829544179667000,5.7176669921875,0.02033454179763794,-0.011309848167002201,0.040264926850795746
1782829544189595000,5.727594970703125,0.020326819270849228,-0.012149276211857796,0.019001450389623642
1782829544199523800,5.73752392578125,0.011948887258768082,-0.011553311720490456,-0.0053634075447916985
1782829544209452000,5.7474521484375,-0.003975218161940575,-0.011381004936993122,-0.020125309005379677
1782829544219381000,5.757381103515625,-0.02594512514770031,-0.004599051084369421,-0.024638963863253593
1782829544229309200,5.76730908203125,-0.04122447967529297,0.011722663417458534,-0.02051878720521927
1782829544239238100,5.777238037109375,-0.030199114233255386,0.03652743622660637,-0.023229993879795074
1782829544249166800,5.787166748046875,-0.00813908502459526,0.05128001794219017,-0.023872878402471542
1782829544259095000,5.797094970703125,0.008706928230822086,0.04677765071392059,-0.010680576786398888
1782829544269024000,5.80702392578125,0.015034599229693413,0.016988597810268402,0.009855058044195175
1782829544278952200,5.8169521484375,0.018969152122735977,-0.014662273228168488,0.02492482215166092
1782829544288881200,5.826881103515625,0.015259901992976665,-0.032393597066402435,0.041623372584581375
1782829544298809000,5.83680908203125,0.004845531657338142,-0.044673461467027664,0.04548449441790581
1782829544308738000,5.846738037109375,0.0017285682260990143,-0.031163513660430908,0.039222601801157
1782829544318667000,5.8566669921875,0.00469112629070878,0.011430635116994381,0.027916397899389267
1782829544328595000,5.866594970703125,0.0127346720546484,0.03614130988717079,0.006324285641312599
1782829544338524200,5.876524169921875,0.01876363530755043,0.040359724313020706,-0.011477196589112282
1782829544348452000,5.8864521484375,0.009687582030892372,0.036017972975969315,-0.023730400949716568
1782829544358381000,5.896381103515625,0.007173558231443167,0.003937535919249058,-0.03648028522729874
1782829544368310000,5.90631005859375,0.008019644767045975,-0.019227970391511917,-0.03834476321935654
1782829544378238000,5.916238037109375,0.009476250037550926,-0.028596796095371246,-0.026883209124207497
1782829544388167000,5.9261669921875,0.01690034382045269,-0.025569314137101173,-0.020089486613869667
1782829544398094800,5.9360947265625,0.023201463744044304,-0.015270844101905823,-0.00941933412104845
1782829544408024000,5.946024169921875,0.020924195647239685,-0.009676874615252018,-0.0018913769163191319
1782829544417952000,5.955951904296875,0.016943790018558502,-0.00474352203309536,0.010200532153248787
1782829544427881000,5.965880859375,0.02583262324333191,0.01090308092534542,0.009989341720938683
1782829544437813000,5.97581298828125,0.03227773308753967,0.009925453923642635,0.0015231692232191563
1782829544447741000,5.985740966796875,0.03883656486868858,0.007255100645124912,-0.01335830893367529
1782829544457670000,5.995669921875,0.03543124347925186,-0.007288627326488495,-0.02161308191716671
1782829544467598000,6.00559814453125,0.01567937806248665,-0.022875308990478516,-0.023101523518562317
1782829544477526800,6.01552685546875,0.0013424530625343323,-0.02618754282593727,-0.02121995948255062
1782829544487456000,6.0254560546875,-0.015833072364330292,-0.03407928720116615,-0.020707568153738976
1782829544497384200,6.03538427734375,-0.023421991616487503,-0.025258153676986694,-0.025132987648248672
1782829544507313000,6.04531298828125,-0.013803987763822079,0.014197376556694508,-0.028801491484045982
1782829544517241000,6.055240966796875,0.0031494079157710075,0.04429887235164642,-0.0355411097407341
1782829544527170000,6.065170166015625,0.01721489243209362,0.03699488937854767,-0.03921014815568924
1782829544537099000,6.07509912109375,0.01875491999089718,0.011505216360092163,-0.018599340692162514
1782829544547027200,6.085027099609375,0.005805831402540207,-0.01962287537753582,0.012977493926882744
1782829544556956200,6.0949560546875,-0.01140863262116909,-0.03687358275055885,0.028992168605327606
1782829544566884000,6.104884033203125,-0.023221082985401154,-0.004908725153654814,0.03306787088513374
1782829544576813000,6.11481298828125,-0.020319664850831032,0.04235734045505524,0.009667837992310524
1782829544586741000,6.124740966796875,-0.018076216802001,0.08082883059978485,-0.022701285779476166
1782829544596670000,6.134669921875,-0.021942121908068657,0.0854993611574173,-0.05769962817430496
1782829544606599200,6.14459912109375,-0.03613729774951935,0.08619631081819534,-0.06776504963636398
1782829544616527000,6.154527099609375,-0.05382845923304558,0.07987412065267563,-0.06070554628968239
1782829544626456000,6.1644560546875,-0.06252474337816238,0.06637641787528992,-0.05265960469841957
1782829544636384000,6.174384033203125,-0.057815566658973694,0.05197858065366745,-0.044550977647304535
1782829544646313000,6.18431298828125,-0.04754668474197388,0.011590945534408092,-0.03731170669198036
1782829544656241000,6.194240966796875,-0.030486812815070152,-0.030789578333497047,-0.03664479777216911
1782829544666170000,6.204170166015625,-0.011969055980443954,-0.06309531629085541,-0.032214630395174026
1782829544676099000,6.21409912109375,0.00020387955009937286,-0.08241623640060425,-0.027718286961317062
1782829544686027000,6.224027099609375,0.0024337442591786385,-0.08118133246898651,-0.028736146166920662
1782829544695956000,6.2339560546875,0.007267857436090708,-0.06276325136423111,-0.019301343709230423
1782829544705884000,6.2438837890625,0.0016011828556656837,-0.02473970502614975,-0.015981711447238922
1782829544715812900,6.253812744140625,0.000005999580025672913,0.004119206219911575,-0.00763990031555295
1782829544725740800,6.26374072265625,-0.0016036154702305794,0.02604021690785885,-0.0008666827343404293
1782829544735670000,6.273669921875,-0.007338544353842735,0.0382036492228508,-0.020004622638225555
1782829544745599000,6.283598876953125,0.004552469588816166,0.03256041184067726,-0.04212803393602371
1782829544755527000,6.29352685546875,-0.0014597969129681587,0.004774324595928192,-0.06202512979507446
1782829544765456000,6.303455810546875,-0.0012664515525102615,-0.02478383295238018,-0.06842630356550217
1782829544775384000,6.313384033203125,0.002314816229045391,-0.04843144118785858,-0.04416930675506592
1782829544785312800,6.323312744140625,0.007253382354974747,-0.06246097385883331,0.01195494644343853
1782829544795241200,6.3332412109375,0.013540765270590782,-0.05031890794634819,0.06273092329502106
1782829544805170200,6.343170166015625,0.01718902960419655,-0.04202955216169357,0.09268882125616074
1782829544815099000,6.353098876953125,0.027204150334000587,-0.028421953320503235,0.08716349303722382
1782829544825027000,6.363027099609375,0.018649544566869736,-0.010830709710717201,0.06204402446746826
1782829544834956000,6.3729560546875,0.001278528943657875,-0.004811662714928389,0.026932934299111366
1782829544844884000,6.382884033203125,-0.0049956124275922775,-0.01211857795715332,0.001689098309725523
1782829544854813200,6.392813232421875,-0.024672897532582283,-0.01470401044934988,-0.006969932932406664
1782829544864742100,6.4027421875,-0.02590593881905079,-0.0346369743347168,-0.028192929923534393
1782829544874670000,6.412670166015625,-0.00951803382486105,-0.05488086864352226,-0.04808109253644943
1782829544884599000,6.42259912109375,0.00004644226282835007,-0.07196664810180664,-0.048747412860393524
1782829544894527000,6.43252685546875,0.011112317442893982,-0.049822185188531876,-0.033816300332546234
1782829544904456000,6.4424560546875,0.020572664216160774,-0.02511603757739067,-0.005666689015924931
1782829544914384100,6.452384033203125,0.02006448060274124,-0.00095331110060215,0.02033013105392456
1782829544924313000,6.46231298828125,0.012691253796219826,0.009386943653225899,0.03627154976129532
1782829544934242000,6.472241943359375,0.005061101634055376,0.009281790815293789,0.03491674363613129
1782829544944170000,6.482169921875,0.005050981882959604,-0.0073765479028224945,0.028398655354976654
1782829544954099000,6.492098876953125,0.005466867238283157,-0.02491236850619316,0.016372200101614
1782829544964027000,6.50202685546875,0.005718802101910114,-0.037806328386068344,0.004807157441973686
1782829544973956000,6.5119560546875,0.009692016988992691,-0.0392695777118206,-0.010201975703239441
1782829544983884000,6.521884033203125,0.018908951431512833,-0.019182153046131134,-0.01795284077525139
1782829544993813000,6.53181298828125,0.016564570367336273,0.013418135233223438,-0.021303895860910416
1782829545003742000,6.541741943359375,0.010701888240873814,0.03451782837510109,-0.013255556114017963
1782829545013670000,6.551669921875,0.016787737607955933,0.055842310190200806,0.00027491524815559387
1782829545023598800,6.561598876953125,0.02247917838394642,0.04450416564941406,0.01757427677512169
1782829545033526800,6.57152685546875,0.02095327153801918,0.0010411180555820465,0.03766268491744995
1782829545043456000,6.5814560546875,0.016964122653007507,-0.04105547070503235,0.055909328162670135
1782829545053384200,6.59138427734375,0.011621245183050632,-0.07212965935468674,0.05660291016101837
1782829545063313000,6.60131298828125,0.010240929201245308,-0.06424057483673096,0.040551770478487015
1782829545073241900,6.611241943359375,0.008645739406347275,-0.0287330225110054,0.02055373787879944
1782829545083170000,6.621170166015625,0.012265241704881191,0.01366370264440775,0.008998015895485878
1782829545093099000,6.63109912109375,0.013401901349425316,0.051443517208099365,0.0017206156626343727
1782829545103027200,6.641027099609375,0.0017532352358102798,0.05429229885339737,-0.0067343879491090775
1782829545112956200,6.6509560546875,-0.018015151843428612,0.03642037510871887,-0.012295852415263653
1782829545122884000,6.660884033203125,-0.024850688874721527,0.017044547945261,-0.011133382096886635
1782829545132813000,6.67081298828125,-0.02992400899529457,0.01649247482419014,0.00004470348358154297
1782829545142742000,6.680741943359375,-0.029942650347948074,0.005747952498495579,0.007904225029051304
1782829545152670000,6.690669921875,-0.02021706849336624,0.01168364193290472,0.01605965383350849
1782829545162598400,6.700598388671875,-0.007590488530695438,0.02235599234700203,0.02212660014629364
1782829545172526300,6.7105263671875,-0.0031062569469213486,0.009469755925238132,0.025959422811865807
1782829545182455600,6.72045556640625,-0.007356663234531879,-0.007438653148710728,0.024685097858309746
1782829545192384500,6.730384521484375,-0.015583483502268791,0.014088641852140427,0.029584523290395737
1782829545202312400,6.7403125,-0.02453782968223095,0.03317338600754738,0.03329697251319885
1782829545212241400,6.750241455078125,-0.03698426112532616,0.028742827475070953,0.018911313265562057
1782829545222169300,6.76016943359375,-0.03138656169176102,0.023620236665010452,-0.01064897608011961
1782829545232098600,6.7700986328125,-0.014679173938930035,0.029398120939731598,-0.03862770274281502
1782829545242026500,6.780026611328125,-0.0002791965380311012,0.04000602290034294,-0.054747018963098526
1782829545251955500,6.78995556640625,0.01256037037819624,0.049575500190258026,-0.04961160942912102
1782829545261884400,6.799884521484375,0.013382487930357456,0.02956663817167282,-0.036411918699741364
1782829545271812400,6.809812255859375,0.007756547071039677,-0.007640081457793713,-0.020933061838150024
1782829545281741300,6.8197412109375,0.004213744308799505,-0.05659057945013046,-0.008278785273432732
1782829545291669200,6.829669189453125,0.004973507020622492,-0.07058726251125336,-0.010638004168868065
1782829545301598500,6.839598388671875,-0.0005924999713897705,-0.06213359162211418,-0.027317382395267487
1782829545311526700,6.849526611328125,-0.00003546662628650665,-0.03970202058553696,-0.046571388840675354
1782829545321455400,6.859455322265625,0.010056049562990665,-0.0019967202097177505,-0.059871215373277664
1782829545331384300,6.86938427734375,0.011782050132751465,0.03461001068353653,-0.05223621428012848
1782829545341312500,6.8793125,0.009030738845467567,0.057317450642585754,-0.024816574528813362
1782829545351241500,6.889241455078125,0.005612305365502834,0.05583620071411133,0.004114942159503698
1782829545361169700,6.899169677734375,0.001162695698440075,0.03099929355084896,0.018018240109086037
1782829545371098600,6.9090986328125,0.0073436833918094635,-0.0005156761035323143,0.008788764476776123
1782829545381026600,6.919026611328125,0.016504958271980286,-0.01627892628312111,-0.006046639289706945
1782829545390955500,6.92895556640625,0.018491914495825768,-0.015199964866042137,-0.02164933830499649
1782829545400884500,6.938884521484375,0.00803288258612156,-0.009989757090806961,-0.028726423159241676
1782829545410812400,6.9488125,-0.006261204369366169,0.007530411705374718,-0.02953271195292473
1782829545420741600,6.95874169921875,-0.016302384436130524,0.03119073249399662,-0.026576340198516846
1782829545430669600,6.968669677734375,-0.023190654814243317,0.05392534285783768,-0.016334885731339455
1782829545440598500,6.9785986328125,-0.016731422394514084,0.042296648025512695,-0.0024124127812683582
1782829545450527500,6.988527587890625,-0.00729631632566452,0.003541107289493084,0.015957951545715332
1782829545460455400,6.998455322265625,0.0023917313665151596,-0.027072995901107788,0.03840600326657295
1782829545470384400,7.00838427734375,0.012364067137241364,-0.044279545545578,0.03950288146734238
1782829545480312600,7.0183125,0.02059483341872692,-0.03920196741819382,0.011563126929104328
1782829545490241500,7.028241455078125,0.010999507270753384,-0.016048593446612358,-0.018808087334036827
1782829545500169500,7.03816943359375,-0.014324757270514965,0.017627079039812088,-0.04650016874074936
1782829545510098400,7.048098388671875,-0.03325340896844864,0.04672921448945999,-0.057367805391550064
1782829545520027400,7.05802734375,-0.04078136384487152,0.07554062455892563,-0.04295105114579201
1782829545529955300,7.067955322265625,-0.03661245107650757,0.1125716120004654,-0.01053185760974884
1782829545539884500,7.077884521484375,-0.02831457555294037,0.12802620232105255,0.014921569265425205
1782829545549812500,7.0878125,-0.014741874299943447,0.10604316741228104,0.02970063127577305
1782829545559741400,7.097741455078125,0.0015798406675457954,0.06416788697242737,0.03379230946302414
1782829545569669400,7.10766943359375,0.011697255074977875,0.003172239288687706,0.029926961287856102
1782829545579598300,7.117598388671875,0.010785122402012348,-0.05010722577571869,0.04051622375845909
1782829545589527300,7.12752734375,0.0015093246474862099,-0.08721671998500824,0.05265402793884277
1782829545599455200,7.137455322265625,-0.008073528297245502,-0.07043188810348511,0.06966150552034378
1782829545609384400,7.147384521484375,-0.009850158356130123,-0.028400450944900513,0.0614238940179348
1782829545619312600,7.157312744140625,-0.012735160999000072,0.00862601026892662,0.04216444492340088
1782829545629241300,7.167241455078125,-0.02099587768316269,0.028048798441886902,0.012346787378191948
1782829545639170300,7.17717041015625,-0.02628837525844574,0.024199996143579483,-0.012266146019101143
1782829545649098500,7.187098388671875,-0.022134464234113693,0.023826617747545242,-0.025234060361981392
1782829545659027500,7.19702734375,-0.017501097172498703,0.016186274588108063,-0.019154062494635582
1782829545668955600,7.20695556640625,-0.0036848830059170723,-0.0012774057686328888,0.002481990959495306
1782829545678884600,7.216884521484375,0.01044078916311264,-0.024317476898431778,0.03748658299446106
1782829545688812500,7.2268125,0.01580744795501232,-0.048706263303756714,0.06799692660570145
1782829545698741500,7.236741455078125,0.01765301823616028,-0.05360914021730423,0.0782032236456871
1782829545708670500,7.24667041015625,0.011834248900413513,-0.051099568605422974,0.06233004480600357
1782829545718598400,7.256598388671875,0.0026511363685131073,-0.038578182458877563,0.021792739629745483
1782829545728527600,7.266527587890625,-0.003968855366110802,-0.030365541577339172,-0.013620211742818356
1782829545738455600,7.27645556640625,-0.0092834597453475,-0.025517255067825317,-0.04459064453840256
1782829545748384500,7.286384521484375,-0.00417870469391346,-0.004739824216812849,-0.04609614238142967
1782829545758312400,7.2963125,0.00864255242049694,0.02321670949459076,-0.025774627923965454
1782829545768241400,7.306241455078125,0.02029130421578884,0.039513397961854935,-0.00031169550493359566
1782829545778170600,7.316170654296875,0.02383836917579174,0.03099874034523964,0.02066655643284321
1782829545788098600,7.3260986328125,0.02165936306118965,0.006103526800870895,0.02889787033200264
1782829545798027500,7.336027587890625,0.02302982658147812,-0.011327127926051617,0.022326519712805748
1782829545807955500,7.34595556640625,0.01373326312750578,-0.037764862179756165,0.004089460242539644
1782829545817884400,7.355884521484375,0.0022033732384443283,-0.04650908708572388,-0.002262179274111986
1782829545827812400,7.365812255859375,-0.00013257842510938644,-0.026166781783103943,-0.014735261909663677
1782829545837741300,7.3757412109375,-0.0021070456132292747,0.011343575082719326,-0.02693520300090313
1782829545847670500,7.38567041015625,0.002548942342400551,0.04049510136246681,-0.045375168323516846
1782829545857598500,7.395598388671875,0.009943741373717785,0.055198412388563156,-0.051682598888874054
1782829545867527400,7.40552734375,0.015793772414326668,0.04843122139573097,-0.044002749025821686
1782829545877455400,7.415455322265625,0.012721017003059387,0.012575752101838589,-0.031966060400009155
1782829545887384300,7.42538427734375,0.015704676508903503,-0.017104772850871086,-0.009202751331031322
1782829545897313300,7.435313232421875,0.026116572320461273,-0.03222913295030594,0.013986190780997276
1782829545907241500,7.445241455078125,0.03004913404583931,-0.036906562745571136,0.02261677384376526
1782829545917170400,7.45517041015625,0.04023199528455734,-0.030950400978326797,0.01435005571693182
1782829545927098600,7.4650986328125,0.039409536868333817,-0.03268447518348694,-0.003862086683511734
1782829545937027300,7.47502734375,0.028808560222387314,-0.029177889227867126,-0.009757526218891144
1782829545946955500,7.48495556640625,0.013467825017869473,-0.012465340085327625,-0.006759262178093195
1782829545956884500,7.494884521484375,0.006061041262000799,0.014746041037142277,-0.006556862033903599
1782829545966813400,7.5048134765625,0.008743024431169033,0.06581534445285797,-0.0004770476371049881
1782829545976741600,7.51474169921875,0.011815513484179974,0.08847538381814957,-0.0019212798215448856
1782829545986670600,7.524670654296875,0.012486472725868225,0.08255033195018768,-0.007921510376036167
1782829545996598500,7.5345986328125,0.010534374974668026,0.041496641933918,-0.005415475927293301
1782829546006527500,7.544527587890625,0.010992308147251606,-0.008239654824137688,0.001298526767641306
1782829546016455400,7.554455322265625,0.014312736690044403,-0.02864346280694008,0.013345334678888321
1782829546026384400,7.56438427734375,0.02727825567126274,-0.02353341318666935,0.024027608335018158
1782829546036313600,7.574313720703125,0.03208419680595398,-0.007256439421325922,0.022437702864408493
1782829546046241500,7.584241455078125,0.022394251078367233,0.008453146554529667,0.01424473151564598
1782829546056170500,7.59417041015625,0.0010239817202091217,0.019235488027334213,0.005989731289446354
1782829546066098400,7.604098388671875,-0.02233073301613331,0.022091014310717583,0.000681945588439703
1782829546076027400,7.61402734375,-0.03588888794183731,0.024771487340331078,-0.00949319452047348
1782829546085956600,7.62395654296875,-0.0371277779340744,0.03357428312301636,-0.024530747905373573
1782829546095884500,7.633884521484375,-0.023596789687871933,0.03509494662284851,-0.04119148105382919
1782829546105813500,7.6438134765625,-0.005360356532037258,0.038647349923849106,-0.0446188747882843
1782829546115741400,7.653741455078125,0.0005049891769886017,0.02302711084485054,-0.026470230892300606
1782829546125670400,7.66367041015625,0.001800335943698883,0.008148331195116043,0.0036783809773623943
1782829546135598300,7.673598388671875,-0.008077860809862614,-0.020357612520456314,0.03484296053647995
1782829546145527300,7.68352734375,-0.010850535705685616,-0.024042438715696335,0.0571722537279129
1782829546155456500,7.69345654296875,-0.005315953865647316,-0.016180522739887238,0.05702338367700577
1782829546165384400,7.703384521484375,0.0017513483762741089,-0.014640639536082745,0.04046113044023514
1782829546175313700,7.713313720703125,0.0005630459636449814,0.00022192951291799545,0.015314500778913498
1782829546185241600,7.72324169921875,-0.006998567841947079,0.014412079937756062,-0.008217609487473965
1782829546195170600,7.733170654296875,-0.01648794487118721,0.015050972811877728,-0.02080317586660385
1782829546205098800,7.7430986328125,-0.02133968286216259,0.00044804438948631287,-0.02178669534623623
1782829546215027500,7.75302734375,-0.021562857553362846,-0.02334676682949066,-0.015671811997890472
1782829546224956400,7.762956298828125,-0.018385617062449455,-0.03811239078640938,-0.011998331174254417
1782829546234884600,7.772884521484375,-0.01666521653532982,-0.023467667400836945,-0.0044011315330863
1782829546244813600,7.7828134765625,-0.008603489957749844,0.000598561018705368,-0.0014261682517826557
1782829546254741800,7.79274169921875,-0.00816300231963396,0.011213654652237892,0.005372082348912954
1782829546264670700,7.802670654296875,-0.018670834600925446,0.003735971637070179,0.018437057733535767
1782829546274599700,7.812599609375,-0.02490050345659256,-0.005308656953275204,0.03517529368400574
1782829546284527600,7.822527587890625,-0.02617846056818962,-0.012603333219885826,0.03643859922885895
1782829546294456600,7.83245654296875,-0.01775141805410385,-0.00522584468126297,0.021684151142835617
1782829546304384800,7.842384765625,-0.009326846338808537,0.003335108980536461,0.008298623375594616
1782829546314313700,7.852313720703125,-0.007561436854302883,0.0061636511236429214,-0.013133963569998741
1782829546324241700,7.86224169921875,-0.01141701266169548,0.012930812314152718,-0.02306687831878662
1782829546334170600,7.872170654296875,-0.023474475368857384,0.011788848787546158,-0.026030709967017174
1782829546344099600,7.882099609375,-0.03201146423816681,-0.0007150517776608467,-0.026052091270685196
1782829546354027500,7.892027587890625,-0.04012957960367203,-0.004472238942980766,-0.011003101244568825
1782829546363956700,7.901956787109375,-0.04310118034482002,-0.00638507679104805,0.0072526936419308186
1782829546373884700,7.911884765625,-0.03622037172317505,-0.0014134878292679787,0.01718255504965782
1782829546383813600,7.921813720703125,-0.020777907222509384,-0.0030351728200912476,0.011659001000225544
1782829546393741600,7.931741455078125,-0.011927156709134579,0.0007675550878047943,0.011762597598135471
1782829546403670500,7.94167041015625,-0.010891539976000786,0.014433294534683228,0.014487359672784805
1782829546413599500,7.951599609375,-0.016901763156056404,0.01523197628557682,0.010627374053001404
1782829546423527400,7.96152734375,-0.019338589161634445,0.01901455596089363,-0.002445207443088293
1782829546433456600,7.97145654296875,-0.019271746277809143,0.029162265360355377,-0.015415867790579796
1782829546443384600,7.981384521484375,-0.021525686606764793,0.023331589996814728,-0.02234022319316864
1782829546453313500,7.9913134765625,-0.0269825030118227,0.023096963763237,-0.019535383209586143
1782829546463242500,8.001242431640625,-0.03493106737732887,0.014203615486621857,-0.004393348935991526
1782829546473170400,8.01117041015625,-0.04263266548514366,-0.013768897391855717,0.008905943483114243
1782829546483099600,8.021099609375,-0.04182818904519081,-0.02835855260491371,0.013297535479068756
1782829546493027600,8.031027587890625,-0.031323615461587906,-0.03955155238509178,0.002575383987277746
1782829546502956500,8.04095654296875,-0.018987327814102173,-0.04778549447655678,-0.01485925167798996
1782829546512884700,8.050884765625,-0.012602400034666061,-0.04598439857363701,-0.01978476718068123
1782829546522813400,8.0608134765625,-0.007989883422851562,-0.03384626656770706,-0.021876346319913864
1782829546532742400,8.070742431640625,-0.010069279000163078,-0.031089097261428833,-0.015571045689284801
1782829546542670600,8.080670654296876,-0.01865318790078163,-0.02338375523686409,-0.009163997136056423
1782829546552599600,8.090599609375,-0.025534797459840775,-0.012674651108682156,-0.008226830512285233
1782829546562527700,8.10052783203125,-0.02169271558523178,0.02299666404724121,-0.00024069054052233696
1782829546572456700,8.110456787109374,-0.01337912492454052,0.049494050443172455,0.012948349118232727
1782829546582385700,8.1203857421875,-0.004064852371811867,0.05156110227108002,0.026173699647188187
1782829546592313600,8.130313720703125,0.005128912162035704,0.03941095992922783,0.04151563718914986
1782829546602242800,8.140242919921874,0.009024426341056824,0.01005648635327816,0.051970016211271286
1782829546612170800,8.150170654296875,0.009114175103604794,-0.03153995797038078,0.05179451406002045
1782829546622099700,8.160099609375,0.004220718052238226,-0.05222102999687195,0.0388125516474247
1782829546632027600,8.170027587890624,-0.002788189798593521,-0.049622319638729095,0.014295225962996483
1782829546641956600,8.17995654296875,-0.013066809624433517,-0.02875598706305027,-0.011323729529976845
1782829546651885600,8.189885498046875,-0.0269197765737772,0.008401500061154366,-0.027151430025696754
1782829546661813500,8.1998134765625,-0.03268791735172272,0.036328740417957306,-0.03444396331906319
1782829546671742700,8.20974267578125,-0.025519484654068947,0.060692399740219116,-0.02531730942428112
1782829546681670700,8.219670654296875,-0.008432155475020409,0.07864169031381607,-0.007354197558015585
1782829546691599600,8.229599609375,0.00982621032744646,0.07015286386013031,0.018158884719014168
1782829546701527600,8.239527587890626,0.018764421343803406,0.031285304576158524,0.05198090523481369
1782829546711456500,8.24945654296875,0.013833844102919102,-0.020319564267992973,0.07367341220378876
1782829546721385500,8.259385498046875,0.008312533609569073,-0.06310686469078064,0.07472412288188934
1782829546731313700,8.269313720703124,0.0036317622289061546,-0.08154739439487457,0.05601781606674194
1782829546741242600,8.27924267578125,0.003499956801533699,-0.05910259485244751,0.025284353643655777
1782829546751170600,8.289170654296875,0.000009884126484394073,-0.022543516010046005,-0.013242263346910477
1782829546761099500,8.299099609375,0.0015411535277962685,0.01841260865330696,-0.03983950987458229
1782829546771027500,8.30902734375,0.01663355343043804,0.06068522855639458,-0.044920556247234344
1782829546780956400,8.318956298828125,0.024342477321624756,0.07811173051595688,-0.03240698575973511
1782829546790885600,8.3288857421875,0.02358746901154518,0.06362493336200714,-0.010449756868183613
1782829546800813600,8.3388134765625,0.025062210857868195,0.0231593269854784,0.012266619130969048
1782829546810742500,8.348742431640625,0.01553155668079853,-0.010180252604186535,0.03242834284901619
1782829546820670700,8.358670654296875,0.007708659861236811,-0.04166479408740997,0.04314311966300011
1782829546830599400,8.368599365234376,0.0063808080740273,-0.06578531116247177,0.03178313747048378
1782829546840528400,8.3785283203125,0.004724134691059589,-0.049850527197122574,0.011316411197185516
1782829546850456600,8.38845654296875,0.01285636331886053,-0.015007860027253628,-0.007723592687398195
1782829546860385500,8.398385498046874,0.021163834258913994,0.019052887335419655,-0.028994807973504066
1782829546870313700,8.408313720703125,0.028623614460229874,0.02805357240140438,-0.036870308220386505
1782829546880242700,8.41824267578125,0.021238597109913826,0.011690802872180939,-0.03207043930888176
1782829546890170600,8.428170654296874,0.020581861957907677,0.005708010867238045,-0.005555475130677223
1782829546900099600,8.438099609375,0.012800156138837337,0.00675978884100914,0.02344873920083046
1782829546910028800,8.44802880859375,0.004324912093579769,-0.004454249516129494,0.040145426988601685
1782829546919956700,8.457956787109374,-0.003683784045279026,-0.02184993028640747,0.03038208559155464
1782829546929885700,8.4678857421875,-0.010547814890742302,-0.031870875507593155,0.012583116069436073
1782829546939813600,8.477813720703125,-0.00781687069684267,-0.014909050427377224,-0.012182872742414474
1782829546949742600,8.48774267578125,-0.006508194841444492,0.0005873516201972961,-0.035177405923604965
1782829546959671600,8.497671630859376,-0.00882947538048029,0.01741955056786537,-0.04312262684106827
1782829546969599500,8.507599609375,-0.006036619655787945,0.026547003537416458,-0.03465350717306137
1782829546979528700,8.51752880859375,-0.005216732621192932,0.010873532854020596,-0.01625494472682476
1782829546989456600,8.52745654296875,-0.002497113309800625,-0.002297663129866123,0.015385804697871208
1782829546999385600,8.537385498046875,0.00446742819622159,-0.006352373864501715,0.037488579750061035
1782829547009313500,8.5473134765625,0.01411446277052164,-0.012258999049663544,0.043561384081840515
1782829547019242500,8.557242431640624,0.014876894652843475,-0.014034189283847809,0.03327019512653351
1782829547029171700,8.567171630859375,0.013767688535153866,-0.010265816934406757,0.018812159076333046
1782829547039099600,8.577099609375,0.006618046201765537,-0.005688783247023821,-0.0030230372212827206
1782829547049028600,8.587028564453124,-0.0007964605465531349,0.002016274258494377,-0.015985708683729172
1782829547058956500,8.59695654296875,-0.011459040455520153,0.016994092613458633,-0.02241015061736107
1782829547068885500,8.606885498046875,-0.024248871952295303,0.027127951383590698,-0.014586849138140678
1782829547078814500,8.616814453125,-0.028651736676692963,0.029163818806409836,-0.012555845081806183
1782829547088742400,8.626742431640626,-0.028410453349351883,0.010643666610121727,-0.015041373670101166
1782829547098671600,8.636671630859375,-0.014903261326253414,-0.017692089080810547,-0.025269411504268646
1782829547108599600,8.646599609375,0.007075539790093899,-0.03402099385857582,-0.027716856449842453
1782829547118528500,8.656528564453126,0.027823109179735184,-0.035659514367580414,-0.02226259559392929
1782829547128456700,8.666456787109375,0.030592264607548714,-0.021468594670295715,-0.0114259272813797
1782829547138385400,8.676385498046875,0.02468254417181015,-0.022213507443666458,-0.005096773151308298
1782829547148314400,8.686314453125,0.009899072349071503,-0.020145030692219734,0.002364072948694229
1782829547158242800,8.696242919921875,-0.005358364433050156,-0.02241988107562065,-0.009276406839489937
1782829547168171800,8.706171875,-0.007677178829908371,-0.014391781762242317,-0.02061241865158081
1782829547178100000,8.716099853515624,0.0039363885298371315,-0.0005155745893716812,-0.03402438759803772
1782829547188029000,8.72602880859375,0.018484704196453094,0.006580684334039688,-0.037850018590688705
1782829547197956900,8.735956787109375,0.04008043184876442,0.02018209546804428,-0.028878048062324524
1782829547207886000,8.745885986328124,0.04097685217857361,0.01358890999108553,-0.015631217509508133
1782829547217815000,8.75581494140625,0.04307015240192413,-0.006317344028502703,-0.0016134274192154408
1782829547227743000,8.765742919921875,0.0260179340839386,-0.012973648495972157,0.020899605005979538
1782829547237672000,8.775671875,-0.0005832873284816742,-0.033261146396398544,0.03311733156442642
1782829547247599900,8.785599853515626,-0.016835227608680725,-0.036891303956508636,0.03074844740331173
1782829547257528800,8.79552880859375,-0.0222625695168972,-0.022923028096556664,0.01616080105304718
1782829547267458000,8.8054580078125,-0.01518442016094923,0.015008375979959965,-0.0023854533210396767
1782829547277386000,8.815385986328126,-0.004864982329308987,0.0318862609565258,-0.010322649031877518
1782829547287315000,8.82531494140625,0.00038224365562200546,0.04145846143364906,-0.01695019192993641
1782829547297243000,8.835242919921875,0.0011145565658807755,0.03391098976135254,-0.017217550426721573
1782829547307171800,8.845171875,-0.005618446506559849,0.01152845099568367,-0.01434399839490652
1782829547317099800,8.855099853515625,-0.005906226113438606,-0.012224595993757248,-0.006498987320810556
1782829547327029000,8.865029052734375,-0.006338723003864288,-0.02648848667740822,0.002422868739813566
1782829547336958000,8.8749580078125,-0.004848002456128597,-0.03606861084699631,0.017528461292386055
1782829547346886000,8.884885986328126,-0.0050232382491230965,-0.02158021554350853,0.03518947958946228
1782829547356814800,8.89481494140625,-0.004046957939863205,-0.001197577454149723,0.03754875436425209
1782829547366742800,8.90474267578125,-0.006797470152378082,0.015838131308555603,0.024521101266145706
1782829547376671700,8.914671630859376,-0.011674757115542889,0.022612031549215317,-0.00025158561766147614
1782829547386601000,8.92460107421875,-0.012991956435143948,0.033003952354192734,-0.012619039043784142
1782829547396529000,8.93452880859375,-0.015443778596818447,0.026347974315285683,-0.018552685156464577
1782829547406457900,8.944457763671876,-0.014126579277217388,0.0054749175906181335,-0.01285245455801487
1782829547416385800,8.9543857421875,-0.005312683992087841,-0.0024106744676828384,-0.0014225863851606846
1782829547426314800,8.964314697265625,0.002852567471563816,-0.004732418339699507,0.007893150672316551
1782829547436243000,8.974242919921876,0.013849369250237942,-0.008813086897134781,0.012826506048440933
1782829547446172000,8.984171875,0.016828380525112152,-0.007822390645742416,0.031374093145132065
1782829547456100900,8.994100830078125,0.008064601570367813,-0.007301144301891327,0.047130826860666275
1782829547466029000,9.004029052734374,0.006444067694246769,-0.009560303762555122,0.053512293845415115
1782829547475957800,9.013957763671876,0.0006087934598326683,-0.01528711337596178,0.0335407629609108
1782829547485886000,9.023885986328125,0.006026195362210274,-0.010671855881810188,0.00882822647690773
1782829547495815000,9.03381494140625,0.002208639867603779,0.001612512394785881,-0.020719097927212715
1782829547505744000,9.043743896484376,-0.008626165799796581,0.004116949625313282,-0.03878225386142731
1782829547515672000,9.053672119140625,-0.017694495618343353,0.013320035301148891,-0.03754042088985443
1782829547525601000,9.06360107421875,-0.026346571743488312,0.014424980618059635,-0.02820258028805256
1782829547535529000,9.073529052734376,-0.026949137449264526,0.0038892030715942383,-0.015434982255101204
1782829547545458000,9.0834580078125,-0.01378965936601162,0.0048024021089077,-0.008843125775456429
1782829547555385900,9.0933857421875,0.0005537737160921097,-0.000014462508261203766,0.0013874918222427368
1782829547565314800,9.103314697265626,0.011762752197682858,-0.008280914276838303,0.013320316560566425
1782829547575244000,9.113244140625,0.022843554615974426,-0.021892888471484184,0.022498171776533127
1782829547585172000,9.123171875,0.02075190842151642,-0.02548522688448429,0.030738793313503265
1782829547595101000,9.133100830078124,0.011652310378849506,-0.02199270948767662,0.02584536373615265
1782829547605028900,9.14302880859375,0.001509128138422966,-0.0026970431208610535,0.010963884182274342
1782829547614957800,9.152957763671875,-0.01681172102689743,0.0021834373474121094,-0.004620516672730446
1782829547624887000,9.162886962890624,-0.02757195383310318,0.01776399463415146,-0.020849287509918213
1782829547634815000,9.17281494140625,-0.030468575656414032,0.025502046570181847,-0.03304241597652435
1782829547644744000,9.182743896484375,-0.024702299386262894,0.0235451553016901,-0.036175891757011414
1782829547654672000,9.192671875,-0.01389823853969574,0.02718736045062542,-0.0315285325050354
1782829547664600800,9.202600830078126,-0.0056610796600580215,0.020373394712805748,-0.019035112112760544
1782829547674528800,9.21252880859375,-0.00018990598618984222,0.006485058926045895,-0.0024254643358290195
1782829547684457700,9.222457763671875,-0.0024586524814367294,-0.007118633482605219,0.012913811020553112
1782829547694387000,9.232386962890626,-0.005121937952935696,-0.02298293262720108,0.01889375038444996
1782829547704315000,9.24231494140625,-0.012627526186406612,-0.020540546625852585,0.020013609901070595
1782829547714243800,9.252243896484375,-0.01886056177318096,-0.0018435698002576828,0.018433457240462303
1782829547724171800,9.262171875,-0.024485426023602486,0.02561628445982933,0.007940337061882019
1782829547734100700,9.272100830078125,-0.02557867392897606,0.04405073821544647,-0.007553623057901859
1782829547744030000,9.282030029296875,-0.026539810001850128,0.04657648131251335,-0.033980704843997955
1782829547753958000,9.2919580078125,-0.012822414748370647,0.026923716068267822,-0.0521671362221241
1782829547763886800,9.301886962890626,-0.008960031904280186,-0.004787607584148645,-0.0587611198425293
1782829547773815000,9.31181494140625,-0.006812593899667263,-0.03821197524666786,-0.04670888930559158
1782829547783743700,9.32174365234375,-0.011999365873634815,-0.05428042262792587,-0.015517950057983398
1782829547793668900,9.3316689453125,-0.0062496960163116455,-0.04075048863887787,0.00980588048696518
1782829547803597800,9.341597900390624,-0.002196364104747772,-0.02565569058060646,0.02576327510178089
1782829547813526000,9.351526123046876,-0.0006133364513516426,-0.013249466195702553,0.022547682747244835
1782829547823455000,9.361455078125,0.00671142153441906,-0.011679266579449177,0.005909851286560297
1782829547833383700,9.3713837890625,0.009917744435369968,-0.015748489648103714,-0.012682847678661346
1782829547843311900,9.381311767578126,0.01658523455262184,-0.00411420501768589,-0.016700757667422295
1782829547853241000,9.391240966796875,0.01322163175791502,0.014485917054116726,-0.005104496143758297
1782829547863169000,9.4011689453125,0.0026776446029543877,0.019689999520778656,0.015053502283990383
1782829547873098000,9.411097900390626,-0.014089428819715977,0.021310241892933846,0.021874461323022842
1782829547883026000,9.42102587890625,-0.026759419590234756,0.023112935945391655,0.007995129562914371
1782829547892955000,9.430954833984375,-0.021343395113945007,0.023910991847515106,-0.01639861986041069
1782829547902883800,9.4408837890625,-0.014502533711493015,0.02031119540333748,-0.02915835566818714
1782829547912812000,9.45081201171875,-0.002832951955497265,0.007069775834679604,-0.027408234775066376
1782829547922741000,9.460740966796875,0.003667824901640415,-0.00913902185857296,-0.010997569188475609
1782829547932669000,9.4706689453125,0.00982205756008625,-0.02570474147796631,0.008817985653877258
1782829547942598000,9.480597900390626,0.011098511517047882,-0.02011929452419281,0.030466822907328606
1782829547952526800,9.49052685546875,0.003438877873122692,-0.014740442857146263,0.044349223375320435
1782829547962454800,9.500454833984374,-0.001513269729912281,0.0032635917887091637,0.04261843487620354
1782829547972384000,9.510384033203126,0.000009493902325630188,0.02635885775089264,0.029028920456767082
1782829547982312000,9.52031201171875,0.0018990067765116692,0.03624610975384712,-0.0022560330107808113
1782829547992241000,9.530240966796875,0.0014763381332159042,0.019067242741584778,-0.022371191531419754
1782829548002168800,9.5401689453125,-0.005914200097322464,-0.00880912784487009,-0.02871537394821644
1782829548012097800,9.550097900390625,-0.019110921770334244,-0.02310992404818535,-0.028919633477926254
1782829548022026800,9.56002685546875,-0.023282229900360107,-0.013077262789011002,-0.024035662412643433
1782829548031954700,9.56995458984375,-0.024259109050035477,-0.003976374864578247,-0.02104566991329193
1782829548041884000,9.5798837890625,-0.016588937491178513,-0.0022525107488036156,-0.023289116099476814
1782829548051811800,9.589811767578125,-0.0026271436363458633,-0.011603125371038914,-0.012356741353869438
1782829548061740800,9.59974072265625,0.0050614019855856895,-0.01863813027739525,0.01049957238137722
1782829548071669800,9.609669677734376,0.0105085838586092,-0.00679274694994092,0.03219688683748245
1782829548081597700,9.61959765625,0.009588727727532387,0.0071840547025203705,0.04852552339434624
1782829548091527000,9.62952685546875,-0.004976971074938774,0.010592593811452389,0.05255308002233505
1782829548101454800,9.639454833984376,-0.025977326557040215,0.0038337567821145058,0.032892294228076935
1782829548111383800,9.6493837890625,-0.03887059539556503,-0.007741091772913933,-0.001128663308918476
1782829548121312800,9.659312744140625,-0.03739999979734421,-0.007374374661594629,-0.04287078231573105
1782829548131241000,9.669240966796876,-0.03199941664934158,0.01229748222976923,-0.06440990418195724
1782829548141169700,9.679169677734375,-0.011868314817547798,0.01574600860476494,-0.06372973322868347
1782829548151097900,9.689097900390625,0.003707476891577244,0.009929325431585312,-0.03891525790095329
1782829548161027000,9.699027099609374,0.015714604407548904,0.007041392847895622,-0.0007255282253026962
1782829548170955000,9.708955078125,0.018680738285183907,-0.004281334578990936,0.030975341796875
1782829548180884000,9.718884033203125,0.017652224749326706,0.004278864711523056,0.0528087317943573
1782829548190813000,9.72881298828125,0.011345247738063335,0.016974661499261856,0.03886369243264198
1782829548200740900,9.738740966796875,0.009789695031940937,0.030693404376506805,0.00574808195233345
1782829548210669800,9.748669921875,0.014763295650482178,0.049972157925367355,-0.04393418878316879
1782829548220597800,9.75859765625,0.0038696350529789925,0.07578058540821075,-0.08118728548288345
1782829548230527000,9.76852685546875,-0.01309173833578825,0.11086998879909515,-0.11887951195240021
1782829548240456000,9.7784560546875,-0.006214923225343227,0.1529093086719513,-0.15874037146568298
1782829548250384000,9.7883837890625,0.013635645620524883,0.2221352905035019,-0.1766899675130844
1782829548260312800,9.798312744140626,0.03682379052042961,0.2971706688404083,-0.17282278835773468
1782829548270240800,9.80824072265625,0.06870949268341064,0.3360939919948578,-0.18143995106220245
1782829548280169700,9.818169677734375,0.13771864771842957,0.34127572178840637,-0.18016217648983002
1782829548290098000,9.828097900390626,0.1400994062423706,0.34118470549583435,-0.03623202443122864
1782829548300027000,9.83802685546875,0.0831168070435524,0.039558544754981995,0.04914306104183197
1782829548309955800,9.847955810546875,0.08786248415708542,-0.21219967305660248,0.08717174082994461
1782829548319883800,9.8578837890625,0.10410749912261963,-0.3468107581138611,0.08340656012296677
1782829548329812700,9.867812744140625,0.08280492573976517,-0.3270004093647003,0.08252016454935074
1782829548339740700,9.87774072265625,0.037596963346004486,-0.21421952545642853,0.0707111805677414
1782829548349670000,9.887669921875,-0.016849106177687645,-0.09750797599554062,0.019377876073122025
1782829548359598800,9.897598876953126,-0.05538371950387955,0.02374308556318283,-0.04167935252189636
1782829548369526800,9.90752685546875,-0.09971272945404053,0.1346948742866516,-0.04795520752668381
1782829548379455700,9.917455810546874,-0.12541623413562775,0.12678024172782898,-0.023812852799892426
1782829548389383700,9.9273837890625,-0.09940541535615921,0.056281596422195435,0.01186181791126728
