time,seconds_elapsed,z,y,x
1782836362315133000,0.0871328125,-0.057305357021093364,0.00696694608592661,0.0011823690518271176
1782836362325062000,0.097061767578125,-0.08139701122641563,0.024076269406522622,0.009869222849095239
1782836362334992000,0.106991943359375,-0.09950433032512664,0.04618845393215306,0.004767086537647992
1782836362344920800,0.1169208984375,-0.08738368442058563,0.04106794171379879,0.0071573061424307525
1782836362354850800,0.126850830078125,-0.09276946911215782,0.016341336906072684,0.005184572164202109
1782836362364780000,0.136780029296875,-0.05550970577597618,0.006387961171171627,0.0033350627068430183
1782836362374709000,0.146708984375,-0.06822773305177689,-0.009697569776349701,-0.009470085729984565
1782836362384638700,0.156638671875,-0.09351590356528758,-0.0011537571619846857,-0.006296497195167466
1782836362394567700,0.166567626953125,-0.0905219824463129,0.019601176668948027,-0.0018582407530862836
1782836362404498000,0.176497802734375,-0.09890110373497009,0.006527333109243773,-0.00794232817343436
1782836362414427000,0.186427001953125,-0.07780044803917407,-0.013598292125493752,-0.005235224639205262
1782836362424355800,0.19635595703125,-0.06792319714725017,-0.012044485670590074,-0.004783553615259006
1782836362434285800,0.206285888671875,-0.06926759749352931,0.005672416188294301,-0.011189822194678707
1782836362444214800,0.21621484375,-0.09874503639042377,0.013205275361560052,-0.0047338053225539625
1782836362454145000,0.22614501953125,-0.10158698181807994,0.02605452894323971,-0.0007883099666330963
1782836362464074000,0.236073974609375,-0.0897638575553894,0.03346410651342012,0.00286844984209165
1782836362474003000,0.2460029296875,-0.0703098000228405,0.00841819178207661,-0.0014391659576445818
1782836362483932700,0.2559326171875,-0.07157412087023257,-0.01244543001265265,0.00836749478294514
1782836362493862000,0.26586181640625,-0.07714169186949729,0.008440605684928595,0.010067814161116257
1782836362503790800,0.275790771484375,-0.0933148280352354,0.028127060900977812,0.022346189644327386
1782836362513720800,0.285720947265625,-0.08221651091575623,0.034464844521181655,0.01953926073112525
1782836362523650000,0.295650146484375,-0.08789806368350982,0.011275069917383371,0.02323084525805898
1782836362533579800,0.305579833984375,-0.0708417149424553,-0.012361929005751152,0.007773008621670305
1782836362543508700,0.3155087890625,-0.06890285583436488,-0.01969334618113935,-0.01353556333691813
1782836362553438000,0.32543798828125,-0.0772854842543602,-0.013573844954115339,-0.007100936312694102
1782836362563368000,0.335367919921875,-0.09629705871641635,0.0033862449048087,-0.011300068502966314
1782836362573297000,0.345296875,-0.09944763170182705,0.013972213746601483,-0.006950805518589913
1782836362583227000,0.355226806640625,-0.0795639505803585,-0.0009512505807826528,0.002856193148717284
1782836362593155800,0.36515576171875,-0.07852876231372356,-0.015866433420300016,-0.012181664509931578
1782836362603084800,0.375084716796875,-0.0625321517586708,-0.018314972783310804,-0.008296283577103167
1782836362613015000,0.38501513671875,-0.08572714938521385,-0.010122534314816585,0.002615908986283466
1782836362622944000,0.394944091796875,-0.08750818758308887,0.014257778947532641,0.01889012177316472
1782836362632873700,0.404873779296875,-0.08720072906911372,0.01892748208339908,0.027217549407202748
1782836362642803000,0.414802978515625,-0.07162789688408375,0.005144605479994789,0.015763970842957494
1782836362652732000,0.42473193359375,-0.07057341939508914,-0.006847226413106545,0.006915505876345559
1782836362662662000,0.434661865234375,-0.07611117977797985,-0.010357899131893646,0.003919675928074866
1782836362672590800,0.4445908203125,-0.08553250359594822,0.009769843853049678,0.004281394513091072
1782836362682520800,0.454520751953125,-0.09196458247005938,0.021116232290840708,0.007000919137476012
1782836362692449800,0.46444970703125,-0.09166881439387797,0.015535950223763938,0.004604571186006069
1782836362702378800,0.474378662109375,-0.08539280286431312,-0.0016518040613271296,-0.0008113163828849792
1782836362712309000,0.48430908203125,-0.06460486637949943,-0.018645210526318987,-0.009469455542322248
1782836362722238000,0.494238037109375,-0.06909925518929957,-0.01879196890311432,-0.0035256716418080028
1782836362732168000,0.50416796875,-0.08361644084155559,-0.01160392170419218,-0.004507778014335781
1782836362742097000,0.514096923828125,-0.09289455679655075,-0.003692180465266574,0.00024606544924899934
1782836362752025900,0.52402587890625,-0.08975275163948536,0.000803715315030422,0.004816414705244824
1782836362761955800,0.533955810546875,-0.08017769856452941,-0.010582554183644241,-0.0003573164045345038
1782836362771884800,0.543884765625,-0.06596271072924137,-0.0069558298952237235,-0.013958930714987218
1782836362781813800,0.553813720703125,-0.08391746961474418,-0.002390570660409867,-0.002116992153972387
1782836362791743700,0.56374365234375,-0.08945113834440707,0.014873630982177564,0.004351619338244199
1782836362801673000,0.5736728515625,-0.08630699509978294,0.01837746753480169,0.004140835264930501
1782836362811603000,0.58360302734375,-0.08031973738372325,0.016769256020028843,0.008064931639796123
1782836362821531600,0.59353173828125,-0.07642915968596935,0.004133452251140261,0.0029896468026563523
1782836362831460900,0.6034609375,-0.07298807932138443,-0.006704226329398807,0.0048848037663381545
1782836362841390800,0.613390869140625,-0.08421089960336685,-0.004787550512008601,0.00547888806881383
1782836362851319800,0.62331982421875,-0.08869652058482169,0.005144920573825948,0.0025249975661281493
1782836362861250000,0.63325,-0.08540449330210685,0.008670678980601951,0.009439882387965916
1782836362871178800,0.6431787109375,-0.09049275635182857,0.0015417792320367879,0.004812432649871334
1782836362881107700,0.653107666015625,-0.07777472907602787,-0.016290348787640685,-0.007597195397038012
1782836362891038000,0.663037841796875,-0.07149228780567646,-0.012683329280110773,-0.011575679707108065
1782836362900967000,0.672966796875,-0.0818166979432106,-0.006820148322402382,-0.013353192507335916
1782836362910897000,0.68289697265625,-0.08690671455860137,0.002977694928314304,-0.007674215289158746
1782836362920825900,0.692825927734375,-0.09064999274015426,0.0028089199408888816,0.004833247109036892
1782836362930754800,0.7027548828125,-0.08182195864021778,-0.007971502323102323,-0.003037906391173601
1782836362940684800,0.712684814453125,-0.06970365082323551,-0.011925957874435698,-0.005803836573706939
1782836362950613800,0.72261376953125,-0.08347031036913394,-0.012166561697277938,0.0004425652688834816
1782836362960543700,0.732543701171875,-0.0896025295138359,0.009121152419660938,0.005841611300827935
1782836362970472700,0.74247265625,-0.07852583970427512,0.010101449285948182,0.015443716779490932
1782836362980401700,0.752401611328125,-0.08016893073618411,0.007085838066617725,0.016491590997762977
1782836362990332000,0.762331787109375,-0.09797405201792717,0.007610606863637803,0.00632473690896295
1782836363000260900,0.7722607421875,-0.08570493755340576,0.003940568589876056,-0.0015825199510902165
1782836363010189800,0.78218994140625,-0.07852174805104732,-0.0014632443779089954,-0.004356706505315378
1782836363020119800,0.792119873046875,-0.08540332425832747,0.006409248841906082,-0.015401612937124444
1782836363030048800,0.802048828125,-0.10051613771617413,0.008781789513636612,-0.010826076049357652
1782836363039978800,0.811978759765625,-0.0900426744967699,-0.0005141692003700882,-0.0031525457467883825
1782836363049908000,0.821907958984375,-0.07762626051604747,-0.005940736281013232,-0.009618234629556537
1782836363059837000,0.8318369140625,-0.06895137115120888,-0.019924497189046812,-0.0024049605161882938
1782836363069766700,0.8417666015625,-0.07029927862882614,-0.017569985935173463,-0.003260170839726925
1782836363079696000,0.85169580078125,-0.08361585631966591,-0.007247740355262067,0.00280198787660338
1782836363089625900,0.8616259765625,-0.09528642036914825,0.007497742764934082,0.0018420842027291654
1782836363099554800,0.871554931640625,-0.09349018460214137,-0.0026713301095936913,-0.004378845271887258
1782836363109484000,0.881484130859375,-0.06999474272429942,-0.0018313150718982797,0.00027696291101165116
1782836363119413800,0.891413818359375,-0.08974807546436786,-0.004749269465633551,0.002906251968676224
1782836363129342700,0.9013427734375,-0.08630524153411388,0.009376946961769135,-0.0023651125629898157
1782836363139273000,0.91127294921875,-0.08690320742726325,0.012725234476366313,0.0007018281264230609
1782836363149202000,0.921201904296875,-0.07238835986256599,0.009757491261552786,0.0025114896305836734
1782836363159131000,0.931130859375,-0.09647942954599857,-0.0022859440962667574,0.007797485475800931
1782836363169060900,0.941060791015625,-0.08780044852793216,0.0007615264201624086,0.0067787186210043725
1782836363178989800,0.95098974609375,-0.07253682842254638,-0.01393294232378248,-0.0009744527890346944
1782836363188919800,0.960919921875,-0.07463292391896248,-0.006721283066298929,0.004014998661866411
1782836363198849000,0.97084912109375,-0.08929857813119887,-0.008824768426371156,-0.0001257452715188265
1782836363208778000,0.980778076171875,-0.09064356299936771,-0.00902380840460828,0.002377953778253868
1782836363218707700,0.990707763671875,-0.0872018981128931,-0.009604014307959005,0.0031180498221423476
1782836363228636700,1.00063671875,-0.07732581626474856,-0.013510766822379082,-0.0130163891678676
1782836363238567000,1.01056689453125,-0.07089256834685802,-0.0004899052629043581,-0.0020607319220900533
1782836363248495900,1.020495849609375,-0.07822597997486591,-0.0009707721277605742,-0.0065210357991978525
1782836363258421200,1.030421142578125,-0.0852583628296852,-0.0014977425858436618,-0.001233441651938483
1782836363268351000,1.04035107421875,-0.09289104966521262,0.003400855668762233,0.00991279712934047
1782836363278280200,1.0502802734375,-0.07643032872974873,0.0030603608223987973,0.00020415340312756596
1782836363288209200,1.060209228515625,-0.06909925518929957,-0.009801688879594438,-0.0028599103426095096
1782836363298139100,1.07013916015625,-0.06520926201343535,-0.002375554041902069,0.011282478047348558
1782836363308068400,1.080068359375,-0.09004676614999771,0.008518345954612596,0.009761068033194169
1782836363317998000,1.089998046875,-0.0924392142444849,0.00868315486968495,0.018906753247557206
1782836363327927000,1.099927001953125,-0.07568097166717053,0.004041476247660466,0.01146705910032615
1782836363337856300,1.109856201171875,-0.09453530974090099,0.007298749594113906,0.0026018621946219352
1782836363347786200,1.1197861328125,-0.0761310535222292,0.0005843044064444257,-0.003607504706364125
1782836363357715200,1.129715087890625,-0.08151683821380137,0.000733671440501348,-0.0034999618118163197
1782836363367645200,1.139645263671875,-0.08435995268523692,-0.0006492291478614788,-0.0029092202438972888
1782836363377574100,1.14957421875,-0.0963338835954666,0.004022055165382335,-0.0012399992568884045
1782836363387503000,1.159503173828125,-0.08212064932584762,0.002633581640291959,-0.006088032943103462
1782836363397433300,1.169433349609375,-0.0785311004012823,-0.0018053089852066476,-0.000012028364511206745
1782836363407362300,1.1793623046875,-0.07254734981656075,-0.013146518353559076,-0.00105384730133228
1782836363417292000,1.1892919921875,-0.07838263184130191,-0.010201939101913011,0.008873709005722775
1782836363427221200,1.19922119140625,-0.07853226944506168,-0.006090635321321315,0.004085899340454489
1782836363437150200,1.209150146484375,-0.0893067614376545,0.0032801558942970586,-0.0013827961279079318
1782836363447080200,1.219080078125,-0.0917021321415901,0.0013737925500114214,-0.0034042737518437203
1782836363457009200,1.229009033203125,-0.08002923000454902,0.0016475902521575333,-0.008106962416926398
1782836363466938400,1.2389384765625,-0.07778408142626285,0.009002576103623141,-0.0014815620609559118
1782836363476868000,1.2488681640625,-0.08167407460212707,0.013683141414332203,0.00022854805886745453
1782836363486797000,1.258797119140625,-0.0833200882434845,0.006799934368146932,0.004712369808880612
1782836363496727300,1.268727294921875,-0.08436930503547191,0.007095316568549606,0.004887077921815216
1782836363506656300,1.27865625,-0.09065466891527175,0.00374323651153536,0.007057946554338559
1782836363516585200,1.288585205078125,-0.08167758173346519,-0.01293289158589905,-0.0027420652497559786
1782836363526515200,1.29851513671875,-0.08362111701667309,-0.020164813317521475,0.005286032377835363
1782836363536444200,1.308444091796875,-0.0800298145264387,-0.007940441606202511,-0.0005261153664905578
1782836363546374100,1.3183740234375,-0.09020634062588215,-0.0028065476040006615,0.0005571041597984731
1782836363556303400,1.328303466796875,-0.08137713748216628,0.001534981310958392,-0.003435490874014795
1782836363566232300,1.338232421875,-0.0786836606144905,0.005909691547133843,-0.008070859057083726
1782836363576162000,1.348162109375,-0.06746084033250808,-0.003331960859237006,-0.0061710989835206415
1782836363586091300,1.35809130859375,-0.0734463444828987,-0.00684525193926238,-0.013518721799971534
1782836363596021200,1.368021240234375,-0.08751286375820637,0.00417002083104162,-0.009528510519489646
1782836363605950200,1.3779501953125,-0.09215338304042815,0.0039724729819252385,0.011148357673129066
1782836363615879400,1.38787939453125,-0.08601882580816746,0.00773087452572945,0.006284386632265522
1782836363625809200,1.39780908203125,-0.07285130119919776,-0.003629190240142634,0.008339136338140814
1782836363635738000,1.407738037109375,-0.08616787889003753,-0.003304722367506474,0.012176887870114296
1782836363645668400,1.41766845703125,-0.0782353323251009,0.001352796569399652,0.004529907647753134
1782836363655597300,1.427597412109375,-0.077485390740633,0.0034435611576831434,0.005897086081421002
1782836363665526300,1.4375263671875,-0.08766074779629707,0.005422008494890178,0.004726151739060878
1782836363675456300,1.447456298828125,-0.08676233765184879,0.005417883733977214,-0.007236865051509812
1782836363685385200,1.45738525390625,-0.08047931185960769,-0.003901313150077476,-0.001247753305081278
1782836363695314200,1.467314208984375,-0.07389584181606769,-0.007977126063001924,-0.0054799201152753085
1782836363705244200,1.477244140625,-0.08436988955736159,-0.003657401412830222,0.0003870448225177824
1782836363715173000,1.487173095703125,-0.08886018671393393,-0.003233942703215871,-0.005831628762930631
1782836363725103000,1.49710302734375,-0.08482055593430995,-0.00833543512726901,-0.006335797159094363
1782836363735032000,1.507031982421875,-0.08242518523037433,-0.010112536935543176,0.0018332889749202877
1782836363744961300,1.516961181640625,-0.07598959922492504,-0.02057378912734566,-0.00658620085674338
1782836363754891300,1.526891357421875,-0.07329670687913895,-0.007304330522351665,-0.008298146740626544
1782836363764820200,1.5368203125,-0.0735948130428791,0.004302152460862999,0.0046608131515793495
1782836363774750200,1.546750244140625,-0.08257131570279598,0.0012040003575006265,-0.0008607541483361274
1782836363784679200,1.55667919921875,-0.08436755146980285,0.0018082030535471858,0.00031979740574024617
1782836363794608000,1.566608154296875,-0.08376724748909473,-0.00430309945482295,-0.0007710026388056576
1782836363804538400,1.576538330078125,-0.0843652133822441,-0.0017476924798771505,-0.005310226104175672
1782836363814467000,1.586467041015625,-0.0843652133822441,0.0005113858715281821,-0.007239851593039929
1782836363824397000,1.59639697265625,-0.08526186996102332,0.0032647299963020483,0.004390617908071727
1782836363834326300,1.606326171875,-0.09842939456999301,0.006245122059312416,-0.0006662270900793374
1782836363844255200,1.616255126953125,-0.08077274184823036,-0.004452359174314188,0.003944445043150335
1782836363854185200,1.626185302734375,-0.08017594499886035,-0.008625899123959243,0.008250654337089509
1782836363864114200,1.6361142578125,-0.07284370241463184,-0.007238606059091398,0.005410279812011867
1782836363874043100,1.646043212890625,-0.07987550074756145,-0.009144423126571927,-0.005878993302304297
1782836363883973000,1.65597314453125,-0.0813724613070488,-0.011564580641069914,-0.0017324863484129308
1782836363893902000,1.665902099609375,-0.0943909328341484,-0.005163140646283863,-0.006967610522918403
1782836363903832300,1.675832275390625,-0.09244505946338176,0.0020488822249142683,-0.007515517596108839
1782836363913761000,1.685760986328125,-0.08466390406787395,0.008938161677215247,-0.0025721794424112886
1782836363923690000,1.69568994140625,-0.08151917630136013,-0.0033153807588387277,-0.00896720510860905
1782836363933620200,1.7056201171875,-0.07418693371713161,-0.005350758473141468,0.0028502565982751545
1782836363943549200,1.715549072265625,-0.07493570625782013,0.010245506532292347,0.00024149887198582291
1782836363953479200,1.725479248046875,-0.0870540140748024,0.006032453131233342,0.017102845630748195
1782836363963408100,1.735408203125,-0.09363806864023208,0.00017833797103667165,0.008007374499971047
1782836363973337000,1.745337158203125,-0.07927110511362552,-0.003916376576002222,0.0026407602997496724
1782836363983267000,1.75526708984375,-0.07448211727142333,-0.000034792752168141304,0.007897192123765126
1782836363993196300,1.7651962890625,-0.08794891708791255,0.0056223796303995184,0.003635643955459818
1782836364003126300,1.775126220703125,-0.08151450012624263,-0.008231887987826484,-0.0013162428308743982
1782836364013055000,1.785054931640625,-0.08615385036468505,-0.00845357419353386,-0.0012016948068048804
1782836364022984200,1.794984130859375,-0.08465805884897708,-0.00005055657688062638,-0.012929706398257985
1782836364032914200,1.8049140625,-0.07553191858530044,0.0057665339165105245,-0.010749384950799867
1782836364042843100,1.814843017578125,-0.07314005501270293,-0.0033281643210648325,-0.008993453794717788
1782836364052773000,1.824773193359375,-0.07613339160978794,-0.008209361633009393,-0.011748113664565607
1782836364062702000,1.8347021484375,-0.09064765465259551,-0.00010384225449815858,-0.011796446318319066
1782836364072631000,1.844631103515625,-0.08166939842700958,0.00029430791310151107,-0.001179163314588368
1782836364082561300,1.854561279296875,-0.07089490643441676,-0.004077227410231717,-0.0002169215531554073
1782836364092490200,1.864490234375,-0.0746364310503006,-0.007853488266890054,-0.000706750896712765
1782836364102420000,1.874419921875,-0.07583060927093029,-0.014432821562251773,0.010157967529445887
1782836364112349200,1.88434912109375,-0.08166589129567146,0.0011133623611589427,-0.00672310684309341
1782836364122278100,1.894278076171875,-0.08361059562265873,0.005501772329123923,0.009191643247939646
1782836364132208000,1.9042080078125,-0.08585457515716552,0.0074413478190224844,0.0009189049432054161
1782836364142137300,1.914137451171875,-0.08734978215098381,0.006869076914488687,0.0011714640653226523
1782836364152067000,1.924067138671875,-0.08121405587494372,0.008507637901752605,-0.0006077657679561526
1782836364161996000,1.93399609375,-0.07478080795705318,-0.0032187645420373883,0.001115368230221793
1782836364171925000,1.943925048828125,-0.09438333404958248,0.0018572754928172799,-0.00577433648458682
1782836364181855200,1.953855224609375,-0.07777356003224849,-0.002791424241749337,0.00020927710281684993
1782836364191784200,1.9637841796875,-0.08360884205698967,-0.005349429599157883,-0.0037870077254250644
1782836364201713200,1.973713134765625,-0.07328326287567614,-0.0026484389994177035,0.0013627123211044818
1782836364211643100,1.98364306640625,-0.06834580647349357,-0.012000592871580737,-0.00469304405390285
1782836364221572000,1.993572021484375,-0.07403203541636466,-0.005399070577297243,-0.00018712006993591785
1782836364231502300,2.00350244140625,-0.08286240760385989,-0.005007009940478019,0.0017426789488643407
1782836364241431300,2.013431396484375,-0.08810030825734139,0.004874514126119902,0.0034495924646034833
1782836364251360300,2.0233603515625,-0.08480886549651623,-0.0008860158829338615,-0.003604353768052533
1782836364261293600,2.03329345703125,-0.07433247966766357,-0.002299045035612653,-0.002710875527048483
1782836364271222500,2.043222412109375,-0.0746317548751831,-0.0038069248521584082,0.0008627451760228723
1782836364281152800,2.05315283203125,-0.08525660926401615,-0.0065960287018358935,0.007681375682307407
1782836364291081700,2.063081787109375,-0.0849579185783863,0.003782972012768732,0.016631182131543753
1782836364301010700,2.0730107421875,-0.09303834918141364,0.008236846149089979,0.00600059212166816
1782836364310940700,2.082940673828125,-0.0928881270557642,-0.008449548184854211,0.0049758065180387345
1782836364320869600,2.09286962890625,-0.08106792540252208,-0.007237346254588919,-0.002907932469109073
1782836364330799600,2.102799560546875,-0.084509005767107,-0.006598792622724431,0.005100309680541977
1782836364340728800,2.112728759765625,-0.09183949478566646,-0.006236585413941066,0.0007504987068939953
1782836364350657800,2.12265771484375,-0.08016717717051505,-0.006009955317524145,0.0018248134075198321
1782836364360587500,2.13258740234375,-0.08585399063527584,-0.0003726521126285661,-0.004957129217032343
1782836364370516700,2.142516845703125,-0.08151450012624263,-0.004339034992951201,-0.005701974501274526
1782836364380446700,2.15244677734375,-0.08570435303151606,-0.0036262819012481485,-0.0058525710862595585
1782836364390375700,2.162375732421875,-0.07971884888112545,-0.012451435061753727,-0.00420978144844994
1782836364400305000,2.172304931640625,-0.08749883523285389,-0.0047122099786764005,0.0018636110479477793
1782836364410234600,2.182234619140625,-0.089145433396101,0.002788164276405587,0.004937145874928683
1782836364420163600,2.19216357421875,-0.08929624004364013,0.002412437715634587,0.0040937355870381
1782836364430092500,2.202092529296875,-0.07837269496917725,-0.0008517111837107222,0.005589581901673227
1782836364440022800,2.212022705078125,-0.07328443191945552,-0.0014215269821434048,0.005963831174699589
1782836364449951700,2.22195166015625,-0.08136544704437255,-0.0004539223465370014,-0.002617123695835471
1782836364459881700,2.2318818359375,-0.09154021957814693,0.0005974658529390581,0.007428405568236485
1782836364469810700,2.241810791015625,-0.08734978215098381,0.0010651849710324314,0.003589494125638157
1782836364479739600,2.25173974609375,-0.08136310895681381,-0.001323907259988482,-0.002412924626935273
1782836364489669600,2.261669677734375,-0.08375731061697006,-0.0030715883234224747,-0.0008953596708364785
1782836364499598800,2.271598876953125,-0.07881868517100811,-0.0010674420018447562,0.0021287556570023297
1782836364509528600,2.281528564453125,-0.08210954340994357,-0.0038121256128390082,-0.002533765394473448
1782836364519457500,2.29145751953125,-0.08675006269216537,-0.00717913324010442,-0.00762502411887981
1782836364529386800,2.30138671875,-0.09004092093110085,-0.006713533584683318,-0.0027478282702621073
1782836364539316700,2.311316650390625,-0.08300912259817123,-0.010631864084932021,0.0026816128999460486
1782836364549245700,2.32124560546875,-0.08031623025238513,-0.0032228619034867733,0.002620530362473801
1782836364559175700,2.33117578125,-0.08764788831472396,-0.004964957472105743,-0.004638665251852944
1782836364569104600,2.341104736328125,-0.08286006951630115,-0.00024046796716866082,-0.004086611726507545
1782836364579033600,2.35103369140625,-0.07986848648488522,0.0026012240154494066,-0.0015085687988903372
1782836364588963800,2.3609638671875,-0.08615209679901599,0.0038789152302459115,-0.0024680066818837075
1782836364598892800,2.370892822265625,-0.07447802561819553,0.004521432080352678,-0.00148161685988307
1782836364608822500,2.380822509765625,-0.07851882544159888,0.006342407279682811,-0.0021674254332669078
1782836364618751700,2.390751708984375,-0.08645020296275616,-0.0053837936638854444,0.005261555523704737
1782836364628680700,2.4006806640625,-0.09363339246511458,-0.008394214968156302,-0.0019501659533940254
1782836364638610700,2.410610595703125,-0.08345686636567115,0.002152928262922796,0.006834924053959548
1782836364648540000,2.420539794921875,-0.08585048350393772,0.004817862310237251,0.00029100970267318185
1782836364658469600,2.4304697265625,-0.07432897253632545,-0.007335899270972003,-0.002281105807656422
1782836364668398600,2.440398681640625,-0.08016542360484599,-0.008974918057606555,0.0036603765379171816
1782836364678327800,2.450327880859375,-0.07911679133474826,-0.0018969881611643358,-0.006104755749041214
1782836364688257800,2.4602578125,-0.0798643948316574,-0.003928973479382694,-0.004424574976600706
1782836364698186800,2.470186767578125,-0.09108721511363983,0.004727512008263147,-0.005754764134436845
1782836364708116700,2.48011669921875,-0.08988836071789263,0.002172088479474769,-0.011777476756367831
1782836364718045700,2.490045654296875,-0.07941372845470905,-0.006842715776414843,-0.0019111947830300778
1782836364727974700,2.499974609375,-0.07537351315319538,-0.005962996061882586,-0.007261488036112859
1782836364737905000,2.50990478515625,-0.07402735924124718,-0.007709807763170101,-0.007457156738685444
1782836364747833900,2.519833740234375,-0.08465162910819053,0.00018142155233363155,0.010329689100850373
1782836364757762600,2.529762451171875,-0.08570026137828826,-0.0007456895302137127,0.011597188286017626
1782836364767692500,2.539692626953125,-0.08360475040376186,0.005150548309480655,0.009060619013104588
1782836364777621800,2.549621826171875,-0.07716857987642288,0.0018549077225063228,0.002637673293519765
1782836364787551700,2.5595517578125,-0.0707324093490839,-0.003020506590156583,0.0006998827645089477
1782836364797480700,2.569480712890625,-0.0877905116558075,-0.0036663062384934162,-0.008200102326786146
1782836364807409700,2.57940966796875,-0.092129417642951,0.0005230940048088086,0.006342637891834602
1782836364817339600,2.589339599609375,-0.08838906207084656,0.001185068469811813,0.005713527941750362
1782836364827268600,2.5992685546875,-0.08494739718437194,0.0008670069342537317,-0.003585923062218353
1782836364837198800,2.60919873046875,-0.07791326076388358,-0.003622940879157977,0.001475588977895677
1782836364847127600,2.61912744140625,-0.07162965044975281,-0.006300021451170323,-0.0017510631847195326
1782836364857056500,2.629056396484375,-0.06773848823010921,-0.005673710242126253,-0.004877086250763386
1782836364866986800,2.63898681640625,-0.08898702796399593,-0.001689223737065913,0.0013842026337049901
1782836364876915700,2.648915771484375,-0.0913800605803728,0.004169598993466934,0.011074817512882872
1782836364886845700,2.658845703125,-0.08255202648043632,0.0038087817366380477,0.008953697173064575
1782836364896774700,2.668774658203125,-0.08419862464368343,-0.005173473098163958,0.004697090041358024
1782836364906703600,2.67870361328125,-0.0882388399451971,-0.003322970410250127,-0.005163575041946023
1782836364916633600,2.688633544921875,-0.08240180435478686,-0.008358702409247052,0.0022748313304968176
1782836364926562800,2.698562744140625,-0.07596797191500664,-0.003633937768029864,-0.00045555261461995537
1782836364936492800,2.708492919921875,-0.08299977024793624,0.009213158676715101,-0.0021492230562958864
1782836364946421500,2.71842138671875,-0.08150339421033859,0.00152196085753676,0.0047396688077598805
1782836364956350500,2.7283505859375,-0.077612231990695,-0.00046831676889269147,0.014101517523452638
1782836364966280700,2.73828076171875,-0.07910977707207202,-0.00470933018088981,0.006177592656388878
1782836364976209700,2.748209716796875,-0.07162848140597343,-0.0012170082528347847,0.007302925158198923
1782836364986139600,2.7581396484375,-0.08539455642998219,0.0009980368773103692,-0.0014978282091673463
1782836364996068600,2.768068603515625,-0.08763853596448898,-0.01054359214643482,0.004390216049272567
1782836365005997600,2.77799755859375,-0.07866027973890304,-0.006326903179052169,-0.00622158706174232
1782836365015927800,2.787927734375,-0.07536766793429851,-0.00934358868568379,-0.006739217727677896
1782836365025856800,2.797856689453125,-0.07791092267632484,-0.005256016265484504,-0.012996643287781625
1782836365035785700,2.80778564453125,-0.08195055345594883,-0.007925829700604663,0.0009650821724906563
1782836365045715500,2.817715576171875,-0.09272562997043132,-0.008326118738829973,-0.0007790946137160062
1782836365055644700,2.827644775390625,-0.09033084378838539,0.0020927910069440257,0.003157194522442296
1782836365065574700,2.83757470703125,-0.07446925778985022,-0.0043965299131610664,0.007336845694109797
1782836365075503600,2.847503662109375,-0.07910977707207202,-0.004389037301516509,-0.004753048879140988
1782836365085432800,2.857432861328125,-0.07806289836764335,0.0001880573599191848,0.008494884022278711
1782836365095362600,2.867362548828125,-0.08659224178194999,-0.00532724573763553,0.0071255318978335706
1782836365105291500,2.87729150390625,-0.0785100576132536,-0.007864589045394678,0.006871237476356327
1782836365115221800,2.8872216796875,-0.07820844431817531,-0.001055987313602236,0.005112465909216553
1782836365125150700,2.897150634765625,-0.0831459007203579,0.0002333960514544742,0.0002761957260314375
1782836365135079700,2.90707958984375,-0.08419336394667624,-0.003999691494880244,-0.0004756364214234054
1782836365145009700,2.917009765625,-0.08105097426772118,-0.007979581739925197,0.010274360450729728
1782836365154938600,2.926938720703125,-0.0861386527955532,-0.00435673047984601,-0.0010813289633020758
1782836365164868600,2.93686865234375,-0.08374445113539696,-0.003238460189773468,-0.001533511443901807
1782836365174797800,2.9467978515625,-0.07042553535699844,-0.006763578704910469,-0.0024999361901078374
1782836365184726800,2.956726806640625,-0.08344517592787742,-0.0028830606060451826,0.004457883591158315
1782836365194656500,2.966656494140625,-0.08149930255711078,-0.010863097291230223,0.007009586501121521
1782836365204585700,2.976585693359375,-0.07446691970229148,-0.011392989217117427,0.011335404677828773
1782836365214515700,2.986515625,-0.07626315546929836,-0.002458444269094616,0.0017124299410730599
1782836365224444700,2.996444580078125,-0.07596446478366851,-0.0019737357711157527,0.0028159250704105944
1782836365234373600,3.00637353515625,-0.0903302592664957,0.0038413973730959694,0.0033411727872211484
1782836365244303600,3.0163037109375,-0.08644026609063148,-0.0060961842835182325,0.003585119344620034
1782836365254232600,3.026232666015625,-0.08404664895236491,0.00046112383888103064,0.0009969477486331015
1782836365264159000,3.036158935546875,-0.0785094730913639,-0.003938673460311838,-0.0040476679556071754
1782836365274088200,3.046088134765625,-0.07536708341240883,0.0003997650234843604,0.0019177889205981044
1782836365284017200,3.05601708984375,-0.08778700452446937,-0.00039913312335556836,0.004789535831473768
1782836365293947000,3.06594677734375,-0.08090367475152015,-0.010119898258091415,-0.003610509514203295
1782836365303876000,3.0758759765625,-0.07192541852593422,-0.007084445260552456,0.002105493512423709
1782836365313806000,3.08580615234375,-0.08703764746189117,-0.010943229305755812,-0.003168090375792235
1782836365323735000,3.095735107421875,-0.0882341637700796,-0.003313531865869299,0.01108722033672966
1782836365333664000,3.1056640625,-0.0824000507891178,-0.004285341177490773,0.007771236789692193
1782836365343594000,3.115593994140625,-0.08614040636122226,-0.009360413097965647,0.003940417322004214
1782836365353523000,3.12552294921875,-0.08464461484551429,-0.006181117483213892,-0.0031670948619488626
1782836365363453200,3.135453125,-0.08165186277031898,-0.003979773226502584,-0.0010798950580414384
1782836365373382100,3.145382080078125,-0.08224982866346836,-0.006376685150264529,-0.005481180490599945
1782836365383311000,3.15531103515625,-0.08539221834242343,-0.0008889738833560841,-0.004308300786325708
1782836365393241000,3.165240966796875,-0.07327040339410304,-0.00935852824320027,0.000005096300225704908
1782836365403170000,3.175170166015625,-0.0861386527955532,-0.000049812795608886515,0.004693674241565167
1782836365413099000,3.18509912109375,-0.08643792800307273,-0.0026939632081543095,0.010391438358603044
1782836365423029000,3.195029052734375,-0.07551321388483047,-0.004875671753456118,-0.0013101784162689
1782836365432958200,3.204958251953125,-0.07745733368992805,-0.006202944010065403,0.010163255625916644
1782836365442888000,3.214887939453125,-0.08598550806045532,-0.004363328613169142,0.0046027719545643775
1782836365452817000,3.22481689453125,-0.092569562625885,-0.0007887729034031508,-0.00275095180911012
1782836365462746000,3.23474609375,-0.08523848908543587,0.004778427061458933,-0.005533166406163945
1782836365472676000,3.244676025390625,-0.0802998636394739,-0.005452930502005619,-0.004287668990250676
1782836365482605000,3.25460498046875,-0.07536240723729133,-0.00017661580058629623,0.002582034116145223
1782836365492535000,3.26453515625,-0.07177052022516726,-0.002201764381819521,-0.008766558836819604
1782836365502464000,3.274464111328125,-0.08089841405451298,0.001710350435951841,-0.0014174473161809146
1782836365512393000,3.28439306640625,-0.07596037313044071,-0.0024346969256817826,0.0027473533462267366
1782836365522323200,3.2943232421875,-0.07551146031916141,-0.0006571207641944056,0.002304961607279256
1782836365532252200,3.304252197265625,-0.073865446677804,-0.01092317860663752,0.01293307653227821
1782836365542182000,3.314181884765625,-0.08134674234390259,-0.006530441235893522,-0.006615198622364551
1782836365552111000,3.324111083984375,-0.08628419874608516,-0.012999419766757636,0.004473884877888486
1782836365562040000,3.3340400390625,-0.09616144963800907,0.001635094384299009,0.005444118149532005
1782836365571970000,3.343969970703125,-0.09316811304092407,0.0038830023168964544,0.01074649887396954
1782836365581899300,3.353899169921875,-0.08628361422419548,-0.004226497975343954,0.003392619846668094
1782836365591829000,3.3638291015625,-0.08343816166520118,-0.0020482257794326867,0.002405106646660715
1782836365601758000,3.373758056640625,-0.07760287964046,-0.0025804740591876905,-0.0033485067103058096
1782836365611687000,3.38368701171875,-0.07356266433894634,-0.006200734928314341,-0.0035005737331695853
1782836365621617200,3.3936171875,-0.07565875983536242,-0.005241481991700129,0.007297691860655322
1782836365631546000,3.403546142578125,-0.09451134434342384,0.0014943507605814374,0.0028078878944274035
1782836365641476000,3.41347607421875,-0.08223989179134368,-0.0021974301291746087,0.008487988490611314
1782836365651405000,3.423405029296875,-0.08508300626277923,-0.007279423839136143,0.0039994905654806645
1782836365661334000,3.433333984375,-0.08598083188533782,-0.0006423695779900299,0.001603937198454514
1782836365671264300,3.44326416015625,-0.0835854611814022,-0.010187455060478532,-0.002795128877554089
1782836365681193200,3.453193115234375,-0.0919639979481697,-0.005605929677453241,0.0023926033581141383
1782836365691123000,3.463123046875,-0.0750549487233162,-0.005951910124754067,0.0034391898015979677
1782836365701052000,3.473052001953125,-0.0793938547104597,-0.00746942941508023,-0.002350718711456284
1782836365710981000,3.482981201171875,-0.08388239830136299,-0.00732669019709865,0.0034138818304054437
1782836365720911000,3.4929111328125,-0.08118775238990783,0.004029994730776525,0.007410997775709256
1782836365730840000,3.502840087890625,-0.08298340363502502,-0.0027500070984388,0.005647166440961882
1782836365740770000,3.51277001953125,-0.08014028916358948,-0.000618087374215247,0.009206009700009598
1782836365750699000,3.522698974609375,-0.0765489866733551,-0.004923762949436786,0.0018718126207124442
1782836365760628000,3.5326279296875,-0.08208733157813548,-0.0045634440203517436,0.005489993984717875
1782836365770558200,3.54255810546875,-0.07325812843441963,-0.014670056392718105,0.0052417731110006565
1782836365780487200,3.552487060546875,-0.08253507534563541,-0.007329006593415397,0.002455521659646183
1782836365790417000,3.5624169921875,-0.08687398133277893,0.0026007519455248256,0.009215151987690478
1782836365800346000,3.57234619140625,-0.08522738316953182,-0.002398060988765792,0.0014841102110687643
1782836365810275000,3.582275146484375,-0.08477847035825252,-0.006219603454743628,0.007036291844956576
1782836365820205000,3.592205078125,-0.07789514058530331,-0.01570053994312766,-0.0038877281535416837
1782836365830134300,3.60213427734375,-0.08163549615740776,-0.008826524275328847,-0.002047370117017999
1782836365840064000,3.61206396484375,-0.08507833008766173,0.0007533688007039018,-0.0020065175168216226
1782836365849993000,3.621992919921875,-0.08866787901222706,-0.0014998768898920388,0.00699574063885957
1782836365859922200,3.631922119140625,-0.07998831347227096,-0.01612746468488476,0.00048255935255438084
1782836365869852200,3.64185205078125,-0.08372983808815479,-0.009953795860009267,0.008490143915079533
1782836365879781000,3.651781005859375,-0.08073767053484916,-0.0093901432284154,0.004870556045277044
1782836365889709800,3.661709716796875,-0.07669862427711487,-0.0030779769650136585,0.0038544012726750222
1782836365899640000,3.67164013671875,-0.07490297303199768,-0.007576118930501979,-0.008269359037559479
1782836365909569000,3.681569091796875,-0.08792202908098697,-0.004643420771250384,-0.0005446922027971595
1782836365919499300,3.691499267578125,-0.08058920197486877,-0.0019089708599029109,0.009679472430655733
1782836365929428200,3.70142822265625,-0.08028934224545956,0.00024007980810129083,0.0061220356774050735
1782836365939357000,3.71135693359375,-0.08313362576067447,0.004790792211043299,-0.0033704810800962146
1782836365949287000,3.721286865234375,-0.08103986835181713,-0.0008286556767532602,0.003246197113301605
1782836365959216000,3.731216064453125,-0.08268471294939518,-0.008703062863263767,0.000340913259005174
1782836365969146000,3.74114599609375,-0.08373334521949291,-0.010059735885937698,-0.000658920566458255
1782836365979075000,3.751074951171875,-0.07879647333920002,-0.012461288593843345,0.01477850346956402
1782836365989004000,3.761004150390625,-0.07879588881731033,-0.01039705296534812,0.00642670857924968
1782836365998934000,3.77093408203125,-0.08912263704240321,-0.005981692770842346,0.010646125505724921
1782836366008863000,3.780863037109375,-0.07236380994319916,-0.0011103980816929834,-0.0026232703088317063
1782836366018793200,3.790793212890625,-0.09211597363948822,0.0006052244677091949,0.004259319678600877
1782836366028722000,3.800721923828125,-0.07819850744605064,-0.0003677093635633355,0.003037331002438441
1782836366038651000,3.81065087890625,-0.0849316150933504,-0.0022916049396066226,-0.0027132775466889142
1782836366048581000,3.8205810546875,-0.0915156696587801,-0.011319914847752079,-0.004213014585152268
1782836366058510000,3.830510009765625,-0.0867272663384676,-0.0014097474960930413,-0.0012375881040934472
1782836366068440000,3.840440185546875,-0.07774901011288166,0.00013550633041886612,0.0005622735252603889
1782836366078369000,3.850369140625,-0.08119301308691501,-0.0009509446201060199,0.00933627588301897
1782836366088298000,3.860298095703125,-0.08538345051407814,-0.00019715626511606388,0.015518161122035233
1782836366098228000,3.87022802734375,-0.07790215484797954,-0.005513798981168656,0.005613081508269533
1782836366108157200,3.8801572265625,-0.08792728977799415,-0.00798178739674331,0.0059553190746810284
1782836366118087200,3.890087158203125,-0.09017185383439064,-0.01008911039418308,0.0031357498756144193
1782836366128016000,3.900015869140625,-0.0790980866342783,-0.004490766943208291,0.00409188155666925
1782836366137944800,3.90994482421875,-0.08448387132585049,0.003304926721839001,0.005951930674351752
1782836366147875000,3.919875,-0.08822481141984462,0.00044257953943742904,0.0007287709322758018
1782836366157804000,3.929803955078125,-0.07685293805599212,-0.004508661647036206,0.002763738225447014
1782836366167734300,3.939734375,-0.08523322838842869,-0.0035709167185093973,0.009909454394783824
1782836366177663000,3.9496630859375,-0.08703004867732525,-0.008412625695214955,0.003493221543775871
1782836366187592000,3.959592041015625,-0.08852759375870227,-0.007989720683093764,0.0046012193182948975
1782836366197522200,3.969522216796875,-0.08209259227514266,-0.002901323490164941,0.007679549051402136
1782836366207451100,3.979451171875,-0.08763035265803337,-0.010930843606573763,0.01192923325197771
1782836366217381000,3.989381103515625,-0.07580898196101188,-0.0016904401590843916,0.008306996767362579
1782836366227309800,3.999309814453125,-0.07984919726252555,-0.005326314726696,0.012645272566843778
1782836366237239000,4.009239013671875,-0.0862830297023058,-0.0006448595042427769,0.011502413541497662
1782836366247169000,4.0191689453125,-0.08343874618709086,0.002782069037403562,0.00004867971362546086
1782836366257098200,4.02909814453125,-0.08388707447648049,-0.006372255570319248,0.00236868362640962
1782836366267028200,4.0390283203125,-0.0741612147539854,-0.004067943558655679,0.005182224943488836
1782836366276957200,4.048957275390625,-0.07805179245173931,0.00013185820600774604,0.0011095504107885062
1782836366286886100,4.05888623046875,-0.08059563171565533,-0.0003090551035507815,0.00291142133413814
1782836366296816000,4.068816162109375,-0.07909867115616798,-0.008386095593782374,0.006263426042627543
1782836366306745300,4.078745361328125,-0.07730360443294047,-0.00388607619421673,-0.0025912312027532606
1782836366316675000,4.088675048828125,-0.08493512222468852,-0.004547336560700205,-0.0006628569560591131
1782836366326604000,4.09860400390625,-0.0777513482004404,0.00011438419811020139,0.003155815416108817
1782836366336533200,4.108533203125,-0.07790098580420017,0.000810402496610186,0.011700612127874046
1782836366346463200,4.118463134765625,-0.06952011094987393,-0.006192315872307517,0.006407903414079919
1782836366356392200,4.12839208984375,-0.07670154688656329,-0.010099070099194068,0.010148633445519953
1782836366366322200,4.138322265625,-0.09016834670305252,-0.00834289177711762,0.007328004800528288
1782836366376251100,4.148251220703125,-0.08089139979183674,-0.006570065997628262,-0.0008033979379106313
1782836366386180000,4.15818017578125,-0.08283727316260338,-0.0013927472705865512,-0.0012829159500077367
1782836366396110300,4.1681103515625,-0.08837444902360439,-0.0017945016092911828,-0.005684173983102664
1782836366406039300,4.178039306640625,-0.08568038763403892,0.0007946032809239114,0.0018195618436671792
1782836366415969000,4.187968994140625,-0.08029343389868736,-0.002114385779999429,0.006052568904077633
1782836366425898200,4.197898193359375,-0.0771504596978426,0.000873564539203653,-0.0013912990947719662
1782836366435827200,4.2078271484375,-0.08283785768449306,-0.00009722927979892119,0.0038981399497017262
1782836366445757200,4.217757080078125,-0.08388532091081143,-0.003432639046513941,0.00913198548257351
1782836366455686400,4.227686279296875,-0.08972060293555259,-0.013339234763931016,-0.0012568590601440518
1782836366465616100,4.2376162109375,-0.08253682891130447,-0.005594878560476354,-0.002508219961263239
1782836366475545000,4.247545166015625,-0.0755032770127058,-0.0020617782391054787,0.0006689670364372432
1782836366485474000,4.25747412109375,-0.07909516402482986,-0.005179302904862561,-0.0004209744915831834
1782836366495404300,4.267404296875,-0.07999474321305751,-0.003962263256809092,0.002983098330860957
1782836366505333200,4.277333251953125,-0.07595511243343353,-0.0041585387433355206,-0.00023389095426537096
1782836366515263200,4.28726318359375,-0.08508359078466891,-0.007673035399758373,-0.0029363000470679253
1782836366525192200,4.297192138671875,-0.08224047631323338,-0.0037546906289557228,-0.0006963117010891437
1782836366535121200,4.30712109375,-0.08224047631323338,-0.011041260019864422,0.00569177276766859
1782836366545051400,4.317051513671875,-0.07580664387345314,-0.0029719170664320696,0.011374375848192722
1782836366554980400,4.32698046875,-0.07670505401790141,-0.00017139391948585398,0.006822475564340129
1782836366564909300,4.336909423828125,-0.08523498195409775,-0.00259681213099102,0.011574282334465533
1782836366574839000,4.346839111328125,-0.08388999708592891,-0.001583577113726642,0.004513623233232647
1782836366584768300,4.356768310546875,-0.07850304335057735,-0.00003267328949586954,-0.001823671763204038
1782836366594698200,4.3666982421875,-0.0804483321994543,-0.003862701597673003,0.0038988797352183606
1782836366604627200,4.376627197265625,-0.08643442087173461,-0.0050069676996383344,-0.0011426580959465354
1782836366614556400,4.386556396484375,-0.07865326547622681,-0.0015951431122899521,0.0012623572191689163
1782836366624486100,4.396486083984375,-0.08269348077774047,-0.010759793322026963,0.003494874644745141
1782836366634415000,4.4064150390625,-0.085986092582345,-0.011295362645096611,0.005541550642019138
1782836366644345300,4.416345458984375,-0.07341828743219375,-0.011724369746085721,0.001954193674540147
1782836366654274300,4.4262744140625,-0.07895487877130508,-0.0037609839432465376,-0.003441820150101557
1782836366664203300,4.436203369140625,-0.08194879989027977,-0.010668250572565012,0.004553799979994074
1782836366674133200,4.44613330078125,-0.07730944965183735,-0.008824852337228366,0.003243658096343279
1782836366684062200,4.456062255859375,-0.0783569128781557,-0.010582079259608872,0.0014334760023746638
1782836366693992200,4.4659921875,-0.08284545646905898,-0.0032672735798376378,-0.0034558030096814036
1782836366703921400,4.47592138671875,-0.0806008924126625,-0.004867014093787292,0.004642446377826855
1782836366713850400,4.485850341796875,-0.0855371797710657,-0.001606105751832365,0.001949818893522024
1782836366723780000,4.495780029296875,-0.08404080373346805,-0.0050044389574788505,-0.002666141336178407
1782836366733709300,4.505709228515625,-0.08329261571466923,0.0032857117063598705,-0.0008475110742729156
1782836366743639300,4.515639404296875,-0.08733283101618289,-0.0013727599327277857,0.003193982868874445
1782836366753568300,4.525568359375,-0.08598784614801407,-0.003568467320629861,-0.0035508060830645263
1782836366763497200,4.535497314453125,-0.07536416080296039,-0.0018596552503935527,-0.000615775544475764
1782836366773427200,4.54542724609375,-0.08359364448785782,-0.004472709555065376,0.006485233833454549
1782836366783356200,4.555356201171875,-0.08239595913589,0.0023355268505460118,0.005890437144925817
1782836366793286400,4.565286376953125,-0.08269757243096829,-0.004071366779136588,0.004969623372424394
1782836366803215400,4.57521533203125,-0.08464286127984523,-0.00893980336174136,-0.002824921227619052
1782836366813144300,4.585144287109375,-0.07506663916110992,-0.00756840997725958,-0.005146642173454165
1782836366823074300,4.59507421875,-0.07446808874607086,-0.005021613854565657,-0.004381850079726427
1782836366833003300,4.605003173828125,-0.08150047160089015,-0.006715127320148167,-0.004939146035769954
1782836366842933200,4.614933349609375,-0.0841951175123453,-0.00848033490711823,0.0009712379186414182
1782836366852862200,4.6248623046875,-0.07731237226128577,-0.0008755635584006085,0.003128598615620285
1782836366862791400,4.63479150390625,-0.07282265962660313,-0.004760726437164703,-0.0002853654131758958
1782836366872721200,4.64472119140625,-0.08225041318535804,-0.012234466701181371,0.007460810000495984
1782836366882650000,4.654650146484375,-0.08180266941785812,-0.005969589057806297,0.008858758031763135
1782836366892580400,4.664580322265625,-0.0862912130087614,-0.006649816702952375,0.004709757726686075
1782836366902509300,4.67450927734375,-0.08314823880791664,-0.005719559248670703,0.0068532634282484645
1782836366912438300,4.684438232421875,-0.07880874829888343,-0.005127870115969563,0.003875160932913422
1782836366922368300,4.6943681640625,-0.07865969521701335,-0.007399538520889473,0.0004124532584100961
1782836366932297200,4.704297119140625,-0.08629062848687172,-0.004667261729497113,0.0008849113420583307
1782836366942227200,4.714227294921875,-0.08135317208468913,-0.011012632147001567,0.0027738760269712657
1782836366952156400,4.724156494140625,-0.0815028096884489,-0.00024056158200255593,-0.01038363864463754
1782836366962085000,4.734085205078125,-0.08928338056206703,0.0022631163473502964,0.0028298805305268615
1782836366972015000,4.74401513671875,-0.08718845410943031,-0.005111578280761022,0.005495537809515371
1782836366981944300,4.7539443359375,-0.08060556858778,-0.0025164654873340623,0.003308841420197859
1782836366991874300,4.763874267578125,-0.08030629338026046,-0.006552811756261508,0.000032468364341184496
1782836367001803300,4.77380322265625,-0.06908347309827804,-0.0019662562883808275,0.007969362310832366
1782836367011732200,4.783732177734375,-0.09556932896375656,-0.0015130149326781975,-0.005954871550109237
1782836367021662200,4.793662109375,-0.08988193097710609,-0.003444714789264253,-0.0033216095702257005
1782836367031591200,4.803591064453125,-0.08793664212822913,-0.003450364786983118,-0.002130134763335809
1782836367041521400,4.813521484375,-0.0732727414816618,0.0002758338247833308,-0.009804121723631397
1782836367051450400,4.823450439453125,-0.07985738056898116,-0.012564430449553765,-0.002830282389326021
1782836367061379000,4.833379150390625,-0.0883873085051775,-0.0010882404779898934,-0.002746631827019155
1782836367071309300,4.843309326171875,-0.06998188324272632,0.003892816462257178,-0.0056987687640357755
1782836367081238300,4.85323828125,-0.08824000898897648,0.004868950322546879,0.0014186163599602876
1782836367091168300,4.863168212890625,-0.09662029932141303,-0.003814512791103334,0.0010367774355225265
1782836367101097200,4.87309716796875,-0.0846487064987421,0.0003714345489657717,0.007518677667574957
1782836367111026200,4.883026123046875,-0.08584639185070991,0.0006975971925887278,0.001629537430591881
1782836367120956200,4.8929560546875,-0.07013385893404483,-0.006164591610920615,0.0031576511801686136
1782836367130885000,4.902885009765625,-0.0846487064987421,-0.0009599150903173722,0.005843474464351311
1782836367140815400,4.9128154296875,-0.08195698319673538,-0.005116334370980621,0.007351422208733856
1782836367150744300,4.922744384765625,-0.07447627205252647,-0.00854019303106179,-0.0018683054893743245
1782836367160673000,4.932673095703125,-0.08285480881929397,-0.010631987382518127,-0.0011428407590370624
1782836367170603300,4.942603271484375,-0.08375204991996288,-0.004304682344666798,-0.0005334310232661665
1782836367180532200,4.9525322265625,-0.07821779666841029,-0.0008853097759245429,-0.0007291271253023296
1782836367190462200,4.962462158203125,-0.08614975871145725,-0.0024482105694478376,0.0027318178503774105
1782836367200391200,4.97239111328125,-0.08420680795013905,-0.002017083434964297,0.0038951442750170826
1782836367210320100,4.982320068359375,-0.07882043873667717,-0.012870528123504482,0.0017301847934722899
1782836367220250000,4.99225,-0.0866010096102953,-0.012970906058326364,-0.0009137629772070795
1782836367230179300,5.002179443359375,-0.08675123173594475,0.0010292591368808643,0.004541241892520338
1782836367240109300,5.012109375,-0.08734919762909411,-0.007739145167975221,0.010428592031216249
1782836367250038300,5.022038330078125,-0.08420622342824935,-0.005040544029787998,0.007208040815824642
1782836367259967200,5.03196728515625,-0.08450374507009982,-0.007421415850913035,0.002598492060601711
1782836367269897200,5.041897216796875,-0.08300853807628154,-0.0075216710589709685,-0.0012626951458863914
1782836367279826400,5.051826416015625,-0.08241057218313216,0.003743503085483098,-0.0026361663230229167
1782836367289755400,5.06175537109375,-0.07896890729665756,-0.0009205329279997385,-0.0018681410925928503
1782836367299685000,5.07168505859375,-0.0822609345793724,-0.0007508372044336283,0.005902812569309026
1782836367309614300,5.0816142578125,-0.07687456536591053,-0.0034726862166455244,0.0034036709636449812
1782836367319544300,5.09154443359375,-0.08076631210744381,-0.00467273477234703,-0.004450714064855128
1782836367329473300,5.101473388671875,-0.0818126062899828,-0.006323124907189048,-0.003168254772573709
1782836367339402200,5.11140234375,-0.08375672609508036,-0.011325239476840943,0.003990266079409048
1782836367349332200,5.121332275390625,-0.08779694139659404,-0.004743177651564474,0.004770895063085481
1782836367359261200,5.13126123046875,-0.08854454489350318,0.0018124962069967295,-0.0018825806098990141
1782836367369191400,5.14119140625,-0.0924345380693674,0.0025480410858202958,0.004273503467580303
1782836367379120400,5.151120361328125,-0.08166121512055396,-0.0012938180824014125,-0.0011724047802388667
1782836367389049300,5.16104931640625,-0.0791197139441967,-0.00284267665084044,-0.00229611158054322
1782836367398979000,5.17097900390625,-0.07837211044728755,-0.007905455916145,-0.0012717278357129544
1782836367408908300,5.180908203125,-0.09019465018808841,0.002285659256009967,0.009848755449801683
1782836367418838300,5.19083837890625,-0.07867313922047614,-0.006750416687593679,-0.010575023897737264
1782836367428767200,5.200767333984375,-0.07044307101368903,-0.006287144274110324,0.005119306641956791
1782836367438696400,5.210696533203125,-0.08435936816334724,-0.003244634202233283,0.002723935938021168
1782836367448626200,5.220626220703125,-0.07687748797535895,0.005380427525620325,-0.002785621263692155
1782836367458555100,5.23055517578125,-0.07972235601246357,-0.0036020944539515765,0.00814386949436739
1782836367468485400,5.2404853515625,-0.07717793222665786,-0.0002404748170345556,-0.0009284673559945076
1782836367478414300,5.250414306640625,-0.08031915286183357,-0.00006209118022525217,-0.0012815733762923628
1782836367488343300,5.26034326171875,-0.07986965552866458,0.0011316806150280172,-0.004994602550053968
1782836367498273300,5.270273193359375,-0.0819645819813013,0.0003399474279140122,-0.005709874679939821
1782836367508202200,5.2802021484375,-0.08435878364145755,-0.002957993001534487,-0.003027220600377768
1782836367518132200,5.29013232421875,-0.08465864337086677,-0.003483524416957516,0.005618917594011873
1782836367528061400,5.3000615234375,-0.07657821276783942,-0.008579969060668373,-0.0024857158685103057
1782836367537990400,5.309990478515625,-0.07747603839039802,-0.00356374719220621,-0.004854737421637401
1782836367547919400,5.31991943359375,-0.07717734770476818,-0.009185778050267254,0.006881713204598054
1782836367557848300,5.329848388671875,-0.08076865019500255,-0.005245230009988881,-0.0034446696943137792
1782836367567777300,5.33977734375,-0.08884908079802989,-0.004200910872116219,-0.006420105308527126
1782836367577707300,5.349707275390625,-0.08256430144011974,-0.0080076964436681,0.002419007307849824
1782836367587636200,5.35963623046875,-0.094085812407732,-0.008994347702217055,0.010093505724798887
1782836367597566500,5.36956640625,-0.07448153274953365,0.00007975070532411336,0.008151970602432265
1782836367607495400,5.379495361328125,-0.07912029846608638,-0.002458950017526513,0.01029085492780432
1782836367617424100,5.389424072265625,-0.0860036282390356,-0.00013064806303300427,0.005334529428370297
1782836367627354400,5.399354248046875,-0.08495616501271724,0.0014013187361095333,0.01249661221061833
1782836367637283300,5.409283447265625,-0.08974573737680912,-0.0011264170639100485,-0.004937693864200264
1782836367647213300,5.41921337890625,-0.08226268814504147,-0.007204604466434102,0.0006982113972306251
1782836367657142500,5.429142578125,-0.07148878067433834,-0.0014293090006220154,0.0011341459959279745
1782836367667071200,5.4390712890625,-0.07582827118337154,0.0014544286005024332,0.006794053187454119
1782836367677001200,5.449001220703125,-0.07134089663624762,-0.005729455592422164,0.009662612627400084
1782836367686930400,5.458930419921875,-0.07807458880543708,-0.0071636770885350415,-0.003802086563548073
1782836367696860400,5.4688603515625,-0.09453647878468036,-0.0022222003858943934,0.0010866353260818868
1782836367706789400,5.478789306640625,-0.08615852653980255,-0.0024827127731376093,-0.003411434144992381
1782836367716718000,5.488718017578125,-0.08136953869760036,0.005583950741085573,-0.0061891552300192415
1782836367726648300,5.4986484375,-0.07747954552173614,0.0029356310434988696,-0.0009780238524544984
1782836367736577300,5.508577392578125,-0.07942308080494404,0.00017967883228557182,-0.008186813586950302
1782836367746507500,5.518507568359375,-0.08675473886728287,-0.0058991062210378,-0.0027330599593929947
1782836367756436200,5.528436279296875,-0.09169277979135512,-0.005080258410601527,-0.005868709370307624
1782836367766365200,5.538365234375,-0.08765197996795177,-0.0021174191289464943,0.004808779388060793
1782836367776295400,5.54829541015625,-0.08106850992441177,-0.00027163485698984,0.000732889984967187
1782836367786224400,5.558224365234375,-0.0800216312199831,-0.003298885710941977,-0.0006788765090983361
1782836367796154400,5.568154296875,-0.07583177831470966,-0.004258861879230244,-0.00546336170611903
1782836367806083300,5.578083251953125,-0.08376257131397724,-0.00035586937036423475,0.0009446604389697313
1782836367816012300,5.58801220703125,-0.07942366532683372,-0.007416772212658543,0.0046733712390530854
1782836367825942300,5.5979423828125,-0.08391337796151638,0.001696720344465575,-0.006633848523907363
1782836367835871200,5.607871337890625,-0.07972352505624294,-0.00921202730719815,0.0005260149017907679
1782836367845801500,5.617801513671875,-0.0815203453451395,-0.0055298978784878265,0.003117182172462344
1782836367855730200,5.627730224609375,-0.07867839991748332,-0.006141941958517418,-0.0019343290634453295
1782836367865659100,5.6376591796875,-0.0756862323641777,-0.0024256042995286406,-0.001376594715984538
1782836367875589400,5.64758935546875,-0.08017711404263973,-0.00039214854343154,-0.00033516850480809805
1782836367885518300,5.657518310546875,-0.07134966446459293,-0.0029351241534226573,-0.0016211166621185838
1782836367895448300,5.6674482421875,-0.0839209767460823,-0.005015246333394316,0.0016729747135192155
1782836367905377300,5.677377197265625,-0.07898352034389972,-0.007201749214000301,0.0011621208482421935
1782836367915306200,5.68730615234375,-0.07494388956427574,-0.0052327860869467255,-0.001117724584089592
1782836367925236200,5.697236328125,-0.07075345213711261,-0.00589942930637917,0.006239049653196707
1782836367935165400,5.70716552734375,-0.070305123847723,-0.0073585900225705695,-0.006706658031791448
1782836367945095400,5.717095458984375,-0.08601765676438808,-0.00593501778463542,-0.0009214713596273213
1782836367955024100,5.727024169921875,-0.08661679170131682,-0.0074659976322669535,-0.005139180386206135
1782836367964953300,5.736953369140625,-0.08407236791551112,-0.0012305047719361026,-0.005388990428810939
1782836367974883300,5.74688330078125,-0.07464519887864589,-0.0015283620572154176,0.0034498755923938005
1782836367984812300,5.756812255859375,-0.07314823831915855,0.002078825272028916,-0.0014628116947133093
1782836367994742300,5.7667421875,-0.08257540735602378,-0.0014298278779635437,0.0076719228673726315
1782836368004671200,5.776671142578125,-0.09110650433599948,-0.006359619851032039,-0.006126264327950775
1782836368014600200,5.78660009765625,-0.08467267189621924,-0.0034075000386801545,0.0037188378600403666
1782836368024530400,5.796530517578125,-0.08033142782151699,-0.00837042138814868,0.0011845518757589162
1782836368034459400,5.80645947265625,-0.0827232913941145,-0.00787322273053287,-0.00473483736901544
1782836368044388400,5.816388427734375,-0.0893067614376545,-0.0017721893127833027,-0.002155369669292122
1782836368054318000,5.826318115234375,-0.07763561286628246,-0.0030463283012912143,0.0007829214054625481
1782836368064247300,5.836247314453125,-0.08152619056403636,-0.0015758242071780841,-0.013273907592892646
1782836368074177300,5.84617724609375,-0.08481821784675121,-0.0038875026787893144,-0.002202186219394207
1782836368084106200,5.856106201171875,-0.08032850521206855,-0.001157420127771911,-0.00017482684394344686
1782836368094035500,5.866035400390625,-0.0831716196835041,-0.005516419054873403,-0.006171811369573697
1782836368103965200,5.875965087890625,-0.08062778041958808,0.0014431000639568083,0.0018896862041205167
1782836368113894100,5.88589404296875,-0.08436872051358223,-0.0017076144853490403,-0.0051358741842675954
1782836368123824400,5.895824462890625,-0.07509118908047675,-0.0007542752662906423,-0.009486972932703792
1782836368133753300,5.90575341796875,-0.08601356511116028,-0.00745015731738531,-0.0033686270497273654
1782836368143682300,5.915682373046875,-0.07793138094246387,-0.004900326133277849,-0.0028938948106020687
1782836368153612300,5.9256123046875,-0.08406593817472457,-0.0012023780809278831,0.003735798127995804
1782836368163541200,5.935541259765625,-0.0860123960673809,-0.0008097403429070255,0.007029131451807916
1782836368173471200,5.94547119140625,-0.07763152121305465,0.0019287104609451487,0.0029536530406679955
1782836368183400400,5.955400390625,-0.08705927477180957,-0.007855301198063535,-0.0006837536136154085
1782836368193332200,5.965332275390625,-0.08212006480395793,-0.010749488840432603,-0.007885912677925079
1782836368203261400,5.975261474609375,-0.07957447197437285,-0.008387274341538431,-0.0013153751811943947
1782836368213191200,5.985191162109375,-0.07328910809457302,-0.0016336011135339504,0.007974933535093442
1782836368223120100,5.9951201171875,-0.08331658111214638,-0.002946975563064916,0.0005077577258925885
1782836368233049300,6.00504931640625,-0.07314122405648231,-0.008494211593776708,0.006027881987392902
1782836368242979300,6.014979248046875,-0.07733224600553512,-0.002215134749223944,0.005346649124426767
1782836368252908300,6.024908203125,-0.08286883734464645,-0.006175185499349026,0.004611220122501254
1782836368262838000,6.034838134765625,-0.08840542868375778,-0.006043824479440809,-0.011267508807079865
1782836368272767000,6.04476708984375,-0.08451543550789356,-0.006799469718910404,-0.007870203652139753
1782836368282696200,6.0546962890625,-0.08346738775968551,0.00023883427415275944,-0.0030457517709117383
1782836368292626200,6.064626220703125,-0.07164484801888465,0.0010582003911084029,-0.0004325644646771252
1782836368302555100,6.07455517578125,-0.08316635898649692,0.0007328448900167132,-0.0003611340631265193
1782836368312485000,6.084485107421875,-0.08556114516854285,-0.004467111502162879,-0.0009930387584958225
1782836368322414000,6.0944140625,-0.08256897761523724,-0.004002188270998886,-0.0030092465522699057
1782836368332343000,6.104343017578125,-0.08810790704190731,-0.009611823155079037,0.003956235945643857
1782836368342273300,6.114273193359375,-0.07927928842008114,-0.0020388174886262276,-0.0011314334490336478
1782836368352202200,6.1242021484375,-0.08002747643887996,-0.0033645707874733486,0.0128099707424175
1782836368362131200,6.134131103515625,-0.0786795689612627,-0.0025133602147951024,-0.0007138016920071095
1782836368372061200,6.144061279296875,-0.08541384565234184,-0.001408007630155771,0.0004001417661085725
1782836368381990100,6.153990234375,-0.08616203367114067,0.0011995085579401348,0.0032974341101944444
1782836368391920000,6.163920166015625,-0.08885551053881645,0.00026419247769517823,-0.0037757282795850187
1782836368401849300,6.173849365234375,-0.08242050905525684,-0.001844110050567542,0.00017991401101462542
1782836368411778300,6.1837783203125,-0.08032616712450981,-0.006790111089631682,0.004755323034618049
1782836368421708000,6.1937080078125,-0.07927870389819144,-0.013410990534111624,0.006133506919490173
1782836368431637200,6.20363720703125,-0.07688391771614551,0.00046918727268348444,0.000022485826443880794
1782836368441567200,6.213567138671875,-0.08945347643196583,-0.006547045310822432,-0.00895072889784351
1782836368451496200,6.22349609375,-0.0807756644576788,-0.0060584386683272895,-0.0003521835716906935
1782836368461425200,6.233425048828125,-0.08167349008023739,0.007076440050610108,0.0027396814964246005
1782836368471355100,6.243355224609375,-0.07763502834439277,-0.006155445898306788,0.004085479215346277
1782836368481284000,6.2532841796875,-0.08376958557665348,-0.0066053211157442995,0.0006878361336886882
1782836368491214300,6.26321435546875,-0.08302198207974433,0.0011218590489792404,0.0027541210137307644
1782836368501143300,6.273143310546875,-0.07389408825039863,-0.004045822487570694,-0.0017384137657005339
1782836368511072300,6.283072265625,-0.08002864548265934,-0.005507153469606419,-0.0061836662041489035
1782836368521002200,6.293002197265625,-0.07972937027513981,-0.0009554615358414593,-0.004653479228494689
1782836368530931200,6.30293115234375,-0.07568915497362613,0.002497546157732722,0.006273280716361478
1782836368540861200,6.312861083984375,-0.08257131570279598,-0.01021116587127326,0.004729686269862577
1782836368550790100,6.3227900390625,-0.09005319589078425,-0.0022979878729762274,-0.003791756965778768
1782836368560719400,6.33271923828125,-0.07149754850268364,-0.010752549588843249,-0.0006126520056277513
1782836368570649000,6.342649169921875,-0.0837684165328741,-0.009899049448489676,-0.0021805406431667507
1782836368580578000,6.352578125,-0.09499123681485652,-0.009515380468213697,0.0030858828519005326
1782836368590508300,6.36250830078125,-0.08391863865852356,0.0003865636194386752,0.0022998835733626035
1782836368600437200,6.372437255859375,-0.08915537026822566,-0.006157060183369321,-0.000050908203329890964
1782836368610366200,6.3823662109375,-0.08601181154549122,-0.0021465173592674545,-0.006090033103944734
1782836368620296200,6.392296142578125,-0.07538754167854786,-0.0010170960583403938,0.0006643091276288032
1782836368630225200,6.40222509765625,-0.08451660455167292,-0.0010579703497787705,-0.005906073105474934
1782836368640155100,6.412155029296875,-0.08152385247647762,-0.0001446977088053245,0.0026154797280207275
1782836368650084400,6.42208447265625,-0.08257131570279598,0.0016492981520539614,-0.005124978330917656
1782836368660013300,6.432013427734375,-0.07912965081632137,-0.0049718307417089816,-0.0013609496222808956
1782836368669943000,6.441943115234375,-0.0776338593006134,-0.004922714919954887,0.008588855049200355
1782836368679872300,6.451872314453125,-0.08391805413663386,-0.007208073352687643,-0.00003445025887340307
1782836368689802200,6.46180224609375,-0.09035305562019348,0.005870788304606685,-0.0008244681254029274
1782836368699731200,6.471731201171875,-0.08676116860806941,0.0009644160230323905,0.0011555267106741667
1782836368709660400,6.481660400390625,-0.08526537709236144,-0.005818854333859053,-0.005204756435705348
1782836368719590100,6.491590087890625,-0.08227320953905581,-0.0054333210484153825,-0.0060200731402728705
1782836368729519000,6.50151904296875,-0.08406886078417301,-0.002443971644103294,0.0022651045209262518
1782836368739449300,6.511449462890625,-0.07718553101122379,-0.005194147135078674,0.0023894615529570728
1782836368749378300,6.52137841796875,-0.08107669323086739,-0.002808070557517931,-0.0010979878371581435
1782836368759307300,6.531307373046875,-0.0792810419857502,0.0013622990458621643,0.0020578367121051994
1782836368769237200,6.5412373046875,-0.08272095330655574,-0.0047262379332067206,-0.002458718263730407
1782836368779166200,6.551166259765625,-0.08197159624397754,-0.0024311943609209266,0.002462380658695474
1782836368789095200,6.56109521484375,-0.07837970923185349,0.0004583433641499141,0.0023620986219961195
1782836368799025400,6.571025390625,-0.08421616030037403,-0.006339973294001538,-0.0015969868678599596
1782836368808954000,6.5809541015625,-0.08047580472826957,-0.002959546779448283,-0.0010634279804304242
1782836368818884000,6.590884033203125,-0.08810907608568667,0.0027697678199008805,0.004613887003622949
1782836368828813000,6.60081298828125,-0.0858645120292902,0.0007899853296665241,-0.007786206029960885
1782836368838743300,6.610743408203125,-0.08092647110521793,-0.0054736593378474935,-0.0006059574033599346
1782836368848672300,6.62067236328125,-0.0863128403186798,-0.005718835446174489,-0.0004071194961667061
1782836368858601200,6.630601318359375,-0.07853168492317199,-0.004991658249363535,-0.001272056629275903
1782836368868531200,6.64053125,-0.08960428307950496,-0.005018835092301014,0.004868491952354088
1782836368878460200,6.650460205078125,-0.07254618077278137,-0.009080005275231087,0.009757305173529312
1782836368888389000,6.66038916015625,-0.07688625580370426,-0.01127848457553191,-0.0013746858866885304
1782836368898319400,6.6703193359375,-0.07913140438199043,-0.0033549341678037305,-0.008909520104620604
1782836368908248000,6.680248046875,-0.08167407460212707,-0.007086411742886411,0.0022898097039200363
1782836368918178000,6.690177978515625,-0.08586334298551082,-0.006552066262523294,0.0038161516215186563
1782836368928107300,6.700107177734375,-0.08242109357714653,-0.0012706084534613183,0.004766383284749463
1782836368938036200,6.7100361328125,-0.07823182519376277,-0.0010034967912506544,-0.0006490750258788466
1782836368947966200,6.71996630859375,-0.07823299423754215,-0.006127806689421413,0.005513794985413551
1782836368957895200,6.729895263671875,-0.10068097288906573,0.0036391413828212532,-0.0006632040159311145
1782836368967825200,6.7398251953125,-0.08302373564541339,-0.0008005192817683564,-0.006370119553804397
1782836368977754000,6.749754150390625,-0.09020634062588215,-0.003862625678326003,-0.005907169084018096
1782836368987683300,6.759683349609375,-0.08841068938076496,-0.005361911767284618,0.0045565125268884
1782836368997613300,6.76961328125,-0.08122866892218589,0.003129438295014552,-0.0011729710358195007
1782836369007542000,6.7795419921875,-0.08796236109137534,-0.003650920868871617,0.0022916820005979385
1782836369017472300,6.78947216796875,-0.08631576292812823,-0.0031980528308602515,-0.0009669818686321377
1782836369027401200,6.799401123046875,-0.0891577083557844,-0.006730014362026122,-0.0012755820269230752
1782836369037330200,6.809330078125,-0.08616320271492003,-0.006731903212546604,-0.004265639821533113
1782836369047260200,6.81926025390625,-0.08481587975919246,-0.003198479805834358,-0.00016615034714341162
1782836369057189000,6.829189208984375,-0.07673486463427544,0.004072086015055538,0.0010793470687698572
1782836369067119000,6.839119140625,-0.07658581155240535,0.0003098240009974688,0.002359185145702213
1782836369077048000,6.849048095703125,-0.07045125432014465,-0.0061742362221004436,0.0009344769716728478
1782836369086977300,6.858977294921875,-0.07583820805549621,-0.010411524448695126,-0.005758234733156859
1782836369096907300,6.8689072265625,-0.0839163005709648,0.0028167042426561237,0.006120784435234963
1782836369106836000,6.8788359375,-0.09379062885344028,0.0031289091428741813,0.0016612751425709575
1782836369116766200,6.88876611328125,-0.08915186313688754,-0.0023359098722139605,0.005419294235529378
1782836369126695200,6.898695068359375,-0.08166939842700958,-0.011138076024421024,0.0030698632988613098
1782836369136624000,6.9086240234375,-0.08585925133228302,-0.007478245192486793,-0.0000743347446899861
1782836369146554000,6.91855419921875,-0.08406301556527614,-0.0040924318292294625,0.006281034764554351
1782836369156483000,6.928483154296875,-0.09214169260263443,-0.002808319435978774,0.0022228545480873435
1782836369166412000,6.938412109375,-0.09169277979135512,-0.0031375685150094794,0.007338928053341806
1782836369176342300,6.94834228515625,-0.090495678961277,0.0017507846235064789,-0.0018000899582169948
1782836369186271200,6.958271240234375,-0.07762626051604747,0.001327388704329496,0.0030126897515263405
1782836369196201000,6.968200927734375,-0.08690437647104263,-0.004097798128335853,0.0014681545901112257
1782836369206130200,6.978130126953125,-0.08480886549651623,-0.0015071731387142789,-0.006531328864349052
1782836369216060200,6.98806005859375,-0.07673018845915794,-0.006869745918057742,-0.0035593638488557186
1782836369225989000,6.997989013671875,-0.07882569943368434,0.00022651136540807783,-0.001208727335790172
1782836369235918300,7.00791845703125,-0.08301613686084747,-0.006364875981461955,-0.0026357187984511255
1782836369245848000,7.01784814453125,-0.08466273502409458,0.0005827620449737878,0.0012220800077077
1782836369255777000,7.027777099609375,-0.07643383586108685,-0.0075333495094993845,-0.0010082545939367263
1782836369265705700,7.037705810546875,-0.07987666979134082,-0.00972394860991044,-0.006623418461438268
1782836369275635700,7.0476357421875,-0.07942717245817184,-0.002336771813672385,-0.013319819960696621
1782836369285565000,7.05756494140625,-0.09888006094694136,-0.004011023456358816,0.0013308010791894048
1782836369295495000,7.067494873046875,-0.08421440673470497,0.0008024389566853642,-0.0014058208104688673
1782836369305423600,7.077423583984375,-0.08421499125659465,0.005865345515331136,-0.0011214143785182385
1782836369315352800,7.087352783203125,-0.07254267364144325,0.0017310958256362937,-0.00048256848570890724
1782836369325282800,7.09728271484375,-0.07284253337085246,-0.013921982538350856,0.0014059395414777098
1782836369335211800,7.107211669921875,-0.08571078277230262,-0.003244022280880017,-0.0003234872001688927
1782836369345141800,7.117141845703125,-0.08511164783537388,-0.0024565445729531348,0.003011694237682968
1782836369355070700,7.12707080078125,-0.07628244469165801,-0.008094553314035875,0.0011331687483936547
1782836369364999700,7.136999755859375,-0.07852759326994418,-0.004658327791903867,0.0006094736678525806
1782836369374930000,7.146929931640625,-0.08601005797982215,-0.003955037219112273,0.005940578163275495
1782836369384859000,7.15685888671875,-0.08675824599862098,-0.004338851188216358,0.003102888785628602
1782836369394788900,7.166788818359375,-0.08511164783537388,-0.007922053141208016,0.0007825195466633886
1782836369404717800,7.1767177734375,-0.0792763658106327,-0.002337215342489071,-0.0040747660250868645
1782836369414646800,7.186646728515625,-0.07792845833301544,-0.004818505055987043,-0.000848890180606395
1782836369424576800,7.19657666015625,-0.08930033169686794,-0.007176742636907147,0.004303259285027161
1782836369434505700,7.206505615234375,-0.08077040376067161,-0.0027699727450555653,-0.005373317935643718
1782836369444435700,7.216435791015625,-0.08032032190561295,-0.006084181606004131,-0.006480164932692423
1782836369454364700,7.22636474609375,-0.09079612321257591,-0.007159500953627866,0.0002952931521460414
1782836369464293600,7.236293701171875,-0.08077040376067161,0.00022420467306801583,0.005435313788568601
1782836369474223900,7.246223876953125,-0.08885083436369895,0.005512887949004653,0.0013638265659566967
1782836369484152800,7.25615283203125,-0.08271686165332794,0.0014565885915479157,0.004121317713707685
1782836369494082800,7.266082763671875,-0.07553484119474888,0.000903979085420724,-0.00520675659654662
1782836369504011800,7.27601171875,-0.08511164783537388,-0.005131622700835578,0.003291232698271051
1782836369513940700,7.285940673828125,-0.0734381611764431,-0.005028321585743106,0.0015071440267842263
1782836369523870700,7.29587060546875,-0.0795727184087038,-0.004557540006772615,0.006696008773613721
1782836369533800000,7.305800048828125,-0.06790040079355239,-0.003373883750979439,0.005697864581737667
1782836369543729000,7.31572900390625,-0.08032090642750263,0.0019194483006111111,-0.0044152865584474055
1782836369553658600,7.32565869140625,-0.07358779878020286,-0.0011470990923349745,-0.01044291281751357
1782836369563587800,7.335587890625,-0.07972177149057388,-0.0057109249927103515,-0.0028501561335753647
1782836369573517800,7.345517822265625,-0.0866051012635231,-0.007095917644281871,-0.00849744130554609
1782836369583446800,7.35544677734375,-0.08256313239634036,-0.0024093358680285747,0.005090080547472462
1782836369593376000,7.3653759765625,-0.08316109828948974,0.0024717278715310383,0.005012211271980777
1782836369603305700,7.3753056640625,-0.08720072906911372,-0.004420127701168531,-0.003776668994501233
1782836369613234700,7.385234619140625,-0.06849602859914303,0.005190703365000081,-0.0028449685018043964
1782836369623165000,7.3951650390625,-0.07163724923431873,0.0005520660834328737,0.0009824077666271476
1782836369633094000,7.405093994140625,-0.0783697723597288,-0.00018224068213021382,-0.0005908876983914524
1782836369643022800,7.41502294921875,-0.07418050397634506,-0.006322651695620152,-0.0054222533775959165
1782836369652952800,7.424952880859375,-0.09228606950938702,-0.0017331884596671443,-0.00026406689682044086
1782836369662881800,7.4348818359375,-0.07492752295136451,-0.003995332126060384,-0.0017279928363859653
1782836369672811800,7.444811767578125,-0.08121288683116436,-0.0034574093032337257,0.0022448928499594328
1782836369682740700,7.45474072265625,-0.0845049141138792,-0.009492669167017447,0.0031247352912556377
1782836369692670000,7.464669921875,-0.08166179964244365,-0.009326291632655193,0.007766725011356174
1782836369702599700,7.474599609375,-0.08166004607677459,0.0015582114894961705,0.0058199931240640575
1782836369712528600,7.484528564453125,-0.08211071245372295,-0.010765683065052144,0.001061665281606838
1782836369722459000,7.494458984375,-0.07747311578094959,-0.006605691579324775,0.00018560396628454327
1782836369732387800,7.504387939453125,-0.07642448351085186,-0.008369246636147727,0.0026891568855848163
1782836369742316800,7.51431689453125,-0.08480418932139873,-0.003456179181483458,0.005254760456737131
1782836369752246800,7.524246826171875,-0.08540449330210685,0.00031115687073615846,-0.0014922387185972183
1782836369762175700,7.53417578125,-0.0855547154277563,-0.004394304848389583,-0.0021503829669207333
1782836369772105700,7.544105712890625,-0.07567980262339115,0.0011137356788502074,-0.0022880470050964503
1782836369782035000,7.554034912109375,-0.08495674953460693,-0.008106844256739713,-0.004759496886236593
1782836369791964000,7.5639638671875,-0.08480828097462653,-0.011205355407239402,0.0015178572170436381
1782836369801893600,7.5738935546875,-0.08376023322641848,-0.0002233958180702757,0.0022006518494337795
1782836369811822800,7.58382275390625,-0.08121697848439216,-0.00664703851150989,0.00017485424340702593
1782836369821752800,7.5937529296875,-0.08061901259124278,0.00012743775921699124,-0.004959229842573404
1782836369831681800,7.603681884765625,-0.08032090642750263,-0.001302177202081657,-0.0011620477830059826
1782836369841611000,7.613611083984375,-0.0722398913025856,-0.006951694288689759,0.0003558003008831292
1782836369851540700,7.623540771484375,-0.07553250310719013,-0.0030902405082539187,-0.0016425156431738286
1782836369861469700,7.6334697265625,-0.07897475251555443,-0.00479884537004691,-0.0005050177795346826
1782836369871398700,7.643398681640625,-0.080322075471282,-0.0010263764849834842,0.005447177756298333
1782836369881329000,7.653328857421875,-0.08361410275399685,-0.0027275469589920246,0.003479448746750131
1782836369891257900,7.6632578125,-0.08376198679208754,-0.0067671617555955885,0.0027839681627228855
1782836369901187800,7.673187744140625,-0.091092475810647,-0.004991831208477378,0.0000820887928828597
1782836369911116800,7.68311669921875,-0.0794201581954956,-0.0006470634485944174,-0.009155284159770235
1782836369921045800,7.693045654296875,-0.09034428779184818,-0.006729663877221174,-0.004393376120738685
1782836369930976000,7.70297607421875,-0.08959493072926998,0.000035590761544881385,-0.007568097166717052
1782836369940905000,7.712905029296875,-0.09228723855316638,-0.0010934977500641253,0.006775503750611096
1782836369950834700,7.722834716796875,-0.0891448488742113,-0.008116011660595541,-0.008668222162034361
1782836369960763600,7.732763671875,-0.0860036282390356,-0.004112239928930649,-0.003269660187279805
1782836369970692900,7.74269287109375,-0.0771761786609888,0.003160139964777045,-0.0008145129869692027
1782836369980622800,7.752622802734375,-0.08166647581756115,-0.007579559846469783,-0.0004474880391731858
1782836369990551800,7.7625517578125,-0.08001929313242435,0.0029998884938133414,0.00040342056858353316
1782836370000481800,7.772481689453125,-0.08211421958506107,0.004127091579834814,0.0020458448802120983
1782836370010410800,7.78241064453125,-0.08660159413218498,-0.0026816054792579962,0.006827727128192782
1782836370020339700,7.792339599609375,-0.08211188149750233,-0.006667739947888185,-0.002685056099202484
1782836370030270000,7.80227001953125,-0.08226210362315177,-0.004673607559426455,-0.005423988676955923
1782836370040199000,7.812198974609375,-0.09004325901865959,-0.005459647366337595,0.0026351251434069125
1782836370050128600,7.822128662109375,-0.08121405587494372,-0.008589775214518886,0.00328427323452197
1782836370060057900,7.832057861328125,-0.08884382010102272,-0.0099865930179134,0.005719153964938595
1782836370069986800,7.84198681640625,-0.08824410064220428,-0.0049489470522210465,-0.00392014171895571
1782836370079916800,7.851916748046875,-0.07627309234142303,-0.005393390326004009,-0.005427888533938676
1782836370089846000,7.861845947265625,-0.08959142359793186,0.00009781037675566039,0.0021832075242884455
1782836370099775700,7.871775634765625,-0.08375614157319068,-0.0054726307163189625,0.0009227956670336424
1782836370109704700,7.88170458984375,-0.07986556387543678,-0.012059867044456768,0.0075189425290562205
1782836370119634000,7.891634033203125,-0.07507657603323459,-0.004635789449821459,0.0021401173012331126
1782836370129564000,7.90156396484375,-0.08046352976858616,-0.002026627581444336,0.010701088829664513
1782836370139492900,7.911492919921875,-0.08270809382498263,-0.003183171497203875,-0.0003705503454431891
1782836370149421600,7.921421630859375,-0.07552490432262421,-0.004412893671961501,-0.000028815102530643343
1782836370159351800,7.931351806640625,-0.07522562911510466,-0.0077903130953869545,-0.0016485983240883796
1782836370169280800,7.94128076171875,-0.08629939631521702,-0.0015742470255558146,-0.0025900164932012555
1782836370179211000,7.9512109375,-0.08285714690685271,-0.0007738978487905115,0.004017473746743053
1782836370189140000,7.961139892578125,-0.07851707187592982,-0.001082602467536344,-0.003248489535087719
1782836370199068700,7.971068603515625,-0.08944061695039272,-0.0027673949121905022,-0.0013031915530562401
1782836370208999000,7.9809990234375,-0.07058569435477256,-0.006222974730408168,0.005337771698227152
1782836370218927900,7.990927978515625,-0.08480009766817093,-0.00812831344892038,0.0037952458308078345
1782836370228857900,8.00085791015625,-0.07327858670055866,-0.006755597469498752,-0.006549047184130177
1782836370238786800,8.010786865234374,-0.0804617762029171,-0.011671488781378138,-0.00842784666805528
1782836370248715800,8.0207158203125,-0.08330547519624233,-0.006537646153170498,0.007535756666539236
1782836370258646300,8.030646240234375,-0.07746960864961147,0.0018772645431425188,-0.00024480507392436263
1782836370268575200,8.0405751953125,-0.07612228569388389,-0.00046748907676374073,0.00789827896915376
1782836370278505200,8.050505126953125,-0.08016133195161819,-0.010546275010576936,0.0026288141336292025
1782836370288434200,8.06043408203125,-0.09856675721406936,-0.0035422523130284387,0.0009531268732156604
1782836370298363100,8.070363037109376,-0.08854162228405475,-0.009083866316307103,-0.0002704966376069933
1782836370308293400,8.08029345703125,-0.0740261901974678,-0.002344866642693523,0.005279657435975968
1782836370318222300,8.090222412109375,-0.08315291498303413,-0.009870081365620717,-0.004604498120769858
1782836370328152300,8.10015234375,-0.07043430318534374,-0.0077502984621183706,0.007021852327650412
1782836370338081300,8.110081298828124,-0.08046002263724804,-0.007403961821791017,0.0067022467181552196
1782836370348010200,8.12001025390625,-0.08674597103893757,-0.01161298521841527,-0.004324082877347245
1782836370357940200,8.129940185546875,-0.07716857987642288,-0.0035282175086322237,0.002746083837747574
1782836370367869400,8.139869384765625,-0.0888397284477949,-0.003797185484500369,-0.0007463522547390311
1782836370377799200,8.149799072265624,-0.07821428953707217,-0.0063697850520198695,0.0035452805245760827
1782836370387728100,8.15972802734375,-0.08001052530407905,-0.0032599213904439235,-0.003084805139666423
1782836370397657300,8.1696572265625,-0.09003507571220397,-0.0032420072786626406,0.005222630019113421
1782836370407587300,8.17958740234375,-0.08644143513441085,-0.005996721376615459,0.00155408844104968
1782836370417516300,8.189516357421875,-0.08299918572604656,-0.0038015471366088602,-0.003638438700744882
1782836370427445500,8.199445556640624,-0.07192541852593422,-0.005525378679463756,0.0013887052788864821
1782836370437375200,8.209375244140626,-0.07342179456353187,-0.009130310690362239,-0.002063517534220591
1782836370447304200,8.21930419921875,-0.07476853299736977,-0.0033020965855801478,-0.001954193674540147
1782836370457234400,8.229234375,-0.08449556176364421,-0.00320444832231733,0.003422868854459375
1782836370467163400,8.239163330078124,-0.07671323732435703,-0.003405439941512304,0.0018982805025298147
1782836370477092400,8.24909228515625,-0.08494389005303382,-0.0018310993011225946,-0.0011463570235297083
1782836370487022300,8.259022216796875,-0.08075286810398101,0.000854374069077312,0.0071525843015406276
1782836370496951300,8.268951416015625,-0.07626257094740867,0.0015234558407682924,0.004002075248211622
1782836370506881300,8.27888134765625,-0.07401859141290187,-0.002891935748956166,-0.001639419503789395
1782836370516810500,8.288810546875,-0.07761106294691562,-0.005886588091115118,0.0026219003356527533
1782836370526739500,8.298739501953126,-0.09107903180718421,-0.01189187522503198,-0.0014639990048017353
1782836370536669200,8.308669189453125,-0.084792498883605,-0.003552138952803216,-0.0019377996621653436
1782836370546598100,8.31859814453125,-0.08389350421726703,-0.0009328107417939463,0.0034569994529243557
1782836370556528400,8.3285283203125,-0.07012626014947891,0.0006204237493075197,0.005175566873839125
1782836370566457300,8.338457275390626,-0.08389058160781859,0.0020133953530021243,-0.0016612203436437993
1782836370576386300,8.34838623046875,-0.09062427377700805,-0.0035963017506932373,-0.003738602006435394
1782836370586316300,8.35831640625,-0.08793021238744259,-0.009364955700698192,-0.0016044395219534636
1782836370596245200,8.368245361328125,-0.07940086897313595,-0.003584640995651716,-0.0011720851198304444
1782836370606175500,8.378175537109374,-0.08807926546931266,-0.005878131931668031,0.005179119670949876
1782836370616104400,8.3881044921875,-0.09196925864517688,0.0009155684876925079,0.008985553616052492
1782836370626033400,8.398033447265625,-0.0844873784571886,-0.0008169852177350548,0.004488388327276334
1782836370635963100,8.407963134765625,-0.0867313579916954,-0.000684471707890043,0.0027565139002166685
1782836370645892400,8.417892333984375,-0.07760287964046,0.004970392269871081,-0.00036393794156610963
1782836370655821300,8.4278212890625,-0.08837854067683219,-0.0014657274542958475,0.007426149679068476
1782836370665751300,8.437751220703126,-0.07745441108047962,-0.001971943960362114,0.0032595132526010272
1782836370675680500,8.447680419921875,-0.08837795615494251,-0.0049454604704806115,-0.006000144597096369
1782836370685610200,8.4576103515625,-0.08388824352025985,-0.003278474252219894,0.003790341326827183
1782836370695539200,8.467539306640624,-0.0771545513510704,0.0015602196418476523,-0.0005673150265589356
1782836370705468400,8.477468505859376,-0.07655541641414165,-0.005083439602487487,0.005786730175279081
1782836370715398400,8.4873984375,-0.08538403503596782,-0.004291767493344378,-0.0018226579830516129
1782836370725327400,8.497327392578125,-0.08403729660212993,-0.0026521641848201395,-0.0012187372731510548
1782836370735257300,8.50725732421875,-0.081642510420084,-0.005215337195224128,0.002078989097988233
1782836370745186300,8.517186279296874,-0.08643032921850681,0.002902892109454842,-0.00141059745028615
1782836370755115300,8.527115234375,-0.08478314653337002,-0.008147746518463827,0.001210069909505546
1782836370765045500,8.53704541015625,-0.07894786450862884,-0.000211356037115911,-0.0016879074211698024
1782836370774974500,8.546974365234375,-0.08239011391699314,-0.007517767777055269,0.00007873692517168819
1782836370784904200,8.556904296875,-0.08224106083512306,-0.0038654832140484355,0.004514025092031806
1782836370794833400,8.56683349609375,-0.0873281548410654,-0.0055370930917881195,0.0057396030979230996
1782836370804762400,8.576762451171875,-0.08672901990413666,-0.00432767277789826,-0.0021333861663471905
1782836370814692400,8.5866923828125,-0.08942308129370212,-0.005904745373135665,0.0035236166820395735
1782836370824621300,8.596621337890625,-0.06757540662288665,-0.005589823930268176,0.0057674683523830025
1782836370834551300,8.60655126953125,-0.07700316018164158,-0.009113626700331223,0.004405614547803998
1782836370844480300,8.616480224609376,-0.08613105401098728,-0.0051875101858488044,-0.006218070797249674
1782836370854409200,8.6264091796875,-0.08448562489151955,-0.005803082517636358,-0.0016576218807604164
1782836370864339500,8.63633935546875,-0.08732932388484478,-0.0040738886714301766,0.00024399222317151724
1782836370874268400,8.646268310546875,-0.08179156350195407,-0.0025894342546002006,-0.00713251876104623
1782836370884197000,8.656197021484376,-0.07610475003719329,-0.010449016048025804,0.0011514350574463605
1782836370894127400,8.66612744140625,-0.08074293123185634,0.004121938768215477,0.005520727049699053
1782836370904056300,8.676056396484375,-0.08612871592342854,-0.008022271816647844,-0.0024492197830229996
1782836370913986300,8.685986328125,-0.08867197066545486,-0.008268898954900215,0.001345505457976833
1782836370923915300,8.695915283203124,-0.0841822580307722,-0.005653019080546801,0.011602905640751122
1782836370933844200,8.70584423828125,-0.08642682208716869,-0.002928517457767157,0.004571207772521302
1782836370943774200,8.715774169921875,-0.07595335886776447,-0.006104654713519266,-0.007948602650593967
1782836370953703400,8.725703369140625,-0.0933107363820076,-0.011160687431739643,0.005387647855095565
1782836370963633400,8.73563330078125,-0.08582885619401931,-0.00236035590194806,0.004185048865992576
1782836370973562400,8.745562255859374,-0.09106558780372143,-0.002801024899623007,0.0035246761279646307
1782836370983491300,8.7554912109375,-0.08732464770972728,-0.000016005282485275528,0.002159095996338874
1782836370993421300,8.76542138671875,-0.08029284937679768,-0.01133814462418668,-0.0015317487450782208
1782836371003350300,8.775350341796875,-0.09121697897315025,-0.0016528977565816603,-0.0026663057329598815
1782836371013280500,8.785280517578125,-0.0774509039491415,-0.007665587312242132,-0.006414725880511105
1782836371023209200,8.795209228515626,-0.07999591225683689,-0.015099278122838585,0.006602247809246182
1782836371033138200,8.80513818359375,-0.08029694103002548,-0.020025642308848908,0.0013294402391649783
1782836371043068400,8.815068359375,-0.07715513587296009,-0.006070733035964076,-0.004231070831650868
1782836371052997400,8.824997314453125,-0.08718027080297469,0.0073874473659408975,0.001649228511750698
1782836371062927400,8.83492724609375,-0.07939911540746689,-0.0034432203768548788,0.00018125658472999928
1782836371072856000,8.84485595703125,-0.09765256497859955,-0.003752053430586238,-0.0014281970390584318
1782836371082785300,8.854785400390625,-0.09391220940649508,-0.0011661080410151044,-0.002924180351011455
1782836371092715300,8.86471533203125,-0.08508417530655861,-0.00563551139414194,0.0038912170185707506
1782836371102644200,8.874644287109374,-0.0855330881178379,-0.0051283136447862485,-0.00004194857873953879
1782836371112573400,8.884573486328126,-0.08553367263972758,0.0012771706249885028,0.0002274246808607131
1782836371122503200,8.894503173828125,-0.08658055134415626,0.0003328338421822991,0.006139151208987459
1782836371132432100,8.90443212890625,-0.0808931533575058,-0.0008856614023738075,-0.0018376272233203053
1782836371142362400,8.9143623046875,-0.07834639148414134,-0.006913891020460868,-0.0014076109087560326
1782836371152291300,8.924291259765624,-0.0873240631878376,-0.011488421548763289,0.01464622799255885
1782836371162220300,8.93422021484375,-0.07580255222022533,-0.0034879905295209027,0.007257789108529687
1782836371172150300,8.944150390625,-0.08822364237606525,-0.004109965773453587,0.0029950627632904796
1782836371182079200,8.954079345703125,-0.08373451426327227,-0.006235407237007166,0.004475483179930597
1782836371192009200,8.96400927734375,-0.07475625803768635,-0.0019616725864529143,-0.0069133047861047086
1782836371201938400,8.9739384765625,-0.07939560827612877,0.0022796656233520477,0.0016965473853517324
1782836371211867400,8.983867431640626,-0.07939560827612877,-0.006647088173037627,-0.0013281341980677097
1782836371221797000,8.993797119140625,-0.07864742025732993,-0.008462340309412683,0.006629017085162922
1782836371231726300,9.003726318359375,-0.08882219279110432,-0.0003408127943053841,0.01011698706508614
1782836371241656300,9.01365625,-0.07116495554745197,-0.005930484315057401,0.007406988320872187
1782836371251585300,9.023585205078126,-0.09091945733129977,-0.00433738760020351,-0.00011864881045185029
1782836371261514200,9.03351416015625,-0.08613105401098728,0.0004679109143384266,0.00019297442198731003
1782836371271444200,9.0434443359375,-0.08239011391699314,-0.005012429896867252,0.004189542378019541
1782836371281373200,9.053373291015625,-0.08508300626277923,-0.0011066837419115472,0.007390375112788752
1782836371291303400,9.063303466796874,-0.09675415483415126,0.00012600499560066965,0.0014659991656430064
1782836371301232400,9.073232421875,-0.08538228147029876,-0.006001174360269214,-0.0008354005113709717
1782836371311161300,9.083161376953125,-0.08777648313045501,-0.0009824716987088323,-0.010557040716474874
1782836371321091300,9.09309130859375,-0.08538228147029876,-0.0002761072485969635,-0.0044097792662680145
1782836371331020300,9.103020263671874,-0.07864800477921963,-0.01080539858750999,0.0022439247355796397
1782836371340949200,9.11294921875,-0.08612930044531822,-0.010932995606109034,-0.00248665658342652
1782836371350879200,9.122879150390625,-0.0761041655153036,-0.003372187267526169,-0.003438760543335229
1782836371360808400,9.132808349609375,-0.08134206616878509,-0.011472984234325122,0.0009650547730270773
1782836371370738200,9.14273828125,-0.08298691076636314,-0.006590592191604082,-0.0008544614048674702
1782836371380667100,9.152667236328124,-0.08478080844581126,-0.007637265400055912,0.001849372460041195
1782836371390596400,9.162596435546876,-0.08059095554053783,-0.0009433121570327785,0.0014339143937919289
1782836371400526300,9.1725263671875,-0.0855289964646101,-0.0053855529377760825,-0.004563006199756637
1782836371410455300,9.182455322265625,-0.07430617618262768,-0.004239381431447691,0.0027838676980230957
1782836371420385300,9.19238525390625,-0.08313362576067447,-0.0013965780580881982,0.007371168088819831
1782836371430314200,9.202314208984374,-0.08687339681088924,-0.001271081094208057,-0.0003052391574252397
1782836371440243200,9.2122431640625,-0.0786444976478815,-0.000413723908533575,0.004855477207154036
1782836371450173400,9.22217333984375,-0.08836918832659721,-0.0021200283570302417,0.003942837607953697
1782836371460102400,9.232102294921875,-0.08522504508197307,0.005293649428710341,0.006491754905786365
1782836371470032100,9.2420322265625,-0.08283259698748588,0.006586785949455225,0.0026058533831499514
1782836371479961300,9.25196142578125,-0.08013853559792042,-0.0017655369513551703,0.0003966985668521374
1782836371489890300,9.261890380859375,-0.08133622094988822,-0.008188210388770675,-0.002483761373441666
1782836371499820300,9.2718203125,-0.08432838850319385,-0.008699264612625119,0.004117764916596934
1782836371509749500,9.28174951171875,-0.08043839532732963,-0.005195648968176101,0.002294851205218583
1782836371519679200,9.29167919921875,-0.07983984491229057,-0.0036369151764054546,0.004557553706504404
1782836371529608200,9.301608154296876,-0.09181202225685119,-0.0018858011885138693,0.002506585126603022
1782836371539537200,9.311537109375,-0.07924421710669993,-0.005523123931940063,0.010525083808787167
1782836371549464300,9.32146435546875,-0.0807405931442976,-0.008300762818576186,0.003183598472177982
1782836371559394300,9.331394287109376,-0.07595277434587479,-0.012724072282452833,0.001769448224781081
1782836371569323300,9.3413232421875,-0.07565291461646556,-0.004585941263238783,0.0009365410645958036
1782836371579252200,9.351252197265625,-0.0807400086224079,0.00030106016840727534,0.00502697958284989
1782836371589182500,9.361182373046875,-0.08313479480445385,-0.0028290819503279632,-0.007112371022161096
1782836371599111400,9.371111328125,-0.0928618235707283,-0.011664910626830532,-0.004504407880315557
1782836371609041200,9.381041259765626,-0.08717442558407783,-0.0020383676807658045,0.002655327681219205
1782836371618970400,9.390970458984375,-0.08418167350888252,-0.004851905002089915,0.004741915563773363
1782836371628899300,9.4008994140625,-0.07580196769833564,-0.006176239807874662,0.004724306841846555
1782836371638829300,9.410829345703124,-0.07984159847795963,-0.009156108426966238,0.005687461918732151
1782836371648758500,9.420758544921876,-0.094056001791358,-0.0013756791172432712,0.006852532775886357
1782836371658688300,9.430688232421875,-0.08148702759742736,-0.0065064729843055825,0.0012616174336522817
1782836371668617200,9.4406171875,-0.08238485321998595,-0.003278618670225842,0.0020489410195965317
1782836371678546200,9.450546142578125,-0.08463000179827213,-0.005496860404455219,-0.0024963651266880333
1782836371688476400,9.460476318359374,-0.08029051128923892,-0.002564078905168571,-0.00029577720933593807
1782836371698405400,9.4704052734375,-0.08867138614356518,-0.006216297823627246,0.0047027617303188884
1782836371708335400,9.48033544921875,-0.08433131111264228,-0.00724542681305611,0.00877700716559775
1782836371718264300,9.490264404296875,-0.07714870613217353,-0.0028093754569708832,0.006242757713934406
1782836371728193300,9.500193359375,-0.07714812161028385,-0.009581944040046073,-0.006884590148273855
1782836371738123500,9.51012353515625,-0.07999123608171939,-0.008270562901490483,0.0007499781170859932
1782836371748052500,9.520052490234375,-0.08492869248390197,-0.0074543020570738,-0.004739522677287459
1782836371757982200,9.529982177734375,-0.09016717765927314,0.0014809467146696988,0.005793707905337214
1782836371767911200,9.5399111328125,-0.0789449418991804,-0.003774352027362329,0.007983555232966318
1782836371777840400,9.54984033203125,-0.08762333839535713,-0.004628735229594167,0.004578514296142384
1782836371787770400,9.559770263671876,-0.09555530043840407,-0.007825653266004519,0.001956732691498473
1782836371797699300,9.56969921875,-0.07819675388038158,-0.0067732341617112975,0.005872362632118165
1782836371807628300,9.579628173828125,-0.07969254539608955,-0.00756163203495671,0.010098446761397645
1782836371817558300,9.589558349609375,-0.0737082102894783,-0.013268274719838519,0.003405862920731306
1782836371827487200,9.5994873046875,-0.08208733157813548,-0.009609385744464816,-0.0014810962700750679
1782836371837417500,9.60941748046875,-0.08553133455216884,-0.0029879263446724504,0.0030916184729430822
1782836371847346400,9.619346435546875,-0.05740180313289165,-0.0037384564467851304,0.00078286660653539
1782836371857275100,9.629275146484375,-0.08837678711116313,-0.019475008989032358,0.00631163996537216
1782836371867205400,9.639205322265624,-0.09810264683365821,-0.012913690270151709,0.0008555665165651589
1782836371877134300,9.64913427734375,-0.08104279096126556,0.0013894736055110116,0.0000711381406057626
1782836371887064300,9.659064208984375,-0.10468377878963947,-0.0010708178440865595,0.006394614674244075
1782836371896993300,9.6689931640625,-0.06906827552914618,0.00006412330710736568,-0.0035010121245868503
1782836371906922200,9.678922119140625,-0.07415595405697822,-0.016120444713986944,0.0013062146272044628
1782836371916852200,9.688852294921874,-0.08343348549008368,-0.020254982668871525,0.00042230793214403093
1782836371926781400,9.698781494140626,-0.07505377967953682,-0.009567783083952962,0.0003767608905211091
1782836371936711400,9.70871142578125,-0.08612754687964916,-0.00002894924573774915,0.011399565088376402
