time,seconds_elapsed,z,y,x
1782836362315133000,0.0871328125,0.0038462039083242416,-0.0008123693987727165,0.0003049178048968315
1782836362325062000,0.097061767578125,-0.0008409768342971802,0.0018525226041674614,-0.00015721842646598816
1782836362334992000,0.106991943359375,0.0007207011803984642,-0.00028732698410749435,0.0002537081018090248
1782836362344920800,0.1169208984375,-0.0020568883046507835,0.0008388040587306023,0.00004641525447368622
1782836362354850800,0.126850830078125,0.00004621036350727081,0.0010111099109053612,-0.0010827654041349888
1782836362364780000,0.136780029296875,0.0006541768088936806,0.0006529921665787697,-0.00011805444955825806
1782836362374709000,0.146708984375,-0.00020362809300422668,-0.0007837824523448944,-0.001328461803495884
1782836362384638700,0.156638671875,0.00040920451283454895,0.00032232049852609634,-0.000122719444334507
1782836362394567700,0.166567626953125,-0.001756211742758751,0.0005308464169502258,0.00020112097263336182
1782836362404498000,0.176497802734375,-0.0003600316122174263,-0.0012770816683769226,-0.0012076999992132187
1782836362414427000,0.186427001953125,0.001483142375946045,-0.0009146248921751976,0.0005012508481740952
1782836362424355800,0.19635595703125,-0.0010924255475401878,0.0010540029034018517,-0.00023920182138681412
1782836362434285800,0.206285888671875,0.0015624798834323883,-0.0011902432888746262,0.0009863851591944695
1782836362444214800,0.21621484375,-0.0032837092876434326,0.0013414351269602776,0.00038923509418964386
1782836362454145000,0.22614501953125,-0.000043973326683044434,0.00043942220509052277,0.00042811688035726547
1782836362464074000,0.236073974609375,-0.00015215296298265457,0.0019590752199292183,-0.0020002033561468124
1782836362474003000,0.2460029296875,-0.00037905480712652206,0.002593972720205784,-0.0014097806997597218
1782836362483932700,0.2559326171875,-0.000011949799954891205,0.000783880241215229,-0.0003940798342227936
1782836362493862000,0.26586181640625,0.001614975742995739,-0.000196162611246109,-0.003210106398910284
1782836362503790800,0.275790771484375,-0.0007238611578941345,-0.0007147639989852905,0.0020458800718188286
1782836362513720800,0.285720947265625,-0.00036486703902482986,0.00020615756511688232,0.001675168052315712
1782836362523650000,0.295650146484375,0.0014286888763308525,-0.0004751579836010933,-0.0004418659955263138
1782836362533579800,0.305579833984375,0.00018978677690029144,-0.00018993299454450607,-0.000030407682061195374
1782836362543508700,0.3155087890625,0.0016658799722790718,-0.0007497435435652733,0.00016460753977298737
1782836362553438000,0.32543798828125,-0.0007605254650115967,-0.00004986487329006195,-0.0007999897934496403
1782836362563368000,0.335367919921875,-0.00046742241829633713,0.0013743462041020393,-0.0033978414721786976
1782836362573297000,0.345296875,0.0012431256473064423,-0.00048161111772060394,-0.00038660550490021706
1782836362583227000,0.355226806640625,-0.002052055671811104,-0.000004345551133155823,-0.0001224791631102562
1782836362593155800,0.36515576171875,0.00002973712980747223,-0.0002901032567024231,-0.00036216340959072113
1782836362603084800,0.375084716796875,0.00018236134201288223,-0.0012488029897212982,0.0006475877016782761
1782836362613015000,0.38501513671875,-0.0007793065160512924,-0.0022677285596728325,-0.0016304804012179375
1782836362622944000,0.394944091796875,-0.0014725979417562485,0.00031853560358285904,-0.002834886312484741
1782836362632873700,0.404873779296875,-0.00040839891880750656,0.0009438460692763329,-0.002095859032124281
1782836362642803000,0.414802978515625,0.000264815054833889,-0.0011048093438148499,-0.0006510745733976364
1782836362652732000,0.42473193359375,0.001649925485253334,0.000022773630917072296,0.0008339043706655502
1782836362662662000,0.434661865234375,0.0007972372695803642,-0.0019324906170368195,0.0004572533071041107
1782836362672590800,0.4445908203125,0.0001341104507446289,-0.00013405736535787582,0.0019195955246686935
1782836362682520800,0.454520751953125,0.0022145239636301994,-0.0000757342204451561,0.0009767767041921616
1782836362692449800,0.46444970703125,-0.0012521129101514816,0.00037886667996644974,0.0007645227015018463
1782836362702378800,0.474378662109375,0.00045112892985343933,-0.00034689996391534805,0.0007053744047880173
1782836362712309000,0.48430908203125,-0.0011188052594661713,-0.001134929247200489,-0.0004009031690657139
1782836362722238000,0.494238037109375,-0.0019152695313096046,0.0011386442929506302,-0.00054884422570467
1782836362732168000,0.50416796875,0.0005585411563515663,0.0011016260832548141,-0.0023656529374420643
1782836362742097000,0.514096923828125,0.0008246572688221931,-0.0016834428533911705,-0.0007819575257599354
1782836362752025900,0.52402587890625,-0.001583373174071312,0.00022817403078079224,-0.0009406819008290768
1782836362761955800,0.533955810546875,0.0026642903685569763,-0.0003007827326655388,-0.001998895313590765
1782836362771884800,0.543884765625,-0.00194537453353405,-0.0004342067986726761,-0.0010116612538695335
1782836362781813800,0.553813720703125,0.0003160722553730011,-0.000907539390027523,-0.0006901300512254238
1782836362791743700,0.56374365234375,0.0009594922885298729,-0.00058769341558218,0.00039084721356630325
1782836362801673000,0.5736728515625,-0.0008031390607357025,0.0006067380309104919,-0.0001599946990609169
1782836362811603000,0.58360302734375,0.0011191312223672867,-0.0007107285782694817,0.0015689292922616005
1782836362821531600,0.59353173828125,0.0011648358777165413,0.0005795862525701523,0.0011851368471980095
1782836362831460900,0.6034609375,0.00038532912731170654,-0.0013237753883004189,-0.0009901332668960094
1782836362841390800,0.613390869140625,0.0010312534868717194,0.0020528798922896385,0.0031430087983608246
1782836362851319800,0.62331982421875,0.0003257822245359421,0.0005439324304461479,-0.0020714602433145046
1782836362861250000,0.63325,0.0012082699686288834,0.0021507181227207184,-0.0026322761550545692
1782836362871178800,0.6431787109375,-0.00017178058624267578,0.00026253703981637955,0.0007041320204734802
1782836362881107700,0.653107666015625,0.0005005570128560066,0.0004523890092968941,0.0011267587542533875
1782836362891038000,0.663037841796875,0.0009745992720127106,0.0005474640056490898,-0.000922543928027153
1782836362900967000,0.672966796875,-0.0010129176080226898,-0.002842448651790619,-0.00023776479065418243
1782836362910897000,0.68289697265625,-0.0010291626676917076,-0.0003899428993463516,0.001201939769089222
1782836362920825900,0.692825927734375,0.0008754152804613113,-0.0008806539699435234,-0.0015269527211785316
1782836362930754800,0.7027548828125,-0.0015616435557603836,0.0006123147904872894,0.0015692384913563728
1782836362940684800,0.712684814453125,-0.0015033166855573654,-0.0009139683097600937,-0.0016908887773752213
1782836362950613800,0.72261376953125,0.000134260393679142,-0.00010889489203691483,-0.0013028662651777267
1782836362960543700,0.732543701171875,-0.0006471425294876099,-0.00021020416170358658,-0.0019253646023571491
1782836362970472700,0.74247265625,0.0002780398353934288,-0.001971619203686714,-0.0006869947537779808
1782836362980401700,0.752401611328125,-0.0023089516907930374,-0.00016378238797187805,-0.0005007912404835224
1782836362990332000,0.762331787109375,-0.00019733048975467682,0.00027830246835947037,0.0008917758241295815
1782836363000260900,0.7722607421875,0.0011077579110860825,-0.000004323199391365051,0.000958779826760292
1782836363010189800,0.78218994140625,0.00011066999286413193,-0.0003017988055944443,-0.0018460615538060665
1782836363020119800,0.792119873046875,-0.0004464099183678627,-0.001230546273291111,-0.0007718321867287159
1782836363030048800,0.802048828125,0.0002524033188819885,0.0010512499138712883,-0.0018501458689570427
1782836363039978800,0.811978759765625,0.0005732439458370209,0.0017768191173672676,0.0020050257444381714
1782836363049908000,0.821907958984375,0.0014052148908376694,0.002614649012684822,0.0010031452402472496
1782836363059837000,0.8318369140625,0.0010156920179724693,0.0018888646736741066,-0.0004283818416297436
1782836363069766700,0.8417666015625,0.00001301150768995285,0.0011146841570734978,-0.0005343756638467312
1782836363079696000,0.85169580078125,-0.001120033673942089,-0.001142852008342743,-0.0020163715817034245
1782836363089625900,0.8616259765625,-0.003399966284632683,0.002099812962114811,-0.001607043668627739
1782836363099554800,0.871554931640625,-0.001202976331114769,-0.0003056926652789116,-0.0016081258654594421
1782836363109484000,0.881484130859375,-0.0010610297322273254,0.0008059106767177582,0.00010987929999828339
1782836363119413800,0.891413818359375,-0.0004293955862522125,0.0018946118652820587,-0.002895255573093891
1782836363129342700,0.9013427734375,0.00028699450194835663,-0.0012740176171064377,0.00045979488641023636
1782836363139273000,0.91127294921875,0.001655803993344307,0.0007738582789897919,0.00022523105144500732
1782836363149202000,0.921201904296875,0.0003577796742320061,-0.0002360120415687561,-0.00019421661272644997
1782836363159131000,0.931130859375,-0.0013807332143187523,-0.0011482927948236465,0.0010440386831760406
1782836363169060900,0.941060791015625,0.00021822936832904816,0.00008954480290412903,0.00003203749656677246
1782836363178989800,0.95098974609375,0.0004531955346465111,0.001893320120871067,-0.0026324698701500893
1782836363188919800,0.960919921875,-0.00036066677421331406,-0.0006638467311859131,-0.0011858409270644188
1782836363198849000,0.97084912109375,-0.0008802423253655434,0.004258840344846249,-0.00009446404874324799
1782836363208778000,0.980778076171875,-0.00034468062222003937,-0.0021561821922659874,-0.0007109860889613628
1782836363218707700,0.990707763671875,-0.0010567400604486465,0.0004993630573153496,0.0008909087628126144
1782836363228636700,1.00063671875,0.00005353149026632309,0.0004809880629181862,-0.0020372364670038223
1782836363238567000,1.01056689453125,0.0014353832229971886,-0.00043630972504615784,0.004262993112206459
1782836363248495900,1.020495849609375,-0.0014333734288811684,0.00021403469145298004,-0.001120054628700018
1782836363258421200,1.030421142578125,0.000819014385342598,-0.0021345866844058037,-0.001595758367329836
1782836363268351000,1.04035107421875,-0.0011613117530941963,0.0007179258391261101,0.00039415620267391205
1782836363278280200,1.0502802734375,0.0004891864955425262,-0.0016877250745892525,-0.0009422106668353081
1782836363288209200,1.060209228515625,0.0025672512128949165,0.0019059441983699799,0.0016128262504935265
1782836363298139100,1.07013916015625,-0.0005161045119166374,0.000035536475479602814,-0.002034097909927368
1782836363308068400,1.080068359375,-0.0015169205144047737,-0.0024987272918224335,0.0011433195322751999
1782836363317998000,1.089998046875,0.0012459391728043556,0.002767031081020832,0.0029992451891303062
1782836363327927000,1.099927001953125,-0.0000014854595065116882,0.00008842349052429199,-0.0002657901495695114
1782836363337856300,1.109856201171875,0.0005930494517087936,-0.0010753916576504707,-0.00012412946671247482
1782836363347786200,1.1197861328125,0.00022073928266763687,-0.0002942867577075958,-0.0009502419270575047
1782836363357715200,1.129715087890625,0.0012690536677837372,0.00048698950558900833,-0.0016610617749392986
1782836363367645200,1.139645263671875,-0.0011988971382379532,0.0026137903332710266,0.0019946591928601265
1782836363377574100,1.14957421875,0.0008643399924039841,0.00282248854637146,-0.0021713939495384693
1782836363387503000,1.159503173828125,-0.0011095954105257988,-0.0011767800897359848,-0.0009122514165937901
1782836363397433300,1.169433349609375,-0.0006250888109207153,0.0005100537091493607,0.0017892401665449142
1782836363407362300,1.1793623046875,0.0001592123880982399,-0.00202128104865551,-0.00021478859707713127
1782836363417292000,1.1892919921875,-0.0009557260200381279,0.0004301341250538826,-0.0007168669253587723
1782836363427221200,1.19922119140625,0.0019322056323289871,-0.00045723188668489456,-0.00016878871247172356
1782836363437150200,1.209150146484375,-0.0007110731676220894,0.0008485466241836548,0.0008679050952196121
1782836363447080200,1.219080078125,0.0006782980635762215,-0.0016276612877845764,-0.000060206279158592224
1782836363457009200,1.229009033203125,0.001559440977871418,-0.0012440411373972893,-0.0019006668590009212
1782836363466938400,1.2389384765625,0.000770878978073597,-0.0011303238570690155,0.00024131406098604202
1782836363476868000,1.2488681640625,0.003710641525685787,-0.0019040200859308243,0.002400382421910763
1782836363486797000,1.258797119140625,-0.0019301995635032654,0.001263277605175972,0.0005137994885444641
1782836363496727300,1.268727294921875,-0.0007490357384085655,0.0015599168837070465,-0.0013586808927357197
1782836363506656300,1.27865625,-0.0009402502328157425,0.0005963854491710663,0.0015582796186208725
1782836363516585200,1.288585205078125,-0.00026248395442962646,0.0018475838005542755,-0.000264500267803669
1782836363526515200,1.29851513671875,0.000001967884600162506,0.0009386474266648293,-0.001357994507998228
1782836363536444200,1.308444091796875,-0.00011192820966243744,0.0015571322292089462,0.00012696348130702972
1782836363546374100,1.3183740234375,0.0010172519832849503,0.0003744224086403847,0.0010926257818937302
1782836363556303400,1.328303466796875,-0.0002652108669281006,-0.0012065395712852478,-0.0006722677499055862
1782836363566232300,1.338232421875,-0.0010306034237146378,-0.0007972121238708496,-0.002488276921212673
1782836363576162000,1.348162109375,-0.001115105114877224,0.000682593323290348,-0.002944375853985548
1782836363586091300,1.35809130859375,0.002707863226532936,-0.0007706936448812485,0.0001134658232331276
1782836363596021200,1.368021240234375,-0.00012443587183952332,-0.00009592808783054352,-0.0017593884840607643
1782836363605950200,1.3779501953125,0.00026731472462415695,0.0007395055145025253,0.0008513079956173897
1782836363615879400,1.38787939453125,-0.00004499778151512146,-0.0005130143836140633,-0.0009393962100148201
1782836363625809200,1.39780908203125,-0.0014514131471514702,0.000549054704606533,0.0010691601783037186
1782836363635738000,1.407738037109375,0.0013163834810256958,-0.0014964044094085693,0.0003314753994345665
1782836363645668400,1.41766845703125,0.0021092072129249573,-0.000021812506020069122,-0.0018078414723277092
1782836363655597300,1.427597412109375,0.0002666302025318146,0.0001930762082338333,-0.0010957121849060059
1782836363665526300,1.4375263671875,0.0007774243131279945,0.002645048312842846,0.002114994451403618
1782836363675456300,1.447456298828125,-0.00024156086146831512,0.0006123092025518417,0.0001944117248058319
1782836363685385200,1.45738525390625,0.0014777760952711105,-0.001214885152876377,-0.00041811494156718254
1782836363695314200,1.467314208984375,-0.00038420502096414566,0.0012879902496933937,0.001716512255370617
1782836363705244200,1.477244140625,-0.0015514688566327095,-0.000727490521967411,-0.002307790331542492
1782836363715173000,1.487173095703125,-0.0000031404197216033936,0.0020242268219590187,0.0007739979773759842
1782836363725103000,1.49710302734375,-0.0002995505928993225,-0.0007348079234361649,-0.0010699741542339325
1782836363735032000,1.507031982421875,0.0005613677203655243,-0.0019049998372793198,-0.0026183496229350567
1782836363744961300,1.516961181640625,0.0009765541180968285,0.0006721410900354385,0.00017903465777635574
1782836363754891300,1.526891357421875,-0.00039059948176145554,-0.0027087852358818054,0.0006557116284966469
1782836363764820200,1.5368203125,0.00001766253262758255,-0.00041287392377853394,-0.0016228887252509594
1782836363774750200,1.546750244140625,-0.0003010360524058342,-0.00045752059668302536,0.0006730891764163971
1782836363784679200,1.55667919921875,-0.0013473918661475182,0.00005353987216949463,-0.001410035416483879
1782836363794608000,1.566608154296875,0.0021384526044130325,-0.001774100586771965,-0.001052260398864746
1782836363804538400,1.576538330078125,0.002743788994848728,-0.0022151200100779533,0.00032699108123779297
1782836363814467000,1.586467041015625,0.0003967154771089554,0.00013081636279821396,0.00010131858289241791
1782836363824397000,1.59639697265625,0.0007048426195979118,0.0007816934958100319,-0.0014851260930299759
1782836363834326300,1.606326171875,-0.0002456102520227432,0.000021072104573249817,-0.0003843032754957676
1782836363844255200,1.616255126953125,-0.00030499789863824844,0.0020541297271847725,-0.0015758015215396881
1782836363854185200,1.626185302734375,0.0007488494738936424,0.002812827005982399,0.00023657269775867462
1782836363864114200,1.6361142578125,-0.00179287139326334,-0.00042664166539907455,0.0004155375063419342
1782836363874043100,1.646043212890625,0.00010054372251033783,-0.0001416243612766266,-0.0016887173987925053
1782836363883973000,1.65597314453125,0.001069934107363224,0.0030823983252048492,-0.0007451595738530159
1782836363893902000,1.665902099609375,-0.0007984563708305359,0.0010148584842681885,0.0018161945044994354
1782836363903832300,1.675832275390625,0.001200779341161251,-0.0018552299588918686,-0.0018885289318859577
1782836363913761000,1.685760986328125,-0.000351819209754467,-0.00014844443649053574,-0.0007339972071349621
1782836363923690000,1.69568994140625,0.001200803555548191,-0.0015673767775297165,-0.001308441162109375
1782836363933620200,1.7056201171875,0.0016805818304419518,-0.00039669219404459,0.0007002139464020729
1782836363943549200,1.715549072265625,-0.001091768965125084,-0.0007317177951335907,0.001698100008070469
1782836363953479200,1.725479248046875,-0.0004869559779763222,-0.003245096653699875,0.0006251810118556023
1782836363963408100,1.735408203125,0.0006824387237429619,-0.0008059069514274597,-0.0013711247593164444
1782836363973337000,1.745337158203125,-0.001400655135512352,-0.0007648132741451263,0.0003696884959936142
1782836363983267000,1.75526708984375,-0.0002887854352593422,-0.0008689435198903084,0.0000469135120511055
1782836363993196300,1.7651962890625,0.00027671828866004944,0.0011914651840925217,-0.0006318087689578533
1782836364003126300,1.775126220703125,0.00019069761037826538,-0.00006900914013385773,-0.0019713789224624634
1782836364013055000,1.785054931640625,0.001568567007780075,-0.00016447622328996658,-0.0008007730357348919
1782836364022984200,1.794984130859375,0.00005083158612251282,0.004186063073575497,0.0003995131701231003
1782836364032914200,1.8049140625,0.001206432469189167,0.002928256057202816,-0.001069145742803812
1782836364042843100,1.814843017578125,0.0020871395245194435,0.002180973067879677,0.0006986605003476143
1782836364052773000,1.824773193359375,-0.0003196951001882553,-0.00025208014994859695,0.002968507818877697
1782836364062702000,1.8347021484375,-0.0011442098766565323,0.00047815870493650436,0.0010707397013902664
1782836364072631000,1.844631103515625,0.001172620803117752,-0.00039733387529850006,-0.001556479837745428
1782836364082561300,1.854561279296875,0.000980873592197895,-0.000019431114196777344,-0.0016275863163173199
1782836364092490200,1.864490234375,-0.00014776922762393951,-0.0015541575849056244,0.0020102793350815773
1782836364102420000,1.874419921875,-0.0010638963431119919,-0.0018252674490213394,-0.0007210592739284039
1782836364112349200,1.88434912109375,0.001511087641119957,0.00007918290793895721,0.0011750319972634315
1782836364122278100,1.894278076171875,-0.00010811444371938705,-0.0025373725220561028,-0.00012299232184886932
1782836364132208000,1.9042080078125,-0.0024329833686351776,-0.0013213753700256348,0.0019865036010742188
1782836364142137300,1.914137451171875,0.0026414040476083755,-0.0008233645930886269,-0.001937397290021181
1782836364152067000,1.924067138671875,0.00020488910377025604,-0.0012295516207814217,0.002792399376630783
1782836364161996000,1.93399609375,-0.0007349401712417603,0.0008879275992512703,-0.0017533502541482449
1782836364171925000,1.943925048828125,-0.0000741882249712944,0.0010682586580514908,0.001243889331817627
1782836364181855200,1.953855224609375,0.0009527262300252914,-0.0020207418128848076,-0.00017743976786732674
1782836364191784200,1.9637841796875,0.0010722232982516289,0.0002875225618481636,0.0004129745066165924
1782836364201713200,1.973713134765625,0.0008509140461683273,-0.0010174261406064034,0.0003658365458250046
1782836364211643100,1.98364306640625,0.00012184586375951767,0.0007305322214961052,0.0008539203554391861
1782836364221572000,1.993572021484375,0.0021421201527118683,0.0028307009488344193,-0.0021876757964491844
1782836364231502300,2.00350244140625,0.0014715595170855522,0.0013350285589694977,0.002282455563545227
1782836364241431300,2.013431396484375,-0.0013162372633814812,0.0001398017629981041,-0.00019215373322367668
1782836364251360300,2.0233603515625,0.000007947906851768494,0.0006350399926304817,-0.004129121080040932
1782836364261293600,2.03329345703125,0.0015459228307008743,-0.0022052209824323654,-0.0026902155950665474
1782836364271222500,2.043222412109375,0.0008609415963292122,-0.0010804086923599243,0.0005608843639492989
1782836364281152800,2.05315283203125,-0.0004077879711985588,-0.0006660204380750656,0.0006162784993648529
1782836364291081700,2.063081787109375,0.0005188779905438423,0.001130465418100357,-0.0010088877752423286
1782836364301010700,2.0730107421875,0.0003345869481563568,-0.0008871452882885933,-0.0012190109118819237
1782836364310940700,2.082940673828125,-0.0014575086534023285,-0.0003719078376889229,-0.0016124979592859745
1782836364320869600,2.09286962890625,0.0005832714959979057,-0.0010960213840007782,0.000650390051305294
1782836364330799600,2.102799560546875,0.003632744774222374,-0.0008578086271882057,0.00040107686072587967
1782836364340728800,2.112728759765625,-0.002533804625272751,-0.0009800475090742111,-0.001589103601872921
1782836364350657800,2.12265771484375,0.001982618123292923,0.0000648796558380127,-0.0023170593194663525
1782836364360587500,2.13258740234375,0.0005226731300354004,-0.0006387270987033844,-0.0003785444423556328
1782836364370516700,2.142516845703125,-0.0005982955917716026,0.0028061317279934883,0.0010226583108305931
1782836364380446700,2.15244677734375,0.0018318388611078262,0.0016838759183883667,-0.0019411742687225342
1782836364390375700,2.162375732421875,-0.0009997105225920677,0.000048947520554065704,0.00030021369457244873
1782836364400305000,2.172304931640625,-0.0015760194510221481,0.0016843946650624275,-0.0005224370397627354
1782836364410234600,2.182234619140625,0.0006707580760121346,0.0008246554061770439,-0.0010869870893657207
1782836364420163600,2.19216357421875,-0.0026331590488553047,0.00036259740591049194,-0.0019053765572607517
1782836364430092500,2.202092529296875,-0.0009276494383811951,0.0005410239100456238,0.000018386170268058777
1782836364440022800,2.212022705078125,0.0020287251099944115,0.0006153257563710213,0.002225613221526146
1782836364449951700,2.22195166015625,-0.0004673199728131294,0.0014993613585829735,-0.0004042843356728554
1782836364459881700,2.2318818359375,-0.00026172399520874023,-0.0006218468770384789,-0.0014122906140983105
1782836364469810700,2.241810791015625,-0.0016441447660326958,-0.0013116523623466492,0.0010299468412995338
1782836364479739600,2.25173974609375,0.00030369125306606293,-0.0019737137481570244,0.0020020008087158203
1782836364489669600,2.261669677734375,0.001711290329694748,-0.0007260804995894432,-0.0013882694765925407
1782836364499598800,2.271598876953125,0.0026055797934532166,-0.0011311471462249756,0.00007433909922838211
1782836364509528600,2.281528564453125,0.0005376143380999565,-0.0008209897205233574,0.0009518787264823914
1782836364519457500,2.29145751953125,-0.00085495226085186,0.001191028393805027,0.0009934240952134132
1782836364529386800,2.30138671875,-0.00039063021540641785,0.0007515298202633858,-0.0023289346136152744
1782836364539316700,2.311316650390625,0.0013894271105527878,0.0031054988503456116,0.000745418481528759
1782836364549245700,2.32124560546875,-0.001683143898844719,-0.0003752438351511955,0.0005186563357710838
1782836364559175700,2.33117578125,0.00009930972009897232,0.0006918851286172867,0.0009144013747572899
1782836364569104600,2.341104736328125,-0.00048238784074783325,0.002190200611948967,0.0020221713930368423
1782836364579033600,2.35103369140625,-0.000245898962020874,-0.001047138124704361,-0.0006545716896653175
1782836364588963800,2.3609638671875,-0.001352095976471901,-0.0006195744499564171,0.0007843868806958199
1782836364598892800,2.370892822265625,0.000028752721846103668,-0.0010531377047300339,-0.0007035210728645325
1782836364608822500,2.380822509765625,-0.0001879064366221428,0.0026767197996377945,-0.00019026966765522957
1782836364618751700,2.390751708984375,0.0012352876365184784,-0.0005108173936605453,0.0011293264105916023
1782836364628680700,2.4006806640625,-0.0009342283010482788,-0.00021819956600666046,0.0010196864604949951
1782836364638610700,2.410610595703125,-0.0019499575719237328,-0.0024922722950577736,0.0014351392164826393
1782836364648540000,2.420539794921875,0.0021834131330251694,0.0005652271211147308,0.0009898561984300613
1782836364658469600,2.4304697265625,0.000670471228659153,0.0013838829472661018,0.001577349379658699
1782836364668398600,2.440398681640625,-0.0019617248326539993,-0.0013944152742624283,-0.0007345452904701233
1782836364678327800,2.450327880859375,-0.0012471983209252357,-0.0029704738408327103,0.0008399151265621185
1782836364688257800,2.4602578125,-0.0010205917060375214,0.0013682711869478226,-0.0029273866675794125
1782836364698186800,2.470186767578125,0.00012270361185073853,0.0014814557507634163,-0.0026821098290383816
1782836364708116700,2.48011669921875,-0.0025696437805891037,0.0003367708995938301,-0.001681667286902666
1782836364718045700,2.490045654296875,-0.00003564637154340744,0.00009202677756547928,0.00039293523877859116
1782836364727974700,2.499974609375,0.0015373378992080688,0.003343641757965088,0.0007959455251693726
1782836364737905000,2.50990478515625,0.00007765926420688629,0.001683693379163742,0.0008044671267271042
1782836364747833900,2.519833740234375,0.0014925962314009666,0.0006213579326868057,0.00011470913887023926
1782836364757762600,2.529762451171875,0.0008158683776855469,0.001643126830458641,-0.0005155983380973339
1782836364767692500,2.539692626953125,0.0010098693892359734,-0.0004045926034450531,0.0010753730311989784
1782836364777621800,2.549621826171875,0.0011209230870008469,-0.0005484037101268768,-0.002573157660663128
1782836364787551700,2.5595517578125,0.001803467981517315,-0.00201545562595129,0.001283343881368637
1782836364797480700,2.569480712890625,-0.0001230631023645401,-0.0008905362337827682,-0.0005856622010469437
1782836364807409700,2.57940966796875,0.0011710692197084427,0.0002626590430736542,0.00045371800661087036
1782836364817339600,2.589339599609375,0.0004546782001852989,-0.00028755050152540207,-0.00032019661739468575
1782836364827268600,2.5992685546875,0.0015974761918187141,-0.0023732762783765793,0.0005925856530666351
1782836364837198800,2.60919873046875,0.0004179626703262329,0.00003688409924507141,-0.00016135536134243011
1782836364847127600,2.61912744140625,-0.0026047928258776665,0.0006937310099601746,-0.0014113583602011204
1782836364857056500,2.629056396484375,0.0006927326321601868,0.001067904755473137,-0.003682236187160015
1782836364866986800,2.63898681640625,-0.00120554119348526,-0.00008232053369283676,0.0009149340912699699
1782836364876915700,2.648915771484375,-0.0006476091220974922,-0.0006724772974848747,-0.0010483479127287865
1782836364886845700,2.658845703125,-0.0009567746892571449,0.0003015603870153427,0.003147960640490055
1782836364896774700,2.668774658203125,0.0001849224790930748,0.0009636217728257179,-0.0014060446992516518
1782836364906703600,2.67870361328125,-0.0002203928306698799,-0.00019196141511201859,-0.00038726069033145905
1782836364916633600,2.688633544921875,0.0007210345938801765,0.0007300255820155144,0.00017866119742393494
1782836364926562800,2.698562744140625,-0.002239375375211239,-0.0017469068989157677,0.0021235961467027664
1782836364936492800,2.708492919921875,0.0011393772438168526,-0.000377509742975235,-0.000025841407477855682
1782836364946421500,2.71842138671875,-0.0009061340242624283,-0.0018886290490627289,0.0002658199518918991
1782836364956350500,2.7283505859375,-0.0003572562709450722,-0.0013679815456271172,-0.001505980733782053
1782836364966280700,2.73828076171875,0.0009993473067879677,0.0003213444724678993,-0.003919935319572687
1782836364976209700,2.748209716796875,-0.0007455553859472275,-0.0006392579525709152,-0.0007158862426877022
1782836364986139600,2.7581396484375,-0.0009222282096743584,-0.00026905257254838943,-0.002504063304513693
1782836364996068600,2.768068603515625,0.00010948069393634796,-0.0009076790884137154,0.0003322036936879158
1782836365005997600,2.77799755859375,0.00036108028143644333,-0.00008381623774766922,-0.00029318034648895264
1782836365015927800,2.787927734375,0.0015642959624528885,-0.00031444523483514786,-0.0004961132071912289
1782836365025856800,2.797856689453125,-0.001237119548022747,0.0012019304558634758,-0.00038957735523581505
1782836365035785700,2.80778564453125,-0.0011830572038888931,0.0010107150301337242,0.001534290611743927
1782836365045715500,2.817715576171875,0.001572897657752037,0.0005701202899217606,-0.00024443119764328003
1782836365055644700,2.827644775390625,-0.0021608537063002586,0.0016332538798451424,-0.0018378007225692272
1782836365065574700,2.83757470703125,0.0006419885903596878,0.0003456640988588333,0.0012554628774523735
1782836365075503600,2.847503662109375,-0.0005833320319652557,0.0034530404955148697,-0.00035415124148130417
1782836365085432800,2.857432861328125,-0.0003317957744002342,0.00029354915022850037,-0.0000019194558262825012
1782836365095362600,2.867362548828125,0.00011881068348884583,0.0011622719466686249,-0.0004408084787428379
1782836365105291500,2.87729150390625,-0.00011732056736946106,-0.0010673580691218376,0.0009958120062947273
1782836365115221800,2.8872216796875,-0.0009117415174841881,-0.0012077074497938156,0.0006839558482170105
1782836365125150700,2.897150634765625,0.00040554068982601166,-0.0009965449571609497,0.0015412364155054092
1782836365135079700,2.90707958984375,-0.0004322892054915428,-0.0008801640942692757,0.00017317011952400208
1782836365145009700,2.917009765625,0.0008076103404164314,-0.0020492933690547943,-0.00027347682043910027
1782836365154938600,2.926938720703125,-0.00036817509680986404,-0.0009368909522891045,-0.0020287660881876945
1782836365164868600,2.93686865234375,0.0010351259261369705,-0.0011117653921246529,-0.0014710268005728722
1782836365174797800,2.9467978515625,-0.00011695828288793564,-0.0012760823592543602,-0.0006984439678490162
1782836365184726800,2.956726806640625,0.00040280353277921677,0.000011001713573932648,-0.00016314256936311722
1782836365194656500,2.966656494140625,-0.0011548791080713272,-0.0008113821968436241,-0.0009421170689165592
1782836365204585700,2.976585693359375,0.0015221768990159035,0.0014454685151576996,-0.0006893551908433437
1782836365214515700,2.986515625,-0.0024832170456647873,0.0007168278098106384,-0.0012664622627198696
1782836365224444700,2.996444580078125,0.0015630368143320084,0.0014882078394293785,-0.0002786549739539623
1782836365234373600,3.00637353515625,-0.001568041741847992,0.00047966931015253067,-0.0028427462093532085
1782836365244303600,3.0163037109375,-0.0010926909744739532,0.00148748978972435,-0.001044995617121458
1782836365254232600,3.026232666015625,-0.0007422184571623802,0.0008440706878900528,-0.0005459189414978027
1782836365264159000,3.036158935546875,0.0001248614862561226,0.002536672167479992,-0.0008326987735927105
1782836365274088200,3.046088134765625,-0.0006365366280078888,0.00023490283638238907,-0.001034833025187254
1782836365284017200,3.05601708984375,0.0023203054443001747,-0.000995144248008728,0.0014885906130075455
1782836365293947000,3.06594677734375,-0.00048347003757953644,-0.002115536481142044,-0.0022406335920095444
1782836365303876000,3.0758759765625,0.0014126962050795555,-0.0018627308309078217,-0.00007157959043979645
1782836365313806000,3.08580615234375,-0.0010339505970478058,-0.0032901857048273087,-0.0009874403476715088
1782836365323735000,3.095735107421875,-0.002314242534339428,0.002232421189546585,0.00005636364221572876
1782836365333664000,3.1056640625,0.00004904717206954956,0.0008920524269342422,0.0003767414018511772
1782836365343594000,3.115593994140625,-0.001239626668393612,0.0009774593636393547,-0.0016677472740411758
1782836365353523000,3.12552294921875,-0.0006209751591086388,0.0014696111902594566,-0.0010179360397160053
1782836365363453200,3.135453125,-0.002157551236450672,-0.0012082858011126518,-0.0010399078018963337
1782836365373382100,3.145382080078125,-0.0032582348212599754,0.0001616440713405609,0.0010402873158454895
1782836365383311000,3.15531103515625,0.00041620898991823196,0.000017490237951278687,0.0008755335584282875
1782836365393241000,3.165240966796875,-0.0000578342005610466,-0.0020280834287405014,0.000013201497495174408
1782836365403170000,3.175170166015625,-0.0018078107386827469,-0.0006622029468417168,-0.0026630512438714504
1782836365413099000,3.18509912109375,0.0016242042183876038,0.00011677201837301254,0.0006624376401305199
1782836365423029000,3.195029052734375,0.0008526397868990898,0.0013776356354355812,0.00045546330511569977
1782836365432958200,3.204958251953125,-0.0013220980763435364,-0.001205364242196083,-0.00019621243700385094
1782836365442888000,3.214887939453125,0.000960162840783596,0.00012124981731176376,-0.00017317477613687515
1782836365452817000,3.22481689453125,-0.0011732950806617737,0.0010448340326547623,-0.0017441734671592712
1782836365462746000,3.23474609375,-0.0015432583168148994,-0.0033006099984049797,0.0014096228405833244
1782836365472676000,3.244676025390625,-0.0019890712574124336,0.0011617830023169518,-0.0007046610116958618
1782836365482605000,3.25460498046875,0.00025959592312574387,-0.0020566750317811966,0.0011838572099804878
1782836365492535000,3.26453515625,0.0007978202775120735,-0.000003909692168235779,0.000787045806646347
1782836365502464000,3.274464111328125,-0.0021705012768507004,-0.00003526918590068817,-0.0021236417815089226
1782836365512393000,3.28439306640625,-0.0011638263240456581,0.0003543505445122719,-0.001963052898645401
1782836365522323200,3.2943232421875,0.0012042373418807983,-0.0023593343794345856,-0.0037379320710897446
1782836365532252200,3.304252197265625,0.0011339299380779266,-0.00037474650889635086,-0.001474777702242136
1782836365542182000,3.314181884765625,0.002504623495042324,0.00008471217006444931,-0.0003571240231394768
1782836365552111000,3.324111083984375,0.0010430803522467613,0.0015656957402825356,0.00046525988727808
1782836365562040000,3.3340400390625,-0.0013296958059072495,0.00018566474318504333,-0.0009168987162411213
1782836365571970000,3.343969970703125,0.0010591596364974976,0.0011641094461083412,0.002710326574742794
1782836365581899300,3.353899169921875,-0.0022571515291929245,-0.001025843434035778,-0.0004299068823456764
1782836365591829000,3.3638291015625,0.00036020297557115555,-0.0012570060789585114,-0.0017921137623488903
1782836365601758000,3.373758056640625,0.00021404866129159927,-0.00054144486784935,-0.0001329360529780388
1782836365611687000,3.38368701171875,-0.0014576176181435585,0.001045798882842064,-0.0005603735335171223
1782836365621617200,3.3936171875,-0.00035348255187273026,0.0005002440884709358,-0.0019097342155873775
1782836365631546000,3.403546142578125,0.0012992750853300095,-0.002390350215137005,0.002175554633140564
1782836365641476000,3.41347607421875,-0.001702314242720604,-0.002006394788622856,0.0013860715553164482
1782836365651405000,3.423405029296875,-0.0011220108717679977,-0.0007813405245542526,0.00023079197853803635
1782836365661334000,3.433333984375,0.0014242110773921013,-0.0008851876482367516,-0.002010445110499859
1782836365671264300,3.44326416015625,-0.0013547977432608604,-0.0006657429039478302,-0.002527364529669285
1782836365681193200,3.453193115234375,0.000711626373231411,0.00022461172193288803,-0.002019299194216728
1782836365691123000,3.463123046875,0.0007776729762554169,-0.0008486425504088402,0.0005133673548698425
1782836365701052000,3.473052001953125,0.00046797748655080795,0.0005711512640118599,-0.00005623232573270798
1782836365710981000,3.482981201171875,0.002322336658835411,-0.002115977928042412,0.0000921059399843216
1782836365720911000,3.4929111328125,-0.0015459638088941574,-0.000035443343222141266,-0.0005934913642704487
1782836365730840000,3.502840087890625,0.0014322493225336075,0.0016466090455651283,0.0003114510327577591
1782836365740770000,3.51277001953125,-0.0001649651676416397,-0.001227458007633686,0.00041416194289922714
1782836365750699000,3.522698974609375,0.0011698110029101372,0.0017941640689969063,0.00046316441148519516
1782836365760628000,3.5326279296875,0.0011380631476640701,0.00010342337191104889,0.000031287781894207
1782836365770558200,3.54255810546875,-0.0003610299900174141,0.00041661132127046585,0.0021714037284255028
1782836365780487200,3.552487060546875,-0.0010684691369533539,-0.0033205505460500717,-0.0007901596836745739
1782836365790417000,3.5624169921875,0.001116388477385044,-0.0006712386384606361,-0.00239071948453784
1782836365800346000,3.57234619140625,0.0005024950951337814,-0.0015675509348511696,-0.0016661202535033226
1782836365810275000,3.582275146484375,-0.00012334808707237244,-0.0007206657901406288,0.0001504216343164444
1782836365820205000,3.592205078125,0.00007981155067682266,-0.0007286220788955688,0.00004985742270946503
1782836365830134300,3.60213427734375,-0.0007814541459083557,0.0012365244328975677,0.00032496172934770584
1782836365840064000,3.61206396484375,-0.0008084932342171669,-0.0009157340973615646,0.000725981779396534
1782836365849993000,3.621992919921875,-0.002976839430630207,-0.00037830788642168045,-0.0009901593439280987
1782836365859922200,3.631922119140625,-0.00006589572876691818,-0.0003894707188010216,-0.0009391815401613712
1782836365869852200,3.64185205078125,0.0026265596970915794,0.001329866237938404,-0.0016425224021077156
1782836365879781000,3.651781005859375,-0.0006544627249240875,0.002385898493230343,0.0008881501853466034
1782836365889709800,3.661709716796875,0.00034209154546260834,0.0015925420448184013,-0.0003614048473536968
1782836365899640000,3.67164013671875,0.0009319204837083817,0.0038549695163965225,-0.00089291762560606
1782836365909569000,3.681569091796875,0.00006559398025274277,-0.0015930579975247383,0.000893796794116497
1782836365919499300,3.691499267578125,0.0012699877843260765,-0.0002730032429099083,0.0001250365749001503
1782836365929428200,3.70142822265625,0.00045586004853248596,0.0012311507016420364,-0.0009817732498049736
1782836365939357000,3.71135693359375,-0.0006989035755395889,0.00013908743858337402,-0.0020537637174129486
1782836365949287000,3.721286865234375,-0.00003044959157705307,0.00010180380195379257,-0.0020532310009002686
1782836365959216000,3.731216064453125,-0.0000471360981464386,-0.0004308801144361496,-0.0020326822996139526
1782836365969146000,3.74114599609375,0.000004529021680355072,-0.00022475142031908035,-0.0007551638409495354
1782836365979075000,3.751074951171875,-0.0008778274059295654,0.0017364593222737312,-0.000841610599309206
1782836365989004000,3.761004150390625,0.0010686777532100677,0.00018064025789499283,0.0012529660016298294
1782836365998934000,3.77093408203125,0.0015778392553329468,0.0005809487774968147,-0.00018742308020591736
1782836366008863000,3.780863037109375,-0.00027066096663475037,-0.0003532879054546356,-0.00003801938146352768
1782836366018793200,3.790793212890625,0.00038976874202489853,0.0007114792242646217,0.0020122528076171875
1782836366028722000,3.800721923828125,0.0009991005063056946,-0.003379136323928833,-0.000849846750497818
1782836366038651000,3.81065087890625,-0.002142367884516716,0.0013060783967375755,0.0015112301334738731
1782836366048581000,3.8205810546875,-0.002363143488764763,0.00020566023886203766,-0.0017633931711316109
1782836366058510000,3.830510009765625,0.0007935548201203346,0.00022107921540737152,-0.0007753190584480762
1782836366068440000,3.840440185546875,0.002070007845759392,0.0010743560269474983,-0.0019527026452124119
1782836366078369000,3.850369140625,0.001261725090444088,0.002722521312534809,0.0003560958430171013
1782836366088298000,3.860298095703125,-0.00036173779517412186,0.00046442728489637375,0.0010027112439274788
1782836366098228000,3.87022802734375,0.00007001310586929321,-0.0005650222301483154,0.0009503420442342758
1782836366108157200,3.8801572265625,0.000014087185263633728,-0.0008920580148696899,-0.0014875158667564392
1782836366118087200,3.890087158203125,-0.0012109363451600075,-0.00011018011718988419,-0.0020633433014154434
1782836366128016000,3.900015869140625,0.0015470338985323906,-0.0022196704521775246,-0.0000928705558180809
1782836366137944800,3.90994482421875,0.0015253247693181038,0.0000863661989569664,-0.0022670961916446686
1782836366147875000,3.919875,-0.0016702022403478622,-0.001150405965745449,0.00020964350551366806
1782836366157804000,3.929803955078125,0.0023980233818292618,0.0008494555950164795,0.00039140786975622177
1782836366167734300,3.939734375,-0.0009365202859044075,-0.0013047754764556885,-0.0009497604332864285
1782836366177663000,3.9496630859375,-0.00040743593126535416,0.0009180828928947449,0.002156727947294712
1782836366187592000,3.959592041015625,0.0018099118024110794,-0.0009112423285841942,0.002323707565665245
1782836366197522200,3.969522216796875,0.0020631281659007072,-0.000021366402506828308,-0.0020375829190015793
1782836366207451100,3.979451171875,-0.0012828679755330086,0.0013698684051632881,-0.00014673825353384018
1782836366217381000,3.989381103515625,0.001041061244904995,0.0008015288040041924,-0.00401274161413312
1782836366227309800,3.999309814453125,-0.00021035782992839813,-0.0001478884369134903,-0.0010246746242046356
1782836366237239000,4.009239013671875,0.000023091211915016174,-0.0011523989960551262,-0.00046255672350525856
1782836366247169000,4.0191689453125,0.0009749047458171844,0.0013054320588707924,-0.0023936149664223194
1782836366257098200,4.02909814453125,-0.001034078188240528,0.0005170702934265137,-0.0019958443008363247
1782836366267028200,4.0390283203125,-0.00016588810831308365,0.00006433296948671341,0.00036584679037332535
1782836366276957200,4.048957275390625,0.002683008089661598,0.00020124856382608414,-0.0020385682582855225
1782836366286886100,4.05888623046875,0.0002853637561202049,-0.0024933377280831337,0.00009142793715000153
1782836366296816000,4.068816162109375,0.00014293193817138672,-0.0022653257474303246,0.0014365315437316895
1782836366306745300,4.078745361328125,-0.0000711856409907341,-0.0012735640630126,-0.005223501473665237
1782836366316675000,4.088675048828125,0.000309990718960762,-0.0011716429144144058,-0.002383462619036436
1782836366326604000,4.09860400390625,0.0009725848212838173,0.0006507579237222672,-0.0019613513723015785
1782836366336533200,4.108533203125,-0.0008425340056419373,0.0007206602022051811,-0.0008150520734488964
1782836366346463200,4.118463134765625,0.00039051007479429245,-0.0028309309855103493,-0.000646740198135376
1782836366356392200,4.12839208984375,-0.0013112854212522507,-0.00345588568598032,0.0016818512231111526
1782836366366322200,4.138322265625,-0.00032431818544864655,0.0017985310405492783,-0.00046332553029060364
1782836366376251100,4.148251220703125,0.0026813410222530365,0.0004875585436820984,-0.0010081813670694828
1782836366386180000,4.15818017578125,-0.0008971476927399635,0.0024841297417879105,-0.0005365354008972645
1782836366396110300,4.1681103515625,0.00020588748157024384,-0.001654873602092266,0.0009877774864435196
1782836366406039300,4.178039306640625,0.00029457081109285355,0.0016972469165921211,0.0031316224485635757
1782836366415969000,4.187968994140625,-0.0014688773080706596,-0.0005495036020874977,-0.0004604398272931576
1782836366425898200,4.197898193359375,0.0009452784433960915,0.0010467944666743279,0.0011441148817539215
1782836366435827200,4.2078271484375,-0.001818554475903511,0.0015865834429860115,0.0019411006942391396
1782836366445757200,4.217757080078125,0.0012312978506088257,-0.0020251963287591934,-0.0006869067437946796
1782836366455686400,4.227686279296875,0.0000333394855260849,-0.0017984984442591667,-0.0005563967861235142
1782836366465616100,4.2376162109375,0.0019979532808065414,-0.001710081472992897,0.00007210951298475266
1782836366475545000,4.247545166015625,-0.00013323873281478882,-0.000553804449737072,0.0017982665449380875
1782836366485474000,4.25747412109375,0.001747751608490944,-0.0017812550067901611,-0.001955991145223379
1782836366495404300,4.267404296875,-0.0023620864376425743,0.0012637646868824959,-0.0015770569443702698
1782836366505333200,4.277333251953125,-0.0013652658089995384,-0.0023994138464331627,-0.00228492496535182
1782836366515263200,4.28726318359375,-0.0009116735309362411,-0.0008905446156859398,0.0004830574616789818
1782836366525192200,4.297192138671875,0.00258425809442997,0.001797650009393692,-0.0005973875522613525
1782836366535121200,4.30712109375,0.0020266128703951836,0.000022668391466140747,0.0017531057819724083
1782836366545051400,4.317051513671875,-0.0003872765228152275,0.000992857851088047,0.002070554532110691
1782836366554980400,4.32698046875,0.000873154029250145,0.003967042081058025,0.0013268357142806053
1782836366564909300,4.336909423828125,-0.001281343400478363,0.0024823294952511787,-0.0022021192125976086
1782836366574839000,4.346839111328125,-0.0005536461248993874,0.003207528032362461,0.00007560942322015762
1782836366584768300,4.356768310546875,0.0015941932797431946,0.00040055718272924423,-0.0027390853501856327
1782836366594698200,4.3666982421875,0.002395845949649811,0.0029624570161104202,-0.0007392987608909607
1782836366604627200,4.376627197265625,0.0012395009398460388,-0.0013049924746155739,0.0010133273899555206
1782836366614556400,4.386556396484375,0.0034277597442269325,-0.00037373136729002,0.00006501656025648117
1782836366624486100,4.396486083984375,-0.0017907042056322098,-0.0003159400075674057,0.0010439949110150337
1782836366634415000,4.4064150390625,-0.0004453817382454872,-0.0009850487112998962,0.00019761081784963608
1782836366644345300,4.416345458984375,-0.0003809332847595215,-0.0009493622928857803,-0.00011877249926328659
1782836366654274300,4.4262744140625,-0.0002680998295545578,-0.002079513855278492,-0.0008008317090570927
1782836366664203300,4.436203369140625,-0.00019406341016292572,0.0005884412676095963,-0.00011160597205162048
1782836366674133200,4.44613330078125,-0.00036986544728279114,-0.0016921795904636383,-0.0017109089531004429
1782836366684062200,4.456062255859375,0.002483977936208248,-0.0010002898052334785,-0.0006831949576735497
1782836366693992200,4.4659921875,0.0006748456507921219,0.00028028618544340134,0.0012971190735697746
1782836366703921400,4.47592138671875,-0.0021795304492115974,-0.001189778558909893,-0.0029120072722434998
1782836366713850400,4.485850341796875,0.0016154898330569267,-0.0007793959230184555,0.0012114187702536583
1782836366723780000,4.495780029296875,0.00005780719220638275,-0.0011501079425215721,0.0009949039667844772
1782836366733709300,4.505709228515625,0.0009685372933745384,0.0027582934126257896,0.0004348400980234146
1782836366743639300,4.515639404296875,0.0020788097754120827,0.0001625102013349533,0.0005762539803981781
1782836366753568300,4.525568359375,-0.0018153311684727669,0.0034210840240120888,0.0007025208324193954
1782836366763497200,4.535497314453125,0.0015533016994595528,0.00144235510379076,0.00029319338500499725
1782836366773427200,4.54542724609375,-0.00008685700595378876,-0.0024103960022330284,-0.0007049408741295338
1782836366783356200,4.555356201171875,-0.0015039248391985893,0.0005134884268045425,0.00011904072016477585
1782836366793286400,4.565286376953125,-0.00010614190250635147,0.0028277309611439705,0.000758294016122818
1782836366803215400,4.57521533203125,-0.000856354832649231,-0.0010487660765647888,-0.00027874112129211426
1782836366813144300,4.585144287109375,-0.0009101750329136848,-0.0018719770014286041,-0.0009321290999650955
1782836366823074300,4.59507421875,0.0017252899706363678,-0.0003100326284766197,-0.0019209603779017925
1782836366833003300,4.605003173828125,-0.0018618833273649216,-0.00044286996126174927,0.002202029339969158
1782836366842933200,4.614933349609375,0.0015142057090997696,0.0017398567870259285,-0.002341323532164097
1782836366852862200,4.6248623046875,-0.0003420654684305191,-0.0001631537452340126,-0.00242620799690485
1782836366862791400,4.63479150390625,-0.0025285203009843826,-0.00010190065950155258,-0.001352155115455389
1782836366872721200,4.64472119140625,0.00021925382316112518,0.00013998150825500488,-0.0017779618501663208
1782836366882650000,4.654650146484375,-0.0012124618515372276,-0.00033166445791721344,0.0000028936192393302917
1782836366892580400,4.664580322265625,-0.0003433236852288246,0.00024745427072048187,0.0011526569724082947
1782836366902509300,4.67450927734375,-0.0011848825961351395,0.0018866294994950294,-0.00012725871056318283
1782836366912438300,4.684438232421875,0.0007637059316039085,0.0025908751413226128,0.00006346125155687332
1782836366922368300,4.6943681640625,-0.0013393927365541458,0.0007013622671365738,-0.0010848939418792725
1782836366932297200,4.704297119140625,-0.001549234613776207,0.002875957638025284,0.0005311695858836174
1782836366942227200,4.714227294921875,0.0009605279192328453,-0.0011211810633540154,-0.005147221963852644
1782836366952156400,4.724156494140625,0.0010154470801353455,-0.0017923694103956223,-0.0006355792284011841
1782836366962085000,4.734085205078125,-0.0009896466508507729,0.00008995365351438522,0.0016518095508217812
1782836366972015000,4.74401513671875,-0.0010596364736557007,-0.0013701524585485458,-0.0008432846516370773
1782836366981944300,4.7539443359375,0.0013665035367012024,-0.00019356794655323029,0.0012984294444322586
1782836366991874300,4.763874267578125,0.0005349582061171532,-0.0007876800373196602,-0.000723542645573616
1782836367001803300,4.77380322265625,-0.0009327102452516556,0.0005881087854504585,-0.0011800085194408894
1782836367011732200,4.783732177734375,0.0006413673982024193,-0.0026375874876976013,0.004259501583874226
1782836367021662200,4.793662109375,-0.0012494772672653198,-0.0011819032952189445,0.0022445544600486755
1782836367031591200,4.803591064453125,0.0007173530757427216,0.002480117604136467,-0.0018665031529963017
1782836367041521400,4.813521484375,-0.0005806712433695793,-0.0006882445886731148,-0.002887825481593609
1782836367051450400,4.823450439453125,0.0005698101595044136,0.0025661056861281395,-0.0012400797568261623
1782836367061379000,4.833379150390625,0.0009730132296681404,0.0001671304926276207,-0.0008845478296279907
1782836367071309300,4.843309326171875,-0.0012434907257556915,0.0014890367165207863,0.0017431313171982765
1782836367081238300,4.85323828125,-0.0009817024692893028,0.002129526808857918,0.0014067739248275757
1782836367091168300,4.863168212890625,0.0006721960380673409,0.0010846173390746117,0.0008169654756784439
1782836367101097200,4.87309716796875,-0.0012069297954440117,0.00016183219850063324,-0.0017417995259165764
1782836367111026200,4.883026123046875,0.0001955358311533928,-0.0002995813265442848,-0.00006312783807516098
1782836367120956200,4.8929560546875,-0.00022337958216667175,0.001389928162097931,-0.0025944621302187443
1782836367130885000,4.902885009765625,0.00019798893481492996,0.0006175953894853592,-0.002322981134057045
1782836367140815400,4.9128154296875,-0.0012904517352581024,0.0007451605051755905,0.002552201971411705
1782836367150744300,4.922744384765625,-0.00033684447407722473,0.00032962020486593246,0.00116068497300148
1782836367160673000,4.932673095703125,0.0005009854212403297,-0.0010770615190267563,0.00119051244109869
1782836367170603300,4.942603271484375,0.00017844699323177338,0.0009382730349898338,-0.000547255389392376
1782836367180532200,4.9525322265625,0.001127065159380436,0.0015292288735508919,0.00027539487928152084
1782836367190462200,4.962462158203125,-0.0011673951521515846,0.0028566038236021996,-0.0018164305947721004
1782836367200391200,4.97239111328125,0.0026087015867233276,0.0006895894184708595,-0.0003221309743821621
1782836367210320100,4.982320068359375,0.00004760175943374634,-0.0012892596423625946,-0.0023312680423259735
1782836367220250000,4.99225,0.0014303149655461311,0.0004716217517852783,0.00029940251260995865
1782836367230179300,5.002179443359375,0.00014215148985385895,0.00006974488496780396,-0.0014295042492449284
1782836367240109300,5.012109375,0.0000018030405044555664,-0.0002972390502691269,0.00006239861249923706
1782836367250038300,5.022038330078125,0.0020083636045455933,-0.0022413209080696106,0.0014402922242879868
1782836367259967200,5.03196728515625,-0.000875573605298996,0.00027643144130706787,-0.00034562358632683754
1782836367269897200,5.041897216796875,0.0023948485031723976,0.0017957035452127457,0.0018340134993195534
1782836367279826400,5.051826416015625,-0.00037856772541999817,-0.0019550928846001625,0.0018662381917238235
1782836367289755400,5.06175537109375,-0.00039987359195947647,-0.0013569463044404984,-0.0021434174850583076
1782836367299685000,5.07168505859375,0.0008904319256544113,-0.0007190993055701256,-0.0009510349482297897
1782836367309614300,5.0816142578125,0.0016178963705897331,0.0008193729445338249,-0.0007738014683127403
1782836367319544300,5.09154443359375,-0.0007437951862812042,-0.00038996897637844086,0.0032528983429074287
1782836367329473300,5.101473388671875,-0.0011720508337020874,-0.001552065834403038,0.0020720362663269043
1782836367339402200,5.11140234375,-0.0010647252202033997,-0.002063925378024578,-0.0004355963319540024
1782836367349332200,5.121332275390625,0.0012725042179226875,-0.0018739644438028336,-0.0002267342060804367
1782836367359261200,5.13126123046875,0.002116992138326168,-0.00004996545612812042,0.0005442509427666664
1782836367369191400,5.14119140625,0.0015872921794652939,-0.0002695964649319649,0.0004765978083014488
1782836367379120400,5.151120361328125,-0.0002199290320277214,0.000499257817864418,-0.0004440569318830967
1782836367389049300,5.16104931640625,-0.0021530473604798317,0.00394898746162653,-0.0003753672353923321
1782836367398979000,5.17097900390625,-0.0002582082524895668,-0.00004335679113864899,0.0008805794641375542
1782836367408908300,5.180908203125,0.000963311642408371,0.0025106091052293777,-0.00041936011984944344
1782836367418838300,5.19083837890625,-0.0019320771098136902,-0.00022152718156576157,0.00045415665954351425
1782836367428767200,5.200767333984375,0.0005325330421328545,0.0015687718987464905,0.0005680304020643234
1782836367438696400,5.210696533203125,0.002089151181280613,0.0005847346037626266,0.001022898592054844
1782836367448626200,5.220626220703125,0.001565501093864441,0.001619580201804638,0.0008894260972738266
1782836367458555100,5.23055517578125,0.0016890717670321465,0.0009724320843815804,0.0024907849729061127
1782836367468485400,5.2404853515625,-0.0014263074845075607,-0.0008589131757616997,-0.0005721133202314377
1782836367478414300,5.250414306640625,-0.0015131263062357903,0.00046121515333652496,-0.0005870270542800426
1782836367488343300,5.26034326171875,0.0004546726122498512,0.0001864572986960411,-0.00003574974834918976
1782836367498273300,5.270273193359375,-0.0017624087631702423,-0.0006058327853679657,0.0022966470569372177
1782836367508202200,5.2802021484375,-0.0013424018397927284,-0.00045393407344818115,-0.000023451633751392365
1782836367518132200,5.29013232421875,0.0001444406807422638,-0.0016808519139885902,0.0005286224186420441
1782836367528061400,5.3000615234375,-0.0025715800002217293,-0.001001204364001751,-0.0031536566093564034
1782836367537990400,5.309990478515625,-0.000855705700814724,-0.00035059358924627304,0.000218171626329422
1782836367547919400,5.31991943359375,0.00010075978934764862,0.0004653437063097954,-0.0011250111274421215
1782836367557848300,5.329848388671875,0.0008280687034130096,0.00014150328934192657,0.0007490552961826324
1782836367567777300,5.33977734375,0.0005293795838952065,0.00016989652067422867,0.00255780853331089
1782836367577707300,5.349707275390625,-0.0010357601568102837,0.0002170344814658165,0.0008643036708235741
1782836367587636200,5.35963623046875,-0.00043516233563423157,0.0017053857445716858,0.000836079940199852
1782836367597566500,5.36956640625,-0.0013180002570152283,-0.0015354147180914879,0.0012006666511297226
1782836367607495400,5.379495361328125,-0.0012816749513149261,-0.0006368411704897881,-0.0016270778141915798
1782836367617424100,5.389424072265625,-0.00021454598754644394,0.0005996646359562874,-0.002868909854441881
1782836367627354400,5.399354248046875,0.002696714363992214,0.0010221656411886215,0.00016075465828180313
1782836367637283300,5.409283447265625,-0.00044901110231876373,-0.0006135478615760803,1.6577541828155518e-7
1782836367647213300,5.41921337890625,-0.001340024173259735,0.0016477229073643684,0.0007422799244523048
1782836367657142500,5.429142578125,-0.0010960781946778297,-0.002296685241162777,-0.001447903923690319
1782836367667071200,5.4390712890625,0.0002193683758378029,0.0009130211547017097,-0.000551171600818634
1782836367677001200,5.449001220703125,-0.001963891088962555,-0.0013157781213521957,-0.0017080483958125114
1782836367686930400,5.458930419921875,-0.002485050819814205,0.0002457518130540848,0.0016824863851070404
1782836367696860400,5.4688603515625,-0.0014402931556105614,0.000932580791413784,0.0025613298639655113
1782836367706789400,5.478789306640625,-0.0010415585711598396,0.001276201568543911,-0.00027152057737112045
1782836367716718000,5.488718017578125,0.0004178537055850029,-0.0026277266442775726,0.002685919404029846
1782836367726648300,5.4986484375,-0.0002216799184679985,0.000524359755218029,0.00035996828228235245
1782836367736577300,5.508577392578125,-0.0005159592255949974,-0.002104712650179863,-0.0008672168478369713
1782836367746507500,5.518507568359375,-0.00019148457795381546,0.0017694681882858276,-0.0006009652279317379
1782836367756436200,5.528436279296875,-0.0014234622940421104,0.0010165926069021225,0.002092822454869747
1782836367766365200,5.538365234375,-0.001666143536567688,0.0003857966512441635,-0.0001760409213602543
1782836367776295400,5.54829541015625,0.00006970483809709549,0.0010782182216644287,0.001923861913383007
1782836367786224400,5.558224365234375,0.0004456983879208565,0.0019125323742628098,-0.0003695371560752392
1782836367796154400,5.568154296875,0.00030162185430526733,-0.0017120297998189926,-0.0007943115197122097
1782836367806083300,5.578083251953125,0.0000034729018807411194,-0.00016069132834672928,0.00214241910725832
1782836367816012300,5.58801220703125,0.00007005222141742706,0.0007037706673145294,-0.0009905234910547733
1782836367825942300,5.5979423828125,-0.000055723823606967926,-0.0018168659880757332,-0.0021216277964413166
1782836367835871200,5.607871337890625,0.0024247439578175545,0.0027621733024716377,0.00045178458094596863
1782836367845801500,5.617801513671875,-0.00038298312574625015,-0.00043946877121925354,-0.0019120476208627224
1782836367855730200,5.627730224609375,0.0014796312898397446,0.0009461743757128716,0.0015814872458577156
1782836367865659100,5.6376591796875,0.0007459660992026329,-0.0012993915006518364,-0.0003609871491789818
1782836367875589400,5.64758935546875,-0.002154482528567314,0.0008029080927371979,-0.00018921354785561562
1782836367885518300,5.657518310546875,-0.0003121020272374153,0.0025549326092004776,0.0015991516411304474
1782836367895448300,5.6674482421875,0.0014075012877583504,-0.000548982061445713,-0.0008277874439954758
1782836367905377300,5.677377197265625,-0.00008397176861763,0.0008680624887347221,0.0019648419693112373
1782836367915306200,5.68730615234375,0.0006079170852899551,0.0007138662040233612,-0.0008117700926959515
1782836367925236200,5.697236328125,-0.00011019688099622726,0.0013956613838672638,-0.0013096821494400501
1782836367935165400,5.70716552734375,0.0020618773996829987,0.002631634473800659,-0.0006409627385437489
1782836367945095400,5.717095458984375,-0.00044263526797294617,0.00003415253013372421,-0.0011752666905522346
1782836367955024100,5.727024169921875,-0.0024256249889731407,0.0005044667050242424,0.001343284733593464
1782836367964953300,5.736953369140625,0.0012759193778038025,0.00026759039610624313,0.0014532757923007011
1782836367974883300,5.74688330078125,-0.001592571847140789,0.0004814416170120239,0.0012514078989624977
1782836367984812300,5.756812255859375,-0.001201096922159195,-0.001477670855820179,0.00022355467081069946
1782836367994742300,5.7667421875,0.002492707222700119,0.0009101191535592079,-0.0015506432391703129
1782836368004671200,5.776671142578125,-0.0022404948249459267,-0.0003728307783603668,-0.0009770803153514862
1782836368014600200,5.78660009765625,0.0014794087037444115,-0.0004609813913702965,0.0012003201991319656
1782836368024530400,5.796530517578125,0.0003403201699256897,-0.0031660301610827446,-0.0016192048788070679
1782836368034459400,5.80645947265625,0.0006601652130484581,-0.0023854579776525497,0.0021201390773057938
1782836368044388400,5.816388427734375,-0.00026026833802461624,-0.0003520306199789047,0.001097387634217739
1782836368054318000,5.826318115234375,-0.001136714592576027,0.0007119020447134972,-0.00013858499005436897
1782836368064247300,5.836247314453125,-0.000713820569217205,-0.00022006966173648834,0.0009688474237918854
1782836368074177300,5.84617724609375,0.0001591639593243599,-0.0013535106554627419,0.003705511800944805
1782836368084106200,5.856106201171875,-0.0003355797380208969,-0.0009030895307660103,-0.0009101848118007183
1782836368094035500,5.866035400390625,0.0008226288482546806,0.0007264986634254456,-0.0026271245442330837
1782836368103965200,5.875965087890625,-0.0012789089232683182,-0.0003115776926279068,0.00009650178253650665
1782836368113894100,5.88589404296875,-0.001572122797369957,0.0019507771357893944,-0.002046543639153242
1782836368123824400,5.895824462890625,0.0014280658215284348,0.0014708787202835083,-0.0007474594749510288
1782836368133753300,5.90575341796875,0.0004983562976121902,-0.0003571147099137306,0.00047200173139572144
1782836368143682300,5.915682373046875,0.0004764450713992119,0.000022046267986297607,0.0023901741951704025
1782836368153612300,5.9256123046875,0.0021393224596977234,-0.002077324315905571,-0.00023943046107888222
1782836368163541200,5.935541259765625,-0.0008816225454211235,-0.0011682184413075447,-0.00033595506101846695
1782836368173471200,5.94547119140625,0.0005040206015110016,-0.00045395828783512115,-0.0016765906475484371
1782836368183400400,5.955400390625,0.0011637024581432343,-0.00044260546565055847,-0.00010993005707859993
1782836368193332200,5.965332275390625,-0.0002621542662382126,-0.0016538109630346298,-0.0012953029945492744
1782836368203261400,5.975261474609375,-0.0004451703280210495,-0.0024336567148566246,-0.002321084961295128
1782836368213191200,5.985191162109375,-0.00001879781484603882,0.001728864386677742,-0.00003529433161020279
1782836368223120100,5.9951201171875,-0.0035742726176977158,-0.0009618671610951424,-0.0007086703553795815
1782836368233049300,6.00504931640625,0.0033121295273303986,0.00154816173017025,0.003193926066160202
1782836368242979300,6.014979248046875,-0.0009781504049897194,0.0015444820746779442,-0.0008097994141280651
1782836368252908300,6.024908203125,-0.0012588482350111008,-0.00018177926540374756,-0.0009927586652338505
1782836368262838000,6.034838134765625,-0.0027180304750800133,0.0029684174805879593,-0.0005639493465423584
1782836368272767000,6.04476708984375,-0.001816018484532833,0.0002884780988097191,-0.0013226838782429695
1782836368282696200,6.0546962890625,-0.000999191775918007,0.0011803405359387398,-0.001698791515082121
1782836368292626200,6.064626220703125,0.002279425971210003,-0.000011158175766468048,-0.0028673862107098103
1782836368302555100,6.07455517578125,-0.0005074935033917427,0.00004562549293041229,0.0017527425661683083
1782836368312485000,6.084485107421875,-0.0004883185029029846,0.0003460301086306572,-0.0010960404761135578
1782836368322414000,6.0944140625,-0.00036947522312402725,0.0012822039425373077,0.0008649630472064018
1782836368332343000,6.104343017578125,-0.00028398819267749786,0.000034246593713760376,0.0009123673662543297
1782836368342273300,6.114273193359375,-0.0003153569996356964,0.0007832199335098267,0.0003416333347558975
1782836368352202200,6.1242021484375,-0.0009092418476939201,-0.0015821997076272964,0.001523810438811779
1782836368362131200,6.134131103515625,-0.00021992996335029602,0.0008680215105414391,-0.0033485344611108303
1782836368372061200,6.144061279296875,-0.0010854573920369148,-0.0005589006468653679,0.002889653667807579
1782836368381990100,6.153990234375,-0.0012991949915885925,-0.00012763962149620056,0.000009240582585334778
1782836368391920000,6.163920166015625,-0.0002155546098947525,0.0005277646705508232,-0.00015907129272818565
1782836368401849300,6.173849365234375,-0.001174643635749817,-0.001275721937417984,0.0017404686659574509
1782836368411778300,6.1837783203125,0.0002059396356344223,0.0004012705758213997,-0.00039165839552879333
1782836368421708000,6.1937080078125,-0.0014696205034852028,0.0017072279006242752,0.002387852407991886
1782836368431637200,6.20363720703125,-0.00211543682962656,-0.001429443247616291,-0.0017728041857481003
1782836368441567200,6.213567138671875,-0.0012002289295196533,0.0005693817511200905,-0.0025643976405262947
1782836368451496200,6.22349609375,-0.0034830905497074127,0.0020897798240184784,-0.002188359387218952
1782836368461425200,6.233425048828125,0.00015783309936523438,0.002399120479822159,-0.002613865304738283
1782836368471355100,6.243355224609375,-0.00017213169485330582,0.000986047089099884,-0.0019352915696799755
1782836368481284000,6.2532841796875,0.0003366367891430855,-0.0002192612737417221,-0.0004757288843393326
1782836368491214300,6.26321435546875,0.0016956478357315063,0.000021488405764102936,0.0005754204466938972
1782836368501143300,6.273143310546875,0.0013837069272994995,-0.0003243619576096535,0.000022287480533123016
1782836368511072300,6.283072265625,-0.0010717278346419334,-0.000490277074277401,0.0011815614998340607
1782836368521002200,6.293002197265625,-0.0006555700674653053,-0.0020456407219171524,0.0018014851957559586
1782836368530931200,6.30293115234375,-0.002234824001789093,-0.002475741319358349,0.0032646264880895615
1782836368540861200,6.312861083984375,-0.0007333774119615555,-0.00010922923684120178,-0.0009010820649564266
1782836368550790100,6.3227900390625,0.00004373304545879364,-0.0019550658762454987,-0.0007511461153626442
1782836368560719400,6.33271923828125,-0.001545875333249569,0.0003399467095732689,0.0011867759749293327
1782836368570649000,6.342649169921875,0.0024456707760691643,0.0004488704726099968,0.003620905801653862
1782836368580578000,6.352578125,0.0008882032707333565,0.0005198782309889793,-0.0006274371407926083
1782836368590508300,6.36250830078125,-0.0004508337005972862,0.00040589459240436554,0.00023489445447921753
1782836368600437200,6.372437255859375,-0.0013145450502634048,0.0008619111031293869,0.0018693804740905762
1782836368610366200,6.3823662109375,0.0010625924915075302,-0.001451842486858368,-0.0019400049932301044
1782836368620296200,6.392296142578125,-0.0012549646198749542,0.0006971629336476326,0.002217421308159828
1782836368630225200,6.40222509765625,-0.001559896394610405,0.0018812045454978943,0.0003492143005132675
1782836368640155100,6.412155029296875,-0.0003153746947646141,0.0006353547796607018,-0.00035974103957414627
1782836368650084400,6.42208447265625,-0.0006115175783634186,0.0003037918359041214,0.002282381057739258
1782836368660013300,6.432013427734375,0.0009674569591879845,-0.0011802120134234428,0.001686624251306057
1782836368669943000,6.441943115234375,0.0001695742830634117,-0.0014332123100757599,0.0023452239111065865
1782836368679872300,6.451872314453125,0.0007163351401686668,-0.002222924493253231,-0.0010760445147752762
1782836368689802200,6.46180224609375,0.00014748331159353256,-0.00019279681146144867,-0.0017543514259159565
1782836368699731200,6.471731201171875,0.00032755639404058456,-0.0022836998105049133,-0.0012967507354915142
1782836368709660400,6.481660400390625,-0.0009837839752435684,0.0010910583660006523,-0.000019764527678489685
1782836368719590100,6.491590087890625,-0.00040550529956817627,-0.0011820727959275246,0.00043721869587898254
1782836368729519000,6.50151904296875,0.0005969079211354256,-0.002549339085817337,0.0018849130719900131
1782836368739449300,6.511449462890625,-0.00001947488635778427,0.001659885048866272,0.0027221255004405975
1782836368749378300,6.52137841796875,-0.0016756951808929443,0.0008694594725966454,-0.0018638377077877522
1782836368759307300,6.531307373046875,-0.0005017947405576706,-0.00160983856767416,0.0003269445151090622
1782836368769237200,6.5412373046875,-0.0015902286395430565,-0.00030488986521959305,-0.0013095680624246597
1782836368779166200,6.551166259765625,-0.0014139050617814064,-0.0009917598217725754,0.0006622113287448883
1782836368789095200,6.56109521484375,-0.0013475921005010605,0.0010104048997163773,-0.0009468705393373966
1782836368799025400,6.571025390625,-0.0022534113377332687,0.0011070137843489647,0.000001109205186367035
1782836368808954000,6.5809541015625,0.00036740582436323166,0.00044894684106111526,-0.001538197509944439
1782836368818884000,6.590884033203125,0.0005624294281005859,0.001531052403151989,-0.0018858439289033413
1782836368828813000,6.60081298828125,-0.0014264192432165146,-0.0009488826617598534,0.0014233998954296112
1782836368838743300,6.610743408203125,0.0031849173828959465,-0.001621505245566368,0.0019921697676181793
1782836368848672300,6.62067236328125,0.0007686316967010498,0.00010582059621810913,0.0005490025505423546
1782836368858601200,6.630601318359375,-0.0021923761814832687,-0.00170875433832407,-0.0012549851089715958
1782836368868531200,6.64053125,-0.00002083461731672287,-0.00048050470650196075,-0.0008115689270198345
1782836368878460200,6.650460205078125,-0.00004710443317890167,0.0012097302824258804,-0.000016369856894016266
1782836368888389000,6.66038916015625,0.002009655348956585,-0.0021016448736190796,-0.002469141036272049
1782836368898319400,6.6703193359375,-0.000422745943069458,-0.0017313826829195023,-0.002988117281347513
1782836368908248000,6.680248046875,-0.0008539110422134399,-0.0010450854897499084,-0.000606718473136425
1782836368918178000,6.690177978515625,0.0007281946018338203,0.0003186790272593498,-0.0004732329398393631
1782836368928107300,6.700107177734375,0.0011423155665397644,-0.0006059706211090088,-0.0007086563855409622
1782836368938036200,6.7100361328125,0.0007523475214838982,0.0010998332872986794,0.0021438654512166977
1782836368947966200,6.71996630859375,0.0005321037024259567,0.004274854436516762,0.00005834363400936127
1782836368957895200,6.729895263671875,-0.0014443546533584595,0.00015986617654561996,0.0005154935643076897
1782836368967825200,6.7398251953125,0.00008083786815404892,0.0003984849900007248,0.0007181596010923386
1782836368977754000,6.749754150390625,0.0027109570801258087,0.0017378171905875206,0.0016287630423903465
1782836368987683300,6.759683349609375,-0.0022742142900824547,-0.0004848577082157135,-0.0018147039227187634
1782836368997613300,6.76961328125,-0.00044644158333539963,0.0015780804678797722,-0.0010753856040537357
1782836369007542000,6.7795419921875,-0.002964993007481098,-0.0008754897862672806,0.0011848397552967072
1782836369017472300,6.78947216796875,0.0002201460301876068,-0.001161063089966774,0.001419011503458023
1782836369027401200,6.799401123046875,0.001157844439148903,-0.002005019225180149,-0.000985024031251669
1782836369037330200,6.809330078125,-0.0003775414079427719,-0.003329012542963028,0.00020362436771392822
1782836369047260200,6.81926025390625,-0.0010172324255108833,0.00023562833666801453,-0.0007423306815326214
1782836369057189000,6.829189208984375,-0.001278347335755825,-0.0021699313074350357,-0.00042882561683654785
1782836369067119000,6.839119140625,-0.0007382584735751152,0.0018381262198090553,-0.0028368555940687656
1782836369077048000,6.849048095703125,-0.000029911287128925323,0.0006766179576516151,0.0005280924960970879
1782836369086977300,6.858977294921875,0.0010750340297818184,-0.0024866852909326553,0.001237558200955391
1782836369096907300,6.8689072265625,-0.0005449764430522919,-0.0013491585850715637,0.0003843884915113449
1782836369106836000,6.8788359375,0.0005714213475584984,-0.0008474187925457954,-0.00004224944859743118
1782836369116766200,6.88876611328125,0.0034951288253068924,0.0000944826751947403,0.000022182241082191467
1782836369126695200,6.898695068359375,-0.00011824816465377808,0.00019168853759765625,-0.001680642832070589
1782836369136624000,6.9086240234375,-0.001432035118341446,-0.0006299065425992012,-0.0022853300906717777
1782836369146554000,6.91855419921875,0.00023563671857118607,-0.0004932861775159836,-0.0000072624534368515015
1782836369156483000,6.928483154296875,-0.0014973115175962448,-0.00019991304725408554,-0.00248090922832489
1782836369166412000,6.938412109375,-0.0014911862090229988,0.0004421742632985115,0.0003396449610590935
1782836369176342300,6.94834228515625,0.0002306448295712471,0.0007430519908666611,0.0005780486389994621
1782836369186271200,6.958271240234375,0.00006046891212463379,0.00021521281450986862,0.001536787487566471
1782836369196201000,6.968200927734375,-0.0014111194759607315,0.0000589955598115921,-0.0009510763920843601
1782836369206130200,6.978130126953125,0.000005149282515048981,-0.0008651213720440865,-0.0006927498616278172
1782836369216060200,6.98806005859375,0.0007164040580391884,-0.0015354501083493233,-0.0008729775436222553
1782836369225989000,6.997989013671875,-0.00016483571380376816,-0.0005910936743021011,-0.0009539374150335789
1782836369235918300,7.00791845703125,0.000859343446791172,0.0013366956263780594,-0.0018107881769537926
1782836369245848000,7.01784814453125,-0.0011257771402597427,-0.00014428794384002686,-0.0015980014577507973
1782836369255777000,7.027777099609375,0.0003146044909954071,0.0026012081652879715,-0.00011717621237039566
1782836369265705700,7.037705810546875,0.0007055569440126419,0.00039664376527071,0.0006370311602950096
1782836369275635700,7.0476357421875,-0.0017042532563209534,0.0008694762364029884,-0.00042174290865659714
1782836369285565000,7.05756494140625,-0.0019372794777154922,0.00030062533915042877,0.001654723659157753
1782836369295495000,7.067494873046875,-0.0011397497728466988,-0.00002633407711982727,0.0009617991745471954
1782836369305423600,7.077423583984375,0.0004573473706841469,0.0017214985564351082,-0.0019136159680783749
1782836369315352800,7.087352783203125,0.0014765355736017227,0.0012881932780146599,-0.0012053614482283592
1782836369325282800,7.09728271484375,-0.0011978112161159515,-0.0026676664128899574,0.002142764627933502
1782836369335211800,7.107211669921875,-0.0021834224462509155,-0.0007103104144334793,-0.00038629164919257164
1782836369345141800,7.117141845703125,0.0011481912806630135,0.0014508450403809547,-0.001985520124435425
1782836369355070700,7.12707080078125,-0.0013982215896248817,-0.002202235162258148,0.0006548529490828514
1782836369364999700,7.136999755859375,-0.00019793491810560226,0.000964796170592308,-0.0002524862065911293
1782836369374930000,7.146929931640625,0.001282891258597374,-0.0006645992398262024,-0.0001182015985250473
1782836369384859000,7.15685888671875,-0.002525429241359234,-0.0011008251458406448,0.0009342795237898827
1782836369394788900,7.166788818359375,0.0021648481488227844,-0.0015152441337704659,-0.00038784975185990334
1782836369404717800,7.1767177734375,0.0004348587244749069,0.0004168795421719551,0.0005836710333824158
1782836369414646800,7.186646728515625,-0.00025748834013938904,-0.0028547504916787148,-0.0010289549827575684
1782836369424576800,7.19657666015625,0.0003182869404554367,-0.00020410586148500443,0.0009811986237764359
1782836369434505700,7.206505615234375,-0.0023009134456515312,-0.002455521374940872,0.00039001554250717163
1782836369444435700,7.216435791015625,0.0007196441292762756,0.0005804821848869324,0.00027816276997327805
1782836369454364700,7.22636474609375,-0.0002871844917535782,0.0009556934237480164,0.002029045484960079
1782836369464293600,7.236293701171875,0.0007213549688458443,0.0001924317330121994,0.0005653714761137962
1782836369474223900,7.246223876953125,0.0015390636399388313,0.0018642200157046318,-0.000021848827600479126
1782836369484152800,7.25615283203125,-0.0012087859213352203,0.002370486967265606,-0.00010014604777097702
1782836369494082800,7.266082763671875,0.00030145514756441116,0.0012659728527069092,-0.0013881465420126915
1782836369504011800,7.27601171875,0.0017837705090641975,0.0009221592918038368,-0.0008427309803664684
1782836369513940700,7.285940673828125,0.0001249155029654503,-0.0004418119788169861,-0.0008190544322133064
1782836369523870700,7.29587060546875,0.0012330561876296997,-0.002553165890276432,0.00038815662264823914
1782836369533800000,7.305800048828125,0.0007188301533460617,-0.0011311853304505348,0.00017683114856481552
1782836369543729000,7.31572900390625,-0.002208516001701355,-0.0007476899772882462,0.0014341091737151146
1782836369553658600,7.32565869140625,0.0005611451342701912,-0.0006167804822325706,0.0006737345829606056
1782836369563587800,7.335587890625,-0.0009246328845620155,-0.002633325755596161,0.0006340537220239639
1782836369573517800,7.345517822265625,-0.002674669027328491,-0.0010155299678444862,-0.0028094472363591194
1782836369583446800,7.35544677734375,-0.00045252684503793716,-0.002353501506149769,-0.0027292859740555286
1782836369593376000,7.3653759765625,-0.000759282149374485,-0.00007423385977745056,-0.0014004711993038654
1782836369603305700,7.3753056640625,0.0004391409456729889,0.00023469328880310059,-0.00041323713958263397
1782836369613234700,7.385234619140625,-0.0016091829165816307,-0.0011785756796598434,-0.0013870601542294025
1782836369623165000,7.3951650390625,-0.0008515138179063797,0.0005229180678725243,-0.0015843999572098255
1782836369633094000,7.405093994140625,0.0013993959873914719,0.00007190648466348648,-0.0005867369472980499
1782836369643022800,7.41502294921875,0.0001056324690580368,0.0015278570353984833,-0.0009052511304616928
1782836369652952800,7.424952880859375,-0.0013099852949380875,-0.0003735097125172615,0.001621105708181858
1782836369662881800,7.4348818359375,0.0018522515892982483,0.0006424859166145325,-0.0013392642140388489
1782836369672811800,7.444811767578125,0.00019404105842113495,-0.00046748388558626175,-0.0012129168026149273
1782836369682740700,7.45474072265625,-0.0016749650239944458,0.0009128320962190628,0.0006230659782886505
1782836369692670000,7.464669921875,-0.0004459889605641365,0.00023791566491127014,-0.00189235620200634
1782836369702599700,7.474599609375,-0.0006987228989601135,-0.000317353755235672,0.0009910482913255692
1782836369712528600,7.484528564453125,0.0002658748999238014,0.0002847909927368164,-0.0001999293453991413
1782836369722459000,7.494458984375,-0.0006196256726980209,-0.0008760811761021614,-0.0008233753032982349
1782836369732387800,7.504387939453125,0.0001249155029654503,-0.0024226438254117966,0.0019368724897503853
1782836369742316800,7.51431689453125,-0.0006322208791971207,0.0002477075904607773,-0.0009840824641287327
1782836369752246800,7.524246826171875,-0.000800400972366333,0.002558513544499874,0.000470099039375782
1782836369762175700,7.53417578125,0.00020387768745422363,0.0005092108622193336,-0.0017355307936668396
1782836369772105700,7.544105712890625,-0.002497231587767601,0.00013629626482725143,-0.0019507873803377151
1782836369782035000,7.554034912109375,-0.0017696563154459,0.0013720029965043068,0.00004019215703010559
1782836369791964000,7.5639638671875,0.0008131964132189751,-0.00029388535767793655,-0.0004555070772767067
1782836369801893600,7.5738935546875,0.0004925522953271866,0.0014659315347671509,0.0008342619985342026
1782836369811822800,7.58382275390625,0.0009375279769301414,-0.0007713232189416885,0.0004149721935391426
1782836369821752800,7.5937529296875,0.0009061023592948914,-0.000037622638046741486,-0.0016596298664808273
1782836369831681800,7.603681884765625,-0.0005554407835006714,0.00120607390999794,-0.000691837165504694
1782836369841611000,7.613611083984375,0.0007233964279294014,0.0008460739627480507,0.0000939592719078064
1782836369851540700,7.623540771484375,-0.00035933032631874084,0.00008821766823530197,0.001708056777715683
1782836369861469700,7.6334697265625,-0.0015273923054337502,0.0015929033979773521,-0.0009220805950462818
1782836369871398700,7.643398681640625,-0.0012540528550744057,0.0005811545997858047,-0.0010040351189672947
1782836369881329000,7.653328857421875,-0.0002827979624271393,-0.0005104755982756615,0.0001536412164568901
1782836369891257900,7.6632578125,-0.00042928196489810944,-0.001108657568693161,0.001007717102766037
1782836369901187800,7.673187744140625,0.0013041701167821884,-0.003184857778251171,0.002101743593811989
1782836369911116800,7.68311669921875,-0.0011282404884696007,0.00008065905421972275,-0.00039830850437283516
1782836369921045800,7.693045654296875,-0.00038788188248872757,-0.0005707507953047752,0.001675761304795742
1782836369930976000,7.70297607421875,0.0010712174698710442,-0.0013759592548012733,0.0004061097279191017
1782836369940905000,7.712905029296875,-0.0016292277723550797,-0.0007969876751303673,-0.00008870568126440048
1782836369950834700,7.722834716796875,-0.00031702592968940735,0.002073233015835285,-0.0007908032275736332
1782836369960763600,7.732763671875,0.0005756653845310211,0.0003594886511564255,0.00007179472595453262
1782836369970692900,7.74269287109375,-0.0019116438925266266,0.0030523380264639854,0.0008772397413849831
1782836369980622800,7.752622802734375,0.0009507220238447189,0.00013830699026584625,-0.0016967053525149822
1782836369990551800,7.7625517578125,0.0024296222254633904,-0.0010242704302072525,0.0006940234452486038
1782836370000481800,7.772481689453125,0.0007880497723817825,-0.00020135287195444107,0.0004412895068526268
1782836370010410800,7.78241064453125,0.0032288432121276855,-0.0006014155223965645,0.0018340907990932465
1782836370020339700,7.792339599609375,-0.0007975902408361435,0.0008896877989172935,0.00020902976393699646
1782836370030270000,7.80227001953125,-0.00010241754353046417,0.0012927502393722534,0.000013119541108608246
1782836370040199000,7.812198974609375,0.0009830864146351814,0.0005340147763490677,-0.00009393971413373947
1782836370050128600,7.822128662109375,-0.003791647031903267,-0.0026018908247351646,-0.001466026995331049
1782836370060057900,7.832057861328125,-0.0013580508530139923,-0.0015265066176652908,0.0013268301263451576
1782836370069986800,7.84198681640625,-0.001622576266527176,-0.0014601070433855057,0.0005909502506256104
1782836370079916800,7.851916748046875,-0.0003383997827768326,0.0014885449782013893,-0.0025278772227466106
1782836370089846000,7.861845947265625,0.0009626466780900955,0.00024580955505371094,-0.0008995281532406807
1782836370099775700,7.871775634765625,-0.002386544831097126,-0.0007257107645273209,0.0005939723923802376
1782836370109704700,7.88170458984375,-0.0023168493062257767,0.0013527674600481987,-0.0011500134132802486
1782836370119634000,7.891634033203125,-0.0005892561748623848,-0.0011077262461185455,-0.00008687935769557953
1782836370129564000,7.90156396484375,0.00017776992172002792,0.0007699476554989815,0.0003524031490087509
1782836370139492900,7.911492919921875,0.0005562053993344307,0.0003254655748605728,0.0018056901171803474
1782836370149421600,7.921421630859375,0.0005380697548389435,0.0013298504054546356,-0.00013949163258075714
1782836370159351800,7.931351806640625,0.0010086502879858017,-0.0008571380749344826,0.002203291282057762
1782836370169280800,7.94128076171875,0.0004229992628097534,0.002201293595135212,0.0008286330848932266
1782836370179211000,7.9512109375,0.0001500248908996582,-0.00045707449316978455,-0.001365811564028263
1782836370189140000,7.961139892578125,0.00007649604231119156,-0.001048368401825428,0.0003786049783229828
1782836370199068700,7.971068603515625,-0.0002785036340355873,0.00042276177555322647,0.0013037873432040215
1782836370208999000,7.9809990234375,-0.002477496862411499,-0.000375441275537014,0.0011124657467007637
1782836370218927900,7.990927978515625,-0.0022884123027324677,-0.002461761236190796,-0.0002705138176679611
1782836370228857900,8.00085791015625,-0.000004144385457038879,0.0011668270453810692,0.00057169608771801
1782836370238786800,8.010786865234374,-0.0005234600976109505,-0.0012097787111997604,0.0022734561935067177
1782836370248715800,8.0207158203125,0.0023356471210718155,-0.0010241884738206863,-0.0019853184930980206
1782836370258646300,8.030646240234375,0.0009438786655664444,0.00024880189448595047,0.0006658583879470825
1782836370268575200,8.0405751953125,0.00033961236476898193,-0.001844426617026329,0.0002819029614329338
1782836370278505200,8.050505126953125,-0.0007285811007022858,-0.00251154787838459,-0.003007101360708475
1782836370288434200,8.06043408203125,-0.00045515038073062897,0.0014172829687595367,0.0011020340025424957
1782836370298363100,8.070363037109376,-0.0003177318722009659,0.002696133218705654,0.0004564831033349037
1782836370308293400,8.08029345703125,0.00007879547774791718,-0.001082233153283596,-0.0030373195186257362
1782836370318222300,8.090222412109375,0.00018665287643671036,0.0003689238801598549,0.0021100379526615143
1782836370328152300,8.10015234375,-0.0012736786156892776,0.00005253031849861145,0.0010417765006422997
1782836370338081300,8.110081298828124,0.0003876006230711937,0.0022115558385849,0.0007957005873322487
1782836370348010200,8.12001025390625,-0.0006487108767032623,0.0026032766327261925,-0.00010679941624403
1782836370357940200,8.129940185546875,0.0003025699406862259,-0.00015309546142816544,0.001179507002234459
1782836370367869400,8.139869384765625,0.00038123875856399536,-0.001829017885029316,-0.00001318659633398056
1782836370377799200,8.149799072265624,0.000284033827483654,-0.0006484389305114746,-0.0010427646338939667
1782836370387728100,8.15972802734375,-0.0009956490248441696,-0.0004692729562520981,0.0007691802456974983
1782836370397657300,8.1696572265625,-0.0022630468010902405,-0.0017811460420489311,-0.00037917541339993477
1782836370407587300,8.17958740234375,-0.002705574966967106,-0.0014265170320868492,-0.0012405691668391228
1782836370417516300,8.189516357421875,-0.0005872966721653938,-0.0024680793285369873,-0.002535930834710598
1782836370427445500,8.199445556640624,-0.0006330609321594238,-0.0007935734465718269,0.0008484944701194763
1782836370437375200,8.209375244140626,0.001254321075975895,0.00014625582844018936,-0.000036207959055900574
1782836370447304200,8.21930419921875,-0.003656229004263878,-0.0004434548318386078,-0.0012583453208208084
1782836370457234400,8.229234375,0.00034277327358722687,0.00040902290493249893,0.00040506478399038315
1782836370467163400,8.239163330078124,0.002118823118507862,-0.0003737667575478554,-0.0009057410061359406
1782836370477092400,8.24909228515625,-0.00044553447514772415,-0.00046005286276340485,0.0011659320443868637
1782836370487022300,8.259022216796875,0.0012047002092003822,-0.0022438643500208855,0.00011473242193460464
1782836370496951300,8.268951416015625,0.0011327946558594704,0.0016376925632357597,-0.0000842064619064331
1782836370506881300,8.27888134765625,-0.0017985636368393898,0.0013237660750746727,-0.00036891596391797066
1782836370516810500,8.288810546875,-0.0003942791372537613,0.001198064535856247,-0.000241084024310112
1782836370526739500,8.298739501953126,0.00010915379971265793,-0.000050304457545280457,-0.0006184387020766735
1782836370536669200,8.308669189453125,-0.0007984517142176628,-0.0012932009994983673,-0.00008314382284879684
1782836370546598100,8.31859814453125,0.0015273606404662132,0.0007740361616015434,-0.000010901130735874176
1782836370556528400,8.3285283203125,-0.0008130250498652458,-0.0035040657967329025,0.0009728698059916496
1782836370566457300,8.338457275390626,0.0015223156660795212,-0.0009533502161502838,0.00046480633318424225
1782836370576386300,8.34838623046875,-0.0015781363472342491,-0.001262810081243515,-0.002551490440964699
1782836370586316300,8.35831640625,0.0006417836993932724,-0.0011258674785494804,0.0007703965529799461
1782836370596245200,8.368245361328125,0.00004656799137592316,0.00019665807485580444,0.0001988820731639862
1782836370606175500,8.378175537109374,0.0005077626556158066,-0.0019168555736541748,-0.0014916853979229927
1782836370616104400,8.3881044921875,-0.00014497805386781693,0.0009468412026762962,-0.002713011112064123
1782836370626033400,8.398033447265625,0.0000196993350982666,-0.0022457754239439964,0.000039950013160705566
1782836370635963100,8.407963134765625,-0.0021188193932175636,0.000008590519428253174,-0.0003403495065867901
1782836370645892400,8.417892333984375,-0.0002341289073228836,0.0005188100039958954,0.0003470517694950104
1782836370655821300,8.4278212890625,-0.0007582390680909157,0.0018559833988547325,-0.0019078473560512066
1782836370665751300,8.437751220703126,-0.0007896516472101212,0.0014080526307225227,-0.0004402440972626209
1782836370675680500,8.447680419921875,-0.0009832633659243584,0.0012663723900914192,-0.001223213504999876
1782836370685610200,8.4576103515625,0.00008146557956933975,0.0007105870172381401,0.00039152801036834717
1782836370695539200,8.467539306640624,0.0013973340392112732,0.0005406774580478668,0.000993136316537857
1782836370705468400,8.477468505859376,0.00039893388748168945,0.0013897139579057693,-0.0007592733018100262
1782836370715398400,8.4873984375,-0.0018887212499976158,-0.0003296220675110817,0.002035447396337986
1782836370725327400,8.497327392578125,-0.00002127327024936676,-0.0005935430526733398,-0.0011769174598157406
1782836370735257300,8.50725732421875,-0.0016066525131464005,-0.0018361732363700867,0.00024307984858751297
1782836370745186300,8.517186279296874,-0.0010506827384233475,-0.001814945600926876,-0.0010418086312711239
1782836370755115300,8.527115234375,-0.0010717222467064857,-0.00041785091161727905,-0.0011238339357078075
1782836370765045500,8.53704541015625,-0.0023687556385993958,0.0008513936772942543,0.0001462828367948532
1782836370774974500,8.546974365234375,0.00022063590586185455,0.000331011600792408,0.002001440152525902
1782836370784904200,8.556904296875,0.0015358319506049156,-0.001692996360361576,0.00242806039750576
1782836370794833400,8.56683349609375,-0.0021246830001473427,-0.00016247760504484177,-0.0008891727775335312
1782836370804762400,8.576762451171875,0.0001138448715209961,-0.0001047300174832344,-0.0008920407854020596
1782836370814692400,8.5866923828125,0.00041558127850294113,0.0013043489307165146,-0.00242815213277936
1782836370824621300,8.596621337890625,-0.0013150284066796303,0.0004640994593501091,-0.00222265487536788
1782836370834551300,8.60655126953125,-0.0006271339952945709,-0.0002616122364997864,-0.0014846930280327797
1782836370844480300,8.616480224609376,-0.0006183655932545662,0.0007818825542926788,-0.002141738310456276
1782836370854409200,8.6264091796875,0.000058609992265701294,0.0018215803429484367,-0.0009542345069348812
1782836370864339500,8.63633935546875,-0.0016141878440976143,-0.0008774539455771446,-0.000005210749804973602
1782836370874268400,8.646268310546875,-0.0020083365961909294,-0.0015560267493128777,-0.002463308162987232
1782836370884197000,8.656197021484376,-0.0002324078232049942,-0.00019901618361473083,0.0005928603932261467
1782836370894127400,8.66612744140625,0.0011982414871454239,-0.002408907748758793,-0.00035229558125138283
1782836370904056300,8.676056396484375,0.00011800695210695267,-0.0012650387361645699,0.0022674109786748886
1782836370913986300,8.685986328125,0.00013345293700695038,-0.0023153899237513542,-0.000043147243559360504
1782836370923915300,8.695915283203124,0.0025248033925890923,-0.0013366471976041794,-0.00018171453848481178
1782836370933844200,8.70584423828125,-0.0009658019989728928,-0.00040667131543159485,0.00024732016026973724
1782836370943774200,8.715774169921875,0.0017711510881781578,-0.00013203080743551254,0.0010411906987428665
1782836370953703400,8.725703369140625,-0.0004414031282067299,0.0022192737087607384,-0.00025550276041030884
1782836370963633400,8.73563330078125,-0.00039876438677310944,-0.0010428139939904213,-0.000514972023665905
1782836370973562400,8.745562255859374,-0.0007971730083227158,0.0007500266656279564,-0.0014888900332152843
1782836370983491300,8.7554912109375,0.0010860366746783257,0.0011892877519130707,0.0009625554084777832
1782836370993421300,8.76542138671875,-0.0011827098205685616,0.0017538778483867645,-0.000024411827325820923
1782836371003350300,8.775350341796875,-0.0007400093600153923,0.002434489317238331,-0.001009936910122633
1782836371013280500,8.785280517578125,-0.0012926151975989342,0.002442745491862297,0.0007229819893836975
1782836371023209200,8.795209228515626,-0.000010238029062747955,0.0037897443398833275,-0.0025781611911952496
1782836371033138200,8.80513818359375,0.00034902244806289673,0.0017532259225845337,-0.0007885168306529522
1782836371043068400,8.815068359375,-0.0001497417688369751,-0.00033165793865919113,-0.00015943218022584915
1782836371052997400,8.824997314453125,0.0000025918707251548767,-0.0001857168972492218,0.002200927585363388
1782836371062927400,8.83492724609375,0.00017149746417999268,-0.0022694263607263565,-0.0006000017747282982
1782836371072856000,8.84485595703125,0.002266073599457741,-0.0011719372123479843,0.0005853716284036636
1782836371082785300,8.854785400390625,-0.0014270395040512085,-0.0006987247616052628,0.0010036900639533997
1782836371092715300,8.86471533203125,0.0002163974568247795,-0.00032082293182611465,-0.0016592051833868027
1782836371102644200,8.874644287109374,0.0004229564219713211,-0.0012811031192541122,-0.001638786867260933
1782836371112573400,8.884573486328126,-0.003339824266731739,-0.001572985202074051,0.0007207738235592842
1782836371122503200,8.894503173828125,-0.00027608219534158707,-0.0018627401441335678,-0.001561541110277176
1782836371132432100,8.90443212890625,0.0019825445488095284,-0.0028592953458428383,0.0018329238519072533
1782836371142362400,8.9143623046875,-0.000035550445318222046,-0.0015533166006207466,-0.002994328271597624
1782836371152291300,8.924291259765624,0.0015700692310929298,-0.0006675487384200096,0.004046270623803139
1782836371162220300,8.93422021484375,0.0009793667122721672,0.0014587314799427986,0.0003061862662434578
1782836371172150300,8.944150390625,0.0012560691684484482,0.0034933872520923615,-0.000555878970772028
1782836371182079200,8.954079345703125,0.000540291890501976,0.001960637979209423,-0.0028666234575212
1782836371192009200,8.96400927734375,0.0005062036216259003,0.0020000524818897247,-0.0014239894226193428
1782836371201938400,8.9739384765625,-0.00010273139923810959,0.001710197888314724,-0.00007872004061937332
1782836371211867400,8.983867431640626,-0.0020393822342157364,-0.002328486181795597,-0.001312030479311943
1782836371221797000,8.993797119140625,-0.0014431234449148178,-0.0014563538134098053,0.0021942993625998497
1782836371231726300,9.003726318359375,0.0005678292363882065,-0.0014092158526182175,-0.001618281938135624
1782836371241656300,9.01365625,0.0034197568893432617,0.0023817289620637894,0.0013808496296405792
1782836371251585300,9.023585205078126,-0.0004386305809020996,0.00019633863121271133,-0.0014911028556525707
1782836371261514200,9.03351416015625,-0.002631204202771187,-0.00010192953050136566,-0.0003962162882089615
1782836371271444200,9.0434443359375,-0.003546532243490219,-0.0013877032324671745,-0.0019112885929644108
1782836371281373200,9.053373291015625,0.0007167840376496315,-0.0013196300715208054,-0.0010833553969860077
1782836371291303400,9.063303466796874,-0.0005106665194034576,0.000138184055685997,-0.0006178347393870354
1782836371301232400,9.073232421875,-0.0012271497398614883,-0.0011160261929035187,-0.0007026083767414093
1782836371311161300,9.083161376953125,0.0002751387655735016,0.0018336903303861618,-0.00044028693810105324
1782836371321091300,9.09309130859375,0.00048355571925640106,0.0004632677882909775,-0.0009667156264185905
1782836371331020300,9.103020263671874,-0.0009388383477926254,-0.0010976111516356468,0.0003166617825627327
1782836371340949200,9.11294921875,0.0010756077244877815,0.0021982435137033463,0.0010621016845107079
1782836371350879200,9.122879150390625,-0.0006272178143262863,0.0009422963485121727,-0.0037385127507150173
1782836371360808400,9.132808349609375,0.00017864350229501724,-0.0009370427578687668,-0.0014069555327296257
1782836371370738200,9.14273828125,0.0005243215709924698,-0.0022358661517500877,-0.0009784526191651821
1782836371380667100,9.152667236328124,-0.0015349723398685455,0.000612255185842514,-0.0004264526069164276
1782836371390596400,9.162596435546876,0.0013926401734352112,-0.0029281508177518845,0.0015341667458415031
1782836371400526300,9.1725263671875,-0.002312013879418373,-0.0009157368913292885,0.004922340624034405
1782836371410455300,9.182455322265625,-0.0002701682969927788,-0.001003088429570198,-0.0019587348215281963
1782836371420385300,9.19238525390625,0.0017889123409986496,-0.0012678056955337524,-0.0006675585173070431
1782836371430314200,9.202314208984374,-0.0003157844766974449,-0.001065937802195549,0.0004938459023833275
1782836371440243200,9.2122431640625,-0.00045074615627527237,-0.0009610932320356369,-0.00010974938049912453
1782836371450173400,9.22217333984375,0.0014249179512262344,-0.0017299475148320198,0.00034085754305124283
1782836371460102400,9.232102294921875,0.001164756715297699,-0.0029198797419667244,-0.0013645784929394722
1782836371470032100,9.2420322265625,0.0010944493114948273,0.002066090703010559,0.0002817874774336815
1782836371479961300,9.25196142578125,-0.0002998514100909233,-0.0015744948759675026,0.000575716607272625
1782836371489890300,9.261890380859375,-0.0019129281863570213,0.0016444679349660873,0.0002683885395526886
1782836371499820300,9.2718203125,0.0024735061451792717,-0.0011266469955444336,0.00063290074467659
1782836371509749500,9.28174951171875,0.0004108874127268791,0.0011567473411560059,-0.0008962862193584442
1782836371519679200,9.29167919921875,-0.0021467823535203934,0.00035309046506881714,0.0009871898218989372
1782836371529608200,9.301608154296876,-0.001767016015946865,0.004319070838391781,-0.002540432848036289
1782836371539537200,9.311537109375,-0.001100648194551468,0.000012602657079696655,-0.00021115178242325783
1782836371549464300,9.32146435546875,0.000017346814274787903,-0.0002497192472219467,-0.002830637153238058
1782836371559394300,9.331394287109376,-0.001463525928556919,0.00009987689554691315,-0.0001112581230700016
1782836371569323300,9.3413232421875,-0.001981777139008045,0.0001819021999835968,-0.00018982170149683952
1782836371579252200,9.351252197265625,0.0014878055080771446,0.00020748097449541092,-0.00011544022709131241
1782836371589182500,9.361182373046875,-0.00157829187810421,0.0003824504092335701,-0.00005924701690673828
1782836371599111400,9.371111328125,-0.00020661670714616776,-0.0035298755392432213,0.0001363484188914299
1782836371609041200,9.381041259765626,-0.002310514450073242,-0.0016949577257037163,0.0016122721135616302
1782836371618970400,9.390970458984375,-0.0002788519486784935,-0.002043166197836399,0.000634513795375824
1782836371628899300,9.4008994140625,0.0008535245433449745,-0.001129702664911747,-0.0005450001917779446
1782836371638829300,9.410829345703124,-0.0005587935447692871,-0.0018716175109148026,0.001113911159336567
1782836371648758500,9.420758544921876,0.0011648042127490044,-0.00013177469372749329,-0.0017359377816319466
1782836371658688300,9.430688232421875,0.0018020523712038994,0.0006011892110109329,-0.00015753787010908127
1782836371668617200,9.4406171875,0.0017716921865940094,0.00003713183104991913,0.0013772416859865189
1782836371678546200,9.450546142578125,0.0007602451369166374,0.0014461725950241089,-0.0007019853219389915
1782836371688476400,9.460476318359374,-0.00026667024940252304,0.00011938530951738358,-0.0003280774690210819
1782836371698405400,9.4704052734375,-0.002239094115793705,0.0020463960245251656,-0.0010447078384459019
1782836371708335400,9.48033544921875,0.0000304514542222023,0.0003491640090942383,0.0008495980873703957
1782836371718264300,9.490264404296875,-0.0009321002289652824,0.0012015514075756073,-0.0007799644954502583
1782836371728193300,9.500193359375,-0.002506028860807419,-0.0002472084015607834,-0.00044520478695631027
1782836371738123500,9.51012353515625,0.0016358084976673126,-0.0024065831676125526,-0.00010656332597136497
1782836371748052500,9.520052490234375,-0.0012041861191391945,0.0005306173115968704,0.00007879268378019333
1782836371757982200,9.529982177734375,0.00044984836131334305,0.000424092635512352,-0.0009209262207150459
1782836371767911200,9.5399111328125,-0.0015741540119051933,-0.0009343856945633888,0.0015435628592967987
1782836371777840400,9.54984033203125,-0.0001074429601430893,-0.0007593370974063873,-0.0006245751865208149
1782836371787770400,9.559770263671876,-0.00021823029965162277,-0.00005999114364385605,-0.0020584212616086006
1782836371797699300,9.56969921875,-0.00018082000315189362,-0.0006164759397506714,-0.00018901191651821136
1782836371807628300,9.579628173828125,-0.000015437602996826172,0.002653619274497032,-0.0019126096740365028
1782836371817558300,9.589558349609375,-0.001501869410276413,0.0010620979592204094,0.0007384801283478737
1782836371827487200,9.5994873046875,-0.0000027762725949287415,0.00006394553929567337,-0.0009465022012591362
1782836371837417500,9.60941748046875,-0.0008695153519511223,0.0030248453840613365,0.0017732121050357819
1782836371847346400,9.619346435546875,0.000834374688565731,0.002181953750550747,-0.0001333453692495823
1782836371857275100,9.629275146484375,-0.0006211251020431519,-0.0014761779457330704,0.0016575688496232033
1782836371867205400,9.639205322265624,0.001575450412929058,0.0005925651639699936,-0.0019462211057543755
1782836371877134300,9.64913427734375,0.001294456422328949,-0.0023626210168004036,0.0027264533564448357
1782836371887064300,9.659064208984375,-0.0005127647891640663,-0.0004576621577143669,-0.002123695332556963
1782836371896993300,9.6689931640625,-0.00009276997298002243,-0.0022133393213152885,-0.0015283185057342052
1782836371906922200,9.678922119140625,-0.0011676214635372162,-0.0004545878618955612,-0.0009522768668830395
1782836371916852200,9.688852294921874,0.000050329603254795074,0.0004485566169023514,-0.0007208376191556454
1782836371926781400,9.698781494140626,-0.0008759172633290291,0.0017527062445878983,0.0001494837924838066
1782836371936711400,9.70871142578125,-0.00011533871293067932,-0.003192344680428505,0.0011406121775507927
