time,seconds_elapsed,z,y,x
1782831884251874600,0.08987451171875,-0.47851533786058426,-0.14743760949745774,0.1528903767443262
1782831884261803300,0.09980322265625,-0.502065140274167,-0.11139803560599684,0.16439528363700956
1782831884271732200,0.109732177734375,-0.4284282416552305,-0.14385434418320656,0.22720300093404946
1782831884281661200,0.1196611328125,-0.3134855191797018,-0.14161489469334482,0.25336413662349805
1782831884291590100,0.129590087890625,-0.2365916645914316,-0.09200674111135304,0.2322925060927868
1782831884301519400,0.139519287109375,-0.20010405467152595,-0.0696671912703663,0.19394982462441548
1782831884311448300,0.1494482421875,-0.21505554008781907,-0.10496953692845999,0.09653813746329397
1782831884321378300,0.15937841796875,-0.18262801921367644,-0.11136435253210365,0.03525875767811667
1782831884331307500,0.1693076171875,-0.1811450871795416,-0.2007302237458527,0.10572895872732624
1782831884341236500,0.179236572265625,-0.12203005038797855,-0.24197511119544504,0.147534402669128
1782831884351165200,0.189165283203125,-0.030249592313170433,-0.14981310645714402,0.16456081292964517
1782831884361094100,0.19909423828125,-0.007798106530308723,-0.0909742562584579,0.1962435433184728
1782831884371023400,0.2090234375,0.04367898272871971,-0.07358589908406138,0.14866974510829895
1782831884380952300,0.218952392578125,0.04500643194019794,-0.0003907528832554817,0.1255998534324579
1782831884390881300,0.22888134765625,0.021236849296092986,0.02259980821236968,0.09340516406665555
1782831884400810200,0.238810302734375,0.011570610806345938,0.0568735414750874,0.07653396263415925
1782831884410739500,0.248739501953125,-0.008255202648043632,0.08191825862154364,0.07964777467260137
1782831884420668400,0.25866845703125,0.028849077865481375,0.07492160466723144,0.07889682844113557
1782831884430597400,0.268597412109375,0.05856675525903701,0.07720270134173333,0.049150934166670775
1782831884440526300,0.2785263671875,-0.005990764847397804,0.016847601361200212,0.06233915907037444
1782831884450455600,0.28845556640625,-0.05264554851651192,-0.06596073796786367,-0.01327118134626653
1782831884460384300,0.29838427734375,-0.009526537758111953,-0.06663987933844327,-0.007057193069090135
1782831884470313200,0.308313232421875,-0.04179857580959797,-0.0527521506961435,0.06600147183705121
1782831884480243500,0.318243408203125,-0.05869535007476806,-0.029764146883785723,0.07970327685265802
1782831884490172400,0.32817236328125,-0.09627484688460826,-0.012517609332874416,0.011793003119062631
1782831884500101400,0.338101318359375,-0.0999853918403387,-0.04311228875666857,-0.03399509898442775
1782831884510030300,0.3480302734375,-0.10797931320369243,-0.05487564565613866,-0.05427373424023389
1782831884519959600,0.35795947265625,-0.05074292976558208,-0.06125109897218644,-0.018203614513459615
1782831884529888500,0.367888427734375,-0.06001227789223194,-0.06954553765207529,-0.014241556181805207
1782831884539817200,0.377817138671875,-0.023143559700250626,-0.080774349283427,-0.07100757759523112
1782831884549746200,0.38774609375,-0.023391396981477738,-0.056712286498770116,-0.09466107327872887
1782831884559675100,0.397675048828125,0.031823125240206716,-0.09531834987737238,-0.08697472002720459
1782831884569604400,0.407604248046875,0.05164776965081692,-0.14710815834738314,-0.06453550920402631
1782831884579533300,0.417533203125,0.05418459465205669,-0.1672877536755055,-0.036015307099884375
1782831884589462300,0.427462158203125,0.02224398051202297,-0.1355544986758381,-0.03004305972328875
1782831884599391200,0.43739111328125,-0.040863340786099434,-0.12068857265114784,-0.04881969748488627
1782831884609320400,0.447320556640625,-0.08103869930803775,-0.11578640675805509,-0.014712954819528385
1782831884619249400,0.45724951171875,-0.10781856968402861,-0.12934059259705244,0.04713980897339061
1782831884629178400,0.467178466796875,-0.11043255157470702,-0.14252733336314558,0.05558137363954447
1782831884639108400,0.4771083984375,-0.16153437778055668,-0.18138802908994256,0.06621334275575354
1782831884649037300,0.487037353515625,-0.11251695663332939,-0.2247769428309053,0.0631118970085401
1782831884658966300,0.49696630859375,-0.15782266378104687,-0.22145517799705267,0.010701586586586199
1782831884668895200,0.506895263671875,-0.15398352400958537,-0.26295360181629657,0.011741999017610213
1782831884678824400,0.516824462890625,-0.06987257764935494,-0.2125800898849964,0.0764184510622872
1782831884688753400,0.52675341796875,-0.03256196090877056,-0.1734703147679567,0.12709761770954356
1782831884698682400,0.536682373046875,-0.025356559574604032,-0.19246471889950334,0.07708581523010506
1782831884708611300,0.546611328125,0.020069559082388878,-0.15093224668018518,0.05904024995572399
1782831884718540500,0.55654052734375,-0.012658406043052673,-0.14610497265420852,0.10174809979707933
1782831884728469200,0.56646923828125,0.027629180681705473,-0.1662392675358802,0.08528957081870175
1782831884738398200,0.576398193359375,0.010578677159547805,-0.09600238661877811,0.051200720003060994
1782831884748327200,0.5863271484375,-0.07929273242354393,-0.11575805744640529,0.08513621602104976
1782831884758256400,0.59625634765625,-0.13193652737438677,-0.1590663071665913,0.1755041586831212
1782831884768185300,0.606185302734375,-0.14196224682629108,-0.13462971198111773,0.13910358772585169
1782831884778114300,0.6161142578125,-0.19444880538880824,-0.1469417888045311,0.05731475047052372
1782831884788043500,0.62604345703125,-0.1696715070068836,-0.20588431857340037,0.07771495257965289
1782831884797973800,0.635973876953125,-0.030291677889227864,-0.18051489951722322,0.08102465251637622
1782831884807902500,0.64590234375,0.0020978490620851514,-0.14764964481294154,0.09999574883757159
1782831884817831400,0.65583154296875,0.013611176723241806,-0.15659129535518584,0.092748910381319
1782831884827760600,0.6657607421875,0.01406710379719734,-0.10352817901372909,0.007597761652618646
1782831884837689600,0.675689697265625,-0.05538344904780387,-0.10071261013634503,0.010326684293011203
1782831884847618600,0.68561865234375,-0.12483166380524635,-0.11740640917532146,0.08900346764214337
1782831884857547500,0.695547607421875,-0.12184826408028603,-0.07943243315517902,0.03223337512508733
1782831884867476500,0.7054765625,-0.1333995856642723,-0.052980698755010956,-0.008760896281013265
1782831884877405700,0.71540576171875,-0.10864508363604546,-0.06631788084246218,0.01512214297519531
1782831884887334700,0.725334716796875,-0.0683101506382227,-0.11876571482978761,-0.001282847451348789
1782831884897263600,0.735263671875,-0.01412380242049694,-0.17071012933962046,-0.0010845027344999834
1782831884907192600,0.745192626953125,0.008668459624052048,-0.2314117777355015,0.04273153667761944
1782831884917121500,0.75512158203125,0.05856558621525764,-0.2438307489994913,0.04922827371919993
1782831884927050500,0.765050537109375,0.06633212856352329,-0.17573767517805097,0.01675186763545498
1782831884936979500,0.7749794921875,0.06061433543860912,-0.10953275319077074,-0.05437082880600355
1782831884946908400,0.784908447265625,0.0002063362270593643,-0.06165259244516492,-0.06728289908287115
1782831884956838700,0.794838623046875,-0.04102233074009418,-0.07013575863018631,-0.01999700758612016
1782831884966767600,0.804767578125,-0.07066577385365963,-0.07750986759476364,0.0023589157176436854
1782831884976696600,0.814696533203125,-0.08907295268177985,-0.07239829673469066,0.010126736707543023
1782831884986625800,0.824625732421875,-0.12889642902612686,-0.11808474682830274,0.011878286232741083
1782831884996554500,0.834554443359375,-0.13467793503701686,-0.13555690982863305,0.04020878586750477
1782831885006483500,0.8444833984375,-0.12304127325713633,-0.14016842221207915,0.09717547638560645
1782831885016412400,0.854412353515625,-0.09292027575969695,-0.1727572711277753,0.07846231861454435
1782831885026341600,0.864341552734375,-0.04973053785264492,-0.14385047172568738,0.06006980763259343
1782831885036270600,0.8742705078125,-0.01697860732972622,-0.1176957475107163,0.0570154615632724
1782831885046199600,0.884199462890625,-0.04801496610641479,-0.10919679923467338,0.10527522361045703
1782831885056128500,0.89412841796875,-0.12715513831675052,-0.11534085494764149,0.1164740784949623
1782831885066057700,0.9040576171875,-0.15455577093958853,-0.06020210137590765,0.05968639780557714
1782831885075986700,0.913986572265625,-0.20046178206801413,-0.0227660316247493,0.005830125217366731
1782831885085915600,0.92391552734375,-0.1931476596623659,-0.0642576603770256,-0.0431962407130748
1782831885095844600,0.9338447265625,-0.18914543828368185,-0.08089461466223001,0.02147797827532049
1782831885105773600,0.943773681640625,-0.1624474009722471,-0.1575563409950584,0.09908887225887737
1782831885115702500,0.95370263671875,-0.07715981204807758,-0.17765052306205034,0.07693719140649773
1782831885125632500,0.963632568359375,-0.06207797825038433,-0.1272724810861051,0.07154171187139581
1782831885135561500,0.9735615234375,-0.024052491238713263,-0.10785831717252731,0.013847139761940342
1782831885145490700,0.98349072265625,-0.003936754927039147,-0.07828107116296887,-0.020621525842766275
1782831885155419600,0.993419677734375,-0.041485272076725956,-0.07509615751653909,0.06652725840997882
1782831885165348600,1.0033486328125,-0.049482700571417806,-0.10675685873664915,0.06487665535847191
1782831885175277600,1.013277587890625,-0.08091828779876231,-0.09934913976341485,0.014999367120541864
1782831885185206500,1.02320654296875,-0.12084931617081164,-0.12968809086047112,0.008238276629417668
1782831885195135500,1.033135498046875,-0.1785819586932659,-0.1537481078185141,0.04986777719913516
1782831885205064400,1.043064453125,-0.1190215162217617,-0.20438158586025237,0.04409734057153109
1782831885214993400,1.052993408203125,-0.042944238713383674,-0.19774463206380605,0.04365805410512257
1782831885224922600,1.062922607421875,-0.023541034585237503,-0.21291122153550385,0.0544712478400208
1782831885234851600,1.0728515625,0.013348141872882842,-0.21375293305665252,0.005834285940075642
1782831885244780500,1.082780517578125,0.009852116450667381,-0.17737316742539405,-0.02073421298660105
1782831885254709500,1.09270947265625,-0.032088498178124425,-0.17894874617904424,-0.052864173402986485
1782831885264638700,1.102638671875,-0.019309680625796317,-0.14782660881504417,-0.05353580732054542
1782831885274567700,1.112567626953125,-0.019978958189487455,-0.10900018068403004,-0.024251762970746493
1782831885284496600,1.12249658203125,-0.03625380116403103,-0.0764369046010077,-0.0277117078660056
1782831885294426600,1.132426513671875,-0.10682020629644394,-0.0444930755905807,-0.016177470989205175
1782831885304355600,1.14235546875,-0.11664075856506824,-0.07447882933579385,-0.024619552820234092
1782831885314284500,1.152284423828125,-0.09870762698948382,-0.07923479169122874,-0.042305164491711185
1782831885324213500,1.162213623046875,-0.10182605127096175,-0.11342216184474527,0.047283628757717085
1782831885334142700,1.172142822265625,-0.11169570337831973,-0.17940248129591344,0.11084758038269356
1782831885344071700,1.18207177734375,-0.12012509354948997,-0.21182832166962323,0.11341555857402272
1782831885354000600,1.192000732421875,-0.08126081762611866,-0.1830360885579139,0.08902661105571315
1782831885363929600,1.2019296875,-0.09662497549653053,-0.13636325777545572,-0.003712707230064552
1782831885373858800,1.21185888671875,-0.10759528232216835,-0.12760821584649384,-0.04430150767439045
1782831885383787500,1.22178759765625,-0.09627192427515983,-0.13176000176370142,-0.011790012010955251
1782831885393716500,1.231716552734375,-0.02447217795550823,-0.09645480656139552,0.02192890266388422
1782831885403645400,1.2416455078125,-0.03964169003665447,-0.09759024033211171,0.05430653139813803
1782831885413574700,1.25157470703125,-0.05327040241658687,-0.09346621920466422,0.027487808582792057
1782831885423503600,1.261503662109375,-0.07254851886034011,-0.06152246325947344,0.009451294264546595
1782831885433432600,1.2714326171875,-0.06778641902506351,-0.07137421438395977,0.023761355955165344
1782831885443361500,1.281361572265625,-0.0622141718506813,-0.046321679257228965,0.09550680338786914
1782831885453290500,1.29129052734375,-0.06101824006438255,-0.07709054620414972,0.17484315575743092
1782831885463220500,1.301220458984375,-0.12954057214856146,-0.10118008151762187,0.14810132497004233
1782831885473149400,1.3111494140625,-0.1970160255283117,-0.12248860781043767,0.004763741519802715
1782831885483078400,1.321078369140625,-0.16102292112708091,-0.12458974480815231,-0.046780373677005986
1782831885493007600,1.331007568359375,-0.10317337422668933,-0.07802249329201877,0.05098590364202391
1782831885502936600,1.3409365234375,-0.11496434978544712,-0.11587737297713756,0.12542748340708204
1782831885512865500,1.350865478515625,-0.10196049130558967,-0.14094474034681914,0.14168890064447187
1782831885522794500,1.36079443359375,-0.04758417347371578,-0.11064093362838029,0.04280584858942311
1782831885532723700,1.3707236328125,0.0216109433054924,-0.07500146497040987,-0.017854314735310618
1782831885542652700,1.380652587890625,0.08954466184675693,-0.0750165164090693,0.03861828810593579
1782831885552581600,1.39058154296875,0.06915186215937137,-0.1265791650597006,0.16925370171992107
1782831885562510600,1.400510498046875,0.07944996881186962,-0.17413791183121502,0.18236085617747158
1782831885572439600,1.410439453125,0.05093289937973022,-0.08433861763626337,0.20170732514970002
1782831885582368500,1.420368408203125,-0.09270867883563041,-0.041677652843669054,0.17511393552282825
1782831885592297500,1.43029736328125,-0.15269465324282644,-0.01608202381618321,0.022267306588683276
1782831885602226400,1.440226318359375,-0.21028350338041782,0.012013093876838684,-0.07100937226009554
1782831885612155600,1.45015576171875,-0.20115502502918242,-0.05243314787484705,-0.039118721041898244
1782831885622085600,1.460085693359375,-0.14998422524034977,-0.13888218179382383,-0.05399924641409889
1782831885632014600,1.4700146484375,-0.13370762870013714,-0.22045396506525575,-0.0661269613802433
1782831885641943800,1.47994384765625,-0.005524900901317596,-0.281701191579923,-0.05305012899572029
1782831885651872500,1.48987255859375,0.03812368668913841,-0.27127178669795393,0.01436385254584602
1782831885661801500,1.499801513671875,0.0246259072124958,-0.219185260303691,0.04319190246467478
1782831885671730400,1.50973046875,0.051882162928581235,-0.14332915126532314,-0.0009955572258564644
1782831885681659600,1.51965966796875,0.0568202038526535,-0.06619410833232105,0.003828456263954285
1782831885691588600,1.529588623046875,0.0052151042997837065,-0.02581869719363749,-0.013494066849327645
1782831885701517600,1.539517578125,-0.04093406793475151,-0.019826690237224102,0.0021599408131325617
1782831885711446500,1.549446533203125,-0.09650047233402728,-0.02009096719659865,0.06688937428721692
1782831885721375500,1.55937548828125,-0.12822189076542853,-0.08153663889281451,-0.03575914951488376
1782831885731304700,1.5693046875,-0.043857846426963804,-0.15389029276818036,-0.2411936054289341
1782831885741233700,1.579233642578125,0.09609422962069511,-0.1273440119523555,-0.1930448934076354
1782831885751162600,1.58916259765625,0.12191548409759997,-0.11003493055924772,-0.0010981294010533019
1782831885761091600,1.599091552734375,0.016128712502121924,-0.18904132032208143,0.192768542417977
1782831885771020500,1.6090205078125,-0.08871230267584324,-0.22988369138538836,0.2168472458101809
1782831885780951300,1.618951416015625,-0.12618600102365016,-0.14474398649930953,0.08146837769588455
1782831885790880300,1.62888037109375,-0.12097849550843238,-0.02250599244907498,0.012399366947798989
1782831885800809200,1.638809326171875,-0.20310206744372844,-0.00784391843341291,-0.0023076558878645298
1782831885810738400,1.648738525390625,-0.2512111415743828,-0.08897446074336766,-0.0505528779530432
1782831885820667400,1.65866748046875,-0.18826222570836543,-0.11936192715726793,-0.0000807325194356963
1782831885830596000,1.66859619140625,-0.10347791013121604,-0.11874847143404185,0.07235885064029135
1782831885840525000,1.678525146484375,-0.060895490467548365,-0.14468093120045958,0.04671303949526045
1782831885850454300,1.688454345703125,0.01146247425675392,-0.14909414453282951,0.05713835272400174
1782831885860383200,1.69838330078125,0.04333002316057682,-0.11883870700076221,0.14345476867267862
1782831885870312200,1.708312255859375,-0.009223170897364616,-0.11798420906327664,0.19724499371228738
1782831885880241200,1.7182412109375,-0.14772329457104205,-0.18092866794988513,0.19558129828376694
1782831885890170400,1.72817041015625,-0.22257658324241636,-0.22194201166592537,0.08750710987085476
1782831885900099300,1.738099365234375,-0.26736323495209213,-0.1725365410491824,0.04147944055756088
1782831885910028300,1.7480283203125,-0.21958850734233856,-0.1460115222170949,0.1168007531660609
1782831885919957200,1.757957275390625,-0.11207271999716759,-0.07104023318924009,0.08832026201779954
1782831885929886500,1.767886474609375,-0.07008943527042866,-0.013293489076197146,0.033041661583958194
1782831885939815200,1.777815185546875,-0.017517536512017248,-0.017111293798685073,0.013879901528870687
1782831885949745200,1.7877451171875,-0.0032090251743793485,-0.062370677586644885,0.04674863139844965
1782831885959674400,1.79767431640625,-0.015987842726707457,-0.1517485314991325,0.09546957665001973
1782831885969603300,1.807603271484375,0.0532429298877716,-0.1853388125423342,0.07052804588340222
1782831885979532300,1.8175322265625,0.024449381601810455,-0.1623581152535975,0.08411081849606707
1782831885989461200,1.827461181640625,-0.008781856870651245,-0.1561291577361524,0.10529033898119813
1782831885999390500,1.837390380859375,-0.024589082333445547,-0.1303386637236923,0.07387784950165077
1782831886009319400,1.8473193359375,-0.04609831883013248,-0.09940898019187151,0.016222866192134096
1782831886019248000,1.857248046875,-0.010811901393532752,-0.10346103206165135,-0.0024425160476006565
1782831886029177000,1.867177001953125,-0.010645897176861763,-0.08235285064652562,0.0550350831347052
1782831886039106000,1.87710595703125,-0.0073918638169765466,-0.1357348236788064,0.15261605331497266
1782831886049035300,1.88703515625,0.020108137527108192,-0.1379605369042605,0.1255494932183996
1782831886058964200,1.896964111328125,0.030725977653265,-0.05058890824764967,0.046303157219849525
1782831886068893200,1.90689306640625,0.016699790388345716,-0.014974500965699553,0.021305092226713895
1782831886078822100,1.916822265625,-0.11513093852400778,-0.057005424226447936,0.026900519347283987
1782831886088751400,1.92675146484375,-0.21291735901534556,-0.14230923363305628,-0.054243540031369775
1782831886098681000,1.93668115234375,-0.21670389181673524,-0.18185316238366067,-0.057167281990963964
1782831886108610000,1.946610107421875,-0.16758768647015093,-0.116312476458773,0.05527182363318279
1782831886118539300,1.956539306640625,-0.11931377716660499,-0.0899137143548578,0.14895316515956072
1782831886128468200,1.96646826171875,-0.13800620267689226,-0.0954798971146345,0.17262708714315667
1782831886138397200,1.976397216796875,-0.14751929643154144,-0.09258812119588256,0.12899006212633102
1782831886148326100,1.986326171875,-0.12169687291085719,-0.08227006773389875,0.015795644622854887
1782831886158255400,1.99625537109375,-0.2207797629535198,-0.13816058952100574,-0.014244213929772376
1782831886168184300,2.006184326171875,-0.2587888833522797,-0.17722521032206714,-0.0071996474468149245
1782831886178113300,2.01611328125,-0.17244506337344645,-0.121907519986853,0.03332045112587512
1782831886188042200,2.026042236328125,-0.08975158259570598,-0.06463380021303891,0.05890298320977017
1782831886197971500,2.035971435546875,-0.04279635467529297,-0.05776990579292178,0.05188740535927936
1782831886207900200,2.045900146484375,-0.04110182571709156,-0.09736885266639292,0.0007533391179516911
1782831886217829000,2.0558291015625,-0.04777180500030517,-0.15645290979780255,0.015363993473630398
1782831886227758000,2.065758056640625,-0.009521861582994461,-0.18789383078739047,0.09802251253584399
1782831886237687300,2.075687255859375,-0.02015314571261406,-0.156119659255445,0.13611503690173848
1782831886247616300,2.0856162109375,-0.04825695816874504,-0.14649536021128295,0.010709098606184124
1782831886257545200,2.095545166015625,-0.043212534260749814,-0.13153013853058218,-0.09167551812930032
1782831886267475500,2.105475341796875,-0.019477438408136368,-0.09170454329438507,-0.06127416932052001
1782831886277404400,2.115404296875,-0.038224224454164506,-0.0504966268543154,0.057535220254212614
1782831886287333400,2.12533349609375,-0.03709960433840751,-0.07342340199872852,0.09526428160257637
1782831886297262000,2.135261962890625,0.004732289218902588,-0.04670110702887177,0.03750250431718304
1782831886307191000,2.14519091796875,-0.03081774758994579,-0.06993563294820487,0.01058607501471415
1782831886317120300,2.155120361328125,-0.11368716945648193,-0.1801385404855013,0.006440006452240049
1782831886327049200,2.16504931640625,-0.12189034965634345,-0.17307283988296984,0.022210918492637573
1782831886336978200,2.174978271484375,-0.06425123063623905,-0.1178313565891236,0.03441310520078987
1782831886346907100,2.1849072265625,-0.10801496903896331,-0.12480733308158815,0.01745117501122877
1782831886356836400,2.19483642578125,-0.12673954325318335,-0.14343721474967897,-0.0005364449642598629
1782831886366765300,2.204765380859375,-0.09813304197192191,-0.1264352265443653,0.03675734850568697
1782831886376694300,2.2146943359375,-0.06702946317791939,-0.09248013077676295,0.053487168706115334
1782831886386623200,2.224623291015625,-0.08353402325510978,-0.08177139749675989,0.04342860643053427
1782831886396552400,2.234552490234375,-0.16316577837467192,-0.10575148108638822,-0.01244242520481348
1782831886406481200,2.244481201171875,-0.1418529412329197,-0.08679024857208133,-0.008143303238786757
1782831886416410000,2.25441015625,-0.13065291730463505,-0.08340279809087514,0.11651046498259529
1782831886426340400,2.26434033203125,-0.22733634499013422,-0.025463307884708044,-0.011298314937297254
1782831886436269300,2.274269287109375,-0.0456271941870451,-0.044662879199534655,0.06076967213079333
1782831886446198300,2.2841982421875,-0.00940378816127777,-0.13679485412575304,0.07601140919793396
1782831886456127200,2.294127197265625,0.02173252385854721,-0.09855053673163056,0.19421824803594498
1782831886466056400,2.304056396484375,0.057903907436132426,-0.10090097231529653,0.25718897387497125
1782831886475985400,2.3139853515625,-0.013597148197889328,-0.11777239294350146,0.12915531742433084
1782831886485914000,2.3239140625,-0.09710019179284572,-0.12750519386343656,-0.014830672048218547
1782831886495843000,2.333843017578125,-0.10785597908496856,-0.08486527185887098,-0.059387606655247505
1782831886505772300,2.343772216796875,-0.09031973787248133,-0.033771994285658,-0.026677779974695292
1782831886515701200,2.353701171875,-0.06997779158949852,-0.014552330030873417,0.025801252868492153
1782831886525630200,2.363630126953125,-0.06443126337826252,-0.020660949104279278,0.06644342518458142
1782831886535559200,2.37355908203125,-0.08313537932634353,-0.026208354098349807,0.09788672079434618
1782831886545488400,2.38348828125,-0.10565057799518107,-0.11930120994597673,0.09424261040464044
1782831886555417300,2.393417236328125,-0.022644962528347967,-0.16384170487485825,0.10205611543348059
1782831886565346300,2.40334619140625,0.031311668586730956,-0.16017741021364926,0.12223247762490064
1782831886575275300,2.413275146484375,-0.06977963866889476,-0.17156075481958685,0.13050591004937886
1782831886585205200,2.423205322265625,-0.13967150554060936,-0.1508568433564156,0.08980174188036472
1782831886595134200,2.43313427734375,-0.10011690926551818,-0.056992126353457566,-0.015583335312735288
1782831886605063200,2.443063232421875,-0.09960954426527023,-0.006159472477808594,-0.05813008087482303
1782831886614992100,2.4529921875,-0.10038403576910496,-0.060193698873743415,-0.03000310673881322
1782831886624921300,2.46292138671875,-0.041675241690874096,-0.10637319318130611,0.025352869780175386
1782831886634850300,2.472850341796875,-0.0286737212985754,-0.09722776369526982,0.11529389226706697
1782831886644779300,2.482779296875,-0.03373568086326122,-0.1489348623178899,0.08950851282114163
1782831886654708200,2.492708251953125,-0.014860884523391724,-0.08134257762543856,0.001526679844316095
1782831886664637400,2.502637451171875,-0.04084989678263664,-0.07646525391265749,0.003898779270518571
1782831886674566100,2.512566162109375,-0.04356909261345863,-0.16619184819757937,0.058719333738554265
1782831886684495000,2.5224951171875,-0.05694529153704643,-0.169988756262511,0.05180447631618008
1782831886694424000,2.532424072265625,-0.08210136010348797,-0.1715467262942344,0.028867508571315554
1782831886704353300,2.542353271484375,-0.09363631507456302,-0.15384097373373806,0.030431871811207382
1782831886714282200,2.5522822265625,-0.04630465505719185,-0.10375227009318769,-0.018829404561873524
1782831886724211200,2.562211181640625,-0.057010757988691325,-0.10065328116454184,-0.03730398607039824
1782831886734140200,2.57214013671875,-0.09288520444631576,-0.1414824274200946,0.02751034007500857
1782831886744070400,2.5820703125,-0.017310615763068197,-0.11477416097559034,0.028100688917282967
1782831886753999400,2.591999267578125,0.010533668974041939,-0.049128918697685,0.02326099380115047
1782831886763928000,2.601927978515625,-0.0770715492427349,-0.10362316382080317,0.0610574212973006
1782831886773857300,2.611857177734375,-0.08985913462340832,-0.11169891824871302,0.06074822748396545
1782831886783789300,2.621789306640625,-0.09090601332783699,-0.08723368149064481,0.03587470218595117
1782831886793718300,2.63171826171875,-0.10528875894546508,-0.20036621273905036,0.06989617772065103
1782831886803647200,2.641647216796875,-0.09489829783439635,-0.21505254441313446,0.1242811537830159
1782831886813576200,2.651576171875,-0.09376724797785281,-0.13947181825004518,0.10039421010324731
1782831886823505400,2.66150537109375,-0.09659282679259777,-0.08673574190586805,0.01934069681856781
1782831886833434400,2.671434326171875,-0.09304302535653114,-0.029561829244717956,-0.006891202552150934
1782831886843363300,2.68136328125,-0.09621171852052211,-0.06506313154101372,0.023512082485388962
1782831886853292300,2.691292236328125,-0.09896423209905623,-0.14958185498453677,0.0008419489831663668
1782831886863221500,2.701221435546875,0.058176294636726376,-0.17716193582750855,0.01840973611138761
1782831886873150500,2.711150390625,0.08782909010052681,-0.19299539171010255,0.058634450200386344
1782831886883079200,2.7210791015625,0.11678221286237239,-0.1658646620698273,0.09872470598844811
1782831886893008100,2.731008056640625,0.05489361970424652,-0.11177724418193101,0.04875361911188811
1782831886902938400,2.7409384765625,-0.017169161465764044,-0.0807405931442976,-0.012462280682753771
1782831886912867300,2.750867431640625,-0.10708791732192038,-0.04135061284638941,-0.01153024226333946
1782831886922796300,2.76079638671875,-0.13644319114387035,-0.04437112971134483,0.027402751514688132
1782831886932725500,2.7707255859375,-0.15715397073924542,-0.04948445413708687,0.04889120095167309
1782831886942654500,2.780654541015625,-0.1878314330756664,-0.0953117740061134,0.03841870584664866
1782831886952583400,2.79058349609375,-0.18216566239893436,-0.15525573590248823,0.0536661602685228
1782831886962512100,2.80051220703125,-0.15755670632123947,-0.1572147610157728,0.06313839228982106
1782831886972441300,2.81044140625,-0.12978899395167826,-0.17277714487202464,0.06672722882833332
1782831886982370300,2.820370361328125,-0.09570844517350197,-0.13074424884989858,0.04870778894247487
1782831886992299300,2.83029931640625,-0.10905307991504669,-0.10170629734881222,0.017389215690921993
1782831887002228200,2.840228271484375,-0.06801555160582065,-0.062173912905529136,0.03933720893105492
1782831887012157400,2.850157470703125,-0.10786065526008605,-0.04935205992907286,0.044963524380233134
1782831887022086400,2.86008642578125,-0.13650222785472868,-0.08066942760422825,0.02610798073010519
1782831887032015400,2.870015380859375,-0.13279519003033638,-0.07537833545878529,0.0862037721873261
1782831887041944300,2.8799443359375,-0.10320376936495304,-0.11841580541357398,0.09591171266064047
1782831887051873500,2.88987353515625,-0.09355448201000689,-0.1457666075453162,0.07078627669448033
1782831887061803300,2.89980322265625,-0.0777472565472126,-0.1495193111423403,0.07641942374324426
1782831887071732200,2.909732177734375,-0.0839385124027729,-0.15273242796994746,0.06803895074771717
1782831887081661200,2.9196611328125,-0.06436404336094856,-0.13012224449403584,0.034857579298969356
1782831887091590400,2.92959033203125,0.002353285127878189,-0.13665537258982657,-0.04593719171797856
1782831887101519400,2.939519287109375,-0.018529343903064727,-0.16519136591814457,-0.026261874383874236
1782831887111448300,2.9494482421875,-0.0006464812099933624,-0.22755210663266479,0.042109486655984074
1782831887121377300,2.959377197265625,-0.04835691141188144,-0.1810028291646391,0.08853471761923283
1782831887131306500,2.969306396484375,-0.025835867524147033,-0.1384452516812831,0.0472666867560707
1782831887141235500,2.9792353515625,-0.079167644739151,-0.08520568279437721,-0.0021209559430368243
1782831887151164400,2.989164306640625,-0.1053530563533306,-0.08791486868783831,0.030414701480697838
1782831887161093000,2.999093017578125,-0.08022212222814559,-0.1016380544181913,0.0690319255741313
1782831887171022300,3.009022216796875,-0.05694295344948768,-0.09622048634886742,0.04563391618877649
1782831887180951300,3.018951416015625,-0.05599076729118824,-0.10725114505961536,0.03195537331774831
1782831887190880300,3.02888037109375,-0.06133680449426174,-0.133691992739588,0.03244363175872713
1782831887200809200,3.038809326171875,-0.009745148944854736,-0.09284487243592739,0.06673325671032071
1782831887210738400,3.048738525390625,0.02534136200547218,-0.08393522446714341,0.0538676924563013
1782831887220668400,3.05866845703125,0.02079085909426212,-0.09011603199392557,0.04300241690771654
1782831887230597400,3.068597412109375,-0.0547112488746643,-0.08889350446164608,0.09518253986956551
1782831887240526300,3.0785263671875,-0.07101239533424376,-0.09164996356293559,0.1054695406061597
1782831887250455300,3.088455322265625,-0.1047521678507328,-0.05732281961254775,0.1000218148605898
1782831887260384300,3.09838427734375,-0.14493570967912672,-0.061544894286990164,0.07749087063334882
1782831887270313200,3.108313232421875,-0.1995616183578968,-0.08269143495112657,0.028497287019435314
1782831887280242400,3.118242431640625,-0.21185352917611597,-0.11590119224414229,0.014477182435430586
1782831887290171400,3.12817138671875,-0.11183481958806514,-0.12911248292960226,0.03085667309453711
1782831887300100400,3.138100341796875,-0.03601648527681827,-0.09401325862817465,0.08433627954870462
1782831887310029300,3.148029296875,-0.021861703196167946,-0.10799560675136745,0.07014047133792191
1782831887319958500,3.15795849609375,-0.037409985461831094,-0.08153678502328693,0.03080315280901268
1782831887329887500,3.167887451171875,-0.02391103694140911,-0.05559840697273612,-0.020142131128255275
1782831887339816400,3.17781640625,-0.05264496399462223,-0.051454950492456554,-0.0028688334345817563
1782831887349745200,3.1877451171875,-0.0612426964700222,-0.06191394679509103,0.06489537375867366
1782831887359674000,3.197674072265625,-0.06061901161372661,-0.042918008293583984,0.09162119412617757
1782831887369603300,3.207603271484375,-0.07208616204559802,-0.0648760114710778,0.04278214348684996
1782831887379533300,3.217533203125,-0.08042553584575653,-0.07174136719591916,0.013055150275677442
1782831887389462300,3.227462158203125,-0.05500175625383854,-0.10218998921252787,0.04081915458450094
1782831887399391500,3.2373916015625,-0.03663315587043762,-0.13588365756496787,0.09260041442187503
1782831887409320400,3.247320556640625,-0.02694996624588966,-0.112851960741356,0.05149151964318007
1782831887419249400,3.25724951171875,-0.04835223523676395,-0.07498444077037274,0.046285767693631345
1782831887429178000,3.26717822265625,0.000032733225822448726,-0.07098105034790933,0.027128811677824705
1782831887439107300,3.277107421875,0.002149286988377571,-0.036234658072143794,0.018237137757148594
1782831887449036300,3.287036376953125,-0.061056818509101864,-0.06153320384919643,0.02683518075980246
1782831887458965200,3.29696533203125,-0.04333353029191494,-0.13574381070286035,0.00875535245621577
1782831887468894200,3.306894287109375,-0.021366613155603408,-0.1464274826068431,0.02716267741480842
1782831887478823400,3.316823486328125,-0.05394377163350582,-0.19231267014294862,0.04076771665820852
1782831887488752400,3.32675244140625,-0.05127016851007938,-0.18922654069587588,0.04007330465326085
1782831887498681300,3.336681396484375,-0.030984336328506466,-0.11508519968613981,0.030332576155196873
1782831887508610300,3.3466103515625,-0.03647241235077381,-0.1266034957833588,-0.02429165202314034
1782831887518539500,3.35653955078125,-0.10179156447947024,-0.142361475276947,-0.031170689213462173
1782831887528468500,3.366468505859375,-0.13970131615698336,-0.1663790413327515,0.021724651079345493
1782831887538398200,3.376398193359375,-0.08567980311214923,-0.18489442977569998,0.04047854271959513
1782831887548327400,3.386327392578125,-0.13366320503652096,-0.14190532900728284,0.05929075868465006
1782831887558256400,3.39625634765625,-0.14475684598088265,-0.15298158042542637,0.04989385692188516
1782831887568185300,3.406185302734375,-0.10436755244731903,-0.10569478246308862,0.020087277402170003
1782831887578114300,3.4161142578125,-0.07882453038990497,-0.0780037885915488,0.0008331263558939098
1782831887588043300,3.426043212890625,-0.040621348723769185,-0.21615108023956417,-0.004155055586528033
1782831887597972500,3.435972412109375,0.0043874213039875026,-0.2361068767491728,0.11200800246419385
1782831887607901400,3.4459013671875,-0.02242050612270832,-0.19622370610684156,0.11946418195534497
1782831887617830400,3.455830322265625,-0.023051789763569832,-0.11844123211577534,0.02870566907310858
1782831887627759000,3.465759033203125,-0.07665829226672649,-0.05454407561421394,0.003803356072027236
1782831887637688300,3.475688232421875,-0.09632920742034912,-0.07544102543145417,0.023041231836937365
1782831887647617300,3.4856171875,-0.12126257314682005,-0.11994601065553724,0.04347465579565614
1782831887657546200,3.495546142578125,-0.06602876170277595,-0.17965521394796669,0.07648585830926895
1782831887667475200,3.50547509765625,-0.050640053912997245,-0.18707221220619977,0.15128454898288474
1782831887677404400,3.515404296875,-0.08033727304041385,-0.17096790349297225,0.10351734709246084
1782831887687333400,3.52533349609375,-0.05119067353308201,-0.08696640885658562,-0.006143763452023268
1782831887697263400,3.535263427734375,-0.03684592183828354,-0.0554389786273241,-0.026498167357780038
1782831887707192300,3.5451923828125,-0.09543255084156989,-0.10222549891732632,0.006618121231812983
1782831887717121300,3.555121337890625,-0.08735270476043223,-0.12843268397189675,0.03724789023529738
1782831887727050200,3.56505029296875,-0.09171557614505291,-0.11552826727852225,0.06101730848262086
1782831887736979200,3.574979248046875,-0.12990589832961558,-0.12331548708863556,0.11285519387805834
1782831887746908400,3.584908447265625,-0.13007657872140407,-0.16969181914255022,0.06962276760675012
1782831887756837400,3.59483740234375,-0.13104571601450443,-0.1483772284351289,0.06326841187765822
1782831887766766300,3.604766357421875,-0.08395546353757381,-0.16746142974197864,0.06534306272724642
1782831887776695300,3.6146953125,-0.10741349601447582,-0.16480616599284112,0.07903093968220054
1782831887786620400,3.624620361328125,-0.14071838424503802,-0.1813956278745085,0.0892413315186277
1782831887796549400,3.63454931640625,-0.0910883841574192,-0.149301211412251,0.04341286087213084
1782831887806478300,3.644478271484375,-0.0007049333989620208,-0.058799760297313326,0.011413173488620669
1782831887816407600,3.654407470703125,0.021295301485061643,-0.057268678272515534,0.030880875954031942
1782831887826336300,3.664336181640625,0.027803368204832077,-0.09715820559039712,0.05018171568624675
1782831887836265200,3.67426513671875,0.06555939062535762,-0.11824812069647013,0.05013811400653794
1782831887846194200,3.684194091796875,0.01191430967748165,-0.1397412828411907,0.09516403609849512
1782831887856124400,3.69412451171875,-0.017815642675757408,-0.1710837118923664,0.12094285793947056
1782831887866053400,3.704053466796875,-0.09621990182697772,-0.11188844947144388,0.07537895651329309
1782831887875982300,3.713982421875,-0.14018062410652637,-0.07926138743720948,0.054994942920561875
1782831887885911600,3.72391162109375,-0.17376082214713096,-0.10534450772069394,0.06036911023957654
1782831887895840500,3.733840576171875,-0.19519874697327613,-0.10444083687923848,0.07409057893687859
1782831887905769500,3.74376953125,-0.1764607287555933,-0.1285139325145632,0.05265046215364709
1782831887915698200,3.7536982421875,-0.1411293031334877,-0.1311914080955088,0.04852161872060969
1782831887925627400,3.76362744140625,-0.08452361881434917,-0.0937306422945112,0.07467451630467549
1782831887935556400,3.773556396484375,-0.06707388684153556,-0.1014995957955718,0.05048208687230944
1782831887945485300,3.7834853515625,-0.017290742018818854,-0.09791370013281703,0.007892342418711631
1782831887955414300,3.793414306640625,-0.00576046322286129,-0.07861191055253147,0.021953381801303476
1782831887965343500,3.803343505859375,-0.022816227442026136,-0.11308657321482896,0.07422207809574902
1782831887975272400,3.8132724609375,-0.05429097763597965,-0.13117372630834578,0.06689484048020095
1782831887985201400,3.823201416015625,-0.06429506977796554,-0.10676051199845969,0.0042077721544541416
1782831887995130400,3.83313037109375,-0.050392801153659815,-0.10069989678524434,-0.0354583399374038
1782831888005059600,3.8430595703125,-0.04092003940939903,-0.09031732671968638,-0.014683810923434792
1782831888014989300,3.8529892578125,-0.03648059565722942,-0.11375066314674913,0.04371350605282932
1782831888024918300,3.862918212890625,-0.06088730716109275,-0.13390432031601668,0.04936248999154195
1782831888034847200,3.87284716796875,-0.06237433084845542,-0.14594656722210347,0.006038987903296947
1782831888044776400,3.8827763671875,-0.01418868435025215,-0.14717055605910717,-0.011629610984586179
1782831888054705400,3.892705322265625,-0.012079729372262954,-0.15565978665873406,-0.00837921262020245
1782831888064634400,3.90263427734375,-0.006619710400700569,-0.12925678677111863,0.010409549404028802
1782831888074563300,3.912563232421875,-0.03864098856151104,-0.11672675634808838,-0.0023912242517806588
1782831888084492500,3.922492431640625,-0.058036593905091284,-0.12166779294684528,0.005965319878887385
1782831888094421500,3.93242138671875,-0.11877835511565207,-0.10059614414982497,-0.010706376926135271
1782831888104350200,3.94235009765625,-0.0956938321262598,-0.11142214713394641,-0.058889977597724644
1782831888114279200,3.952279052734375,-0.06709492962956429,-0.08427373570650816,-0.056352330612577495
1782831888124208400,3.96220849609375,-0.03879705590605736,-0.07495448402352631,0.017157471027970314
1782831888134137300,3.972137451171875,-0.13019114501178264,-0.08293225796967744,0.06681773838968948
1782831888144066300,3.98206640625,-0.15052958416342735,-0.10649236258156597,0.011820493914186953
1782831888153995300,3.991995361328125,-0.07800619974434375,-0.06784728236682713,-0.04803759806333109
1782831888163924500,4.001924560546875,-0.12267010185718535,-0.07536248030252754,0.017822474275343118
1782831888173854500,4.0118544921875,-0.12318915729522704,-0.13233948215208946,0.10421659966930746
1782831888183783200,4.021783203125,-0.1470242063909769,-0.09390066509917377,0.08291214676341041
1782831888193712400,4.03171240234375,-0.12513386162221432,-0.11911577037647365,-0.016753529869578777
1782831888203641300,4.041641357421875,-0.09721826521456241,-0.09583170622698962,0.0033162484085187314
1782831888213570300,4.0515703125,-0.07311258248388766,-0.03812624397240579,0.0629273798876442
1782831888223499300,4.061499267578125,-0.04185001373589039,-0.02940437366068363,0.010883614922873675
1782831888233428500,4.071428466796875,-0.0004611877709627151,-0.004075871136784553,-0.046635256984736764
1782831888243357400,4.081357421875,-0.10090659833848475,-0.06092318219207227,-0.035234833379834886
1782831888253286400,4.091286376953125,0.007121814703941345,-0.13289974638335406,0.07417275906130671
1782831888263215400,4.10121533203125,0.04830839609503746,-0.10747823181375861,0.07960168877486139
1782831888273144600,4.11114453125,0.053958969202637666,-0.08045958424583077,0.032817798833362756
1782831888283073500,4.121073486328125,-0.03286649681329727,-0.10900259183682501,0.02307259508958086
1782831888293002200,4.131002197265625,-0.07474164499044418,-0.08296148406416178,0.053574207668751476
1782831888302931200,4.14093115234375,-0.11601181301176547,-0.055624125935882326,0.07782076017484069
1782831888312860400,4.1508603515625,-0.14678104528486727,-0.04798303659819066,0.05349418296879157
1782831888322789400,4.160789306640625,-0.19312544783055782,-0.04500372852645814,0.058887749108020214
1782831888332719400,4.17071923828125,-0.16078560523986815,-0.08993161533772945,0.02219415002092719
1782831888342648300,4.1806484375,-0.10171206950247287,-0.07693959342613815,0.023450068366155027
1782831888352577500,4.19057763671875,-0.07377426126301288,-0.11166282402202486,0.08673029854577034
1782831888362506500,4.200506591796875,-0.02125847660601139,-0.12010485447905957,0.1366150771120563
1782831888372435500,4.210435546875,-0.036435002949833865,-0.09141286687143146,0.07372267720624805
1782831888382364200,4.2203642578125,-0.029687282255291936,-0.1152126254580915,0.059101081331446766
1782831888392293400,4.23029345703125,-0.003739771050214767,-0.11841171376034616,0.06921601343676448
1782831888402222300,4.240222412109375,0.07549567822813988,-0.08765446418598294,0.08846073906756936
1782831888412151300,4.2501513671875,0.017167407900094984,-0.07042283194325864,0.050939730979315936
1782831888422080300,4.260080322265625,0.014321955341100692,-0.09488960307128727,0.008026252730377019
1782831888432009500,4.270009521484375,-0.007193710896372794,-0.08786518432721495,0.023567794727999716
1782831888441938400,4.2799384765625,-0.12013327685594558,-0.10006854007914662,0.10953233306566253
1782831888451867400,4.289867431640625,-0.176647775760293,-0.18033888536319134,0.10270615857373923
1782831888461796400,4.29979638671875,-0.12833821062147616,-0.11539265820011496,-0.002878733774088323
1782831888471725600,4.3097255859375,-0.16408990748226643,-0.08451485098600386,-0.04622421023212373
1782831888481654500,4.319654541015625,-0.1906511666715145,-0.12985994029603898,-0.00976043784553185
1782831888491583200,4.329583251953125,-0.15521160449981689,-0.10492599004767834,-0.023133330567181108
1782831888501513500,4.339513427734375,-0.1695201158374548,-0.0724795452773571,-0.006291994549985975
1782831888511442400,4.3494423828125,-0.2578670923322439,-0.16484847076460718,0.036734058961644764
1782831888521371400,4.359371337890625,-0.15471943706870078,-0.18385756100863218,0.02107256211247295
1782831888531300400,4.36930029296875,-0.052739072018861764,-0.10984444948844611,0.05271594687160104
1782831888541229600,4.3792294921875,-0.018232991304993628,-0.15778087046593428,0.09707956912992521
1782831888551158500,4.389158447265625,0.013286767074465751,-0.11906257888451217,0.07469155877102165
1782831888561087500,4.39908740234375,-0.006236848562955856,-0.04971402510926127,0.02852601992357522
1782831888571016200,4.40901611328125,-0.09007599224448204,-0.058543520513921976,0.02841881495574489
1782831888580945400,4.4189453125,-0.044319618719816205,-0.014908230796456336,0.001406925922166556
1782831888590874400,4.428874267578125,-0.013279752811789511,0.0639497634716332,0.025063768906798213
1782831888600803300,4.43880322265625,-0.0314490312308073,0.014559052032604812,0.057348301113676274
1782831888610732300,4.448732177734375,-0.02326397120952606,-0.044623350906744595,0.07044575616111978
1782831888620661200,4.4586611328125,-0.027954174852371214,-0.06429930756166577,0.09840785859161988
1782831888630590500,4.468590576171875,-0.08530395553708076,-0.12773527629226444,0.13734638706129043
1782831888640519400,4.47851953125,-0.04555003729760647,-0.12329444430060683,0.09210768073517829
1782831888650448400,4.488448486328125,-0.03410919035077095,-0.04399601278863847,0.008958619943354278
1782831888660378400,4.49837841796875,-0.01267594169974327,-0.030674247466027735,-0.005158716203738004
1782831888670307300,4.508307373046875,-0.04039572327435016,-0.025123992927744983,0.008687438319157808
1782831888680236300,4.518236328125,-0.02594575763940811,-0.010637348544225097,0.013385167681332678
1782831888690165200,4.528165283203125,-0.041858781564235684,-0.05928001809492707,0.0070058601740747685
1782831888700094500,4.538094482421875,-0.049879590934514995,-0.09663096684589982,0.030288225556816904
1782831888710023400,4.5480234375,-0.04746493100821972,-0.10158025981634855,0.051903443178627634
1782831888719952400,4.557952392578125,-0.027329320952296256,-0.08284815988279878,0.046810211692843585
1782831888729881300,4.56788134765625,-0.09164367995262146,-0.09468180553950369,0.021306663129292427
1782831888739810600,4.577810546875,-0.09280454042553901,-0.10910028005763887,0.004329535370599478
1782831888749739500,4.587739501953125,-0.12599836949706078,-0.07391396199464798,0.04890252606328577
1782831888759668200,4.597668212890625,-0.14613924024999142,-0.14227650040723383,0.04691611975273117
1782831888769597200,4.60759716796875,-0.1762906328856945,-0.16322788382545111,0.03494180525001138
1782831888779526400,4.6175263671875,-0.1662427016019821,-0.14329736788757144,0.008605605254601688
1782831888789455600,4.62745556640625,-0.14613047242164612,-0.12559570698030292,-0.0022603826800361273
1782831888799384600,4.637384521484375,-0.0878600697606802,-0.10656528168730438,-0.01582024934114888
1782831888809313800,4.647313720703125,-0.05305354479551315,-0.10762501987330615,-0.007300514005403966
1782831888819242800,4.65724267578125,-0.014015665870904921,-0.11222075016573071,0.030139756996836513
1782831888829172700,4.6671728515625,-0.0887573108613491,-0.11218129493817687,0.08511643360834568
1782831888839101700,4.677101806640625,-0.09448153372704982,-0.11188888786286115,0.04501801278013736
1782831888849030700,4.68703076171875,-0.06750994017124176,-0.10111403054408728,-0.004766428950522095
1782831888858959600,4.696959716796875,0.007937807261943817,-0.03716112526729703,0.07571538539342582
1782831888868888600,4.706888671875,-0.10257365476787089,-0.12131876031346618,0.16295153283579275
1782831888878817800,4.71681787109375,-0.029800679501891133,-0.15544081014581024,0.1373390988039784
1782831888888746800,4.726746826171875,-0.03350947089195251,-0.059270738809928294,0.0663635283487849
1782831888898675700,4.73667578125,-0.010427870512008667,-0.08148578548841177,0.042896782842464745
1782831888908604700,4.746604736328125,-0.01362403620481491,-0.07587006449848413,0.013162775368615985
1782831888918534000,4.756533935546875,-0.03372048329412937,-0.056905836309492586,0.00995411552041769
1782831888928462800,4.766462890625,-0.02224398051202297,-0.08047478181496262,0.01962504845159128
1782831888938391800,4.776391845703125,-0.05416413638591766,-0.09022526452206074,0.0082924476522021
1782831888948320500,4.786320556640625,-0.12117898651659488,-0.09128646401278674,0.014619166455697268
1782831888958249700,4.796249755859375,-0.10978665488660334,-0.056576458224654194,0.03807349087186158
1782831888968178700,4.8061787109375,-0.12313245867192744,-0.010804448739439249,0.025924440856743603
1782831888978107600,4.816107666015625,-0.16463000570833683,-0.046268999221920966,0.04170099718663841
1782831888988036600,4.82603662109375,-0.16940788763463496,-0.07457951323129236,0.06964013886665925
1782831888997966800,4.835966796875,-0.11840192301869391,-0.08943184912204742,0.07819653468467294
1782831889007895800,4.845895751953125,-0.11126900239884853,-0.16915990422293542,0.043394941622950135
1782831889017824800,4.85582470703125,-0.10159633416831493,-0.19465726050771773,0.08839602153459564
1782831889027753500,4.86575341796875,-0.0580880318313837,-0.15743936355188487,0.061515595127269625
1782831889037682700,4.8756826171875,0.03988368209898471,-0.0822629804059863,0.007482775237131863
1782831889047611600,4.885611572265625,-0.004323123896121979,-0.07104688212573528,-0.00647133317226544
1782831889057540600,4.89554052734375,-0.04156885870695114,-0.12466098341345787,0.013263842856604605
1782831889067469600,4.905469482421875,0.013819266515970229,-0.11941650688871741,0.013099738336075096
1782831889077398800,4.915398681640625,-0.01145429095029831,-0.10615019808039068,0.06282212941488251
1782831889087327700,4.92532763671875,-0.10997487093508243,-0.15038060414679347,0.12770511861601844
1782831889097256700,4.935256591796875,-0.05521978291869163,-0.09562186286859213,0.04395591824026778
1782831889107185700,4.945185546875,-0.0733422995865345,0.005757759809121489,-0.022380539438501
1782831889117115000,4.955114990234375,-0.10545476316213608,-0.06308686303198337,0.0033428806871175763
1782831889127043800,4.9650439453125,-0.10851122812330723,-0.10137721152491867,0.08522283485857769
1782831889136972500,4.97497265625,-0.08442775722444057,-0.0720191612239927,0.10224595718346535
1782831889146901500,4.984901611328125,-0.09088555506169796,-0.05555361798293888,0.0700536515709944
1782831889156830700,4.994830810546875,-0.20227029279470443,-0.08701930808760225,0.09354573244797065
1782831889166759700,5.004759765625,-0.1908300303697586,-0.10031162812002002,0.04867048913938924
1782831889176689700,5.014689697265625,-0.0925520269691944,-0.0030881752736866474,0.007120170736126601
1782831889186619000,5.024618896484375,-0.0997854853540659,-0.048047918527945876,0.03782136100800708
1782831889196547800,5.0345478515625,-0.09170856188237667,-0.13522314782962203,0.09314588294280693
1782831889206476800,5.044476806640625,-0.062201896890997886,-0.10337284232154488,0.060339263090584426
1782831889216405500,5.054405517578125,-0.08017536047697067,-0.09068382194451988,0.03130260849744081
1782831889226334700,5.064334716796875,-0.06690612905919552,-0.08394903379678725,0.009313753523956983
1782831889236263700,5.074263671875,-0.040102877807617184,-0.061184390411525964,-0.012472838609386234
1782831889246192600,5.084192626953125,-0.00010755202770233153,-0.044726445955038066,-0.0023876988541334868
1782831889256121600,5.09412158203125,-0.013121931901574135,-0.09548574233353137,0.027558307402580976
1782831889266050800,5.10405078125,-0.04971300219595432,-0.14043956730365753,0.05457671750849113
1782831889275979800,5.113979736328125,0.01774140839576721,-0.0968252473089844,0.008635726398229598
1782831889285908700,5.12390869140625,0.020917115822434423,-0.038440789814293386,-0.01709346588104963
1782831889295837700,5.133837646484375,-0.07650865466296672,-0.10849478844515979,-0.0034399843860417603
1782831889305767000,5.143766845703125,-0.03709960433840751,-0.14346739069223402,0.009522902762610464
1782831889315695900,5.15369580078125,-0.0182125330388546,-0.09127638101018964,-0.0302831292565912
1782831889325624800,5.163624755859375,0.006676409024000168,-0.10788133272193372,-0.015663634007330982
1782831889335553500,5.173553466796875,0.0022831425011157988,-0.13582995461635292,-0.00008694763109087943
1782831889345483800,5.18348388671875,0.03631517596244812,-0.13643858803398906,-0.045745943462196736
1782831889355412700,5.193412841796875,-0.029541736304759977,-0.15486900160722433,0.009254132291208953
1782831889365341700,5.203341796875,-0.09302490517795085,-0.18615210168659685,0.07070186808034777
1782831889375270700,5.213270751953125,-0.08311959723532199,-0.12575111673772335,0.0044799949582666155
1782831889385199900,5.223199951171875,-0.10394728120863438,-0.08982420944049954,-0.08480935868686064
1782831889395128800,5.23312890625,-0.1736158607184887,-0.11294592263512312,-0.0384905289738439
1782831889405057800,5.243057861328125,-0.1910556558191776,-0.11931260812282561,0.059847789779212325
1782831889414986500,5.252986572265625,-0.2410316928654909,-0.14121347428560257,0.07247222048742696
1782831889424915700,5.262915771484375,-0.19856208592653274,-0.14594517898261547,0.008927475886419414
1782831889434844700,5.2728447265625,-0.11195698466300964,-0.10964746561162173,-0.010566109938919543
1782831889444773600,5.282773681640625,0.010529577320814132,-0.10576353685036301,0.04314080246509984
1782831889454702600,5.29270263671875,0.07088321599662303,-0.15417502799369392,0.0928527817477472
1782831889464631800,5.3026318359375,0.06635434039533138,-0.18173004746064542,0.07963886071378365
1782831889474560800,5.312560791015625,-0.01414075355529785,-0.17931443768627942,0.11235745522268116
1782831889484489700,5.32248974609375,-0.018155249893665314,-0.13480134222097695,0.11480817284304648
1782831889494418700,5.332418701171875,-0.0025590368330478666,-0.022133578940108416,0.05220439888658002
1782831889504348000,5.342347900390625,-0.035683892321586606,-0.0030170097336173055,0.05007823704546317
1782831889514276900,5.35227685546875,-0.0796510443419218,-0.055094183777645224,0.09614535701973363
1782831889524206600,5.36220654296875,-0.13184183482825756,-0.082514836275205,0.09968416213775053
1782831889534135800,5.3721357421875,-0.09902326880991458,-0.1374338826816529,0.08043271450521423
1782831889544064800,5.382064697265625,-0.15463468139469622,-0.15534904020912943,0.1332014510099776
1782831889553993700,5.39199365234375,-0.14368717092275618,-0.1575568524517119,0.1582422774326056
1782831889563922700,5.401922607421875,-0.12356968104541301,-0.11485402127876877,0.07277054584687576
1782831889573852000,5.411851806640625,-0.09912088396549225,-0.06486790122985839,-0.004175385988503694
1782831889583780900,5.42178076171875,-0.05196867216825485,-0.04583703754544258,0.003261065888870507
1782831889593709800,5.431709716796875,-0.043266894796490665,-0.05037051625661552,0.04097072841702029
1782831889603638500,5.441638427734375,-0.043159342768788335,-0.0806886437613517,0.08256974480021745
1782831889613567500,5.4515673828125,-0.0731283645749092,-0.13453947641439734,0.07988492616303265
1782831889623496700,5.46149658203125,-0.03316752558648586,-0.09096168903782963,0.027654388188198206
1782831889633425700,5.47142578125,-0.08234452120959758,-0.08147906348668038,0.027593415248580274
1782831889643354600,5.481354736328125,-0.0861994430720806,-0.13339805129431187,0.04562215268574655
1782831889653283600,5.49128369140625,-0.06147533618211746,-0.10751564121469855,0.043043351706303655
1782831889663212800,5.501212890625,-0.03690203593969345,-0.11617569833658635,0.031183274700399485
1782831889673141800,5.511141845703125,-0.08900923979580402,-0.15347250574752688,-0.005186024335771798
1782831889683070700,5.52107080078125,-0.05419219343662262,-0.16873612585291264,-0.02547110759867355
1782831889692999700,5.530999755859375,0.02868599625825882,-0.16749270166307687,0.013768084318004548
1782831889702929700,5.5409296875,0.04180032937526702,-0.11184724067822098,0.06018997254669666
1782831889712858600,5.550858642578125,-0.02471533906161785,-0.12377229094542562,0.017456088648363947
1782831889722787600,5.56078759765625,-0.036114100432395935,-0.1119330923307687,-0.03022069501224905
1782831889732716800,5.570716796875,-0.10472761793136597,-0.08149579542577266,-0.026850195665843783
1782831889742645800,5.580645751953125,-0.13531447937488555,-0.11341836245246231,0.01520191651340574
1782831889752574700,5.59057470703125,-0.14664192907512186,-0.10245455843284726,0.032886973345745356
1782831889762503700,5.600503662109375,-0.15629939973652363,-0.06460340507477522,0.06737328991321846
1782831889772433000,5.610432861328125,-0.16926526429355143,-0.08944361262507736,0.09302841230928897
1782831889782361900,5.62036181640625,-0.1839057840645313,-0.09638415247797966,0.06614676205925643
1782831889792290800,5.630290771484375,-0.1710574084073305,-0.12506262301690876,0.05809977706810459
1782831889802219800,5.6402197265625,-0.11979016250669955,-0.1604625838305801,0.04607840855326503
1782831889812149000,5.65014892578125,-0.0513303742647171,-0.10433386937342584,0.0666231839319691
1782831889822078000,5.660077880859375,-0.08830079926550388,-0.09811872118562459,0.09051398180294781
1782831889832007000,5.6700068359375,-0.05743102922737598,-0.09900500250086187,0.04821390447830781
1782831889841936000,5.679935791015625,-0.03616086218357086,-0.03321187618486583,-0.005701718772947788
1782831889851865000,5.689864990234375,-0.048725160202383995,-0.04222425387576222,-0.002181399159692228
1782831889861794000,5.6997939453125,0.021283026525378227,-0.043573914919048544,0.0600758263814263
1782831889871723000,5.709722900390625,-0.008462123396992684,-0.06436192446909844,0.06909361089980229
1782831889881652000,5.71965185546875,-0.026498130825161934,-0.12336064140461385,0.04693579256758094
1782831889891582000,5.72958203125,-0.06489128210544585,-0.10369805568791925,0.04905919619603082
1782831889901511000,5.739510986328125,-0.08709376156330108,-0.07079488012604415,0.047230811725091186
1782831889911440000,5.74943994140625,-0.10839666183292865,-0.06567154576294124,0.0631599648008123
1782831889921369000,5.759369140625,-0.1490145034253597,-0.07606719450578094,0.0600869505636394
1782831889931298000,5.769298095703125,-0.08346329610645771,-0.07207403321638703,0.013154665127396582
1782831889941227000,5.77922705078125,-0.05643325036168098,-0.07542144394814967,0.026379527680482715
1782831889951156000,5.789156005859375,-0.021355507239699364,-0.11048062850013375,0.04085550453951582
1782831889961085000,5.7990849609375,-0.007170330020785332,-0.1468473885193467,0.0810572578780353
1782831889971014100,5.80901416015625,0.03490297107696533,-0.15215740456096827,0.10931132899243384
1782831889980942800,5.81894287109375,0.034328386059403415,-0.09245601924881339,0.06400521998591721
1782831889990871800,5.828871826171875,-0.04162847993969917,-0.060000222128257154,0.02498924236586317
1782831890000800800,5.83880078125,-0.07895487877130508,-0.024836481223255394,0.03117750254673883
1782831890010730000,5.84872998046875,-0.12285773338377474,0.009015300300344824,0.016863036392349748
1782831890020659000,5.858658935546875,-0.23704525357782838,-0.03288081759959459,-0.03226021974952891
1782831890030588000,5.868587890625,-0.16837503745555876,-0.05474851214513182,-0.05065819235788658
1782831890040516900,5.878516845703125,-0.13104454697072504,-0.0652628918968141,-0.015182901285681873
1782831890050446000,5.888446044921875,-0.0838683697760105,-0.11358531651720404,0.053694838373735544
1782831890060375000,5.898375,-0.05633037450909614,-0.1391181825067848,0.1240286403266713
1782831890070304000,5.908303955078125,-0.004018587991595268,-0.165851729523018,0.09754850181592628
1782831890080234000,5.91823388671875,0.009507248535752296,-0.11876593402549623,0.03189250068198889
1782831890090163000,5.928162841796875,-0.02836217113137245,-0.1003195191655308,0.03403621644610539
1782831890100092000,5.938091796875,-0.022352701583504674,-0.08820625284984707,0.04208356676343828
1782831890110020900,5.948020751953125,-0.032387188863754274,-0.023334113836288452,-0.008312467526923864
1782831890119950000,5.9579501953125,-0.0485766916424036,-0.03318454978652298,-0.012524696660786866
1782831890129879000,5.967879150390625,-0.07246785483956336,-0.06284289820827543,0.06082914723306894
1782831890139808000,5.97780810546875,-0.118903442800045,-0.07712642123512924,0.061795836840756235
1782831890149737000,5.987737060546875,-0.11540157215893268,-0.09109349872395396,0.008533709062170236
1782831890159666200,5.997666259765625,-0.14145429730415343,-0.10497596666924655,0.01804342354964465
1782831890169595000,6.007594970703125,-0.11090484526157378,-0.10826185647211968,0.07763630698602646
1782831890179523800,6.01752392578125,-0.13174246610701085,-0.07149959432929753,0.08831042561037465
1782831890189452800,6.027452880859375,-0.11278759026825427,-0.0796308052714914,0.032341450025886294
1782831890199382000,6.037382080078125,-0.06513385868966579,-0.07007182654850184,-0.011231405447237193
1782831890209311000,6.04731103515625,-0.042758945274353026,-0.06783975664749742,-0.004839950844459235
1782831890219240000,6.057239990234375,-0.08209142323136329,-0.08993658377379178,0.0470310513692908
1782831890229169000,6.0671689453125,-0.03383621862828731,-0.09718282857500016,0.0004923500942066311
1782831890239098000,6.07709814453125,-0.06128828917741775,-0.07384805715158581,-0.06304680501623079
1782831890249027000,6.087027099609375,-0.0028209026396274566,-0.0878499867580831,-0.026354082711972295
1782831890258956000,6.0969560546875,-0.019247136783599853,-0.08196852750405668,0.0408496045216918
1782831890268885000,6.106885009765625,-0.02892857284247875,-0.08593691967837512,0.06454584793495013
1782831890278815000,6.11681494140625,-0.10941256087720394,-0.11285561400316654,0.08101648747622966
1782831890288744000,6.126743896484375,-0.1465928292363882,-0.0779100458934903,0.019492343716323374
1782831890298673000,6.1366728515625,-0.05202537079155445,0.0013057488363236189,-0.08460256580207497
1782831890308601900,6.146601806640625,-0.09268763604760169,-0.014135785119235515,-0.05049406957104802
1782831890318531000,6.156531005859375,-0.11238894633948802,-0.08033983032368124,0.09077590240845457
1782831890328460000,6.1664599609375,-0.10720131456851958,-0.10094057367332279,0.13873798755016178
1782831890338389000,6.176388916015625,-0.14460662385523318,-0.0946818786047399,0.03413065326390788
1782831890348318000,6.18631787109375,-0.17357669775187967,-0.112693920635432,0.05736709714569151
1782831890358247200,6.1962470703125,-0.11620587427914142,-0.09718918525055051,0.0790333143023774
1782831890368175900,6.20617578125,-0.06304419293403625,-0.007628083725646138,0.03498670383766293
1782831890378104800,6.216104736328125,-0.02950198881626129,-0.0443513290323317,-0.01761447581415996
1782831890388033800,6.22603369140625,-0.07177870353162288,-0.050657151178270576,0.02156829147385433
1782831890397963000,6.235962890625,-0.08699965353906154,-0.048896498181298376,0.07174295636480674
1782831890407892000,6.24589208984375,-0.0077197805970907205,-0.03377637819983065,0.07320236139288172
1782831890417821000,6.255821044921875,-0.004338321465253829,0.0032367168989032506,0.03582697232039645
1782831890427750000,6.26575,-0.04352817608118057,-0.03125760031193495,0.06965676120789721
1782831890437679000,6.27567919921875,-0.059824646365642546,-0.024604060706868765,0.05591092525431886
1782831890447608000,6.285608154296875,-0.004967851540446281,0.004242094549164176,0.0014538886027410625
1782831890457537000,6.295537109375,-0.02674187645316124,-0.02047090642489493,0.028320323017332703
1782831890467467000,6.305467041015625,-0.041295302462577815,-0.08704831498637795,0.109635081054084
1782831890477396000,6.31539599609375,-0.03968669822216034,-0.10848733579106629,0.10327365626338869
1782831890487325000,6.325324951171875,-0.07390519416630267,-0.12703385002464054,0.05634202841427177
1782831890497254000,6.33525390625,-0.07879588881731033,-0.11101130131073296,0.04690631074476987
1782831890507183000,6.34518310546875,-0.06273381181061267,-0.057501829441264266,-0.02134436479117721
1782831890517112000,6.355112060546875,-0.14752397260665892,-0.050217152325809,-0.022884452106337994
1782831890527041000,6.365041015625,-0.1667225940734148,-0.12706636405475438,0.03300996040459722
1782831890536970000,6.374969970703125,-0.09666647655069828,-0.08343933070898056,0.006993037225119769
1782831890546899000,6.38489892578125,-0.043567339047789574,-0.06116656249389052,-0.016363306709285826
1782831890556828000,6.394827880859375,0.006043956339359283,-0.12131437639929353,-0.005569854287896305
1782831890566756900,6.4047568359375,-0.00911795695722103,-0.13624006978720427,0.026276797958370297
1782831890576685800,6.414685791015625,-0.02724631884396076,-0.1472377030111849,0.04071733817784116
1782831890586614800,6.42461474609375,-0.05888356612324714,-0.17759375137351452,0.03608397928876802
1782831890596544000,6.4345439453125,-0.06030278527140617,-0.18374058356545864,0.05079491568114608
1782831890606473000,6.444472900390625,-0.0955763432264328,-0.14582535199522972,0.09763128472855315
1782831890616402000,6.45440185546875,-0.14458675011098385,-0.08214198437482118,0.09579190393956377
1782831890626331000,6.464330810546875,-0.15871932035982608,-0.0294912482265383,0.027070432554092257
1782831890636260000,6.474260009765625,-0.15318214449882506,-0.024118980603665113,0.017222243359871207
1782831890646189000,6.48418896484375,-0.12872341054677963,-0.0281748318657279,0.04637947385907173
1782831890656118000,6.494117919921875,-0.11409107408225536,-0.06891257351078092,0.06568935541426763
1782831890666048000,6.504048095703125,-0.05199906730651855,-0.09335486778467893,0.06541985429050401
1782831890675977000,6.51397705078125,0.0388560926169157,-0.050865752427652476,0.11071394406566396
1782831890685906000,6.523906005859375,0.022350948017835617,-0.05050144915990531,0.12529765561548992
1782831890695835000,6.5338349609375,-0.025790859338641167,-0.06458616167902946,0.11956450052466243
1782831890705764000,6.54376416015625,-0.0366208809107542,-0.05522635878995061,0.09782936458392068
1782831890715693000,6.553693115234375,-0.07150631633102894,-0.043720995239540934,0.12215696470327675
1782831890725622000,6.5636220703125,-0.11942775893509387,-0.0919565452940762,0.1320973074266687
1782831890735551000,6.573551025390625,-0.0630284108430147,-0.03739931793734431,0.056613465766794976
1782831890745480000,6.58347998046875,-0.04698386949300766,0.016100582386180756,0.022080442247074096
1782831890755409000,6.593408935546875,-0.01710486405789852,-0.045053485952317715,0.03678374332226813
1782831890765337900,6.603337890625,-0.00019815292060375213,-0.057213221758231514,0.0730780774260871
1782831890775266800,6.613266845703125,-0.025612580162286756,-0.06704137281142175,0.046345224529597905
1782831890785196300,6.6231962890625,0.015268880802392958,-0.08914945198409259,0.07822378801777959
1782831890795125200,6.633125244140625,-0.10260755703747272,-0.05022928115502,0.06616906522260979
1782831890805054500,6.643054443359375,-0.13247721012234687,-0.1477829888690263,0.005062160494085401
1782831890814983400,6.6529833984375,-0.06534428656995296,-0.07034034129157662,-0.03059935559891164
1782831890824912400,6.662912353515625,-0.048889410853385926,-0.04038600559793412,-0.002773812094889581
1782831890834841300,6.67284130859375,-0.12064297994375228,-0.09013159488923847,0.029693693729769436
1782831890844770300,6.682770263671875,-0.17115677712857721,-0.10307320178784429,0.014587675338890403
1782831890854699300,6.69269921875,-0.13558160587847232,-0.09784925659447907,-0.02140647024195641
1782831890864628200,6.702628173828125,-0.15274726021289825,-0.1329823831655085,-0.03735909552481025
1782831890874558500,6.712558349609375,-0.136540806299448,-0.20142982338257132,0.012660433603357522
1782831890884487400,6.7224873046875,-0.09138649032115936,-0.21097491971068083,0.0703320849198848
1782831890894416400,6.73241650390625,-0.0385860435038805,-0.18609686436802148,0.01373995420206338
1782831890904345300,6.742345458984375,-0.0017436287969350814,-0.18275522578991948,-0.018619579469785093
1782831890914274300,6.7522744140625,0.0064554597496986384,-0.13145422375015914,-0.028418833222053942
1782831890924203500,6.76220361328125,0.02504208679795265,-0.11818053535297512,-0.028083847380336372
1782831890934132200,6.77213232421875,-0.035405075380206104,-0.12526231030747292,0.00040781361591070886
1782831890944061200,6.782061279296875,-0.10571370635926723,-0.12573438479863105,0.06496474920045583
1782831890953990100,6.791990234375,-0.12063304307162762,-0.08644720728807151,0.05171754695139825
1782831890963919400,6.80191943359375,-0.13406886322796344,-0.04290361444205045,-0.011318554007727652
1782831890973848300,6.811848388671875,-0.16293839935958385,-0.04316445733532309,0.00973302011564374
1782831890983777300,6.82177734375,-0.1506751301139593,-0.05815671315342188,0.06193482518633827
1782831890993706200,6.831706298828125,-0.09431494498848915,-0.05788103801719844,0.06128976874845102
1782831891003635500,6.841635498046875,-0.11767302422225474,-0.12181114694029092,0.1302877189877443
1782831891013564400,6.851564453125,-0.05113046777844429,-0.17826361345909536,0.10291267746388912
1782831891023493400,6.861493408203125,-0.02229892556965351,-0.13674137037284673,0.06634928062772379
1782831891033422300,6.87142236328125,-0.03313654592633247,-0.09277977131046354,0.06157941761109978
1782831891043351300,6.881351318359375,-0.024139585000276565,-0.059546998468041415,0.013315134652424603
1782831891053280300,6.8912802734375,-0.0162082074791193,0.012917641501128672,-0.03801576933525502
1782831891063209200,6.901209228515625,-0.07957447197437285,0.010979732241109014,-0.0289285911087878
1782831891073138200,6.91113818359375,-0.08398819676339626,-0.017468290542811155,0.04492419701684266
1782831891083068400,6.921068359375,-0.1072001455247402,-0.02378412262611091,0.09815693430416285
1782831891092997400,6.930997314453125,-0.16212883654236793,-0.06146444946192205,0.08087282295553014
1782831891102926300,6.94092626953125,-0.1550841787278652,-0.07895005646571517,0.05166974402060732
1782831891112855600,6.95085546875,-0.12558218991160391,-0.06785283532477915,0.04150956626776606
1782831891122784300,6.9607841796875,-0.11115618967413901,-0.10155198356993496,0.04744839999852702
1782831891132713200,6.970713134765625,-0.06744798085093498,-0.11403970922119915,0.07283299835752695
1782831891142642200,6.98064208984375,-0.03038870852291584,-0.12253573488779365,0.03513962937705219
1782831891152571400,6.9905712890625,-0.05738134486675262,-0.09752046303153038,-0.021971428914647546
1782831891162500400,7.000500244140625,-0.02404255436658859,-0.0968745663434267,-0.0429059159969911
1782831891172429300,7.01042919921875,-0.06264905613660812,-0.0757172850895673,-0.03627183001106605
1782831891182358300,7.020358154296875,-0.04546235901415348,-0.08600238613002002,-0.01106207676231861
1782831891192287500,7.03028759765625,-0.03021569004356861,-0.06826850345358253,-0.020852635751478374
1782831891202216400,7.040216552734375,-0.04693476965427398,-0.05842603161409497,-0.008707220731861889
1782831891212145400,7.0501455078125,-0.08044131793677807,-0.09934241776168345,0.05584635385181755
1782831891222074400,7.060074462890625,-0.07619885806143284,-0.1337364164032042,0.09358584526265039
1782831891232003300,7.07000341796875,-0.13483400238156318,-0.13912263948619366,0.0959399341081269
1782831891241932300,7.079932373046875,-0.11997370238006114,-0.15037906977683305,0.03762609416423365
1782831891251861200,7.089861328125,-0.11127309405207633,-0.09148922004327177,-0.005583334823977202
1782831891261790200,7.099790283203125,-0.06822013426721095,-0.07914156044982373,-0.028361458745319396
1782831891271719200,7.10971923828125,-0.01754968521595001,-0.08999094430953264,-0.02733975101476535
1782831891281648400,7.1196484375,0.0070136781543493265,-0.07807480800114572,-0.00017639774652197955
1782831891291577300,7.129577392578125,0.02340776359438896,-0.1012829573702067,-0.002943469573371112
1782831891301507300,7.13950732421875,0.029290976414084433,-0.10608875021673739,0.006286532923579216
1782831891311436300,7.149436279296875,-0.01374386319220066,-0.09335501391515136,0.03363401058707386
1782831891321365200,7.159365234375,-0.08313479480445385,-0.06960720471143722,0.049709111472126095
1782831891331294200,7.169294189453125,-0.11305822390317916,-0.0372656085550785,0.058516997833177445
1782831891341223200,7.17922314453125,-0.15003683221042155,-0.025966435101255774,-0.023927421820629388
1782831891351152400,7.18915234375,-0.15339666403234004,-0.04441379980929196,-0.036833811275381594
1782831891361081300,7.199081298828125,-0.09923778834342956,-0.08669789411351084,0.023485377141553906
1782831891371010300,7.20901025390625,-0.10615268229842185,-0.11544869923628866,0.10878741471618414
1782831891380939300,7.218939208984375,-0.18090777129232882,-0.16286095020920038,0.11938744519101455
1782831891390868500,7.228868408203125,-0.06561959637999534,-0.06719049895852804,0.04965906178532168
1782831891400797400,7.23879736328125,-0.07928980981409549,-0.0312296163264662,-0.026225542695168403
1782831891410726400,7.248726318359375,-0.059119128444790836,-0.03961787076964974,0.017540478996187447
1782831891420655400,7.2586552734375,-0.04306874187588691,-0.055971039677411315,0.09524380507012829
1782831891430584300,7.268584228515625,-0.0253232418268919,-0.06999437739811837,0.1094932979632169
1782831891440513300,7.27851318359375,-0.04965864166021347,-0.12679134650565682,0.07070245260223745
1782831891450442200,7.288442138671875,-0.08920037845373154,-0.14939802285023032,0.05607937715640291
1782831891460371200,7.29837109375,-0.10857201839983463,-0.1422000011049211,0.08130177069101482
1782831891470300400,7.308300537109375,-0.05713233854174614,-0.05328085074536502,0.025404380771704017
1782831891480229400,7.3182294921875,-0.06237140823900699,0.01563720265813172,-0.005909680701512843
1782831891490158300,7.328158447265625,-0.057145198023319244,-0.012840557676926254,-0.005366970393247902
1782831891500087300,7.33808740234375,-0.042245735055208206,-0.03069258684031665,0.016384641758259384
1782831891510017300,7.348017333984375,-0.013850246176123618,-0.08400880116000771,0.08651439077276736
1782831891519946200,7.3579462890625,-0.059574470996856685,-0.1384350225482136,0.13339589586984366
1782831891529875200,7.367875244140625,-0.08314180906713009,-0.18218809342645106,0.09858655789308249
1782831891539804200,7.37780419921875,-0.14922493130564687,-0.1490339387781918,0.08577091546170414
1782831891549733400,7.3877333984375,-0.11645312703847885,-0.1287123776961118,0.07707492850990966
1782831891559662300,7.397662353515625,-0.09564297872185706,-0.068074588316679,0.012015669426415115
1782831891569591300,7.40759130859375,-0.10157704494595526,-0.05189567999728024,0.008652805397193878
1782831891579520300,7.417520263671875,-0.07679214777946472,-0.11442300945036113,0.019007793336082247
1782831891589449500,7.427449462890625,0.018791209709644315,-0.09691957452893256,0.011681743030622601
1782831891599378400,7.43737841796875,0.018897592693567274,-0.08252601525634527,0.014667773104086517
1782831891609307400,7.447307373046875,-0.06766250038444996,-0.11587335438914596,0.08250594058269635
1782831891619236400,7.457236328125,-0.04999883340001106,-0.09617102118395268,0.07653833741517738
1782831891629165300,7.467165283203125,-0.08893675908148288,-0.02131802477352321,0.0036510150545276698
1782831891639094300,7.47709423828125,-0.12221417478322982,-0.04453866829797625,0.019378307148907332
1782831891649023200,7.487023193359375,-0.12910159620940684,-0.055634793460369106,0.05642013515178114
1782831891658952200,7.4969521484375,-0.13361527424156666,-0.05976034895777702,0.03272613849453628
1782831891668881400,7.50688134765625,-0.10905834061205387,-0.07977898157052696,0.00937218744661659
1782831891678810400,7.516810302734375,-0.10945289288759232,-0.08815086940079928,0.02573735731942579
1782831891688739300,7.5267392578125,-0.04843406830132007,-0.10786153204292058,0.03941710576685145
1782831891698668300,7.536668212890625,-0.04030862951278686,-0.09341595032215118,0.022831187549140302
1782831891708597500,7.546597412109375,0.014704232656955718,-0.09808211550228298,0.011950915360823273
1782831891718526500,7.5565263671875,0.0501449638724327,-0.071174673223868,0.0014107070481404662
1782831891728455400,7.566455322265625,0.01887596538364887,-0.04078494178764522,0.013340250827372073
1782831891738385400,7.576385498046875,0.0012456161469221114,-0.06785035110674797,0.03553403552211821
1782831891748314400,7.586314453125,-0.030231472134590147,-0.05853051490187645,0.04166537788398564
1782831891758243300,7.596243408203125,-0.13655132769346237,-0.06863748289644718,0.042669385561067606
1782831891768172300,7.60617236328125,-0.10156360094249248,-0.11995331717915832,0.004108914889860898
1782831891778101500,7.6161015625,-0.06914309433102607,-0.06697546796835958,-0.024814799114409834
1782831891788030700,7.62603076171875,-0.06840367414057254,-0.0993919559918344,0.0025815226594917474
1782831891797959700,7.635959716796875,-0.05503273591399192,-0.11533442520685493,0.05168086820282042
1782831891807888400,7.645888427734375,-0.04196574907004833,-0.11230148725174367,0.025116595072578636
1782831891817817600,7.655817626953125,-0.042783495193719864,-0.12524462852030993,0.014009911983553319
1782831891827746600,7.66574658203125,-0.08472995504140854,-0.18394523929208517,0.0595060271368362
1782831891837675500,7.675675537109375,-0.07600245870649815,-0.17190686484351753,0.06897403964074328
1782831891847604500,7.6856044921875,-0.15460837790966034,-0.1220770313348621,0.06372899686042219
1782831891857533700,7.69553369140625,-0.1955173114031553,-0.09186353324837983,0.04177691196706146
1782831891867462700,7.705462646484375,-0.2022398976564407,-0.03528174126148224,0.0220892466080375
1782831891877391600,7.7153916015625,-0.18431845651865003,-0.025964900731295346,0.0059027395040728145
1782831891887320600,7.725320556640625,-0.1633504872918129,-0.0790697373226285,0.04199349559349939
1782831891897249800,7.735249755859375,-0.10920213299691676,-0.13524009896442293,0.06974856767719612
1782831891907178800,7.7451787109375,-0.01886076781451702,-0.11754194518849254,0.06508912449879571
1782831891917107500,7.755107421875,-0.025886720928549763,-0.08472849373668431,0.07481496595498174
1782831891927036400,7.765036376953125,-0.09486965626180172,-0.13684263879023492,0.06918017493840306
1782831891936965400,7.77496533203125,-0.04617313763201236,-0.07925656513161956,0.034944983587786554
1782831891946894600,7.78489453125,-0.06383271296322346,-0.026689269483089445,0.027391225473675875
1782831891956823600,7.794823486328125,-0.11481062052845954,-0.1028268258113414,0.04313506684405729
1782831891966753500,7.80475341796875,-0.09128770612180233,-0.1250002253051847,0.04653428082829341
1782831891976682800,7.814682861328125,-0.026266075634956358,-0.1018628030847758,0.05483962449468672
1782831891986611700,7.82461181640625,-0.035145547661185265,-0.09340535586290061,0.08481461938386782
1782831891996540700,7.834540771484375,-0.1358089848935604,-0.11076090674623847,0.06008168986663222
1782831892006469400,7.844469482421875,-0.06570552109777927,-0.09572707680873573,-0.007475614843983203
1782831892016398600,7.854398681640625,-0.06910977658331394,-0.03262596605569124,-0.02185189418820664
1782831892026327600,7.86432763671875,-0.09087854079902172,-0.04979914610944688,0.07289985304865985
1782831892036256500,7.874256591796875,-0.13845628453195094,-0.08045330063551664,0.09636422393480315
1782831892046185500,7.884185546875,-0.10346563517153262,-0.06964410265572368,0.014929218785557896
1782831892056114700,7.89411474609375,-0.07845861968696118,-0.04807290683872997,0.004848426411859691
1782831892066043600,7.904043701171875,-0.03874970963299274,-0.059155514932423825,0.07144857652811333
1782831892075972600,7.91397265625,-0.017477204501628874,-0.033010581459105015,0.10052802908336743
1782831892085901600,7.923901611328125,-0.02657178058326244,-0.0317305515859276,0.013486600495502352
1782831892095830800,7.933830810546875,-0.06769698717594147,-0.048869683239609,0.004625577441416681
1782831892105759700,7.943759765625,-0.07177870353162288,-0.07430420342124998,0.02872409977894276
1782831892115688400,7.9536884765625,-0.057824412459135055,-0.05509301473386585,0.022046010254509744
1782831892125617400,7.963617431640625,-0.024464579170942306,-0.04522204745225608,0.022737554448936135
1782831892135546600,7.973546630859375,-0.023920389291644095,-0.06208652688302099,0.04575577073646709
1782831892145475600,7.9834755859375,-0.03646890521943569,-0.0670721332758665,0.04790655556218698
1782831892155404500,7.993404541015625,-0.058330023893713945,-0.06228307236842811,0.006865556654240936
1782831892165333500,8.00333349609375,-0.0894154825091362,-0.09389102048799396,0.001953344291169196
1782831892175262700,8.0132626953125,-0.1429337222069502,-0.10340184922032057,0.03322449820442125
1782831892185191700,8.023191650390626,-0.10677695167660713,-0.09987279831133783,0.029479429924581198
1782831892195121400,8.033121337890625,-0.0841343272358179,-0.056175768469274044,0.005324884817190468
1782831892205050400,8.04305029296875,-0.08163724972307682,-0.026437998135760424,-0.013111775833740829
1782831892214979600,8.0529794921875,-0.07582593309581279,-0.036996070898696776,-0.03246741449311375
1782831892224908500,8.062908447265626,-0.06963935341536999,-0.04717851528227329,0.0038330205579288302
1782831892234837500,8.07283740234375,-0.09706219787001609,-0.0683790511559695,0.076797097949218
1782831892244766500,8.082766357421875,-0.06958616192340851,-0.08156864146627485,0.0842895908627659
1782831892254695700,8.09269580078125,-0.07647650595903396,-0.03229315390475094,0.024851386531442404
1782831892264624600,8.102624755859376,-0.14025602743029594,-0.04585442707166076,-0.00251983733382076
1782831892274553600,8.1125537109375,-0.11408698242902755,-0.07431487094573676,-0.02719460692303255
1782831892284482600,8.122482666015625,-0.0754857413560152,-0.05045351836495101,0.02889474363811314
1782831892294411800,8.132411865234374,-0.04696224218308925,-0.07566687007658184,0.08454347429228946
1782831892304340500,8.142340576171875,-0.0735597417294979,-0.10097045735493301,0.09341109148394316
1782831892314269400,8.15226953125,-0.07627426138520241,-0.09666143504939972,0.02995590659622103
1782831892324198400,8.162198486328125,-0.07199030045568942,-0.09802329798713326,0.0013725852611474693
1782831892334127600,8.172127685546876,-0.09631225628554821,-0.11121603010259568,0.008164528689906001
1782831892344056600,8.182056640625,-0.06893325097262859,-0.08565276897475123,-0.003326130481716245
1782831892353985500,8.191985595703125,-0.10175064794719219,-0.08181516357325017,-0.032360428720992054
1782831892363914500,8.20191455078125,-0.08573124103844165,-0.08115143896751105,-0.04611925202030688
1782831892373843700,8.21184375,-0.10872340956926345,-0.0699925507672131,-0.018632274554576722
1782831892383772700,8.221772705078125,-0.027533319091796873,-0.04772694294527173,-0.03549436109885573
1782831892393701600,8.23170166015625,0.003440495842695236,-0.029995982878282663,-0.017257606934197246
1782831892403630600,8.241630615234374,-0.025800796210765836,-0.07306472475416959,0.022407244782336053
1782831892413559600,8.2515595703125,-0.04057750958204269,-0.09679346393123268,0.10515504956319928
1782831892423488500,8.261488525390625,-0.07733984479010104,-0.08913345069736242,0.11920777777517214
1782831892433418500,8.27141845703125,-0.008481997141242027,-0.06488602140843867,0.020631832607649267
1782831892443347700,8.28134765625,-0.009653379008173943,-0.020282544245943425,-0.027052275842893866
1782831892453276700,8.291276611328126,-0.08977963964641093,-0.04154810817986727,0.035049010217841715
1782831892463205600,8.30120556640625,-0.09295593159496783,-0.031986279912665484,0.10864753132145852
1782831892473134600,8.311134521484375,-0.11050678585469723,0.0026086481284350155,0.06187805349780246
1782831892483063800,8.321063720703124,-0.09742226335406302,0.0006291647490113974,0.011990808979794383
1782831892492992500,8.330992431640626,-0.047535073634982106,0.0106164518866688,0.061597903115861115
1782831892502921500,8.34092138671875,-0.06215455061793327,0.03201923233419657,0.11325018454501405
1782831892512850400,8.350850341796875,-0.11326572917401789,-0.04289528500512242,0.1612722379793413
1782831892522779400,8.360779296875,-0.12063304307162762,-0.07476619490981101,0.12192083612615241
1782831892532708600,8.37070849609375,-0.08185936804115772,-0.029917145488411186,0.055006487227883184
1782831892542637600,8.380637451171875,-0.03785246853232384,-0.014889599161222577,0.03619408859973773
1782831892552566500,8.39056640625,-0.021849428236484527,-0.08354527530148625,0.05610895031075924
1782831892562495500,8.40049560546875,-0.044940380966663356,-0.10110694321617483,0.06475961854979395
1782831892572424700,8.4104248046875,-0.09785714763998984,-0.10907945646531879,0.09611792102353647
1782831892582353700,8.420353759765625,-0.05975859539210796,-0.10166253127232193,0.06487781983567402
1782831892592282600,8.43028271484375,-0.033576106387376785,-0.02286379291079938,0.017271032671350984
1782831892602211600,8.440211669921876,-0.024331308180093762,-0.0389411405518651,-0.012556023380812256
1782831892612140500,8.450140625,-0.022406477597355843,-0.07294314420111477,0.028074732492119073
1782831892622069500,8.460069580078125,-0.0493044213950634,-0.11870119822621344,0.09101818673172965
1782831892631998500,8.46999853515625,-0.10196166034936904,-0.1736611611649394,0.09659226053701712
1782831892641927400,8.479927490234376,-0.12028349898159503,-0.16616130692884326,0.00448366648638621
1782831892651856600,8.489856689453125,-0.11035481016337871,-0.12245441327989101,-0.06703465080969036
1782831892661785600,8.49978564453125,-0.06866437090337275,-0.10812193654477596,-0.020402900956291704
1782831892671715600,8.509715576171875,-0.0940115781277418,-0.13713110034279524,-0.015971110787615178
1782831892681644800,8.519644775390624,-0.10004735116064548,-0.17216639256253838,0.060877388555277134
1782831892691573500,8.529573486328125,-0.11561726073622702,-0.1472726281940937,0.06451521533466875
1782831892701502500,8.53950244140625,-0.08659048821628093,-0.11718516764007508,0.0037553522118367252
1782831892711431400,8.549431396484374,-0.0670072513461113,-0.0855675018440932,0.027637857178505507
1782831892721360600,8.559360595703126,-0.1039373443365097,-0.0915947262443602,0.04911646107491106
1782831892731289600,8.56928955078125,-0.05063713130354881,-0.07495265739262104,-0.0033786461202427744
1782831892741218600,8.579218505859375,-0.11137070920765399,-0.12391396443843841,0.047383298873063175
1782831892751147500,8.5891474609375,-0.1201414601624012,-0.17033077463321386,0.0757297975112684
1782831892761076700,8.59907666015625,-0.09235796570181846,-0.16867752753347157,0.05479901848966255
1782831892771005700,8.609005615234375,-0.023103812211751937,-0.15471300732791424,0.029245036646816876
1782831892780934700,8.6189345703125,-0.02008651021718979,-0.166588884691149,0.059102487837243825
1782831892790863000,8.628863037109374,0.04105681753158569,-0.16205277563147247,0.03909956425027922
1782831892800792300,8.638792236328126,0.13183482056558132,-0.14514694127701222,-0.053032374143321064
1782831892810721300,8.64872119140625,-0.17661971870958804,-0.20270115849263964,-0.05389560337653383
1782831892820650000,8.65864990234375,0.0036404023289680477,-0.2700371303364634,-0.02124950784826651
1782831892830579000,8.668578857421876,0.16656301959753037,0.04391863670349121,0.08234313297010958
1782831892840508200,8.678508056640625,-0.020347206979990005,0.04871799980923533,0.11146974913533776
1782831892850437000,8.68843701171875,-0.2231675348728895,-0.13191950317434967,-0.01022692284611985
1782831892860366000,8.698365966796874,-0.2913473371297121,-0.05166369787231087,-0.08784054307630285
1782831892870295000,8.708294921875,-0.1924590928763151,0.03769230953454971,-0.029094339597132056
1782831892880224300,8.718224365234375,-0.18519056317806243,0.01592244934029877,0.02328631090549752
1782831892890153200,8.7281533203125,-0.13652093255519865,-0.03880984232239425,0.07564180870056152
1782831892900082200,8.738082275390624,-0.08191898927390574,-0.05461677552424371,0.1136495591261424
1782831892910011100,8.74801123046875,-0.07680617630481719,-0.06715550071038305,0.0934174846921116
1782831892919941000,8.757941162109375,-0.09330430664122104,-0.10671192361637949,0.03678662939909846
1782831892929870000,8.7678701171875,-0.09216390443444251,-0.15169300191961227,-0.029547471925802527
1782831892939799000,8.777799072265625,-0.11171674616634845,-0.1766268791027367,-0.0446662584667094
1782831892949728000,8.78772802734375,-0.05393675737082958,-0.1851633098449558,0.0003257796219550073
1782831892959657200,8.7976572265625,-0.08279869471788406,-0.09925985404476523,0.07044297968214377
1782831892969586200,8.807586181640625,-0.0932622210651636,-0.017300605825707315,0.10092588756084442
1782831892979515100,8.81751513671875,-0.08004150496423244,0.03807546363323927,0.07350187406241894
1782831892989444000,8.827444091796876,-0.16154899082779883,0.0463448409371078,0.059725423774868246
1782831892999373300,8.837373291015625,-0.14170622623860835,0.014583090495318174,-0.08216885411543771
1782831893009302000,8.847302001953125,-0.11822364384233951,-0.0413390685390681,-0.02534790134411305
1782831893019231000,8.85723095703125,-0.07984393656551837,-0.07325330612882971,0.0729139363729395
1782831893029160000,8.867159912109376,-0.02131166809797287,-0.12009031449705361,0.11161359631912782
1782831893039089200,8.877089111328125,-0.00005728314518928528,-0.13292385791130362,0.08625168471597135
1782831893049018000,8.88701806640625,0.015853402692079542,-0.1454897633653134,0.002534066788572818
1782831893058947000,8.896947021484374,0.0276455472946167,-0.14084420258179306,-0.01999706010175869
1782831893068876000,8.9068759765625,0.004372808256745338,-0.11832812713012099,-0.027220992606459184
1782831893078805200,8.91680517578125,0.0033995793104171753,-0.11131481430195271,-0.02221556726829149
1782831893088734200,8.926734130859375,0.0036269583255052564,-0.08138707435429096,0.024824626388680188
1782831893098663200,8.9366630859375,-0.04895078565180301,-0.07474076820760965,-0.013094687701622023
1782831893108592000,8.946592041015625,-0.08846037374138832,-0.05586217247545719,-0.06836545188887976
1782831893118521000,8.95652099609375,-0.13184943361282347,-0.03950491191446781,-0.035024168037530036
1782831893128450000,8.966449951171874,-0.1579693787753582,-0.027579496321082114,-0.01849177010534331
1782831893138379000,8.97637890625,-0.09472294126749038,-0.009705109195411205,-0.03271802825331688
1782831893148308000,8.986307861328125,-0.07022387530505657,-0.03988331677280366,-0.0018856402166653424
1782831893158237200,8.9962373046875,-0.05153787953555584,-0.10784370412528514,0.019826352310506626
1782831893168166100,9.006166259765624,0.0041653029859066,-0.13248437051549553,0.07014862724491394
1782831893178096000,9.01609619140625,0.0008323591709136962,-0.1400925074316561,0.09479279163330794
1782831893188025300,9.026025390625,-0.004364624950289726,-0.13576288072951137,0.03971679196632467
1782831893197954300,9.035954345703125,-0.06314180808961391,-0.10073372598960995,-0.002155734995473176
1782831893207883000,9.045883056640625,-0.07569850732386112,-0.07050305757261813,-0.05797274402179755
1782831893217812000,9.05581201171875,-0.05432020373046398,-0.021280907633528114,-0.03181683249673806
1782831893227741200,9.0657412109375,-0.03684884444773197,-0.027206571355462072,0.059342589336587113
1782831893237670100,9.075670166015625,-0.03423427803516388,-0.05324504877962172,0.048839717359608036
1782831893247599000,9.08559912109375,-0.029595512318611142,-0.06702734428606927,0.036812448826944455
1782831893257528000,9.095528076171876,-0.07933949417471885,-0.1277849606528878,0.09741452757217921
1782831893267457000,9.10545703125,-0.06823065566122531,-0.11130473129935561,0.06469619792476296
1782831893277386200,9.11538623046875,-0.08303951773643493,-0.06052746087275445,0.013597202996816484
1782831893287315200,9.125315185546874,-0.12693594260811805,-0.05333104656264186,0.011671970555279403
1782831893297244200,9.135244140625,-0.19269231711030005,-0.05448628101237118,-0.005970955035230144
1782831893307173000,9.145173095703125,-0.12178688928186893,-0.039058044929802416,0.002672224017092958
1782831893317102000,9.15510205078125,-0.014731120663881301,0.002577449272572994,0.06438686711410992
1782831893327031000,9.165031005859374,-0.040734745970368386,-0.08048647225275635,0.09359125209013
1782831893336960000,9.1749599609375,-0.01669803682267666,-0.12999569550491868,0.02545747636554297
1782831893346889000,9.184888916015625,-0.06989303591549396,-0.16712722935155033,0.0017264493332710116
1782831893356818200,9.194818115234375,-0.006190086811780929,-0.17609174931272864,0.05630431761923246
1782831893366747100,9.2047470703125,0.05152502005398273,-0.11297924038283526,0.019913153811125083
1782831893376676000,9.214676025390625,-0.01896890436410904,-0.11456672876998782,0.008302895980980246
1782831893386605000,9.22460498046875,-0.11622983967661857,-0.09658413202948868,0.01572684000323061
1782831893396534300,9.2345341796875,-0.09518588260412215,-0.03278970525003969,0.0000653431540587917
1782831893406463200,9.244463134765626,-0.11031272458732128,0.026532106159999964,0.0042069867031648755
1782831893416392200,9.25439208984375,-0.15794541337788104,-0.009391586266830563,0.044033833181532096
1782831893426322200,9.264322265625,-0.148005034121871,-0.06314078517630696,0.08802910618465393
1782831893436251100,9.274251220703125,-0.08491700204610825,-0.06805924461707473,0.06599537545640487
1782831893446180000,9.28418017578125,-0.04511339944601059,-0.08154073054604231,0.08674554178067483
1782831893456109000,9.294109130859376,-0.08821312098205089,-0.10130575372390449,0.09112495330814271
1782831893466038300,9.304038330078125,-0.08171440661251544,-0.09655227558650076,0.04240155580458231
1782831893475967200,9.31396728515625,-0.008037175983190536,-0.048903074052557345,0.034580602688225916
1782831893485896200,9.323896240234374,-0.0648112026065588,-0.028718583353608846,0.06936433129969519
1782831893495825200,9.3338251953125,-0.11127250953018665,-0.06854534763358533,0.06205382105666212
1782831893505754000,9.343754150390625,-0.025568156498670575,-0.02999737111777067,-0.021308151833480223
1782831893515683000,9.35368310546875,-0.014523030871152877,-0.011431567661836744,-0.025897141857864334
1782831893525612000,9.363612060546876,-0.002263268756866455,-0.10311740625575185,0.015263396343099884
1782831893535541000,9.373541015625,0.007510521760582923,-0.10260529201515019,0.05257545612209942
1782831893545470200,9.38347021484375,-0.04540566039085388,-0.09448306809701025,0.08999456103872508
1782831893555399200,9.393399169921874,-0.1410416248500347,-0.0960900649022311,0.09846603678595274
1782831893565328100,9.403328125,-0.1642997508406639,-0.04376366533748805,0.026079992178059182
1782831893575257000,9.413257080078125,-0.1687783575594425,-0.0005862023901194334,-0.017014130734256467
1782831893585186000,9.42318603515625,-0.13848083445131779,-0.025679580983892083,0.021993544848333112
1782831893595115300,9.433115234375,-0.09990765042901038,-0.05102766499109566,0.06930660519651137
1782831893605044200,9.443044189453126,-0.05006722246110439,-0.09186484842263161,0.0934557069438044
1782831893614973200,9.45297314453125,-0.07473346168398856,-0.1488468187082559,0.07047814232707023
1782831893624902000,9.46290185546875,-0.02454933484494686,-0.1824677871506661,-0.059227685119491065
1782831893634831000,9.4728310546875,0.024496143352985382,-0.09808196937181055,-0.06994302623679395
1782831893644760000,9.482760009765625,0.03785246853232384,-0.07263444357812404,0.06003484591706656
1782831893654689000,9.49268896484375,-0.03863631238639355,-0.08000826028175652,0.10480874774302355
1782831893664618000,9.502617919921875,-0.09072773415148258,-0.07940430303923786,0.029906751958560195
1782831893674547200,9.512547119140624,-0.12414660415053366,-0.05625066033639013,-0.012463769386941567
1782831893684476200,9.52247607421875,-0.10434417157173156,-0.06362520769238472,0.03648325340519659
1782831893694406100,9.53240625,-0.09052665862143039,-0.07707542170025408,0.08779474030635319
1782831893704335000,9.542335205078125,-0.13613982428312302,-0.11179726405665277,0.10099399349414744
1782831893714264000,9.55226416015625,-0.08860358160436153,-0.09411986080780625,0.05260823958027176
1782831893724193000,9.562193115234376,-0.06268821910321712,-0.07024879055060446,-0.018784907833021135
1782831893734122000,9.5721220703125,-0.06463935317099094,-0.09240370453968644,-0.019020725882891564
1782831893744051200,9.58205126953125,-0.0459884287148714,-0.11026325942240654,0.017976208098907955
1782831893753980200,9.591980224609374,-0.04738952768445015,-0.11073569923974573,0.04473991279138718
1782831893763909000,9.6019091796875,-0.042569560182094575,-0.1174256253324449,0.023866015056171454
1782831893773838000,9.611838134765625,-0.05920271507501602,-0.09273483619019389,0.029996448669163508
1782831893783767300,9.621767333984375,-0.11369184563159943,-0.06997662254571914,0.09768827561279758
1782831893793696300,9.6316962890625,-0.139426006346941,-0.005218830626830458,0.1501562756053172
1782831893803625200,9.641625244140625,-0.1919844611018896,0.022081775687634943,0.09239971335115842
1782831893813554200,9.65155419921875,-0.20302257246673105,-0.02665259073451161,0.0355380175774917
1782831893823483000,9.66148291015625,-0.15735504626929758,-0.03716324415914714,0.07039894874417223
1782831893833412000,9.671412109375,-0.08525485569834709,-0.06791764418929815,0.11582186166392638
1782831893843341000,9.681341064453125,0.0021340894192457198,-0.0720076899819076,0.06989370720235165
1782831893853270000,9.69127001953125,0.02643032628595829,-0.08865962264053523,0.05086422719084657
1782831893863199000,9.701198974609374,0.043130701196193694,-0.10082257331684231,0.0913958609377034
1782831893873128200,9.711128173828126,0.051611529293656346,-0.05442183747403323,0.10828466195897199
1782831893883057200,9.72105712890625,0.009729951375722884,-0.04798559388145804,0.07053367190659046
1782831893892986000,9.730986083984375,-0.093802319291234,-0.08541654906608163,0.020105324515514073
1782831893902915000,9.7409150390625,-0.10350888979136944,-0.0797725518297404,0.012513499413337558
1782831893912844300,9.75084423828125,-0.14006196616292,-0.06397160997726023,0.04459211551826447
1782831893922773200,9.760773193359375,-0.16896072838902473,-0.10662059207111596,0.03894367956882343
1782831893932702000,9.770701904296875,-0.18099954122900963,-0.11200411174036562,0.034924388324329626
1782831893942631000,9.780630859375,-0.1518652166813612,-0.10776662030108272,0.004719575867801904
1782831893952560000,9.79056005859375,-0.12003332361280918,-0.08928213845305144,0.009778315995517187
1782831893962489000,9.800489013671875,-0.10761106441318988,-0.12406944726109503,0.07907170095085166
1782831893972419000,9.810419189453125,-0.12692717477977275,-0.141351567582041,0.039859241777472194
1782831893982348000,9.82034814453125,-0.07376549343466758,-0.12828611510805785,-0.005313267444632947
1782831893992277200,9.83027734375,-0.02977729862630367,-0.09974259606041014,-0.016429097387916407
1782831894002206200,9.840206298828125,-0.02290624381303787,-0.13541772055365145,0.017312547425250523
1782831894012135000,9.850135009765625,0.006160276195406913,-0.16412008342482148,-0.004136798410629854
1782831894022063900,9.86006396484375,0.03156067491173744,-0.12615239101499318,-0.026704590349807402
1782831894031993000,9.8699931640625,-0.05271101496815681,-0.15708960026614366,0.03674247059696354
1782831894041922000,9.879922119140625,-0.04946224230527878,-0.14612557705082,0.031138873869669622
1782831894051851000,9.88985107421875,0.12425532522201538,0.012172887548431753,-0.05124288777750916
1782831894061780000,9.899780029296876,0.4398649969488382,0.14820610965192318,0.04494760072531644
1782831894071709200,9.909709228515625,0.006332125630974769,0.00016220482438802718,0.1403160048560705
1782831894081638100,9.91963818359375,0.00011748889982700347,-0.1570486837338656,0.018323144673323258
1782831894091567000,9.929567138671874,-0.017418752312660216,0.07474193725138903,-0.019110002468386664
1782831894101496000,9.93949609375,-0.11436287676095962,0.059528659093752496,0.011389737814106047
1782831894111425300,9.94942529296875,-0.22476327963173387,-0.034339857301488516,0.03091872374638915
1782831894121354000,9.95935400390625,-0.2886883470535278,-0.03952332435399294,0.049180840681167313
1782831894131283000,9.969282958984374,-0.3453840477436781,-0.0683358696013689,0.057350913195870816
1782831894141212000,9.9792119140625,-0.38809740031063555,-0.06568696252778172,0.02305291314157657
1782831894151141000,9.98914111328125,-0.4221294337719679,-0.07228117316104471,0.009121043963450938
1782831894161070000,9.999070068359375,-0.22556349009871482,-0.1636198788177222,0.031176086907787247
1782831894170999000,10.0089990234375,-0.11451719053983687,-0.174175686558336,0.09588003888074308
1782831894180928000,10.018927978515626,-0.2990367225885391,-0.18590148792639374,0.10495707930568605
