time,seconds_elapsed,z,y,x
1782831884251874600,0.08987451171875,-0.05019224435091019,-0.17140480875968933,0.14111515879631042
1782831884261803300,0.09980322265625,-0.0433332696557045,-0.1425103098154068,0.08734728395938873
1782831884271732200,0.109732177734375,-0.04370971769094467,-0.12317854166030884,0.04214892163872719
1782831884281661200,0.1196611328125,-0.046734798699617386,-0.10049586743116379,0.008866064250469208
1782831884291590100,0.129590087890625,-0.044124335050582886,-0.07449586689472198,-0.023782901465892792
1782831884301519400,0.139519287109375,-0.030872445553541183,-0.04776758328080177,-0.02545217052102089
1782831884311448300,0.1494482421875,-0.03497908264398575,-0.013971623033285141,-0.008161095902323723
1782831884321378300,0.15937841796875,-0.06585097312927246,0.0023183999583125114,0.02027107961475849
1782831884331307500,0.1693076171875,-0.11157112568616867,0.011747118085622787,0.0518118180334568
1782831884341236500,0.179236572265625,-0.15565761923789978,0.0317290835082531,0.07746578007936478
1782831884351165200,0.189165283203125,-0.18097391724586487,0.0377114936709404,0.07381419092416763
1782831884361094100,0.19909423828125,-0.17073673009872437,0.015953734517097473,0.053431957960128784
1782831884371023400,0.2090234375,-0.13955646753311157,-0.027898769825696945,0.014839788898825645
1782831884380952300,0.218952392578125,-0.09690728783607483,-0.05201555788516998,-0.03471551090478897
1782831884390881300,0.22888134765625,-0.050985515117645264,-0.046127792447805405,-0.06080971658229828
1782831884400810200,0.238810302734375,-0.019044097512960434,-0.019279399886727333,-0.04778100177645683
1782831884410739500,0.248739501953125,0.004038439132273197,0.019150029867887497,-0.0018804734572768211
1782831884420668400,0.25866845703125,0.019874660298228264,0.036530617624521255,0.033626388758420944
1782831884430597400,0.268597412109375,0.02950451336801052,0.01848691888153553,0.0415143221616745
1782831884440526300,0.2785263671875,0.02931729331612587,-0.007497011683881283,0.04293591529130936
1782831884450455600,0.28845556640625,0.0053413305431604385,0.0018169060349464417,0.05540306493639946
1782831884460384300,0.29838427734375,-0.02123595029115677,0.007468933239579201,0.07437169551849365
1782831884470313200,0.308313232421875,-0.041101351380348206,0.0041961222887039185,0.07710864394903183
1782831884480243500,0.318243408203125,-0.039538342505693436,-0.0028721746057271957,0.04783810302615166
1782831884490172400,0.32817236328125,-0.020932737737894058,-0.01069717202335596,-0.014782456681132317
1782831884500101400,0.338101318359375,-0.0005515655502676964,-0.02174476347863674,-0.08728674799203873
1782831884510030300,0.3480302734375,0.010691851377487183,-0.0219230055809021,-0.12477757781744003
1782831884519959600,0.35795947265625,0.0104359220713377,-0.015751928091049194,-0.12206248193979263
1782831884529888500,0.367888427734375,0.017883386462926865,0.0070806145668029785,-0.08436328917741776
1782831884539817200,0.377817138671875,0.029084108769893646,0.014392588287591934,-0.03253177925944328
1782831884549746200,0.38774609375,0.031090497970581055,0.005499265156686306,0.01814982108771801
1782831884559675100,0.397675048828125,0.025372691452503204,-0.02592310681939125,0.05231337994337082
1782831884569604400,0.407604248046875,0.011905563995242119,-0.0590856671333313,0.07218481600284576
1782831884579533300,0.417533203125,0.0057893479242920876,-0.07287019491195679,0.06895679980516434
1782831884589462300,0.427462158203125,0.005983015056699514,-0.06426889449357986,0.054824478924274445
1782831884599391200,0.43739111328125,0.012638254091143608,-0.04704463854432106,0.045855216681957245
1782831884609320400,0.447320556640625,0.012296662665903568,-0.024761930108070374,0.038814838975667953
1782831884619249400,0.45724951171875,0.005831573158502579,0.00009574834257364273,0.024141620844602585
1782831884629178400,0.467178466796875,-0.0062828706577420235,0.010889803990721703,-0.008431525900959969
1782831884639108400,0.4771083984375,-0.019284687936306,0.03927776962518692,-0.04580100253224373
1782831884649037300,0.487037353515625,-0.03481847047805786,0.058279238641262054,-0.0805308148264885
1782831884658966300,0.49696630859375,-0.03211429715156555,0.05811705440282822,-0.09948533028364182
1782831884668895200,0.506895263671875,-0.028336701914668083,0.05157922953367233,-0.09536775201559067
1782831884678824400,0.516824462890625,-0.02812844328582287,0.03389344736933708,-0.08373665809631348
1782831884688753400,0.52675341796875,-0.0089662354439497,0.011235708370804787,-0.06617876142263412
1782831884698682400,0.536682373046875,0.005640936084091663,0.0029072044417262077,-0.04213441163301468
1782831884708611300,0.546611328125,0.014536730013787746,-0.02016180008649826,-0.010983359068632126
1782831884718540500,0.55654052734375,0.015466440469026566,-0.023729903623461723,0.040585827082395554
1782831884728469200,0.56646923828125,0.017340507358312607,-0.018246987834572792,0.08922100067138672
1782831884738398200,0.576398193359375,0.016065385192632675,-0.02449050173163414,0.11707819998264313
1782831884748327200,0.5863271484375,0.018170569092035294,-0.03280564397573471,0.10634467750787735
1782831884758256400,0.59625634765625,0.01910347305238247,-0.01727488823235035,0.054907847195863724
1782831884768185300,0.606185302734375,0.02494572289288044,-0.004429866559803486,-0.0219871886074543
1782831884778114300,0.6161142578125,0.027551360428333282,0.009608986787497997,-0.08358769863843918
1782831884788043500,0.62604345703125,0.017887162044644356,0.028033915907144547,-0.10198646783828735
1782831884797973800,0.635973876953125,0.004791067447513342,0.02557608112692833,-0.08481573313474655
1782831884807902500,0.64590234375,-0.000002457760274410248,0.014973475597798824,-0.03923911973834038
1782831884817831400,0.65583154296875,0.008607009425759315,-0.0045948997139930725,0.003965341951698065
1782831884827760600,0.6657607421875,0.019581500440835953,-0.039802826941013336,0.03299937769770622
1782831884837689600,0.675689697265625,0.024896904826164246,-0.06493960320949554,0.049568500369787216
1782831884847618600,0.68561865234375,0.03073938377201557,-0.04386964440345764,0.06370861083269119
1782831884857547500,0.695547607421875,0.0319410040974617,-0.006610420998185873,0.07549203187227249
1782831884867476500,0.7054765625,0.03778303042054176,0.03159664571285248,0.062007270753383636
1782831884877405700,0.71540576171875,0.037435222417116165,0.055702779442071915,0.018290948122739792
1782831884887334700,0.725334716796875,0.03046191856265068,0.04687713459134102,-0.04321352392435074
1782831884897263600,0.735263671875,0.0049429768696427345,0.015257691033184528,-0.09529616683721542
1782831884907192600,0.745192626953125,-0.019826799631118774,-0.02587525174021721,-0.11466069519519806
1782831884917121500,0.75512158203125,-0.03760978952050209,-0.04849347844719887,-0.10175368934869766
1782831884927050500,0.765050537109375,-0.029757481068372726,-0.050266724079847336,-0.06585465371608734
1782831884936979500,0.7749794921875,-0.012241602875292301,-0.03903910517692566,-0.03142104297876358
1782831884946908400,0.784908447265625,0.015213292092084885,-0.030403506010770798,-0.012588037177920341
1782831884956838700,0.794838623046875,0.03527222201228142,-0.03132788836956024,-0.00023949239403009415
1782831884966767600,0.804767578125,0.04068019241094589,-0.010412778705358505,0.004185445141047239
1782831884976696600,0.814696533203125,0.042790479958057404,0.012457117438316345,-0.006487439386546612
1782831884986625800,0.824625732421875,0.034483641386032104,0.028514156118035316,-0.029195722192525864
1782831884996554500,0.834554443359375,0.020959576591849327,0.021349189803004265,-0.05689739063382149
1782831885006483500,0.8444833984375,0.019414052367210388,0.0002955254167318344,-0.0744561031460762
1782831885016412400,0.854412353515625,0.022581350058317184,-0.029717767611145973,-0.07708251476287842
1782831885026341600,0.864341552734375,0.01535765454173088,-0.0495174303650856,-0.04997178539633751
1782831885036270600,0.8742705078125,-0.0023758020251989365,-0.05895354226231575,-0.018479373306035995
1782831885046199600,0.884199462890625,-0.01694881170988083,-0.05541907250881195,-0.002629457972943783
1782831885056128500,0.89412841796875,-0.022997114807367325,-0.021614767611026764,-0.004437477793544531
1782831885066057700,0.9040576171875,-0.01132282055914402,0.015483532100915909,-0.0265951044857502
1782831885075986700,0.913986572265625,0.012750823982059956,0.04848435893654823,-0.058778341859579086
1782831885085915600,0.92391552734375,0.026666896417737007,0.047802604734897614,-0.08585414290428162
1782831885095844600,0.9338447265625,0.02723068743944168,0.021451957523822784,-0.08991120010614395
1782831885105773600,0.943773681640625,0.024710969999432564,-0.007912622764706612,-0.07375212758779526
1782831885115702500,0.95370263671875,0.014981377869844437,-0.025262583047151566,-0.0369642898440361
1782831885125632500,0.963632568359375,0.017980316653847694,-0.026846054941415787,0.009494360536336899
1782831885135561500,0.9735615234375,0.026512285694479942,-0.02608199417591095,0.06447186321020126
1782831885145490700,0.98349072265625,0.01616869680583477,-0.023480214178562164,0.10325894504785538
1782831885155419600,0.993419677734375,0.001027827151119709,-0.0062098815105855465,0.11253633350133896
1782831885165348600,1.0033486328125,0.0060930498875677586,0.00720576848834753,0.08255963027477264
1782831885175277600,1.013277587890625,0.020030969753861427,0.012159514240920544,0.02727879397571087
1782831885185206500,1.02320654296875,0.039446551352739334,-0.005079467315226793,-0.03427500277757645
1782831885195135500,1.033135498046875,0.047410737723112106,-0.010246265679597855,-0.08106301724910736
1782831885205064400,1.043064453125,0.03231140971183777,-0.003587564453482628,-0.10145057737827301
1782831885214993400,1.052993408203125,0.0054816617630422115,-0.01069580763578415,-0.09932457655668259
1782831885224922600,1.062922607421875,-0.01816524565219879,-0.017920132726430893,-0.07988623529672623
1782831885234851600,1.0728515625,-0.03862125054001808,-0.025282440707087517,-0.05746081843972206
1782831885244780500,1.082780517578125,-0.042076077312231064,-0.03266334906220436,-0.04443880543112755
1782831885254709500,1.09270947265625,-0.03868480771780014,-0.032151225954294205,-0.023098094388842583
1782831885264638700,1.102638671875,-0.032035503536462784,-0.02416645921766758,0.010170536115765572
1782831885274567700,1.112567626953125,-0.02044542506337166,-0.008035426028072834,0.04300438240170479
1782831885284496600,1.12249658203125,0.00326472707092762,-0.00960551667958498,0.0649193599820137
1782831885294426600,1.132426513671875,0.033555787056684494,-0.016597112640738487,0.07094023376703262
1782831885304355600,1.14235546875,0.05647023767232895,-0.03231438249349594,0.06474100053310394
1782831885314284500,1.152284423828125,0.05798797309398651,-0.053634051233530045,0.04970000311732292
1782831885324213500,1.162213623046875,0.037152402102947235,-0.07254733145236969,0.0155564546585083
1782831885334142700,1.172142822265625,-0.0026317602023482323,-0.07509118318557739,-0.018301110714673996
1782831885344071700,1.18207177734375,-0.043462563306093216,-0.040572356432676315,-0.04520172253251076
1782831885354000600,1.192000732421875,-0.06532099843025208,0.008009026758372784,-0.057051725685596466
1782831885363929600,1.2019296875,-0.06604243069887161,0.04358551651239395,-0.06569727510213852
1782831885373858800,1.21185888671875,-0.058900363743305206,0.06155439466238022,-0.07315998524427414
1782831885383787500,1.22178759765625,-0.05319280922412872,0.06090950593352318,-0.06171400099992752
1782831885393716500,1.231716552734375,-0.038571521639823914,0.02224760130047798,-0.043573614209890366
1782831885403645400,1.2416455078125,-0.014460519887506962,-0.022389182820916176,-0.017398886382579803
1782831885413574700,1.25157470703125,0.010538306087255478,-0.04529103636741638,0.016600092872977257
1782831885423503600,1.261503662109375,0.030014745891094208,-0.04533691331744194,0.05072770640254021
1782831885433432600,1.2714326171875,0.02727115899324417,-0.039097923785448074,0.07006758451461792
1782831885443361500,1.281361572265625,0.010788772255182266,-0.012275159358978271,0.06942017376422882
1782831885453290500,1.29129052734375,-0.0058573149144649506,0.017783140763640404,0.042316656559705734
1782831885463220500,1.301220458984375,0.0021612970158457756,0.03806048259139061,-0.003858633106574416
1782831885473149400,1.3111494140625,0.025659166276454926,0.05911729484796524,-0.028623368591070175
1782831885483078400,1.321078369140625,0.025905922055244446,0.0782218724489212,-0.022495470941066742
1782831885493007600,1.331007568359375,0.01846211962401867,0.08661455661058426,0.0005728299729526043
1782831885502936600,1.3409365234375,0.004003570880740881,0.08679629862308502,0.030960138887166977
1782831885512865500,1.350865478515625,0.01514597050845623,0.07472339272499084,0.04693857207894325
1782831885522794500,1.36079443359375,0.034908149391412735,0.05147193372249603,0.04959230124950409
1782831885532723700,1.3707236328125,0.047609299421310425,0.007265593856573105,0.04662767052650452
1782831885542652700,1.380652587890625,0.045834824442863464,-0.06207844987511635,0.03048505075275898
1782831885552581600,1.39058154296875,0.041513312608003616,-0.12255723774433136,0.0227203369140625
1782831885562510600,1.400510498046875,0.02859005704522133,-0.14841946959495544,0.022765876725316048
1782831885572439600,1.410439453125,0.031752560287714005,-0.15174628794193268,0.028951069340109825
1782831885582368500,1.420368408203125,0.06382438540458679,-0.10200446844100952,0.03139792010188103
1782831885592297500,1.43029736328125,0.09852057695388794,-0.0336802713572979,0.03128127381205559
1782831885602226400,1.440226318359375,0.10733604431152344,0.03177476301789284,0.03580809757113457
1782831885612155600,1.45015576171875,0.08837459981441498,0.08196203410625458,0.040001511573791504
1782831885622085600,1.460085693359375,0.05792117863893509,0.0911296159029007,0.041011739522218704
1782831885632014600,1.4700146484375,0.012762486934661865,0.07643748819828033,0.04325065761804581
1782831885641943800,1.47994384765625,-0.03406437858939171,0.025254301726818085,0.045259028673172
1782831885651872500,1.48987255859375,-0.06944714486598969,-0.04231062904000282,0.03276960179209709
1782831885661801500,1.499801513671875,-0.07699138671159744,-0.07572406530380249,0.008608311414718628
1782831885671730400,1.50973046875,-0.06751266866922379,-0.06933034956455231,-0.01857244409620762
1782831885681659600,1.51965966796875,-0.0383109375834465,-0.03881481662392616,-0.05649552121758461
1782831885691588600,1.529588623046875,0.0016298210248351097,-0.027521947398781776,-0.09296058863401413
1782831885701517600,1.539517578125,0.0391409769654274,-0.032330550253391266,-0.1070319339632988
1782831885711446500,1.549446533203125,0.0559399276971817,-0.02037295699119568,-0.09790287911891937
1782831885721375500,1.55937548828125,0.057896628975868225,0.019289158284664154,-0.04743586853146553
1782831885731304700,1.5693046875,0.04196666553616524,0.047701358795166016,0.02400529384613037
1782831885741233700,1.579233642578125,-0.0025836946442723274,0.03590429201722145,0.07477833330631256
1782831885751162600,1.58916259765625,-0.053101733326911926,-0.02915167436003685,0.08288072794675827
1782831885761091600,1.599091552734375,-0.0790194422006607,-0.10594155639410019,0.05024908855557442
1782831885771020500,1.6090205078125,-0.07939015328884125,-0.12378047406673431,-0.0075854468159377575
1782831885780951300,1.618951416015625,-0.05442790314555168,-0.0718918889760971,-0.06315743923187256
1782831885790880300,1.62888037109375,-0.02113785594701767,-0.0038225557655096054,-0.11724917590618134
1782831885800809200,1.638809326171875,0.026997245848178864,0.037300173193216324,-0.14459533989429474
1782831885810738400,1.648738525390625,0.0594787560403347,0.04864470660686493,-0.12665389478206635
1782831885820667400,1.65866748046875,0.06649573892354965,0.038049906492233276,-0.08239083737134933
1782831885830596000,1.66859619140625,0.061275944113731384,0.010374333709478378,-0.01400192640721798
1782831885840525000,1.678525146484375,0.03551730513572693,-0.012635496445000172,0.06963212043046951
1782831885850454300,1.688454345703125,-0.013036380521953106,-0.021422596648335457,0.1345788985490799
1782831885860383200,1.69838330078125,-0.05755147337913513,-0.0270532313734293,0.15927831828594208
1782831885870312200,1.708312255859375,-0.0814586728811264,-0.04800271987915039,0.13284990191459656
1782831885880241200,1.7182412109375,-0.07462476193904877,-0.044092509895563126,0.06172610819339752
1782831885890170400,1.72817041015625,-0.05089600011706352,-0.027053870260715485,-0.0224127359688282
1782831885900099300,1.738099365234375,-0.02373666688799858,-0.0057023875415325165,-0.07315531373023987
1782831885910028300,1.7480283203125,0.01372468750923872,0.0166548490524292,-0.07766963541507721
1782831885919957200,1.757957275390625,0.042784933000802994,0.038966450840234756,-0.045086294412612915
1782831885929886500,1.767886474609375,0.06306464225053787,0.038484420627355576,-0.007231858093291521
1782831885939815200,1.777815185546875,0.06883788853883743,0.01999816857278347,0.03348816558718681
1782831885949745200,1.7877451171875,0.05045115947723389,-0.014320392161607742,0.05344828963279724
1782831885959674400,1.79767431640625,0.02426520362496376,-0.022929303348064423,0.062485095113515854
1782831885969603300,1.807603271484375,-0.007071147672832012,-0.03195289522409439,0.05192939192056656
1782831885979532300,1.8175322265625,-0.030254673212766647,-0.04990335553884506,0.03004269488155842
1782831885989461200,1.827461181640625,-0.042153410613536835,-0.05891469120979309,-0.00584659818559885
1782831885999390500,1.837390380859375,-0.03273336589336395,-0.0588444247841835,-0.0555185042321682
1782831886009319400,1.8473193359375,-0.008736423216760159,-0.0508594736456871,-0.11161160469055176
1782831886019248000,1.857248046875,0.008201372809708118,-0.05740148574113846,-0.153372660279274
1782831886029177000,1.867177001953125,0.014605742879211903,-0.07710035890340805,-0.16914816200733185
1782831886039106000,1.87710595703125,0.016469892114400864,-0.0955280289053917,-0.15267826616764069
1782831886049035300,1.88703515625,0.01722116954624653,-0.08951275050640106,-0.10294905304908752
1782831886058964200,1.896964111328125,0.019261563196778297,-0.05893608182668686,-0.03839726373553276
1782831886068893200,1.90689306640625,0.01579013280570507,-0.04231422767043114,0.008098864927887917
1782831886078822100,1.916822265625,0.02423328161239624,-0.02452976629137993,0.021706566214561462
1782831886088751400,1.92675146484375,0.03273302689194679,-0.031117361038923264,0.0298683550208807
1782831886098681000,1.93668115234375,0.037148475646972656,-0.06683000922203064,0.04257578030228615
1782831886108610000,1.946610107421875,0.040204718708992004,-0.11149042844772339,0.07150276750326157
1782831886118539300,1.956539306640625,0.0374094620347023,-0.1416666954755783,0.08562257885932922
1782831886128468200,1.96646826171875,0.038134291768074036,-0.1356181800365448,0.07860250771045685
1782831886138397200,1.976397216796875,0.023218855261802673,-0.07777844369411469,0.0425848662853241
1782831886148326100,1.986326171875,0.014978770166635513,-0.0244292039424181,-0.011393945664167404
1782831886158255400,1.99625537109375,0.016091858968138695,0.005338254384696484,-0.0606444850564003
1782831886168184300,2.006184326171875,0.020181141793727875,0.022180616855621338,-0.08118544518947601
1782831886178113300,2.01611328125,0.017972484230995178,0.027931947261095047,-0.0610625334084034
1782831886188042200,2.026042236328125,0.008149680681526661,0.03854118287563324,-0.023699183017015457
1782831886197971500,2.035971435546875,0.003258279524743557,0.037884023040533066,0.009446604177355766
1782831886207900200,2.045900146484375,-0.0012272829189896584,0.010319770313799381,0.027793386951088905
1782831886217829000,2.0558291015625,-0.020295128226280212,-0.018702544271945953,0.029536839574575424
1782831886227758000,2.065758056640625,-0.04629557207226753,-0.02890457957983017,0.012032147496938705
1782831886237687300,2.075687255859375,-0.0636943057179451,-0.0044201090931892395,-0.020535176619887352
1782831886247616300,2.0856162109375,-0.049237869679927826,0.0314665213227272,-0.05475866049528122
1782831886257545200,2.095545166015625,-0.023008044809103012,0.04407770186662674,-0.06921644508838654
1782831886267475500,2.105475341796875,-0.00443302933126688,0.024619316682219505,-0.052785541862249374
1782831886277404400,2.115404296875,0.016650278121232986,-0.012169450521469116,-0.008764538913965225
1782831886287333400,2.12533349609375,0.020209860056638718,-0.029086116701364517,0.05770024284720421
1782831886297262000,2.135261962890625,0.004231416620314121,-0.030423946678638458,0.09912210702896118
1782831886307191000,2.14519091796875,-0.004802558571100235,-0.025404687970876694,0.0988248959183693
1782831886317120300,2.155120361328125,-0.014421134255826473,-0.02236531861126423,0.07038974016904831
1782831886327049200,2.16504931640625,-0.023798923939466476,-0.00669767614454031,0.03174354135990143
1782831886336978200,2.174978271484375,-0.027426082640886307,-0.0018188301473855972,0.0035533239133656025
1782831886346907100,2.1849072265625,-0.027522224932909012,-0.005792798940092325,0.01609281823039055
1782831886356836400,2.19483642578125,-0.03966370224952698,-0.01817663386464119,0.06876454502344131
1782831886366765300,2.204765380859375,-0.04260516166687012,-0.03520408645272255,0.13738727569580078
1782831886376694300,2.2146943359375,-0.04670892283320427,-0.040671057999134064,0.17889535427093506
1782831886386623200,2.224623291015625,-0.028491567820310593,-0.031293801963329315,0.17428888380527496
1782831886396552400,2.234552490234375,0.001796049065887928,-0.0010905200615525246,0.14030252397060394
1782831886406481200,2.244481201171875,0.027853481471538544,0.034322865307331085,0.09761898219585419
1782831886416410000,2.25441015625,0.037423864006996155,-0.0006447471678256989,0.05490659922361374
1782831886426340400,2.26434033203125,0.03606565296649933,0.011219901964068413,0.024787044152617455
1782831886436269300,2.274269287109375,0.026999883353710175,0.006525782868266106,0.005172134842723608
1782831886446198300,2.2841982421875,0.0009453799575567245,-0.018317781388759613,-0.007077873218804598
1782831886456127200,2.294127197265625,-0.040446992963552475,-0.030171183869242668,-0.009253989905118942
1782831886466056400,2.304056396484375,-0.0691545382142067,-0.0275421105325222,-0.02705455757677555
1782831886475985400,2.3139853515625,-0.06798629462718964,-0.012688788585364819,-0.05795291066169739
1782831886485914000,2.3239140625,-0.045600295066833496,0.008989342488348484,-0.07360244542360306
1782831886495843000,2.333843017578125,-0.022833462804555893,0.035194046795368195,-0.0556040033698082
1782831886505772300,2.343772216796875,-0.003789197653532028,0.04863448813557625,-0.003279015887528658
1782831886515701200,2.353701171875,0.01610827073454857,0.041100211441516876,0.056764766573905945
1782831886525630200,2.363630126953125,0.02796466462314129,0.02312920242547989,0.09042152762413025
1782831886535559200,2.37355908203125,0.02675974927842617,-0.013238957151770592,0.08551019430160522
1782831886545488400,2.38348828125,0.01300825085490942,-0.03999333828687668,0.05310405418276787
1782831886555417300,2.393417236328125,-0.022891122847795486,-0.04789511114358902,0.005372542422264814
1782831886565346300,2.40334619140625,-0.05092089623212814,-0.05871632695198059,-0.05186118558049202
1782831886575275300,2.413275146484375,-0.055584874004125595,-0.05277083069086075,-0.08902348577976227
1782831886585205200,2.423205322265625,-0.03740507364273071,-0.0183635875582695,-0.09512639045715332
1782831886595134200,2.43313427734375,-0.008117632940411568,0.034829460084438324,-0.0867970734834671
1782831886605063200,2.443063232421875,0.015084890648722649,0.06296443194150925,-0.07957538217306137
1782831886614992100,2.4529921875,0.024221252650022507,0.05730695277452469,-0.06204109266400337
1782831886624921300,2.46292138671875,0.014095380902290344,0.031038066372275352,-0.03380226343870163
1782831886634850300,2.472850341796875,0.01018433552235365,0.005573378875851631,0.008246498182415962
1782831886644779300,2.482779296875,0.018489670008420944,-0.004870207980275154,0.055804960429668427
1782831886654708200,2.492708251953125,0.018071681261062622,-0.025758840143680573,0.07381168007850647
1782831886664637400,2.502637451171875,0.010492592118680477,-0.03243405371904373,0.07700427621603012
1782831886674566100,2.512566162109375,-0.015399147756397724,-0.027491670101881027,0.05355143919587135
1782831886684495000,2.5224951171875,-0.026877373456954956,-0.026050101965665817,0.01779797114431858
1782831886694424000,2.532424072265625,-0.026801643893122673,-0.01591247320175171,-0.01788390427827835
1782831886704353300,2.542353271484375,-0.018682999536395073,0.010535113513469696,-0.047220487147569656
1782831886714282200,2.5522822265625,-0.003612630069255829,0.01832931488752365,-0.06053697690367699
1782831886724211200,2.562211181640625,0.013493119738996029,0.0015777656808495522,-0.055299337953329086
1782831886734140200,2.57214013671875,0.025348547846078873,-0.005099280271679163,-0.02324959635734558
1782831886744070400,2.5820703125,0.023569025099277496,-0.005034032743424177,0.018655508756637573
1782831886753999400,2.591999267578125,0.020806822925806046,-0.012125658802688122,0.04747365787625313
1782831886763928000,2.601927978515625,0.02234559692442417,-0.016851704567670822,0.0643591582775116
1782831886773857300,2.611857177734375,0.0064232912845909595,-0.015501683577895164,0.04701758176088333
1782831886783789300,2.621789306640625,-0.013245752081274986,-0.030019639059901237,0.012494226917624474
1782831886793718300,2.63171826171875,-0.03455641120672226,-0.04035332426428795,-0.02298469841480255
1782831886803647200,2.641647216796875,-0.04924055188894272,-0.0389823280274868,-0.0457368828356266
1782831886813576200,2.651576171875,-0.03673610836267471,-0.022931957617402077,-0.05725112929940224
1782831886823505400,2.66150537109375,-0.016604740172624588,0.008470440283417702,-0.05652861297130585
1782831886833434400,2.671434326171875,0.0031094811856746674,0.03394379839301109,-0.06500221788883209
1782831886843363300,2.68136328125,0.019898314028978348,0.012696034274995327,-0.05951477214694023
1782831886853292300,2.691292236328125,0.006649990566074848,-0.0024373456835746765,-0.029398754239082336
1782831886863221500,2.701221435546875,-0.025180909782648087,-0.044009290635585785,0.014772702008485794
1782831886873150500,2.711150390625,-0.050053201615810394,-0.08043229579925537,0.051758915185928345
1782831886883079200,2.7210791015625,-0.05862325429916382,-0.0938735380768776,0.061761751770973206
1782831886893008100,2.731008056640625,-0.03874023258686066,-0.08165843039751053,0.05288021266460419
1782831886902938400,2.7409384765625,-0.01435206737369299,-0.05716933310031891,0.03188358247280121
1782831886912867300,2.750867431640625,0.010503171011805534,-0.02724453993141651,0.010173998773097992
1782831886922796300,2.76079638671875,0.019468169659376144,-0.0070684319362044334,-0.014457577839493752
1782831886932725500,2.7707255859375,0.022357791662216187,0.0007248241454362869,-0.04349566251039505
1782831886942654500,2.780654541015625,0.014424767345190048,-0.001963636837899685,-0.062062155455350876
1782831886952583400,2.79058349609375,0.0006432952359318733,-0.013752116821706295,-0.0767807811498642
1782831886962512100,2.80051220703125,-0.021563207730650902,-0.02049124613404274,-0.05627843365073204
1782831886972441300,2.81044140625,-0.04113901033997536,-0.014871335588395596,-0.009691137820482254
1782831886982370300,2.820370361328125,-0.042453281581401825,-0.022542305290699005,0.045770253986120224
1782831886992299300,2.83029931640625,-0.03651834651827812,-0.016372641548514366,0.09328113496303558
1782831887002228200,2.840228271484375,-0.02663775160908699,-0.012149667367339134,0.10242803394794464
1782831887012157400,2.850157470703125,-0.0003991127014160156,-0.01331423781812191,0.07669727504253387
1782831887022086400,2.86008642578125,0.01689944975078106,-0.019114868715405464,0.026080969721078873
1782831887032015400,2.870015380859375,0.027861975133419037,-0.011415557004511356,-0.027046434581279755
1782831887041944300,2.8799443359375,0.022135380655527115,-0.00458028819411993,-0.07142961025238037
1782831887051873500,2.88987353515625,0.009491381235420704,0.005333960056304932,-0.08472365885972977
1782831887061803300,2.89980322265625,0.0007833773270249367,0.014182046055793762,-0.0735037550330162
1782831887071732200,2.909732177734375,-0.0034401845186948776,0.016945667564868927,-0.0458051823079586
1782831887081661200,2.9196611328125,-0.017277970910072327,0.03470601886510849,-0.004674523137509823
1782831887091590400,2.92959033203125,-0.03085608035326004,0.02357066050171852,0.022200075909495354
1782831887101519400,2.939519287109375,-0.04109193757176399,-0.009132158942520618,0.03500295430421829
1782831887111448300,2.9494482421875,-0.05354457348585129,-0.05738801136612892,0.03279551863670349
1782831887121377300,2.959377197265625,-0.04629092663526535,-0.05998485907912254,0.03061278909444809
1782831887131306500,2.969306396484375,-0.02606692537665367,-0.04964921623468399,0.02328134886920452
1782831887141235500,2.9792353515625,-0.0078082941472530365,-0.026459474116563797,0.0035973922349512577
1782831887151164400,2.989164306640625,0.004217907786369324,-0.0030607031658291817,-0.014370618388056755
1782831887161093000,2.999093017578125,0.0026602251455187798,0.019709322601556778,-0.01765482872724533
1782831887171022300,3.009022216796875,-0.004286299459636211,0.03041796386241913,-0.020397640764713287
1782831887180951300,3.018951416015625,-0.0041771093383431435,0.01466057263314724,-0.010458724573254585
1782831887190880300,3.02888037109375,-0.002864684909582138,-0.002523099072277546,0.00435148598626256
1782831887200809200,3.038809326171875,-0.002569606527686119,-0.01629803329706192,0.02382691763341427
1782831887210738400,3.048738525390625,-0.005207872949540615,-0.02383064478635788,0.04666886478662491
1782831887220668400,3.05866845703125,-0.005247286520898342,-0.03441830724477768,0.05245351791381836
1782831887230597400,3.068597412109375,-0.0010222094133496284,-0.035147055983543396,0.04608900845050812
1782831887240526300,3.0785263671875,-0.004449698142707348,-0.025592433288693428,0.030377157032489777
1782831887250455300,3.088455322265625,-0.0053573595359921455,0.0021175500005483627,0.011499976739287376
1782831887260384300,3.09838427734375,-0.005722478963434696,0.034453120082616806,-0.01700996235013008
1782831887270313200,3.108313232421875,-0.005640857852995396,0.05214383825659752,-0.05686415359377861
1782831887280242400,3.118242431640625,-0.006772966124117374,0.057032596319913864,-0.07893403619527817
1782831887290171400,3.12817138671875,-0.021395647898316383,0.043377041816711426,-0.08143328875303268
1782831887300100400,3.138100341796875,-0.023113390430808067,0.02576369233429432,-0.06857820600271225
1782831887310029300,3.148029296875,-0.029850617051124573,0.015191040001809597,-0.0481242761015892
1782831887319958500,3.15795849609375,-0.028229549527168274,0.016888804733753204,-0.018716584891080856
1782831887329887500,3.167887451171875,-0.016325294971466064,0.00193682499229908,0.015800796449184418
1782831887339816400,3.17781640625,-0.00411257054656744,-0.026010122150182724,0.046047914773225784
1782831887349745200,3.1877451171875,-0.0020320340991020203,-0.038426779210567474,0.05929609015583992
1782831887359674000,3.197674072265625,0.00946616381406784,-0.022681638598442078,0.05399879440665245
1782831887369603300,3.207603271484375,0.00893423892557621,0.00363780464977026,0.03237290307879448
1782831887379533300,3.217533203125,0.004367982503026724,0.02309485897421837,0.002081043552607298
1782831887389462300,3.227462158203125,-0.008891346864402294,0.02510739117860794,-0.020384903997182846
1782831887399391500,3.2373916015625,-0.011192849837243557,0.0165003202855587,-0.0313376858830452
1782831887409320400,3.247320556640625,-0.015478977933526039,-0.006417608354240656,-0.026354437693953514
1782831887419249400,3.25724951171875,-0.003773852251470089,-0.0073081692680716515,-0.012759799137711525
1782831887429178000,3.26717822265625,0.004042341839522123,-0.00607267627492547,-0.003777237143367529
1782831887439107300,3.277107421875,0.013094427064061165,-0.013775336556136608,-0.008982119150459766
1782831887449036300,3.287036376953125,0.01655896008014679,-0.0075950962491333485,-0.023291731253266335
1782831887458965200,3.29696533203125,0.0023344848304986954,0.0050085801631212234,-0.03501256927847862
1782831887468894200,3.306894287109375,-0.017639774829149246,0.005898221395909786,-0.031203297898173332
1782831887478823400,3.316823486328125,-0.02452883869409561,-0.00906208623200655,-0.016403047367930412
1782831887488752400,3.32675244140625,-0.029887761920690536,-0.01326643954962492,0.011595398187637329
1782831887498681300,3.336681396484375,-0.021738756448030472,-0.015612950548529625,0.027684086933732033
1782831887508610300,3.3466103515625,-0.004105811007320881,-0.0174163356423378,0.018244443461298943
1782831887518539500,3.35653955078125,0.0029198741540312767,-0.022338390350341797,-0.015814989805221558
1782831887528468500,3.366468505859375,0.0013322727754712105,-0.011056876741349697,-0.052782654762268066
1782831887538398200,3.376398193359375,-0.010382972657680511,-0.010822785086929798,-0.06658634543418884
1782831887548327400,3.386327392578125,-0.010712324641644955,0.011132226325571537,-0.06054994463920593
1782831887558256400,3.39625634765625,-0.002046397887170315,0.04094711318612099,-0.03495590016245842
1782831887568185300,3.406185302734375,0.0025662435218691826,0.05755920335650444,-0.009471814148128033
1782831887578114300,3.4161142578125,-0.006673860363662243,0.03993840143084526,0.008971109986305237
1782831887588043300,3.426043212890625,-0.03395674005150795,-0.002451937645673752,0.024621322751045227
1782831887597972500,3.435972412109375,-0.05683276429772377,-0.047166142612695694,0.03533841669559479
1782831887607901400,3.4459013671875,-0.04871146380901337,-0.05545388534665108,0.04435298591852188
1782831887617830400,3.455830322265625,-0.023594658821821213,-0.041118353605270386,0.03915689140558243
1782831887627759000,3.465759033203125,0.005976540967822075,-0.016622204333543777,0.019946031272411346
1782831887637688300,3.475688232421875,0.013729003258049488,-0.005726680625230074,-0.012657983228564262
1782831887647617300,3.4856171875,0.004361067898571491,0.0010590534657239914,-0.03808904066681862
1782831887657546200,3.495546142578125,-0.028422178700566292,-0.004888850264251232,-0.04343187436461449
1782831887667475200,3.50547509765625,-0.04181208461523056,-0.00456574372947216,-0.03184033930301666
1782831887677404400,3.515404296875,-0.02833888679742813,0.01174585148692131,-0.02479548007249832
1782831887687333400,3.52533349609375,-0.00468830019235611,0.025421205908060074,-0.029083285480737686
1782831887697263400,3.535263427734375,0.02635297365486622,0.01507482584565878,-0.028134135529398918
1782831887707192300,3.5451923828125,0.03825128823518753,0.0015160208567976952,-0.01963459700345993
1782831887717121300,3.555121337890625,0.03719455003738403,-0.006689178757369518,0.017584145069122314
1782831887727050200,3.56505029296875,0.022280680015683174,-0.01683099754154682,0.05552107095718384
1782831887736979200,3.574979248046875,0.004545092117041349,-0.008706757798790932,0.08765637129545212
1782831887746908400,3.584908447265625,-0.01743306964635849,-0.005533842835575342,0.09114288538694382
1782831887756837400,3.59483740234375,-0.03151267021894455,0.00655770767480135,0.06734967231750488
1782831887766766300,3.604766357421875,-0.04179476201534271,0.014804751612246037,0.01721319742500782
1782831887776695300,3.6146953125,-0.04212605953216553,0.020666901022195816,-0.04904971271753311
1782831887786620400,3.624620361328125,-0.031054604798555374,0.03603517264127731,-0.08868680149316788
1782831887796549400,3.63454931640625,-0.004715408198535442,0.0569031722843647,-0.08601884543895721
1782831887806478300,3.644478271484375,0.021522156894207,0.059294186532497406,-0.061276018619537354
1782831887816407600,3.654407470703125,0.04251159355044365,0.031666021794080734,-0.02394755370914936
1782831887826336300,3.664336181640625,0.049184516072273254,-0.0021744687110185623,0.012875882908701897
1782831887836265200,3.67426513671875,0.039747875183820724,-0.04670625180006027,0.03460754081606865
1782831887846194200,3.684194091796875,0.025303248316049576,-0.0646406039595604,0.060577478259801865
1782831887856124400,3.69412451171875,0.019409406930208206,-0.0575597882270813,0.07635218650102615
1782831887866053400,3.704053466796875,0.017098352313041687,-0.03628849238157272,0.07165947556495667
1782831887875982300,3.713982421875,0.019909851253032684,-0.004066109657287598,0.048136573284864426
1782831887885911600,3.72391162109375,0.010245184414088726,0.020083218812942505,0.004162023309618235
1782831887895840500,3.733840576171875,0.00894715916365385,0.04202020913362503,-0.045137882232666016
1782831887905769500,3.74376953125,0.00840258039534092,0.04795249551534653,-0.07484325766563416
1782831887915698200,3.7536982421875,0.0077149523422122,0.04906116798520088,-0.07770749181509018
1782831887925627400,3.76362744140625,0.011114734224975109,0.037739817053079605,-0.05432569980621338
1782831887935556400,3.773556396484375,0.018094612285494804,0.02881024032831192,-0.02214086800813675
1782831887945485300,3.7834853515625,0.017179889604449272,0.022133085876703262,0.009383080527186394
1782831887955414300,3.793414306640625,0.01030520536005497,0.007239890284836292,0.0318649522960186
1782831887965343500,3.803343505859375,0.0055368803441524506,-0.005519379395991564,0.04045511782169342
1782831887975272400,3.8132724609375,0.0017043249681591988,-0.007783066481351852,0.03893844783306122
1782831887985201400,3.823201416015625,0.013940999284386635,0.00401568878442049,0.026137856766581535
1782831887995130400,3.83313037109375,0.02523386850953102,0.008809111081063747,0.01948314905166626
1782831888005059600,3.8430595703125,0.03276101499795914,0.00996120274066925,0.011397551745176315
1782831888014989300,3.8529892578125,0.03358473256230354,0.0023898351937532425,0.003562797326594591
1782831888024918300,3.862918212890625,0.02438368648290634,0.0022734152153134346,0.001946836244314909
1782831888034847200,3.87284716796875,0.006231047213077545,0.012499687261879444,-0.0017429734580218792
1782831888044776400,3.8827763671875,-0.006263108924031258,0.009473740123212337,0.002677213866263628
1782831888054705400,3.892705322265625,-0.015750620514154434,0.010222886689007282,-0.003441398963332176
1782831888064634400,3.90263427734375,-0.012005848810076714,0.00012980494648218155,-0.0150067787617445
1782831888074563300,3.912563232421875,-0.0065884459763765335,-0.004723007325083017,-0.030488532036542892
1782831888084492500,3.922492431640625,-0.002255336381494999,-0.009793144650757313,-0.031528372317552567
1782831888094421500,3.93242138671875,0.008558961562812328,-0.0031717270612716675,-0.01800723560154438
1782831888104350200,3.94235009765625,0.010589861311018467,0.00911838561296463,0.0039267404936254025
1782831888114279200,3.952279052734375,0.005376989953219891,0.009581509977579117,0.02854420244693756
1782831888124208400,3.96220849609375,-0.00005464721471071243,-0.014361519366502762,0.030214229598641396
1782831888134137300,3.972137451171875,0.001771482639014721,-0.02572815865278244,0.014066951349377632
1782831888144066300,3.98206640625,0.005677863024175167,-0.010027280077338219,0.004742592107504606
1782831888153995300,3.991995361328125,-0.0055289845913648605,-0.011954876594245434,0.0011537163518369198
1782831888163924500,4.001924560546875,-0.019513435661792755,-0.021197717636823654,0.006686280015856028
1782831888173854500,4.0118544921875,-0.04301077127456665,-0.019557742401957512,-0.0061442977748811245
1782831888183783200,4.021783203125,-0.053260430693626404,0.0034221047535538673,-0.028061915189027786
1782831888193712400,4.03171240234375,-0.05424579977989197,0.020535577088594437,-0.05016854777932167
1782831888203641300,4.041641357421875,-0.04488753527402878,0.02769435942173004,-0.0637969970703125
1782831888213570300,4.0515703125,-0.02734156884253025,0.03543270751833916,-0.0691630020737648
1782831888223499300,4.061499267578125,-0.002489647828042507,0.05767146497964859,-0.05713170766830444
1782831888233428500,4.071428466796875,0.016496026888489723,0.03230619058012962,-0.045351747423410416
1782831888243357400,4.081357421875,0.0174415223300457,0.00565559696406126,-0.010064749978482723
1782831888253286400,4.091286376953125,0.004996570758521557,-0.026101000607013702,0.04173799604177475
1782831888263215400,4.10121533203125,-0.011419493705034256,-0.03795012831687927,0.07569877803325653
1782831888273144600,4.11114453125,-0.0075352732092142105,-0.06466616690158844,0.08304031193256378
1782831888283073500,4.121073486328125,-0.005094421096146107,-0.0743556022644043,0.06566678732633591
1782831888293002200,4.131002197265625,-0.003906385041773319,-0.06456448882818222,0.03200123831629753
1782831888302931200,4.14093115234375,0.004665493965148926,-0.0305621474981308,0.0032648746855556965
1782831888312860400,4.1508603515625,0.014780712313950062,0.004808892495930195,-0.0243997760117054
1782831888322789400,4.160789306640625,0.02937953919172287,0.037826716899871826,-0.04085034504532814
1782831888332719400,4.17071923828125,0.02902587130665779,0.05457880347967148,-0.04342162609100342
1782831888342648300,4.1806484375,0.020076822489500046,0.05156826227903366,-0.026524752378463745
1782831888352577500,4.19057763671875,0.008212173357605934,0.05047423392534256,-0.010200107470154762
1782831888362506500,4.200506591796875,0.0073589966632425785,0.026120193302631378,-0.005735920742154121
1782831888372435500,4.210435546875,0.013168415986001492,0.0013152426108717918,-0.006252840161323547
1782831888382364200,4.2203642578125,0.01793229766190052,-0.028611384332180023,-0.004219673108309507
1782831888392293400,4.23029345703125,0.015926403924822807,-0.05004849657416344,0.006109930109232664
1782831888402222300,4.240222412109375,0.015547730028629303,-0.0662396103143692,0.013874460011720657
1782831888412151300,4.2501513671875,0.016085155308246613,-0.0514870285987854,0.0132286436855793
1782831888422080300,4.260080322265625,0.016535654664039612,-0.025779159739613533,0.000004650559276342392
1782831888432009500,4.270009521484375,0.009720624424517155,-0.030065782368183136,-0.02701977640390396
1782831888441938400,4.2799384765625,0.007948454469442368,-0.03783559054136276,-0.03750323876738548
1782831888451867400,4.289867431640625,-0.003614724613726139,-0.01568528078496456,-0.028808552771806717
1782831888461796400,4.29979638671875,-0.008709754794836044,0.012659679166972637,-0.0040366156026721
1782831888471725600,4.3097255859375,-0.008190438151359558,0.03272686526179314,0.016169320791959763
1782831888481654500,4.319654541015625,-0.004111192189157009,0.05202764272689819,0.028384162113070488
1782831888491583200,4.329583251953125,0.0004814295098185539,0.0704098492860794,0.012894682586193085
1782831888501513500,4.339513427734375,0.013039988465607166,0.05372259020805359,-0.024031443521380424
1782831888511442400,4.3494423828125,0.013044515624642372,0.04372641444206238,-0.04074597358703613
1782831888521371400,4.359371337890625,-0.00030769314616918564,0.01672413945198059,-0.02386394701898098
1782831888531300400,4.36930029296875,-0.01315105427056551,-0.0195049699395895,0.004182599950581789
1782831888541229600,4.3792294921875,-0.02131943590939045,-0.0380648672580719,0.027227073907852173
1782831888551158500,4.389158447265625,-0.019780395552515984,-0.047193385660648346,0.03190518170595169
1782831888561087500,4.39908740234375,0.0015248563140630722,-0.05609802529215813,0.02779213897883892
1782831888571016200,4.40901611328125,0.022980879992246628,-0.044410210102796555,0.026819022372364998
1782831888580945400,4.4189453125,0.037475720047950745,-0.021361663937568665,0.03869156539440155
1782831888590874400,4.428874267578125,0.040240347385406494,0.0011529652401804924,0.04735829308629036
1782831888600803300,4.43880322265625,0.031743332743644714,0.014625688083469868,0.04306257888674736
1782831888610732300,4.448732177734375,0.014515874907374382,0.016255542635917664,0.013859687373042107
1782831888620661200,4.4586611328125,-0.010888101533055305,-0.0062704551964998245,-0.035400621592998505
1782831888630590500,4.468590576171875,-0.021882696077227592,-0.011674807406961918,-0.06826882064342499
1782831888640519400,4.47851953125,-0.025640379637479782,-0.0027382085099816322,-0.06948582828044891
1782831888650448400,4.488448486328125,-0.021567605435848236,0.02511046826839447,-0.04878348484635353
1782831888660378400,4.49837841796875,-0.007961783558130264,0.03293536603450775,-0.016612764447927475
1782831888670307300,4.508307373046875,0.0022115567699074745,0.03464611619710922,0.008579015731811523
1782831888680236300,4.518236328125,0.019689716398715973,0.020962029695510864,0.023322472348809242
1782831888690165200,4.528165283203125,0.03249819204211235,-0.011064613237977028,0.027017874643206596
1782831888700094500,4.538094482421875,0.03898962587118149,-0.04390588402748108,0.020251376554369926
1782831888710023400,4.5480234375,0.03838402405381203,-0.06192749738693237,0.016438795253634453
1782831888719952400,4.557952392578125,0.03472305089235306,-0.05875628441572189,-0.002282319124788046
1782831888729881300,4.56788134765625,0.032406631857156754,-0.02738611027598381,-0.030376005917787552
1782831888739810600,4.577810546875,0.01286314520984888,0.008395595476031303,-0.06015453487634659
1782831888749739500,4.587739501953125,-0.0011786380782723427,0.03932208567857742,-0.0816584974527359
1782831888759668200,4.597668212890625,-0.012896767817437649,0.04651670530438423,-0.0927707627415657
1782831888769597200,4.60759716796875,-0.013354298658668995,0.04478245601058006,-0.08226379752159119
1782831888779526400,4.6175263671875,-0.0050894999876618385,0.03620539605617523,-0.04591325297951698
1782831888789455600,4.62745556640625,0.0036557894200086594,0.02506779320538044,0.009472772479057312
1782831888799384600,4.637384521484375,0.014845280908048153,0.007923081517219543,0.06343638151884079
1782831888809313800,4.647313720703125,0.012262014672160149,-0.0003292551264166832,0.10283039510250092
1782831888819242800,4.65724267578125,0.01106674037873745,-0.02708546631038189,0.11437340080738068
1782831888829172700,4.6671728515625,0.018790440633893013,-0.02696535736322403,0.10297320783138275
1782831888839101700,4.677101806640625,0.03432634100317955,-0.023487478494644165,0.07710111141204834
1782831888849030700,4.68703076171875,0.031405650079250336,0.003973707556724548,0.050894543528556824
1782831888858959600,4.696959716796875,0.022539015859365463,-0.018910666927695274,0.004565719049423933
1782831888868888600,4.706888671875,0.018159445375204086,-0.024761896580457687,-0.03539368137717247
1782831888878817800,4.71681787109375,0.003817865625023842,-0.026859071105718613,-0.060959748923778534
1782831888888746800,4.726746826171875,-0.009252662770450115,-0.00367625430226326,-0.06272941827774048
1782831888898675700,4.73667578125,-0.013260857202112675,0.013692083768546581,-0.04935144633054733
1782831888908604700,4.746604736328125,-0.011539389379322529,0.01575496792793274,-0.03804100304841995
1782831888918534000,4.756533935546875,-0.010029369965195656,0.0142607931047678,-0.01795557141304016
1782831888928462800,4.766462890625,-0.00304283294826746,0.0077006276696920395,-0.0017976397648453712
1782831888938391800,4.776391845703125,0.014402691274881363,-0.02060047537088394,0.010503305122256279
1782831888948320500,4.786320556640625,0.024578096345067024,-0.02389666996896267,0.04527619853615761
1782831888958249700,4.796249755859375,0.028590479865670204,-0.019209302961826324,0.0827970802783966
1782831888968178700,4.8061787109375,0.03687264397740364,-0.011143653653562069,0.09402497112751007
1782831888978107600,4.816107666015625,0.037624627351760864,-0.01394067145884037,0.08481144905090332
1782831888988036600,4.82603662109375,0.02353091537952423,0.0023751845583319664,0.04846275970339775
1782831888997966800,4.835966796875,0.0010255128145217896,0.015170293860137463,-0.0017609577625989914
1782831889007895800,4.845895751953125,-0.01428952720016241,0.014567621983587742,-0.049200378358364105
1782831889017824800,4.85582470703125,-0.02155051752924919,0.008704681880772114,-0.06853345036506653
1782831889027753500,4.86575341796875,-0.018625300377607346,0.01960153877735138,-0.05545946583151817
1782831889037682700,4.8756826171875,-0.003191896714270115,0.0127200772985816,-0.03480341657996178
1782831889047611600,4.885611572265625,0.013522368855774403,-0.0031619491055607796,-0.022886835038661957
1782831889057540600,4.89554052734375,0.019645821303129196,-0.0037086093798279762,-0.022244984284043312
1782831889067469600,4.905469482421875,0.017701180651783943,-0.015393760986626148,-0.028561202809214592
1782831889077398800,4.915398681640625,0.012905516661703587,-0.04180621728301048,-0.029173100367188454
1782831889087327700,4.92532763671875,0.017809994518756866,-0.02613164857029915,-0.013651132583618164
1782831889097256700,4.935256591796875,0.020385922864079475,-0.002889290452003479,0.0074808294884860516
1782831889107185700,4.945185546875,0.027428384870290756,0.007323132827877998,0.036625396460294724
1782831889117115000,4.955114990234375,0.01929600164294243,0.009691232815384865,0.06321270018815994
1782831889127043800,4.9650439453125,0.010635401122272015,0.00833248719573021,0.06490221619606018
1782831889136972500,4.97497265625,0.007938206195831299,0.009189712814986706,0.04296379163861275
1782831889146901500,4.984901611328125,0.023119289427995682,-0.013300416991114616,-0.0018702582456171513
1782831889156830700,4.994830810546875,0.038817889988422394,-0.021137364208698273,-0.03164718672633171
1782831889166759700,5.004759765625,0.04338361322879791,-0.0004491303116083145,-0.023566091433167458
1782831889176689700,5.014689697265625,0.032819367945194244,0.013718231581151485,-0.000565017107874155
1782831889186619000,5.024618896484375,0.015665147453546524,0.014510520733892918,0.0215112566947937
1782831889196547800,5.0345478515625,-0.0032412204891443253,0.016351502388715744,0.022629259154200554
1782831889206476800,5.044476806640625,-0.014750869944691658,0.009483744390308857,0.012722833082079887
1782831889216405500,5.054405517578125,-0.00576251745223999,0.019076917320489883,-0.002400986384600401
1782831889226334700,5.064334716796875,0.008398042991757393,0.02747919037938118,-0.009828009642660618
1782831889236263700,5.074263671875,0.022074338048696518,0.034964773803949356,-0.012869002297520638
1782831889246192600,5.084192626953125,0.027117300778627396,0.015699196606874466,-0.017964161932468414
1782831889256121600,5.09412158203125,0.02818874642252922,-0.012960456311702728,-0.01709553226828575
1782831889266050800,5.10405078125,0.026180988177657127,-0.018340041860938072,-0.007988320663571358
1782831889275979800,5.113979736328125,0.023669950664043427,-0.013399279676377773,0.0064835562370717525
1782831889285908700,5.12390869140625,0.02061929926276207,-0.020664116367697716,0.011649023741483688
1782831889295837700,5.133837646484375,0.00986979715526104,-0.005884578451514244,0.01656307838857174
1782831889305767000,5.143766845703125,-0.003430561162531376,0.01143742073327303,0.006664906162768602
1782831889315695900,5.15369580078125,-0.009280480444431305,0.024977073073387146,-0.007778330240398645
1782831889325624800,5.163624755859375,-0.01357908733189106,0.019096016883850098,-0.02958136424422264
1782831889335553500,5.173553466796875,-0.013309400528669357,0.021982192993164062,-0.056682802736759186
1782831889345483800,5.18348388671875,-0.01686685159802437,-0.009880398400127888,-0.07031871378421783
1782831889355412700,5.193412841796875,-0.02515389397740364,-0.057830944657325745,-0.05830306187272072
1782831889365341700,5.203341796875,-0.02905089780688286,-0.0660284236073494,-0.012248219922184944
1782831889375270700,5.213270751953125,-0.02688012644648552,-0.04358745366334915,0.03522191196680069
1782831889385199900,5.223199951171875,-0.018964678049087524,-0.019292498007416725,0.053497057408094406
1782831889395128800,5.23312890625,-0.01865002140402794,-0.00466096680611372,0.027958126738667488
1782831889405057800,5.243057861328125,-0.019410887733101845,0.005859849974513054,-0.011129355989396572
1782831889414986500,5.252986572265625,-0.012921800836920738,0.03919794410467148,-0.04768301919102669
1782831889424915700,5.262915771484375,-0.0055853258818387985,0.06519705057144165,-0.055618442595005035
1782831889434844700,5.2728447265625,-0.014126422815024853,0.07694339007139206,-0.036263931542634964
1782831889444773600,5.282773681640625,-0.03429827094078064,0.061935678124427795,-0.014307234436273575
1782831889454702600,5.29270263671875,-0.04357874393463135,0.023709893226623535,-0.012826181948184967
1782831889464631800,5.3026318359375,-0.042172327637672424,-0.03569591045379639,-0.01669255830347538
1782831889474560800,5.312560791015625,-0.026237312704324722,-0.0653693675994873,-0.014673050493001938
1782831889484489700,5.32248974609375,-0.0041013844311237335,-0.06624314934015274,0.004015150014311075
1782831889494418700,5.332418701171875,0.01827351190149784,-0.04551506042480469,0.02696501836180687
1782831889504348000,5.342347900390625,0.029847877100110054,-0.03164718300104141,0.03449404239654541
1782831889514276900,5.35227685546875,0.018260160461068153,-0.019251860678195953,0.013914141803979874
1782831889524206600,5.36220654296875,0.004649542737752199,0.011971571482717991,-0.023989299312233925
1782831889534135800,5.3721357421875,-0.021686457097530365,0.012942560948431492,-0.05222386494278908
1782831889544064800,5.382064697265625,-0.042865511029958725,0.008794420398771763,-0.05979869142174721
1782831889553993700,5.39199365234375,-0.04698515683412552,0.011855990625917912,-0.04984939098358154
1782831889563922700,5.401922607421875,-0.037922684103250504,0.02777450531721115,-0.03027515858411789
1782831889573852000,5.411851806640625,-0.019281327724456787,0.04332694038748741,0.00004714773967862129
1782831889583780900,5.42178076171875,0.002920912578701973,0.03680485859513283,0.020508479326963425
1782831889593709800,5.431709716796875,0.01354515366256237,-0.0001922575756907463,0.022632313892245293
1782831889603638500,5.441638427734375,0.02324092388153076,-0.035716697573661804,0.011742647737264633
1782831889613567500,5.4515673828125,0.024139676243066788,-0.04917997866868973,0.007479052525013685
1782831889623496700,5.46149658203125,0.016613582149147987,-0.03620639070868492,-0.004040717147290707
1782831889633425700,5.47142578125,0.008843029849231243,-0.010609447956085205,-0.026979651302099228
1782831889643354600,5.481354736328125,0.003240005113184452,0.019127942621707916,-0.05752158164978027
1782831889653283600,5.49128369140625,-0.006881063804030418,0.04362304136157036,-0.08603722602128983
1782831889663212800,5.501212890625,-0.006935391575098038,0.04128318652510643,-0.11993340402841568
1782831889673141800,5.511141845703125,-0.00038777198642492294,0.033274948596954346,-0.12187467515468597
1782831889683070700,5.52107080078125,-0.006451256573200226,0.007561063393950462,-0.0861787274479866
1782831889692999700,5.530999755859375,-0.01894374191761017,-0.014023997820913792,-0.029510939493775368
1782831889702929700,5.5409296875,-0.017012417316436768,-0.045911356806755066,0.019504539668560028
1782831889712858600,5.550858642578125,-0.0031396429985761642,-0.042807675898075104,0.04708949103951454
1782831889722787600,5.56078759765625,0.0006636176258325577,-0.04015091061592102,0.04767005890607834
1782831889732716800,5.570716796875,0.009846536442637444,-0.026111334562301636,0.030892254784703255
1782831889742645800,5.580645751953125,0.009357580915093422,-0.01060587726533413,0.015322083607316017
1782831889752574700,5.59057470703125,0.0054524121806025505,0.005445574410259724,0.013835201039910316
1782831889762503700,5.600503662109375,-0.0010097483173012733,0.012263798154890537,0.018657920882105827
1782831889772433000,5.610432861328125,-0.008897681720554829,0.01093229092657566,0.011671647429466248
1782831889782361900,5.62036181640625,-0.019721299409866333,0.010089399293065071,-0.013130104169249535
1782831889792290800,5.630290771484375,-0.0206676684319973,0.01751854456961155,-0.04997853934764862
1782831889802219800,5.6402197265625,-0.024986516684293747,0.033495645970106125,-0.07652972638607025
1782831889812149000,5.65014892578125,-0.02501567453145981,0.021427657455205917,-0.08262678235769272
1782831889822078000,5.660077880859375,-0.021288316696882248,0.020092085003852844,-0.059550222009420395
1782831889832007000,5.6700068359375,-0.007585258223116398,0.02791256457567215,-0.01875530183315277
1782831889841936000,5.679935791015625,0.011712539941072464,0.02346321940422058,0.031281501054763794
1782831889851865000,5.689864990234375,0.020125750452280045,0.018196526914834976,0.06418080627918243
1782831889861794000,5.6997939453125,0.020620297640562057,0.0033802976831793785,0.0661211833357811
1782831889871723000,5.709722900390625,0.019613046199083328,-0.009472201578319073,0.03887408599257469
1782831889881652000,5.71965185546875,0.01788172498345375,-0.007602662313729525,0.015302980318665504
1782831889891582000,5.72958203125,0.0125131132081151,0.01092090830206871,0.008987465873360634
1782831889901511000,5.739510986328125,0.0008900128304958344,0.03594823181629181,0.020548781380057335
1782831889911440000,5.74943994140625,-0.006473241373896599,0.052898187190294266,0.017801064997911453
1782831889921369000,5.759369140625,-0.00533740408718586,0.08040837943553925,-0.0013747597113251686
1782831889931298000,5.769298095703125,0.0015909019857645035,0.08259487897157669,-0.03351622447371483
1782831889941227000,5.77922705078125,0.006051430944353342,0.05514220893383026,-0.07148224860429764
1782831889951156000,5.789156005859375,0.003335263580083847,0.0035117892548441887,-0.09023619443178177
1782831889961085000,5.7990849609375,-0.002094123512506485,-0.04902651906013489,-0.08008582890033722
1782831889971014100,5.80901416015625,-0.010654633864760399,-0.07687420397996902,-0.046995002776384354
1782831889980942800,5.81894287109375,-0.0031237471848726273,-0.08667650073766708,-0.010763495229184628
1782831889990871800,5.828871826171875,0.007042631506919861,-0.06621068716049194,0.024482546374201775
1782831890000800800,5.83880078125,0.016344521194696426,-0.032078817486763,0.04025911167263985
1782831890010730000,5.84872998046875,0.02822677418589592,-0.002415889874100685,0.047324296087026596
1782831890020659000,5.858658935546875,0.03236053138971329,0.05953003466129303,0.05889200046658516
1782831890030588000,5.868587890625,0.0239393413066864,0.09520468860864639,0.07567314803600311
1782831890040516900,5.878516845703125,0.016199396923184395,0.0864439532160759,0.0809888169169426
1782831890050446000,5.888446044921875,0.0025343233719468117,0.04578453674912453,0.06329049170017242
1782831890060375000,5.898375,-0.0006047450006008148,-0.0009707175195217133,0.026534611359238625
1782831890070304000,5.908303955078125,0.004687937442213297,-0.0310885738581419,-0.021059880033135414
1782831890080234000,5.91823388671875,0.014442297630012035,-0.06254103779792786,-0.05578164383769035
1782831890090163000,5.928162841796875,0.021502431482076645,-0.06151477247476578,-0.053577031940221786
1782831890100092000,5.938091796875,0.022807911038398743,-0.029345115646719933,-0.020763691514730453
1782831890110020900,5.948020751953125,0.021838895976543427,-0.0019671106711030006,0.012613518163561821
1782831890119950000,5.9579501953125,0.019738728180527687,0.0073180003091692924,0.034251969307661057
1782831890129879000,5.967879150390625,0.011276406235992908,-0.00020051375031471252,0.03230251744389534
1782831890139808000,5.97780810546875,-0.0019933264702558517,0.001516425982117653,0.019702836871147156
1782831890149737000,5.987737060546875,-0.0071120066568255424,-0.002639329992234707,0.006348878610879183
1782831890159666200,5.997666259765625,-0.008583935908973217,-0.00876726396381855,-0.004615621641278267
1782831890169595000,6.007594970703125,-0.014359568245708942,-0.01177050918340683,-0.011050330474972725
1782831890179523800,6.01752392578125,-0.009762153960764408,-0.0023466479033231735,-0.025171741843223572
1782831890189452800,6.027452880859375,-0.003937205299735069,0.013805490918457508,-0.03899861499667168
1782831890199382000,6.037382080078125,-0.001864466816186905,0.02033369615674019,-0.049040328711271286
1782831890209311000,6.04731103515625,-0.006555614992976189,0.008851459249854088,-0.046041909605264664
1782831890219240000,6.057239990234375,-0.00794205628335476,0.023641323670744896,-0.03173940256237984
1782831890229169000,6.0671689453125,-0.006820683367550373,0.02483026310801506,-0.01598181761801243
1782831890239098000,6.07709814453125,-0.007280345074832439,0.031969666481018066,0.005397241096943617
1782831890249027000,6.087027099609375,-0.008738067001104355,0.019975733011960983,0.016832096502184868
1782831890258956000,6.0969560546875,-0.0070967599749565125,-0.0028193267062306404,0.014082647860050201
1782831890268885000,6.106885009765625,0.001036331057548523,-0.0478782132267952,-0.0003962842747569084
1782831890278815000,6.11681494140625,0.008954707533121109,-0.06556186825037003,0.00043808436021208763
1782831890288744000,6.126743896484375,0.02098451927304268,-0.019207868725061417,0.02845722809433937
1782831890298673000,6.1366728515625,0.024198688566684723,0.014306681230664253,0.05384967103600502
1782831890308601900,6.146601806640625,0.018823418766260147,0.014146841131150723,0.0626601055264473
1782831890318531000,6.156531005859375,0.0016345782205462456,-0.0023269401863217354,0.047449465841054916
1782831890328460000,6.1664599609375,-0.0034538982436060905,-0.002070450223982334,0.0018138228915631771
1782831890338389000,6.176388916015625,-0.010983719490468502,-0.001379360444843769,-0.038741327822208405
1782831890348318000,6.18631787109375,-0.01147332601249218,-0.003932173363864422,-0.054171208292245865
1782831890358247200,6.1962470703125,-0.015282180160284042,-0.0019494500011205673,-0.041358206421136856
1782831890368175900,6.20617578125,-0.01500796526670456,0.013348224572837353,-0.008608749136328697
1782831890378104800,6.216104736328125,-0.014283586293458939,0.015420430339872837,0.010667476803064346
1782831890388033800,6.22603369140625,-0.02460983768105507,0.0016273800283670425,0.014957670122385025
1782831890397963000,6.235962890625,-0.018065650016069412,0.009020314551889896,0.01360291987657547
1782831890407892000,6.24589208984375,-0.007381599396467209,0.009693427011370659,-0.0021884175948798656
1782831890417821000,6.255821044921875,0.01056997012346983,-0.00242582056671381,-0.018798818811774254
1782831890427750000,6.26575,0.025646492838859558,-0.01556050032377243,-0.031197769567370415
1782831890437679000,6.27567919921875,0.03449111431837082,0.001819021999835968,-0.01823057234287262
1782831890447608000,6.285608154296875,0.027302345260977745,0.005470985546708107,-0.0006088968366384506
1782831890457537000,6.295537109375,0.010095927864313126,-0.0007837153971195221,0.018627647310495377
1782831890467467000,6.305467041015625,-0.01074856985360384,-0.015518514439463615,0.02267845720052719
1782831890477396000,6.31539599609375,-0.023676618933677673,-0.03360803425312042,0.010197820141911507
1782831890487325000,6.325324951171875,-0.026022156700491905,-0.03655301034450531,-0.007019480224698782
1782831890497254000,6.33525390625,-0.015114381909370422,-0.02215809002518654,-0.025103142485022545
1782831890507183000,6.34518310546875,-0.002644176594913006,-0.01092122308909893,-0.04222435876727104
1782831890517112000,6.355112060546875,0.004610540345311165,0.010190454311668873,-0.05122770741581917
1782831890527041000,6.365041015625,0.003214273601770401,0.03131140395998955,-0.04457895830273628
1782831890536970000,6.374969970703125,-0.002135218121111393,0.047411542385816574,-0.016923092305660248
1782831890546899000,6.38489892578125,-0.012638109736144543,0.06003978103399277,0.01548037864267826
1782831890556828000,6.394827880859375,-0.02263641729950905,0.038364309817552567,0.0324990414083004
1782831890566756900,6.4047568359375,-0.027597997337579727,-0.0049634650349617004,0.02718374691903591
1782831890576685800,6.414685791015625,-0.031232677400112152,-0.05579708516597748,0.00022137025371193886
1782831890586614800,6.42461474609375,-0.038633935153484344,-0.0773654356598854,-0.025334199890494347
1782831890596544000,6.4345439453125,-0.046215422451496124,-0.07183324545621872,-0.04492281377315521
1782831890606473000,6.444472900390625,-0.04173814877867699,-0.04054812341928482,-0.05183430388569832
1782831890616402000,6.45440185546875,-0.028434328734874725,0.009079884737730026,-0.06015774980187416
1782831890626331000,6.464330810546875,-0.006102070212364197,0.05126788094639778,-0.06401295214891434
1782831890636260000,6.474260009765625,0.015036238357424736,0.06838640570640564,-0.059593699872493744
1782831890646189000,6.48418896484375,0.02759210579097271,0.061431173235177994,-0.041630398482084274
1782831890656118000,6.494117919921875,0.033043596893548965,0.03378063812851906,-0.0010659289546310902
1782831890666048000,6.504048095703125,0.02598106674849987,0.008393644355237484,0.05808018147945404
1782831890675977000,6.51397705078125,0.017592908814549446,-0.011832797899842262,0.09933440387248993
1782831890685906000,6.523906005859375,0.01202918030321598,-0.027308061718940735,0.10292936116456985
1782831890695835000,6.5338349609375,0.012334112077951431,-0.02849130518734455,0.06961427628993988
1782831890705764000,6.54376416015625,0.012777776457369328,-0.027055546641349792,0.008188005536794662
1782831890715693000,6.553693115234375,0.017769604921340942,-0.026421181857585907,-0.06138361617922783
1782831890725622000,6.5636220703125,0.021469756960868835,0.006017198786139488,-0.0954592376947403
1782831890735551000,6.573551025390625,0.027674121782183647,0.024063844233751297,-0.09425123035907745
1782831890745480000,6.58347998046875,0.02986927516758442,0.035542018711566925,-0.061681266874074936
1782831890755409000,6.593408935546875,0.02667241543531418,0.032480183988809586,-0.027268432080745697
1782831890765337900,6.603337890625,0.024219075217843056,0.011277332901954651,-0.003479801118373871
1782831890775266800,6.613266845703125,0.02026960626244545,0.0006659682840108871,-0.0008568540215492249
1782831890785196300,6.6231962890625,0.027993526309728622,-0.04044505953788757,-0.02091953158378601
1782831890795125200,6.633125244140625,0.04066085070371628,-0.05387697368860245,-0.017878200858831406
1782831890805054500,6.643054443359375,0.03977222740650177,-0.05254814028739929,0.01094396598637104
1782831890814983400,6.6529833984375,0.028060978278517723,-0.042104288935661316,0.05811254680156708
1782831890824912400,6.662912353515625,0.020985132083296776,-0.035268884152173996,0.0829470306634903
1782831890834841300,6.67284130859375,0.02413218840956688,-0.019849713891744614,0.08358325809240341
1782831890844770300,6.682770263671875,0.023679189383983612,0.014991972595453262,0.05888782814145088
1782831890854699300,6.69269921875,0.02848752588033676,0.03640458732843399,0.013360023498535156
1782831890864628200,6.702628173828125,0.03131389990448952,0.03387874737381935,-0.04311555624008179
1782831890874558500,6.712558349609375,0.019971497356891632,0.01643424481153488,-0.07324016839265823
1782831890884487400,6.7224873046875,0.003934768959879875,0.002302294597029686,-0.0717039704322815
1782831890894416400,6.73241650390625,-0.004879762418568134,-0.008036362938582897,-0.048899054527282715
1782831890904345300,6.742345458984375,-0.007735038176178932,-0.01520269364118576,-0.012905031442642212
1782831890914274300,6.7522744140625,-0.005450312048196793,-0.012591997161507607,0.008013032376766205
1782831890924203500,6.76220361328125,-0.0008252197876572609,-0.01905837096273899,0.01305047795176506
1782831890934132200,6.77213232421875,0.0005590915679931641,-0.033466339111328125,0.006914022844284773
1782831890944061200,6.782061279296875,0.00558891287073493,-0.029557939618825912,0.0053225490264594555
1782831890953990100,6.791990234375,0.014110496267676353,-0.007009487599134445,0.011844098567962646
1782831890963919400,6.80191943359375,0.023279335349798203,0.018174704164266586,0.024922773241996765
1782831890973848300,6.811848388671875,0.024929698556661606,0.04059186205267906,0.03604893013834953
1782831890983777300,6.82177734375,0.020410094410181046,0.05384569242596626,0.03705642372369766
1782831890993706200,6.831706298828125,-0.009085480123758316,0.031591519713401794,0.008896689862012863
1782831891003635500,6.841635498046875,-0.027152907103300095,0.011876685544848442,-0.034031301736831665
1782831891013564400,6.851564453125,-0.04000771790742874,-0.006661045365035534,-0.07438351213932037
1782831891023493400,6.861493408203125,-0.04196128249168396,-0.02496986836194992,-0.09253427386283875
1782831891033422300,6.87142236328125,-0.027259571477770805,-0.02791372686624527,-0.07509003579616547
1782831891043351300,6.881351318359375,-0.0030490681529045105,-0.007896189577877522,-0.027815820649266243
1782831891053280300,6.8912802734375,0.013077170588076115,0.003947952762246132,0.02714889496564865
1782831891063209200,6.901209228515625,0.03260580077767372,0.0027804849669337273,0.07984818518161774
1782831891073138200,6.91113818359375,0.030862227082252502,-0.004269168712198734,0.10945694148540497
1782831891083068400,6.921068359375,0.03348322957754135,-0.014558719471096992,0.0971064567565918
1782831891092997400,6.930997314453125,0.037292346358299255,-0.014784554950892925,0.05942779406905174
1782831891102926300,6.94092626953125,0.03182946890592575,-0.008082938380539417,0.014905285090208054
1782831891112855600,6.95085546875,0.026136163622140884,-0.00412761140614748,-0.019496630877256393
1782831891122784300,6.9607841796875,0.011797189712524414,-0.0043155839666724205,-0.03843085095286369
1782831891132713200,6.970713134765625,-0.004297357052564621,0.005599363707005978,-0.04890213534235954
1782831891142642200,6.98064208984375,-0.016852369531989098,0.015269727446138859,-0.051568806171417236
1782831891152571400,6.9905712890625,-0.017364230006933212,0.04315542057156563,-0.035554684698581696
1782831891162500400,7.000500244140625,-0.0077977608889341354,0.038916073739528656,-0.0078106531873345375
1782831891172429300,7.01042919921875,0.0027318457141518593,0.027308424934744835,0.03096177615225315
1782831891182358300,7.020358154296875,0.013963415287435055,0.008110963739454746,0.0738636925816536
1782831891192287500,7.03028759765625,0.024394486099481583,-0.016012748703360558,0.09084134548902512
1782831891202216400,7.040216552734375,0.0286392979323864,-0.043689385056495667,0.07978416234254837
1782831891212145400,7.0501455078125,0.02016589045524597,-0.05711902305483818,0.043478261679410934
1782831891222074400,7.060074462890625,0.004740641452372074,-0.06295979768037796,-0.018556863069534302
1782831891232003300,7.07000341796875,-0.010995444841682911,-0.03882623463869095,-0.06292752176523209
1782831891241932300,7.079932373046875,-0.02493489719927311,-0.00826732162386179,-0.08701060712337494
1782831891251861200,7.089861328125,-0.03385968506336212,0.02425387129187584,-0.0756881833076477
1782831891261790200,7.099790283203125,-0.03514808416366577,0.04631958156824112,-0.05482146516442299
1782831891271719200,7.10971923828125,-0.0397723950445652,0.03716123849153519,-0.026634568348526955
1782831891281648400,7.1196484375,-0.03654388338327408,0.009452818892896175,-0.0024171662516891956
1782831891291577300,7.129577392578125,-0.03253502398729324,-0.016015255823731422,0.019158698618412018
1782831891301507300,7.13950732421875,-0.028664572164416313,-0.04328940808773041,0.03304895758628845
1782831891311436300,7.149436279296875,-0.016780484467744827,-0.068704754114151,0.037634119391441345
1782831891321365200,7.159365234375,-0.0022296877577900887,-0.05953293666243553,0.028117112815380096
1782831891331294200,7.169294189453125,0.008365699090063572,-0.02348225563764572,0.024066444486379623
1782831891341223200,7.17922314453125,0.007694987580180168,0.02616158500313759,0.022876258939504623
1782831891351152400,7.18915234375,-0.0025752270594239235,0.05303128436207771,0.024325553327798843
1782831891361081300,7.199081298828125,-0.027119921520352364,0.05039895325899124,0.01575084775686264
1782831891371010300,7.20901025390625,-0.0382857546210289,0.0045766038820147514,0.015403304249048233
1782831891380939300,7.218939208984375,-0.03415289521217346,0.006085519678890705,0.012458983808755875
1782831891390868500,7.228868408203125,-0.009763136506080627,-0.006123743019998074,0.007341455202549696
1782831891400797400,7.23879736328125,0.016497505828738213,-0.018762856721878052,-0.0009553907439112663
1782831891410726400,7.248726318359375,0.021558310836553574,-0.028486058115959167,-0.009171775542199612
1782831891420655400,7.2586552734375,0.0066610281355679035,-0.025027457624673843,-0.027353670448064804
1782831891430584300,7.268584228515625,-0.015154254622757435,-0.01357453502714634,-0.05451231822371483
1782831891440513300,7.27851318359375,-0.03509032726287842,0.000323236919939518,-0.09102878719568253
1782831891450442200,7.288442138671875,-0.045363470911979675,0.005972600542008877,-0.10305269062519073
1782831891460371200,7.29837109375,-0.03696140646934509,0.027538225054740906,-0.07304730266332626
1782831891470300400,7.308300537109375,-0.012144739739596844,0.04563360661268234,-0.015336867421865463
1782831891480229400,7.3182294921875,0.01680590957403183,0.05196473374962807,0.0524669848382473
1782831891490158300,7.328158447265625,0.038322385400533676,0.026334472000598907,0.10371632128953934
1782831891500087300,7.33808740234375,0.039241187274456024,-0.012712288647890091,0.1268162727355957
1782831891510017300,7.348017333984375,0.026202350854873657,-0.04640447348356247,0.10362386703491211
1782831891519946200,7.3579462890625,0.015051905065774918,-0.06087232381105423,0.04322053864598274
1782831891529875200,7.367875244140625,0.00017442181706428528,-0.06166993826627731,-0.02418460138142109
1782831891539804200,7.37780419921875,-0.008916058577597141,-0.02319771610200405,-0.05885018780827522
1782831891549733400,7.3877333984375,-0.016975849866867065,0.020456820726394653,-0.06160575896501541
1782831891559662300,7.397662353515625,-0.018157439306378365,0.038669612258672714,-0.04520849511027336
1782831891569591300,7.40759130859375,-0.01595686934888363,0.03864670917391777,-0.02655811235308647
1782831891579520300,7.417520263671875,-0.01451389491558075,0.04196305572986603,-0.009268500842154026
1782831891589449500,7.427449462890625,-0.011316504329442978,0.017151180654764175,-0.0008316067978739738
1782831891599378400,7.43737841796875,-0.006363236345350742,-0.035097673535346985,0.004659217316657305
1782831891609307400,7.447307373046875,-0.004065726883709431,-0.05287214368581772,0.026027090847492218
1782831891619236400,7.457236328125,-0.006146949715912342,-0.062130801379680634,0.05605321750044823
1782831891629165300,7.467165283203125,-0.0064345719292759895,-0.050339922308921814,0.07382289320230484
1782831891639094300,7.47709423828125,-0.01416486594825983,-0.03060568869113922,0.07212819904088974
1782831891649023200,7.487023193359375,-0.021576974540948868,-0.00022434722632169724,0.03644317016005516
1782831891658952200,7.4969521484375,-0.023926839232444763,0.03489289432764053,-0.01966867782175541
1782831891668881400,7.50688134765625,-0.018793860450387,0.04773731902241707,-0.07614447176456451
1782831891678810400,7.516810302734375,-0.01570134237408638,0.04450508952140808,-0.10451541095972061
1782831891688739300,7.5267392578125,-0.012067725881934166,0.028452355414628983,-0.10247489809989929
1782831891698668300,7.536668212890625,-0.0027010487392544746,0.006693095900118351,-0.06380309164524078
1782831891708597500,7.546597412109375,0.005454083438962698,-0.019243963062763214,-0.011047206819057465
1782831891718526500,7.5565263671875,0.0041929567232728004,-0.04184158891439438,0.03456229716539383
1782831891728455400,7.566455322265625,0.010074547491967678,-0.043387554585933685,0.05267712101340294
1782831891738385400,7.576385498046875,0.013676703907549381,-0.03323221206665039,0.03482190519571304
1782831891748314400,7.586314453125,0.00981538649648428,-0.023987580090761185,-0.0009044012986123562
1782831891758243300,7.596243408203125,0.013313512317836285,0.006582251749932766,-0.026262078434228897
1782831891768172300,7.60617236328125,0.009738218039274216,0.031755514442920685,-0.030384652316570282
1782831891778101500,7.6161015625,0.004847826436161995,0.03846757113933563,-0.015291061252355576
1782831891788030700,7.62603076171875,-0.006315878592431545,0.03484513983130455,0.0021646288223564625
1782831891797959700,7.635959716796875,-0.006006252020597458,0.024904387071728706,0.0023722094483673573
1782831891807888400,7.645888427734375,-0.010131221264600754,-0.0045051658526062965,-0.009509483352303505
1782831891817817600,7.655817626953125,-0.021118151023983955,-0.04605158045887947,-0.031151367351412773
1782831891827746600,7.66574658203125,-0.03622892498970032,-0.05345676466822624,-0.03524677827954292
1782831891837675500,7.675675537109375,-0.04721127822995186,-0.05592381954193115,-0.021290119737386703
1782831891847604500,7.6856044921875,-0.039487577974796295,-0.035649172961711884,-0.005302630364894867
1782831891857533700,7.69553369140625,-0.018772590905427933,-0.0006542680785059929,0.002526321914047003
1782831891867462700,7.705462646484375,0.0002535637468099594,0.029702838510274887,0.0008511939086019993
1782831891877391600,7.7153916015625,0.01161416620016098,0.02859422191977501,-0.00994742289185524
1782831891887320600,7.725320556640625,0.012839220464229584,0.016407329589128494,-0.016846342012286186
1782831891897249800,7.735249755859375,0.0035073217004537582,0.009194046258926392,-0.0038055782206356525
1782831891907178800,7.7451787109375,-0.01353504415601492,0.0007925713434815407,0.014602456241846085
1782831891917107500,7.755107421875,-0.016899259760975838,-0.000567510724067688,0.0226258747279644
1782831891927036400,7.765036376953125,-0.014649156481027603,0.0251114871352911,0.02640836127102375
1782831891936965400,7.77496533203125,-0.009347445331513882,0.043851088732481,0.021769249811768532
1782831891946894600,7.78489453125,0.002696434035897255,0.027514994144439697,0.005097860004752874
1782831891956823600,7.794823486328125,0.0030501019209623337,0.015306263230741024,-0.001996800769120455
1782831891966753500,7.80475341796875,0.0017419569194316864,0.0008801855146884918,0.0019073928706347942
1782831891976682800,7.814682861328125,-0.006052636541426182,-0.011571128852665424,0.01642409898340702
1782831891986611700,7.82461181640625,-0.02202308177947998,-0.028391920030117035,0.027217622846364975
1782831891996540700,7.834540771484375,-0.02316461317241192,0.004697293043136597,0.03507908433675766
1782831892006469400,7.844469482421875,-0.021714257076382637,0.031109990552067757,0.03605752810835838
1782831892016398600,7.854398681640625,-0.020690418779850006,0.03602183982729912,0.018241042271256447
1782831892026327600,7.86432763671875,-0.01746133714914322,0.020020771771669388,-0.021895989775657654
1782831892036256500,7.874256591796875,-0.0037306733429431915,0.012542137876152992,-0.05234032869338989
1782831892046185500,7.884185546875,0.007831706665456295,0.013422314077615738,-0.05544610694050789
1782831892056114700,7.89411474609375,0.004197724163532257,0.0033875638619065285,-0.026402341201901436
1782831892066043600,7.904043701171875,-0.0009187404066324234,-0.006251748185604811,0.006668793503195047
1782831892075972600,7.91397265625,-0.002124043181538582,-0.0022897766903042793,0.02015579305589199
1782831892085901600,7.923901611328125,0.006956004537642002,0.004286367446184158,0.006766750011593103
1782831892095830800,7.933830810546875,0.017933500930666924,0.0049013253301382065,-0.011703785508871078
1782831892105759700,7.943759765625,0.02013087458908558,-0.004631725139915943,-0.01645965874195099
1782831892115688400,7.9536884765625,0.01878056675195694,-0.005889423191547394,0.003782165702432394
1782831892125617400,7.963617431640625,0.013484072871506214,-0.0095994733273983,0.03625648468732834
1782831892135546600,7.973546630859375,0.005076748784631491,-0.009498034603893757,0.05537048354744911
1782831892145475600,7.9834755859375,-0.0015111127868294716,-0.004672653041779995,0.054356351494789124
1782831892155404500,7.993404541015625,-0.00020007416605949402,-0.0050003114156425,0.02875693142414093
1782831892165333500,8.00333349609375,-0.0003180522471666336,-0.01645749621093273,-0.004206610843539238
1782831892175262700,8.0132626953125,-0.00010341964662075043,-0.02166305109858513,-0.02157188206911087
1782831892185191700,8.023191650390626,0.004256707616150379,-0.018374048173427582,-0.017815759405493736
1782831892195121400,8.033121337890625,0.006010252982378006,-0.00555395195260644,-0.0013230112381279469
1782831892205050400,8.04305029296875,0.008974084630608559,0.015227759256958961,0.020190536975860596
1782831892214979600,8.0529794921875,0.004650424234569073,0.032401278614997864,0.039786212146282196
1782831892224908500,8.062908447265626,-0.007045380771160126,0.01908334344625473,0.04521986097097397
1782831892234837500,8.07283740234375,-0.014172513037919998,0.003094663843512535,0.0494602732360363
1782831892244766500,8.082766357421875,-0.012162093073129654,-0.004867655225098133,0.0436101071536541
1782831892254695700,8.09269580078125,-0.006277923472225666,-0.01496943924576044,0.02848435938358307
1782831892264624600,8.102624755859376,0.0034263692796230316,-0.009375203400850296,0.009630510583519936
1782831892274553600,8.1125537109375,0.00004411023110151291,0.0016857031732797623,-0.009268572553992271
1782831892284482600,8.122482666015625,-0.009186939336359501,0.013913874514400959,-0.02130073495209217
1782831892294411800,8.132411865234374,-0.021252648904919624,0.01751784235239029,-0.034420885145664215
1782831892304340500,8.142340576171875,-0.02633688785135746,0.02304709702730179,-0.04716837406158447
1782831892314269400,8.15226953125,-0.029588378965854645,0.03381263092160225,-0.051041144877672195
1782831892324198400,8.162198486328125,-0.037837520241737366,0.04174245893955231,-0.03312632441520691
1782831892334127600,8.172127685546876,-0.04995885491371155,0.03833067789673805,-0.002114922273904085
1782831892344056600,8.182056640625,-0.049033135175704956,0.024102207273244858,0.02152515947818756
1782831892353985500,8.191985595703125,-0.035903073847293854,0.01132285501807928,0.040280941873788834
1782831892363914500,8.20191455078125,-0.016244417056441307,-0.0013940054923295975,0.0371975339949131
1782831892373843700,8.21184375,-0.0022512953728437424,0.008208735845983028,0.024407008662819862
1782831892383772700,8.221772705078125,0.001939987763762474,0.025651641190052032,0.0006236485205590725
1782831892393701600,8.23170166015625,0.000669245608150959,0.025022774934768677,-0.02595144510269165
1782831892403630600,8.241630615234374,-0.009173797443509102,-0.0031830305233597755,-0.03285542130470276
1782831892413559600,8.2515595703125,-0.020205337554216385,-0.03714827448129654,-0.029732495546340942
1782831892423488500,8.261488525390625,-0.03327746316790581,-0.03403770178556442,-0.004271611571311951
1782831892433418500,8.27141845703125,-0.037715960294008255,-0.022772356867790222,0.019139671698212624
1782831892443347700,8.28134765625,-0.0348418764770031,-0.03219861537218094,0.036356471478939056
1782831892453276700,8.291276611328126,-0.026695311069488525,-0.036394234746694565,0.03663528710603714
1782831892463205600,8.30120556640625,-0.012103586457669735,-0.03256913647055626,0.027161356061697006
1782831892473134600,8.311134521484375,0.0008188970386981964,-0.010517784394323826,0.010894857347011566
1782831892483063800,8.321063720703124,0.007096500601619482,0.01042717881500721,0.013541242107748985
1782831892492992500,8.330992431640626,-0.004427438601851463,0.012555099092423916,0.01835380680859089
1782831892502921500,8.34092138671875,-0.013715745881199837,0.0029307017102837563,0.013580089434981346
1782831892512850400,8.350850341796875,-0.005453627556562424,0.00019465666264295578,0.00913783349096775
1782831892522779400,8.360779296875,0.004283155780285597,0.012542668730020523,0.0051268464885652065
1782831892532708600,8.37070849609375,0.005955538246780634,0.0273742638528347,0.005782511550933123
1782831892542637600,8.380637451171875,0.006124382372945547,0.022967800498008728,0.005777450744062662
1782831892552566500,8.39056640625,0.013842894695699215,0.0006024297326803207,0.005428293254226446
1782831892562495500,8.40049560546875,0.017898622900247574,-0.03076055273413658,-0.0013473215512931347
1782831892572424700,8.4104248046875,0.0289904922246933,-0.03343692421913147,0.007757804822176695
1782831892582353700,8.420353759765625,0.029982253909111023,-0.01983909122645855,0.030117973685264587
1782831892592282600,8.43028271484375,0.0337681844830513,-0.004565473645925522,0.04317718371748924
1782831892602211600,8.440211669921876,0.03438470885157585,0.0015816353261470795,0.04339928925037384
1782831892612140500,8.450140625,0.016860969364643097,-0.004954149480909109,0.04055558517575264
1782831892622069500,8.460069580078125,0.0005768053233623505,-0.01548002753406763,0.022534506395459175
1782831892631998500,8.46999853515625,-0.003025294281542301,-0.00910436175763607,0.003482488449662924
1782831892641927400,8.479927490234376,-0.0013661449775099754,0.01361106988042593,-0.023680157959461212
1782831892651856600,8.489856689453125,-0.0020128339529037476,0.050061583518981934,-0.047115009278059006
1782831892661785600,8.49978564453125,0.0001821434125304222,0.047349415719509125,-0.05987874045968056
1782831892671715600,8.509715576171875,-0.00011024344712495804,0.022791728377342224,-0.05863388627767563
1782831892681644800,8.519644775390624,0.006268825847655535,-0.006216485984623432,-0.042653586715459824
1782831892691573500,8.529573486328125,0.015967875719070435,-0.01478053443133831,-0.0017508375458419323
1782831892701502500,8.53950244140625,0.020074736326932907,-0.01171310618519783,0.03683996573090553
1782831892711431400,8.549431396484374,0.022570597007870674,-0.024534061551094055,0.07323001325130463
1782831892721360600,8.559360595703126,0.025053462013602257,-0.01667480543255806,0.09239757806062698
1782831892731289600,8.56928955078125,0.0221925750374794,-0.012533223256468773,0.07746891677379608
1782831892741218600,8.579218505859375,0.01478339359164238,0.0027732951566576958,0.02690587192773819
1782831892751147500,8.5891474609375,0.007091933395713568,0.025873102247714996,-0.03367190808057785
1782831892761076700,8.59907666015625,-0.006109088659286499,0.055470142513513565,-0.08166126906871796
1782831892771005700,8.609005615234375,-0.019524933770298958,0.05319884046912193,-0.10782229155302048
1782831892780934700,8.6189345703125,-0.01984051987528801,0.05493788793683052,-0.09940909594297409
1782831892790863000,8.628863037109374,-0.020557671785354614,0.05983792245388031,-0.09491389989852905
1782831892800792300,8.638792236328126,-0.03191392496228218,-0.0014251647517085075,-0.11516111344099045
1782831892810721300,8.64872119140625,-0.02780008316040039,-0.01888115145266056,-0.07721780985593796
1782831892820650000,8.65864990234375,-0.05174962803721428,-0.01971551962196827,-0.004891677759587765
1782831892830579000,8.668578857421876,-0.07289019227027893,-0.02037719637155533,0.03707918897271156
1782831892840508200,8.678508056640625,-0.048124395310878754,-0.013411699794232845,0.03493614122271538
1782831892850437000,8.68843701171875,-0.002438616007566452,0.0012799594551324844,0.01957770437002182
1782831892860366000,8.698365966796874,0.025478502735495567,0.03874637186527252,0.023633698001503944
1782831892870295000,8.708294921875,0.03631741181015968,0.057031311094760895,0.0508587621152401
1782831892880224300,8.718224365234375,0.037762973457574844,0.04357782006263733,0.07860144972801208
1782831892890153200,8.7281533203125,0.02335306629538536,0.025900647044181824,0.09184231609106064
1782831892900082200,8.738082275390624,0.010112362913787365,0.013538786210119724,0.0795518308877945
1782831892910011100,8.74801123046875,-0.009329022839665413,0.01738145761191845,0.037940505892038345
1782831892919941000,8.757941162109375,-0.01983093097805977,0.032758548855781555,-0.01745191402733326
1782831892929870000,8.7678701171875,-0.035517457872629166,0.04338680952787399,-0.06546381860971451
1782831892939799000,8.777799072265625,-0.04626304656267166,0.04752323031425476,-0.0796547457575798
1782831892949728000,8.78772802734375,-0.057543739676475525,0.035809408873319626,-0.061441484838724136
1782831892959657200,8.7976572265625,-0.05242088437080383,0.03053128719329834,-0.004709497094154358
1782831892969586200,8.807586181640625,-0.028070690110325813,0.0357726514339447,0.05937084183096886
1782831892979515100,8.81751513671875,-0.006044749170541763,0.026581818237900734,0.09669024497270584
1782831892989444000,8.827444091796876,0.02419312298297882,0.04649711772799492,0.10617786645889282
1782831892999373300,8.837373291015625,0.04606939107179642,0.06387876719236374,0.09064604341983795
1782831893009302000,8.847302001953125,0.04118733108043671,0.0602898932993412,0.05737006664276123
1782831893019231000,8.85723095703125,0.0282672718167305,0.04559909924864769,0.021861078217625618
1782831893029160000,8.867159912109376,0.007352769840508699,0.03184496611356735,-0.015391023829579353
1782831893039089200,8.877089111328125,-0.007687698118388653,0.028317078948020935,-0.05110268294811249
1782831893049018000,8.88701806640625,-0.020719723775982857,0.033449530601501465,-0.06620562076568604
1782831893058947000,8.896947021484374,-0.034719958901405334,0.043068334460258484,-0.06675982475280762
1782831893068876000,8.9068759765625,-0.04657372087240219,0.04181838780641556,-0.052536241710186005
1782831893078805200,8.91680517578125,-0.055733658373355865,0.03369574993848801,-0.03275108337402344
1782831893088734200,8.926734130859375,-0.05669905245304108,0.020391661673784256,-0.01723523996770382
1782831893098663200,8.9366630859375,-0.03856932371854782,0.01981668546795845,-0.002008617389947176
1782831893108592000,8.946592041015625,-0.015642140060663223,0.01838056556880474,0.010895825922489166
1782831893118521000,8.95652099609375,0.011817180551588535,0.01667853817343712,0.030616799369454384
1782831893128450000,8.966449951171874,0.03243532031774521,0.033333972096443176,0.03895895928144455
1782831893138379000,8.97637890625,0.04200618714094162,0.04880427569150925,0.025570185855031013
1782831893148308000,8.986307861328125,0.038174938410520554,0.048117320984601974,0.0010154801420867443
1782831893158237200,8.9962373046875,0.011959046125411987,0.034644123166799545,-0.01933000609278679
1782831893168166100,9.006166259765624,-0.017839917913079262,0.009903655387461185,-0.01918851025402546
1782831893178096000,9.01609619140625,-0.03684822842478752,-0.004974359646439552,-0.010065585374832153
1782831893188025300,9.026025390625,-0.04078177362680435,-0.011183814145624638,-0.003921105992048979
1782831893197954300,9.035954345703125,-0.027306176722049713,-0.004253736697137356,-0.0051504215225577354
1782831893207883000,9.045883056640625,-0.0158456489443779,0.0047989655286073685,0.002116482239216566
1782831893217812000,9.05581201171875,-0.011843717657029629,0.014347996562719345,0.006455037277191877
1782831893227741200,9.0657412109375,-0.011552341282367706,0.010405837558209896,0.0015234886668622494
1782831893237670100,9.075670166015625,-0.021947724744677544,0.007537613622844219,-0.02205028012394905
1782831893247599000,9.08559912109375,-0.025805937126278877,-0.000005583278834819794,-0.059423454105854034
1782831893257528000,9.095528076171876,-0.028384940698742867,-0.00370657816529274,-0.08451656252145767
1782831893267457000,9.10545703125,-0.01942407712340355,-0.0025660647079348564,-0.08802498131990433
1782831893277386200,9.11538623046875,-0.011660962365567684,0.02018558606505394,-0.07427322119474411
1782831893287315200,9.125315185546874,-0.004030582495033741,0.048868365585803986,-0.061563167721033096
1782831893297244200,9.135244140625,0.007141910959035158,0.06603030860424042,-0.02716444991528988
1782831893307173000,9.145173095703125,-0.0030090389773249626,0.07927686721086502,0.009007442742586136
1782831893317102000,9.15510205078125,-0.023216839879751205,0.0860479548573494,0.03178492560982704
1782831893327031000,9.165031005859374,-0.03768032789230347,0.08242931962013245,0.012520885095000267
1782831893336960000,9.1749599609375,-0.037088312208652496,0.05495269224047661,-0.026359934359788895
1782831893346889000,9.184888916015625,-0.036708764731884,0.0356416292488575,-0.06755876541137695
1782831893356818200,9.194818115234375,-0.03603178635239601,0.017456497997045517,-0.08069081604480743
1782831893366747100,9.2047470703125,-0.02835043892264366,-0.0011754157021641731,-0.07290603220462799
1782831893376676000,9.214676025390625,-0.01925068534910679,-0.013629421591758728,-0.04896368458867073
1782831893386605000,9.22460498046875,-0.005700300447642803,-0.004424002952873707,0.00506065646186471
1782831893396534300,9.2345341796875,0.009652024134993553,0.011458023451268673,0.052130695432424545
1782831893406463200,9.244463134765626,0.023245975375175476,0.007493646815419197,0.07390538603067398
1782831893416392200,9.25439208984375,0.033295147120952606,0.0026051485911011696,0.06699874997138977
1782831893426322200,9.264322265625,0.028878025710582733,-0.008282443508505821,0.04245341196656227
1782831893436251100,9.274251220703125,0.01670631393790245,-0.01410810835659504,0.01440473273396492
1782831893446180000,9.28418017578125,-0.002529192715883255,-0.02181249111890793,-0.01357000507414341
1782831893456109000,9.294109130859376,-0.01640452817082405,-0.009521203115582466,-0.029564151540398598
1782831893466038300,9.304038330078125,-0.02582714892923832,0.014025871641933918,-0.02843227982521057
1782831893475967200,9.31396728515625,-0.028084447607398033,0.017049092799425125,-0.030034970492124557
1782831893485896200,9.323896240234374,-0.012814955785870552,0.0057309577241539955,-0.03486669808626175
1782831893495825200,9.3338251953125,0.001957865431904793,0.0160115584731102,-0.023180214688181877
1782831893505754000,9.343754150390625,0.010152357630431652,0.01565791666507721,-0.006449094042181969
1782831893515683000,9.35368310546875,0.01091775018721819,0.0022875163704156876,0.014216236770153046
1782831893525612000,9.363612060546876,0.0035852687433362007,-0.021064676344394684,0.029197849333286285
1782831893535541000,9.373541015625,-0.016024120151996613,-0.044786252081394196,0.03223491832613945
1782831893545470200,9.38347021484375,-0.016473136842250824,-0.05527108162641525,0.024349873885512352
1782831893555399200,9.393399169921874,-0.007254338823258877,-0.039571747183799744,0.013305479660630226
1782831893565328100,9.403328125,0.006890656426548958,0.003465550020337105,0.002506295684725046
1782831893575257000,9.413257080078125,0.022564690560102463,0.03899424895644188,-0.0034493310377001762
1782831893585186000,9.42318603515625,0.026373038068413734,0.045998215675354004,-0.008212035521864891
1782831893595115300,9.433115234375,0.02242356911301613,0.030365459620952606,-0.019847920164465904
1782831893605044200,9.443044189453126,0.005368595942854881,0.002781711518764496,-0.026171565055847168
1782831893614973200,9.45297314453125,-0.004030498676002026,0.0057154493406414986,-0.020609285682439804
1782831893624902000,9.46290185546875,-0.01272481121122837,0.004316706210374832,0.007065328303724527
1782831893634831000,9.4728310546875,-0.022822454571723938,-0.008648095652461052,0.04353358969092369
1782831893644760000,9.482760009765625,-0.024567192420363426,-0.04528283327817917,0.06424453854560852
1782831893654689000,9.49268896484375,-0.008931508287787437,-0.05695733428001404,0.05557248741388321
1782831893664618000,9.502617919921875,0.00764396321028471,-0.04938916862010956,0.022035062313079834
1782831893674547200,9.512547119140624,0.013942872174084187,-0.031017355620861053,-0.01505877636373043
1782831893684476200,9.52247607421875,0.006564758252352476,-0.009639152325689793,-0.04658577963709831
1782831893694406100,9.53240625,-0.004722516983747482,-0.00128934346139431,-0.05232968553900719
1782831893704335000,9.542335205078125,-0.013286426663398743,0.017601139843463898,-0.040783680975437164
1782831893714264000,9.55226416015625,-0.01110423170030117,0.037432633340358734,-0.02493814192712307
1782831893724193000,9.562193115234376,-0.0035216789692640305,0.03854077309370041,-0.018341224640607834
1782831893734122000,9.5721220703125,0.00817971769720316,0.023668084293603897,-0.015200026333332062
1782831893744051200,9.58205126953125,0.010586149990558624,-0.006132154259830713,-0.007414008490741253
1782831893753980200,9.591980224609374,0.009675247594714165,-0.02741350419819355,0.019574804231524467
1782831893763909000,9.6019091796875,0.0035063009709119797,-0.0434635765850544,0.045979514718055725
1782831893773838000,9.611838134765625,-0.00005887262523174286,-0.046582937240600586,0.07420556247234344
1782831893783767300,9.621767333984375,-0.006994256749749184,-0.03436414524912834,0.08545413613319397
1782831893793696300,9.6316962890625,0.0005084006115794182,-0.005023302510380745,0.06705142557621002
1782831893803625200,9.641625244140625,0.02238023467361927,0.025127997621893883,0.025708483532071114
1782831893813554200,9.65155419921875,0.03592240810394287,0.042113110423088074,-0.024764278903603554
1782831893823483000,9.66148291015625,0.03592637553811073,0.04129721596837044,-0.05093556270003319
1782831893833412000,9.671412109375,0.03651386871933937,0.033225174993276596,-0.050546206533908844
1782831893843341000,9.681341064453125,0.0246514230966568,0.018022160977125168,-0.026538245379924774
1782831893853270000,9.69127001953125,0.010045582428574562,0.005093313753604889,0.013665899634361267
1782831893863199000,9.701198974609374,-0.002300492487847805,-0.007665719836950302,0.042655572295188904
1782831893873128200,9.711128173828126,-0.00308346189558506,-0.022795405238866806,0.047346729785203934
1782831893883057200,9.72105712890625,0.016338035464286804,-0.042024340480566025,0.024966347962617874
1782831893892986000,9.730986083984375,0.03205893933773041,-0.03826182708144188,0.0026671667583286762
1782831893902915000,9.7409150390625,0.04016333445906639,-0.02856244333088398,-0.01513737253844738
1782831893912844300,9.75084423828125,0.043499745428562164,-0.013780035078525543,-0.018280435353517532
1782831893922773200,9.760773193359375,0.042167164385318756,0.008891713805496693,-0.01569458656013012
1782831893932702000,9.770701904296875,0.04092133790254593,0.03521120175719261,-0.00015477463603019714
1782831893942631000,9.780630859375,0.027130909264087677,0.06344997137784958,0.022455718368291855
1782831893952560000,9.79056005859375,0.00843738205730915,0.0757543072104454,0.04337671026587486
1782831893962489000,9.800489013671875,0.001145034097135067,0.06772585958242416,0.04895469546318054
1782831893972419000,9.810419189453125,0.009016805328428745,0.04592229053378105,0.04323875159025192
1782831893982348000,9.82034814453125,0.01950135827064514,0.020563075318932533,0.030487792566418648
1782831893992277200,9.83027734375,0.021728292107582092,-0.0014349017292261124,0.01178361289203167
1782831894002206200,9.840206298828125,0.01752721145749092,-0.013651914894580841,-0.01152072474360466
1782831894012135000,9.850135009765625,0.006010370794683695,-0.0079612722620368,-0.03974410891532898
1782831894022063900,9.86006396484375,-0.012252165004611015,-0.007817664183676243,-0.06987087428569794
1782831894031993000,9.8699931640625,-0.015270059928297997,0.00039792153984308243,-0.08118025213479996
1782831894041922000,9.879922119140625,-0.005364349111914635,0.028216376900672913,-0.06270425021648407
1782831894051851000,9.88985107421875,-0.01261214166879654,0.03980325907468796,0.03007148951292038
1782831894061780000,9.899780029296876,-0.010666582733392715,-0.08368200808763504,0.07979357242584229
1782831894071709200,9.909709228515625,0.026096491143107414,-0.15738606452941895,0.10912349820137024
1782831894081638100,9.91963818359375,0.034471459686756134,-0.1691589504480362,0.11894552409648895
1782831894091567000,9.929567138671874,0.02783592976629734,-0.13156017661094666,0.08730903267860413
1782831894101496000,9.93949609375,0.032098036259412766,-0.09121476858854294,0.0319199375808239
1782831894111425300,9.94942529296875,0.034616585820913315,-0.08102764934301376,-0.024013368412852287
1782831894121354000,9.95935400390625,0.02937207743525505,-0.05926351621747017,-0.06863231211900711
1782831894131283000,9.969282958984374,0.01830478012561798,-0.007834679447114468,-0.10878532379865646
1782831894141212000,9.9792119140625,-0.017077986150979996,0.06598450243473053,-0.14742611348628998
1782831894151141000,9.98914111328125,-0.06520716845989227,0.17375731468200684,-0.16224420070648193
1782831894161070000,9.999070068359375,-0.13216102123260498,0.2392369657754898,-0.13729773461818695
1782831894170999000,10.0089990234375,-0.17222987115383148,0.19807648658752441,-0.11831311136484146
1782831894180928000,10.018927978515626,-0.12605327367782593,0.10762036591768265,-0.10686368495225906
