time,seconds_elapsed,z,y,x
1782831322689771800,0.074771728515625,-0.013936755415797232,0.08269523434340953,-0.06876399535294622
1782831322699701800,0.08470166015625,0.0607850158303976,0.020669863063097,-0.03635583676639944
1782831322709630700,0.094630615234375,0.0854804811477661,0.09576119827404618,0.12338511825874447
1782831322719560000,0.104559814453125,0.03233925806879997,0.09763261816911399,0.22840466834139078
1782831322729489000,0.114489013671875,0.09921265390217304,0.06945471756346523,0.2595000272963196
1782831322739418600,0.124418701171875,0.06077683252394199,0.08205803241841494,0.15317655500825494
1782831322749347800,0.134347900390625,0.04997428348064422,0.0375632763274014,0.036630342858843506
1782831322759276800,0.14427685546875,0.11023615221977233,0.02209412371255457,0.009892996450327336
1782831322769205800,0.154205810546875,0.09933072732388973,0.05311024341881275,0.10451686125751584
1782831322779134700,0.164134765625,0.044619478449225425,0.06159516316950321,0.16721172929722813
1782831322789065000,0.17406494140625,-0.023068156376481054,0.10356383484899997,0.205699463525787
1782831322798994000,0.183993896484375,-0.08071955035626888,0.17058372648097575,0.2609671041741967
1782831322808923000,0.1939228515625,-0.033904607689380646,0.2005520176347345,0.24707747583575546
1782831322818851600,0.2038515625,-0.014403203883767127,0.23378296384625136,0.15718389095347374
1782831322828781800,0.21378173828125,-0.11758125428557395,0.20161124436408281,0.10745766394976526
1782831322838710800,0.223710693359375,-0.3170943573266268,0.1042107544504106,0.17178400564882904
1782831322848639700,0.2336396484375,-0.3548246607840061,0.021400077033787965,0.2466659724254161
1782831322858569000,0.24356884765625,-0.272600551083684,-0.029017712430655953,0.3394764311350882
1782831322868498700,0.253498779296875,-0.1678109738320112,-0.04498283186890185,0.26622374606076626
1782831322878427600,0.263427734375,-0.11478782417476177,0.00664915569089353,0.16710509058497844
1782831322888356900,0.27335693359375,-0.17430676559209823,0.04556866893284023,0.1694498636128381
1782831322898285800,0.283285888671875,-0.21015666213035583,0.028325419317558408,0.20525687085743993
1782831322908215800,0.2932158203125,-0.2064332576930523,0.001980433227494359,0.20292714926823974
1782831322918145000,0.30314501953125,-0.1835007103949785,-0.006328983825817704,0.08242354126255959
1782831322928074800,0.31307470703125,-0.05853168394565582,0.009971358916163443,0.0477895233200863
1782831322938004000,0.32300390625,0.053958384680747984,0.03004018734619021,0.06800641845129429
1782831322947934000,0.332933837890625,0.10088614007234573,-0.008595978909730911,0.163405980338715
1782831322957863000,0.34286279296875,0.13428981250226496,-0.07775047141760587,0.1134136132121086
1782831322967792000,0.352792236328125,0.1978705965310335,-0.06362403864860534,-0.01428366915732622
1782831322977721000,0.36272119140625,0.1320148533076048,-0.006236044845357537,-0.04082037842720747
1782831322987649800,0.37264990234375,0.06263444308936596,0.003292246478423476,0.05905917841847986
1782831322997580000,0.382580078125,0.08951426670849323,-0.0021759557995945215,0.08734046633336692
1782831323007509000,0.392509033203125,0.09627250879704952,0.0022316315095871684,0.06250029531568288
1782831323017438000,0.40243798828125,0.0758867233723402,0.03432867832034826,-0.008421060734242201
1782831323027367000,0.412366943359375,-0.03396013726890087,0.036735739462077616,0.014903134496230631
1782831323037297000,0.422296875,-0.19816519556343554,-0.03939911345243454,-0.02066533301845193
1782831323047225900,0.432225830078125,-0.24788228941261767,-0.00826207078024745,-0.004311159463692456
1782831323057154800,0.44215478515625,-0.17542144883573055,0.037933278683573005,0.02441520533757284
1782831323067083800,0.452083740234375,-0.0591775806337595,0.07030702354386449,0.04807497093165293
1782831323077014000,0.462013916015625,-0.09627192427515983,0.056746919420734045,0.02741986704627052
1782831323086943000,0.47194287109375,-0.1101157407104969,-0.022015651648864147,-0.058722311146929856
1782831323096872000,0.481871826171875,-0.056309331721067425,-0.06292363529428839,-0.10599120812639594
1782831323106801200,0.49180126953125,-0.0368213719189167,-0.03890497325994074,-0.09303856837712228
1782831323116731000,0.50173095703125,-0.020837620845437048,-0.01287109894566238,-0.01800583148561418
1782831323126659800,0.511659912109375,-0.1374514914035797,-0.08359371755309403,0.10447364317029714
1782831323136589000,0.521589111328125,-0.13013503091037273,-0.13579963254332542,0.11110763782467692
1782831323146518000,0.53151806640625,-0.1214350071042776,-0.015764555364847183,0.09049542323295026
1782831323156448000,0.541447998046875,-0.1723421875208616,-0.02800283629968762,0.04749064997136593
1782831323166377000,0.551376953125,-0.06582417904138564,-0.14332754383012652,-0.058450983392260965
1782831323176306000,0.561305908203125,-0.18378303446769714,-0.11893595683015883,-0.13067512913644314
1782831323186235000,0.57123486328125,-0.2284866840690374,-0.13396496446207165,-0.15840440919175744
1782831323196164900,0.581164794921875,-0.19666940404772756,-0.18335450685732066,-0.14980291385669262
1782831323206094000,0.591093994140625,-0.2531546768575907,-0.1619572793677449,-0.12907587724626063
1782831323216023000,0.60102294921875,-0.21866554727852344,-0.10770575695931911,-0.16557287604901938
1782831323225952000,0.610951904296875,-0.21478315288722513,-0.08998071517646312,-0.13180194120928646
1782831323235882000,0.620882080078125,-0.21245967837572097,-0.12569653700627387,-0.10209686756897716
1782831323245811000,0.63081103515625,-0.18624504066705702,-0.1438682265780866,-0.12358071389608084
1782831323255740000,0.640739990234375,-0.10233283174932002,-0.16327070005387068,-0.1474353444751352
1782831323265668900,0.6506689453125,-0.0926695158690214,-0.16459296163357792,-0.14122026935257018
1782831323275598000,0.66059814453125,-0.1585264281362295,-0.17403335547819732,-0.12779785666707902
1782831323285528000,0.670528076171875,-0.07787526684105396,-0.14865831039883196,-0.13591405270323156
1782831323295456800,0.680456787109375,-0.12581599866747856,-0.09313742564171552,-0.16740429272726176
1782831323305386000,0.690385986328125,-0.04048164799213409,-0.12359708050899207,-0.28763196986839173
1782831323315315000,0.70031494140625,0.032115386185050006,-0.1345364076744765,-0.3229324888955801
1782831323325245000,0.710244873046875,0.06685761374235152,-0.1308287853281945,-0.30479915857277806
1782831323335174000,0.720173828125,0.1296826109677553,-0.13794943098835646,-0.26621147110108284
1782831323345103000,0.73010302734375,0.17838263672888277,-0.0880363761756569,-0.1936417267896235
1782831323355032000,0.740031982421875,0.181597507122159,-0.05306033986248076,-0.11356394493561238
1782831323364961800,0.7499619140625,0.1587871248990297,-0.055503349100425835,-0.05046363790016621
1782831323374891000,0.75989111328125,0.1427192026734352,-0.06753755883052945,0.014748912048898636
1782831323384820000,0.769820068359375,0.2183621804177761,-0.03831014917194843,0.005316263119317591
1782831323394749000,0.7797490234375,0.2962923923164606,0.04145078528523445,-0.09051021894328296
1782831323404679200,0.78967919921875,0.2683715352118015,0.06657163640782236,-0.16553389574550093
1782831323414608100,0.799608154296875,0.3083832276046276,0.06889240750558674,-0.17083693405706435
1782831323424536800,0.809536865234375,0.362130015361309,0.05194638727121055,-0.1198370338557288
1782831323434465800,0.8194658203125,0.5003185888677835,0.011972688801214099,-0.10360139038041233
1782831323444396000,0.82939599609375,0.4272562752664089,-0.0307084419965744,-0.0934761560767889
1782831323454325000,0.839324951171875,0.2262690080195665,-0.15208565449900924,-0.08331639844905585
1782831323464254000,0.84925390625,0.14130115256905554,-0.23956088966056704,0.010122457824647426
1782831323474183000,0.859182861328125,0.13934768041372297,-0.16964936824031174,0.09859762727636844
1782831323484113000,0.86911279296875,0.018584873482584953,-0.06119169693514705,0.09693352998904883
1782831323494041900,0.879041748046875,-0.14272621693611146,-0.04632240990959108,0.020308482404798267
1782831323503970800,0.888970703125,-0.37666532119214535,-0.0753000825908035,-0.049956601693481206
1782831323513900000,0.898900146484375,-0.5107049583256245,-0.06308890885859728,0.04044971848390996
1782831323523830000,0.908830078125,-0.6415642118573188,-0.04652962291948497,0.04874532620757818
1782831323533759000,0.918759033203125,-0.7504670696467161,-0.025215470603480932,0.008765161464177072
1782831323543688000,0.92868798828125,-0.775118695822358,0.022434973039478064,-0.04021112395506352
1782831323553617000,0.938616943359375,-0.7628823145836592,-0.019693200050666926,-0.12095211895816027
1782831323563545900,0.9485458984375,-0.7571130835324525,-0.09277392609156668,-0.08974602963775395
1782831323573475800,0.958475830078125,-0.7482166603714228,-0.1376391229301691,0.01860113049764186
1782831323583405000,0.968405029296875,-0.630983781132102,-0.18790040665864943,0.13083879526555536
1782831323593334000,0.978333984375,-0.5343173045814037,-0.20502667883075773,0.1282047569675371
1782831323603263000,0.988262939453125,-0.3885165025055408,-0.21195055980980396,0.09879446502272039
1782831323613193000,0.99819287109375,-0.2458370473206043,-0.20102168097309767,0.0783912900717929
1782831323623122000,1.008121826171875,-0.2267541611880064,-0.15781988730207086,0.07970346864890307
1782831323633051000,1.01805078125,-0.06846095728576183,-0.15673640291430055,0.05629939484894275
1782831323642979800,1.027979736328125,0.08510930974781512,-0.06750241445191205,0.007755290301889181
1782831323652910000,1.03791015625,0.1100584575653076,0.0029167642295360565,0.05493186935540288
1782831323662839000,1.047839111328125,0.15876783567667008,-0.014238295645639299,0.06768069362826645
1782831323672768000,1.05776806640625,0.06866261733770371,-0.04645480411760509,0.06410908221919089
1782831323682697000,1.067697021484375,0.118746790933609,-0.06732822692878544,0.013753836596943438
1782831323692627000,1.077626953125,-0.03395136944055557,0.018814079128578305,-0.02558445004634559
1782831323702556000,1.087555908203125,-0.10458324102461337,-0.0058458764839917415,0.02228548156619072
1782831323712484900,1.09748486328125,-0.11138006155788897,-0.03594553893245756,0.07863178429678082
1782831323722414000,1.1074140625,-0.08841595007777213,0.007605360437184572,0.12916516296491026
1782831323732343800,1.11734375,-0.06847615485489368,-0.02910151825658977,0.10448390883598475
1782831323742272800,1.127272705078125,-0.11297054561972618,-0.08607238262630998,0.07339541801325976
1782831323752202000,1.137201904296875,-0.08820084602236747,-0.1045854329816997,0.08024217863548547
1782831323762131000,1.147130859375,-0.01533025560081005,-0.06576886865757406,0.07953936412837356
1782831323772061000,1.15706103515625,0.024226094239950178,0.01360175130777061,0.07016699401866644
1782831323781990100,1.166990234375,-0.044077042135596274,0.05134126098491251,0.04943155490607023
1782831323791919000,1.176919189453125,-0.0019078794479370116,0.0824161982063204,-0.002970686373859644
1782831323801847800,1.186847900390625,-0.08478431557714938,0.11951141863055527,-0.06723872201442718
1782831323811778000,1.196778076171875,-0.15999123999178408,0.05337437424771487,-0.10124339254479854
1782831323821707000,1.20670703125,-0.12981646648049353,0.03064984367713332,-0.0725977648295462
1782831323831636000,1.216635986328125,-0.12218144155740737,0.030131738087162373,0.026118666520901022
1782831323841565000,1.22656494140625,-0.1387158122509718,-0.022462957024946807,0.06280738850347697
1782831323851494000,1.236493896484375,-0.12239713013470171,0.014317863687872886,0.07116601499337702
1782831323861423900,1.246423828125,-0.08182020507454872,0.0645931028764695,0.049585576424002645
1782831323871352800,1.256352783203125,-0.02767301982343197,0.07268208211213349,-0.004210384236648678
1782831323881281800,1.26628173828125,-0.015093524235486983,0.036669834619015455,-0.0449670132452622
1782831323891211000,1.2762109375,0.004219663521647453,0.04090338053554296,-0.051946825662627816
1782831323901141000,1.28614111328125,-0.03671557345688343,-0.009832242706418037,-0.02775072470214218
1782831323911070000,1.296070068359375,-0.006113514444231987,-0.053254547260329126,0.006129004274308681
1782831323920999200,1.305999267578125,0.023109657430648804,0.003236863029375672,-0.007597323261201381
1782831323930927900,1.315927978515625,-0.05364098929464817,0.014243921668827533,-0.00021813626270741223
1782831323940857900,1.32585791015625,-0.11398118396699428,-0.07439429285749792,-0.00885426451973617
1782831323950787000,1.335787109375,-0.029237200400233268,-0.10581731286421417,-0.04033372742142528
1782831323960716000,1.345716064453125,0.03451075688898563,-0.04420980166979134,-0.08786123880445956
1782831323970645000,1.35564501953125,-0.032141105148196215,-0.05693842340484261,-0.02091452200654894
1782831323980574700,1.36557470703125,-0.06701426560878754,-0.13827946666032076,0.04483239054754376
1782831323990504000,1.37550390625,-0.08778232834935187,-0.1435434516031295,0.05015475461408496
1782831324000433000,1.385432861328125,-0.12824760972857474,-0.10482990926206111,0.038521417302452024
1782831324010361900,1.39536181640625,-0.08164367946386336,-0.10436002672798932,-0.01603613884784281
1782831324020292000,1.4052919921875,-0.03731646195948124,-0.08919226821251212,-0.04389710072511807
1782831324030221000,1.415220947265625,-0.0866787510216236,-0.10152904108576476,-0.00850841022413224
1782831324040150000,1.42514990234375,-0.03364098831713199,-0.15583178222477434,-0.003156728731561452
1782831324050079000,1.435078857421875,-0.03874970963299274,-0.11883622278273105,-0.010904675977211445
1782831324060009000,1.445009033203125,-0.03638531858921051,-0.14614165140278637,-0.05185823406372219
1782831324069938000,1.45493798828125,0.04476794700920581,-0.11371076952777802,-0.12247308144774287
1782831324079867000,1.464866943359375,0.016676409512758256,-0.06801511321440339,-0.06832353984275832
1782831324089796000,1.474796142578125,-0.07204875264465808,-0.14883059822581707,0.009945658219326288
1782831324099726000,1.48472607421875,0.004979541978240013,-0.19623576187081634,-0.03777814292078838
1782831324109654800,1.49465478515625,-0.003879471781849861,-0.09597783669941126,-0.11024186957450582
1782831324119583700,1.504583740234375,-0.11269815841913222,-0.06681508977487682,-0.0045615905608050525
1782831324129513000,1.514512939453125,-0.15938275270462035,-0.09152904059700667,0.00001594648780301213
1782831324139442000,1.52444189453125,-0.27789398131668563,-0.011878069320321082,-0.05187441801354289
1782831324149372000,1.534371826171875,-0.2186182010054588,0.04696100007407367,-0.12572740706857294
1782831324159301000,1.544301025390625,-0.16112170532643794,0.06209193371050059,-0.13450281593212857
1782831324169230000,1.55422998046875,-0.11993570845723152,0.005052388018742204,-0.0454831278075464
1782831324179159000,1.564158935546875,-0.03607376842200756,-0.0806602944497019,0.03336237230515107
1782831324189089000,1.574089111328125,0.09121171827614306,-0.08829933796077966,0.04251518138004467
1782831324199018000,1.58401806640625,0.07966799547672271,-0.07946421653293073,0.0008693301804363727
1782831324208947000,1.593947021484375,0.02670037539899349,-0.06730784172788262,-0.0014083324279636144
1782831324218876000,1.6038759765625,0.027829087167978286,-0.031858342684060334,-0.05530062960255891
1782831324228806100,1.61380615234375,0.09384323582351208,0.006960778923332691,-0.12691621499434114
1782831324238734800,1.62373486328125,0.006610358050465583,0.01841682343930006,-0.10937442082390189
1782831324248663800,1.633663818359375,-0.08713993879258632,-0.052441550377011294,-0.024598233754280954
1782831324258592800,1.6435927734375,-0.1629535969287157,-0.06950900503396988,0.011447167089767753
1782831324268523000,1.65352294921875,-0.12731821992397307,-0.06630553281754255,0.005346713056508451
1782831324278452000,1.663451904296875,-0.1190127483934164,-0.048359687890857456,-0.028037268292251973
1782831324288381000,1.673380859375,-0.11199673215150832,-0.048822410031780596,-0.050282545712217686
1782831324298310100,1.68331005859375,-0.09354279157221317,-0.07326411978378891,-0.023536194013338535
1782831324308240000,1.693239990234375,-0.02076338656544685,-0.08881305963657796,0.015902027606777846
1782831324318168800,1.7031689453125,0.013522329396009444,-0.09170965786091982,0.04231869069356471
1782831324328098000,1.71309814453125,0.03187923934161663,-0.12226714707948266,0.017331932545732707
1782831324338027000,1.723027099609375,0.0248918646723032,-0.15191818897761403,0.014637286634277552
1782831324347957000,1.73295703125,-0.010705518409609795,-0.13177220365814865,0.04242644365066662
1782831324357886000,1.742885986328125,-0.0705190588593483,-0.07919175626710057,0.020533185405610128
1782831324367815000,1.75281494140625,-0.14073767346739768,-0.02525068804733455,-0.019151996712898835
1782831324377744000,1.762743896484375,-0.16427169378995896,-0.01611483010724187,-0.051887414492433885
1782831324387673900,1.772673828125,-0.17473346657156943,-0.0045204000338912005,-0.07952990218028426
1782831324397603000,1.78260302734375,-0.18750760794878005,0.01266257076151669,-0.050420885603828354
1782831324407532000,1.792531982421875,-0.196427996507287,-0.009404884139820933,0.06329803069778718
1782831324417461000,1.8024609375,-0.21151041482686994,-0.0551797431692481,0.10906389357000588
1782831324427391000,1.812390869140625,-0.1011748938858509,-0.05604651606641709,0.049661198943480846
1782831324437320000,1.82231982421875,0.023563246417045592,-0.0012226005975157022,-0.002833150199847296
1782831324447249000,1.832248779296875,-0.10775544131994247,0.03644106736443937,-0.012771328365616499
1782831324457177900,1.842177734375,-0.14226853629648684,-0.058140565736219285,-0.04160212165573612
1782831324467108000,1.852108154296875,-0.09896130948960781,-0.02840812916494906,-0.10447167040891944
1782831324477037000,1.862037109375,-0.12012041737437247,0.04996953424029052,-0.09120184533610008
1782831324486966000,1.871966064453125,-0.11824117949903011,-0.025184125617146492,-0.02678516760561615
1782831324496894700,1.881894775390625,-0.08604805190265179,-0.028608181781694293,-0.05626623236485757
1782831324506825000,1.891824951171875,-0.05583177733719349,-0.0023799539390951395,-0.08484478619326837
1782831324516754000,1.90175390625,-0.06303484058380127,-0.04886186525933444,-0.03776113698706031
1782831324526683000,1.911682861328125,-0.09908230552077293,-0.09860993876866996,-0.016642772104637698
1782831324536612000,1.921612060546875,-0.00698737466931343,-0.1002810868512839,-0.10287284777699969
1782831324546541000,1.931541015625,0.028645664247870444,-0.017722119173407554,-0.16145937631558627
1782831324556470800,1.941470703125,-0.03769640118777752,-0.008389715747907757,-0.15366041126875207
1782831324566400000,1.95139990234375,-0.03485504028201103,-0.03420417515784502,-0.1406366151125636
1782831324576329000,1.961328857421875,-0.0001958148330450058,-0.07080247891061008,-0.1148782880703453
1782831324586258000,1.9712578125,-0.006440846702456474,-0.06826390034370124,-0.07789284816351719
1782831324596188200,1.981188232421875,-0.044642859324812885,-0.11322905042544007,-0.07729229758763685
1782831324606117000,1.9911171875,0.004174655336141586,-0.12138137722089885,-0.07382188153071328
1782831324616045800,2.0010458984375,0.006834229934215545,-0.07438172563686966,-0.06495053344543557
1782831324625974800,2.010974853515625,-0.0943254663825035,-0.0862014158334583,-0.04597931839323137
1782831324635905000,2.020905029296875,-0.1315308691829443,-0.07152041792161762,-0.07078387010826263
1782831324645834000,2.030833984375,-0.16459434987306593,-0.02660699802711606,-0.08657236803770064
1782831324655763000,2.040762939453125,-0.16536942589879036,-0.046571635430306194,-0.052273883926216506
1782831324665692000,2.05069189453125,-0.14268822301328182,-0.07087978193052112,-0.060430622035311535
1782831324675622000,2.060621826171875,-0.1332329969257116,-0.07217756665609777,-0.06449049188536592
1782831324685550800,2.07055078125,-0.1569669237345457,-0.10748802255541086,-0.02795932595152408
1782831324695479800,2.080479736328125,-0.17307693153619766,-0.1607542602535337,0.01805275763357058
1782831324705409000,2.090408935546875,-0.11890578088760376,-0.11617299492284655,0.01173766533578746
1782831324715339000,2.100339111328125,-0.10489712927937507,-0.05135996568538248,0.02240394771355204
1782831324725268000,2.11026806640625,-0.10589490814507006,-0.010769012099876999,-0.02891603302131407
1782831324735197200,2.120197265625,-0.18609657210707664,0.013952026050165295,-0.0048761729353107505
1782831324745126000,2.1301259765625,-0.23923487257659434,-0.001519099326059222,0.0647568968697451
1782831324755055900,2.140055908203125,-0.15217618232667446,-0.03442132503986359,0.06757815570239908
1782831324764984800,2.14998486328125,-0.039542905837297436,-0.008703238676488399,0.03817950852960348
1782831324774914000,2.1599140625,-0.0692249273955822,-0.05571129276268184,0.03005539404847659
1782831324784843000,2.169843017578125,-0.059417234608530996,-0.13412614637315273,0.060789481942960986
1782831324794772700,2.179772705078125,-0.035571664118766784,-0.06541866698041558,0.06434066248536109
1782831324804702000,2.189701904296875,-0.04850128831863403,-0.03158880502767861,-0.02321704506156966
1782831324814631000,2.199630859375,-0.005479308193922043,-0.019561463429778814,-0.05618463676231913
1782831324824559900,2.209559814453125,-0.06331716465651989,0.003005246230587363,-0.00719735502502881
1782831324834490000,2.219489990234375,-0.04886252284646034,-0.05624328074753284,0.00889581123967655
1782831324844419000,2.229419189453125,-0.019783727878332137,-0.06091390290707349,-0.0015646007019095123
1782831324854348000,2.23934814453125,0.0015384616136550901,-0.07077106085903942,0.0008553199213929474
1782831324864277000,2.249277099609375,-0.07670154688656329,-0.06519574494473636,0.032476501981867474
1782831324874207000,2.25920703125,-0.11232231084406376,-0.13172514964602886,0.03432970123365521
1782831324884136000,2.269135986328125,-0.05210895742177963,-0.10240407035462558,-0.02948022450902499
1782831324894065000,2.27906494140625,-0.06382043800354004,-0.012629983666166663,-0.06376900921040214
1782831324903993900,2.288993896484375,-0.13081249178051949,-0.02566065708771348,-0.06937488465975038
1782831324913924000,2.298924072265625,-0.16577333052456378,-0.052731546299532056,-0.05694891739939339
1782831324923852800,2.308852783203125,-0.1655032814115286,-0.05821743036471307,-0.08861108905738219
1782831324933781000,2.318781005859375,-0.0892494782924652,-0.011706292949989438,-0.0815169843442738
1782831324943710000,2.3287099609375,-0.07275660865306854,0.022763693537190554,-0.07208028029408306
1782831324953639700,2.3386396484375,-0.09114157564938068,-0.0293974324632436,-0.06924065468767658
1782831324963569000,2.34856884765625,-0.03126841396689415,-0.021438874674215912,-0.04659485190911218
1782831324973497900,2.358497802734375,-0.021654197925329206,-0.004495850114524364,-0.06625436888588591
1782831324983426800,2.3684267578125,-0.03793722420632839,-0.020548867031931876,-0.035165951128397134
1782831324993357000,2.378357177734375,-0.08183949429690837,-0.04011303387545049,-0.018481668836437166
1782831325003285800,2.38828564453125,-0.07397767488062382,-0.06153758776336908,-0.0572384109984152
1782831325013214700,2.398214599609375,-0.08114625133574009,-0.0227889741089195,-0.12788321512928233
1782831325023143700,2.408143798828125,-0.13470949921905995,0.009639350482821465,-0.11767227530358358
1782831325033074000,2.418073974609375,-0.16162205606400964,-0.04573554993234574,-0.0657178325900808
1782831325043003000,2.4280029296875,-0.152309453317523,-0.08538476568832994,-0.04227789289229549
1782831325052931800,2.437931884765625,-0.10415127934813499,-0.05920023085698485,-0.04544031157912686
1782831325062860800,2.44786083984375,-0.035463527569174765,-0.0373317325938493,-0.028069855387602
1782831325072790800,2.457790771484375,0.01094751047194004,-0.04770765372291207,-0.019251210170518607
1782831325082719700,2.4677197265625,0.06308335590064525,-0.058187035226449364,-0.03433320836499333
1782831325092648700,2.477648681640625,0.09580021511018276,-0.05486234778314829,-0.03375867814635858
1782831325102578000,2.487577880859375,-0.023346388795971867,-0.01890979458801448,0.050313251377735284
1782831325112508000,2.4975078125,-0.03851005565822124,-0.036619931062683464,0.03527732081469148
1782831325122436900,2.507436767578125,-0.02433715339899063,0.0044705695427954195,-0.027145004760799927
1782831325132365800,2.51736572265625,-0.018033669340610504,0.05391454553902149,-0.014003719704784453
1782831325142294800,2.527294677734375,-0.07544716291129588,-0.00900251388400793,0.07894305133619345
1782831325152224800,2.537224853515625,-0.13706161530315875,-0.048276101260632275,0.13318788827550596
1782831325162153700,2.54715380859375,-0.1411374864399433,-0.04483852802738547,0.0845681977415923
1782831325172083000,2.5570830078125,-0.050365328624844545,-0.03185958479307592,-0.0019851642015390096
1782831325182012000,2.567011962890625,-0.081163202470541,-0.021374285005405544,-0.01551837118458934
1782831325191941600,2.576941650390625,-0.08789864820539951,-0.06605988749340176,0.035046699529746546
1782831325201870800,2.586870849609375,-0.11883797634840011,-0.10450761850513517,0.052433969858754426
1782831325211799800,2.5967998046875,-0.09299334099590778,-0.05916501341313123,0.04357642653654329
1782831325221728800,2.606728759765625,-0.03581014904975891,-0.022937296538427472,0.013766814809525385
1782831325231659000,2.616658935546875,-0.014469839379191397,-0.027701003808900712,-0.009414254756364971
1782831325241588000,2.626587890625,-0.05640227070152759,-0.04628017820306122,0.02984501183396205
1782831325251517000,2.636516845703125,-0.10193009616732597,-0.05503733902387321,0.06811049988027662
1782831325261446000,2.64644580078125,-0.15880816768705844,-0.03083528324663639,0.02014385729446076
1782831325271376000,2.6563759765625,-0.16854221071600914,-0.068840165861696,-0.011941910070460289
1782831325281304800,2.666304931640625,-0.08782616749107837,-0.09222067612297832,-0.02773932652529329
1782831325291233800,2.67623388671875,-0.1711065082460642,-0.04203326134830713,-0.01142999675925821
1782831325301162800,2.686162841796875,-0.18132161279022693,-0.09770926360189915,-0.03273968296269886
1782831325311092700,2.6960927734375,-0.10689560962021351,-0.09257109699584543,-0.10621922646230086
1782831325321021700,2.706021728515625,-0.08860825777947902,-0.07804097879678011,-0.10342941308068111
1782831325330950700,2.71595068359375,-0.04807166472971439,-0.15705964351929724,-0.039769261939078565
1782831325340880000,2.7258798828125,0.08548749541044234,-0.13083850300461053,-0.04376955622215755
1782831325350809900,2.735809814453125,0.0708545744240284,-0.0431266826082021,-0.07173156732111237
1782831325360738800,2.74573876953125,0.0858773715108633,-0.07444178526103497,-0.10154928015619516
1782831325370668000,2.75566796875,0.05233166026175022,-0.047307840750366446,-0.1232853842113167
1782831325380597000,2.765596923828125,0.006635492491722106,-0.042375498914718625,-0.06672329243873246
1782831325390526700,2.775526611328125,-0.03530161500573158,-0.10609364558756351,0.0754058536533732
1782831325400455700,2.78545556640625,-0.11860066046118735,-0.0852684458322823,0.06724206474898382
1782831325410385000,2.795385009765625,-0.08707797947227955,-0.06153671098053455,-0.05881419068146497
1782831325420313900,2.80531396484375,-0.06254676480591297,-0.014463409638404845,-0.07336559826373122
1782831325430243800,2.815243896484375,-0.14619535435140132,-0.03548581246621907,0.007362299795774742
1782831325440172800,2.8251728515625,-0.1409282276034355,-0.09427052132487297,0.04857595185688696
1782831325450101800,2.835101806640625,-0.08206161261498927,-0.04863550915755331,-0.01617077067871578
1782831325460030700,2.84503076171875,-0.10184534049332142,-0.0013818828124552965,-0.02523723491071723
1782831325469961000,2.8549609375,-0.16877660399377345,-0.023592837837710975,0.014504636697936802
1782831325479890000,2.864889892578125,-0.13663842145502567,0.0023855068970471617,0.013693210717197507
1782831325489819000,2.87481884765625,-0.11213643288314341,0.06472454723641276,0.029349437736207618
1782831325499747800,2.884747802734375,-0.11380348931252955,0.030698139798268673,0.0701116653685458
1782831325509677800,2.894677734375,-0.1043944404542446,0.0003008095774799585,0.07870131500218995
1782831325519606800,2.904606689453125,-0.09624211365878581,0.01803323094919324,0.09434723982289434
1782831325529535700,2.91453564453125,-0.04721709372699261,0.040500498823076485,0.1240291974490974
1782831325539464700,2.924464599609375,-0.008798808005452156,0.07970832748711108,0.07841721909749322
1782831325549395000,2.93439501953125,-0.025946926683187484,0.0948391880583018,0.04498692352212965
1782831325559324000,2.944323974609375,-0.08345277471244335,0.05618380564525723,0.053515280555747446
1782831325569252600,2.954252685546875,-0.11445581574141979,0.03707973059415817,0.10226555693307891
1782831325579181800,2.964181884765625,-0.022937807995080946,0.037706338059902186,0.06138553900681436
1782831325589111800,2.97411181640625,-0.0066261401414871215,0.07223353462703526,0.04717097129663452
1782831325599040800,2.984040771484375,0.019303250885009764,0.02971855417639017,0.07819070773208514
1782831325608970000,2.993969970703125,0.02105973916351795,-0.005685644420981407,0.09559581511188298
1782831325618899000,3.00389892578125,0.020609657308459282,0.002986687660589814,0.08677170826839282
1782831325628828700,3.01382861328125,0.007937807261943817,-0.004639569434151053,0.07585753381047397
1782831325638758000,3.0237578125,-0.04309621440470218,-0.044072000634297726,0.07291989118969068
1782831325648686800,3.033686767578125,-0.04050444434583187,-0.062329030402004715,0.05052154209986329
1782831325658615800,3.04361572265625,-0.09248889860510826,-0.02783127912506461,-0.009774192376248539
1782831325668545800,3.0535458984375,-0.12229425428211688,0.015099953976273535,-0.033269963047653436
1782831325678475000,3.06347509765625,-0.1606529187709093,-0.016044322154298424,-0.06160731026502326
1782831325688404000,3.073404052734375,-0.11922376079559326,-0.0577802079912275,-0.06394481330187991
1782831325698332700,3.083332763671875,-0.05931786588728428,-0.08104688261449336,-0.0949593803718686
1782831325708263000,3.093262939453125,-0.06269581788778304,-0.09302337080799043,-0.09045037851482629
1782831325718191900,3.10319189453125,-0.049746904465556144,-0.15241474032290278,-0.045511641515977676
1782831325728120800,3.113120849609375,-0.07390402512252331,-0.15494089779965578,-0.054157377851568156
1782831325738049800,3.1230498046875,-0.09471300439536572,-0.15269794117845595,-0.07881976288324222
1782831325747979800,3.132979736328125,-0.03206979347765446,-0.13452632467187942,-0.12813768308069556
1782831325757908700,3.14290869140625,-0.03078384532034397,-0.11383308073319494,-0.08215062433900311
1782831325767837700,3.152837646484375,0.014118541723489761,-0.11171177773028612,-0.07827427609600127
1782831325777767000,3.162766845703125,-0.037309447696805,-0.060089069455489516,-0.09688737102607264
1782831325787697000,3.17269677734375,-0.11556699185371398,-0.07950681356564164,-0.1280511555747129
1782831325797625900,3.1826259765625,-0.0976455507159233,-0.07733399957120418,-0.16303318323725832
1782831325807554800,3.192554931640625,-0.13699088815450666,-0.03416172425560653,-0.14015067649283444
1782831325817483800,3.20248388671875,-0.15401099653840064,-0.09085194505304098,-0.06745728753539733
1782831325827413800,3.212413818359375,-0.2233727020561695,-0.11249014169164001,-0.02432387379230931
1782831325837342700,3.2223427734375,-0.2254723046839237,-0.07076901503242553,-0.08187868466298096
1782831325847272000,3.23227197265625,-0.20505027890205382,-0.07757526098117232,-0.13576914607351645
1782831325857201000,3.242200927734375,-0.21898294266462326,-0.08504486620947718,-0.13042810470596886
1782831325867131000,3.252130859375,-0.24581717357635496,-0.0727178840778768,-0.11117897689468227
1782831325877059800,3.262059814453125,-0.16483868002295493,-0.1098774749752134,-0.1480892235402949
1782831325886988800,3.27198876953125,-0.07818155631124973,-0.09752148594483732,-0.1847660724219866
1782831325896917800,3.281917724609375,-0.04301613490581512,-0.09338855085857212,-0.1264651467585936
1782831325906847700,3.29184765625,-0.0007563713252544403,-0.08348631165586412,-0.11466006960924714
1782831325916777000,3.30177685546875,-0.02109013430178165,-0.015046397158131003,-0.09903539763912558
1782831325926706000,3.311705810546875,-0.006820785930752754,-0.023813494851067662,-0.10371378298001363
1782831325936636400,3.321636474609375,0.02914776855111122,-0.023961817280575632,-0.14294473679130895
1782831325946565400,3.3315654296875,-0.005953939968347549,-0.005136924497038126,-0.10754388092849403
1782831325956494300,3.341494384765625,0.0036240357160568235,-0.07384674197733401,-0.06325520533621311
1782831325966423600,3.351423583984375,0.057441550621390336,-0.09876198752522468,-0.0847172599566169
1782831325976353300,3.361353271484375,0.09353168565630912,-0.0817741739757359,-0.0826167622797191
1782831325986282200,3.3712822265625,0.06626432402431964,-0.10416786515675484,-0.017311675208993255
1782831325996211500,3.38121142578125,0.060498600104451176,-0.09475625901520252,0.005492259007040411
1782831326006140400,3.391140380859375,0.009563362637162207,-0.028127485592663287,-0.026949162528291343
1782831326016070400,3.4010703125,-0.10707330427467822,-0.01191248304657638,-0.039527132879430424
1782831326025999400,3.410999267578125,-0.13789865064918994,-0.03151698190048337,-0.06514857220160775
1782831326035928600,3.420928466796875,-0.14920038138628006,0.02428556934222579,-0.06520751758092083
1782831326045857500,3.430857421875,-0.14189853394031524,0.03154540427736938,-0.031961757392762226
1782831326055787300,3.440787353515625,-0.1555120487511158,0.012445640075206757,-0.005452986442577094
1782831326065716500,3.450716552734375,-0.10560673885345459,-0.03196867119073868,0.02452837425530888
1782831326075645400,3.4606455078125,-0.05176408950686454,-0.04955386611148715,0.031937097875541075
1782831326085574400,3.470574462890625,-0.061436757737398144,-0.08681085296869277,0.05839059497453272
1782831326095504600,3.480504638671875,-0.03757423611283302,-0.07420286193862558,0.05369188836482353
1782831326105433300,3.490433349609375,-0.07416238379776477,0.013891966425999998,0.03833855328252539
1782831326115362300,3.5003623046875,-0.11474164694547652,0.008360343522951006,-0.003104532753443345
1782831326125291300,3.510291259765625,-0.15228314983248709,-0.018908114087581633,-0.015929627999756484
1782831326135221500,3.520221435546875,-0.23368366819024083,-0.008678104235231876,0.013441409646905957
1782831326145150500,3.530150390625,-0.19887889679074286,-0.051088236071914435,0.02657157965386286
1782831326155079400,3.540079345703125,-0.07725216650664805,-0.04180917026884853,-0.02417403525914997
1782831326165008400,3.55000830078125,-0.0954237830132246,-0.03196918264739215,-0.03336337695214897
1782831326174938400,3.5599384765625,-0.11647475434839724,-0.10874759416244924,0.049924398190621284
1782831326184867300,3.569867431640625,-0.11758826854825019,-0.09740100137032567,0.04763192160557955
1782831326194796300,3.57979638671875,-0.13187339901030062,-0.059231648908555506,0.03509811918972991
1782831326204725500,3.5897255859375,-0.13129822947084904,-0.08179448611140251,-0.017797723426576702
1782831326214655500,3.599655517578125,-0.1250420916855335,-0.07284918230734765,-0.039839285834832115
1782831326224584400,3.60958447265625,-0.1510533157765865,-0.06088533439971506,0.03248813762073405
1782831326234513400,3.619513427734375,-0.07778758855760097,-0.07475640416815876,0.010545925667416304
1782831326244442400,3.6294423828125,-0.03651099079549312,-0.013333163499459623,-0.012986560285184532
1782831326254372400,3.639372314453125,-0.0688414810359478,-0.03779430860430002,-0.028491003409121182
1782831326264301300,3.64930126953125,-0.032721535384655,-0.11696034590825438,-0.030257127165654672
1782831326274230500,3.65923046875,0.009520692539215087,-0.0826085789732635,-0.03207579396017827
1782831326284159500,3.669159423828125,0.03901566709280014,-0.06744469291530548,-0.05254803382563404
1782831326294089200,3.679089111328125,0.021119944918155668,-0.08883278725035489,-0.07003148540495895
1782831326304018400,3.689018310546875,-0.02636310626864433,-0.05716748292036354,-0.09495419274009764
1782831326313947400,3.698947509765625,-0.030724808609485624,-0.012093173375725746,-0.10646446992764248
1782831326323877400,3.70887744140625,-0.05089490545690059,-0.0022441256649792193,-0.08756670370413921
1782831326333806600,3.718806640625,-0.057823827937245366,-0.009252396991848945,-0.10682544872714206
1782831326343735600,3.728735595703125,-0.10993804605603218,-0.02306070372238755,-0.13509177653491497
1782831326353664500,3.73866455078125,-0.09217501035034656,-0.10091039773076772,-0.10094459226131439
1782831326363594200,3.74859423828125,-0.016380056914687156,-0.09204524649083613,-0.08973172711776568
1782831326373523500,3.7585234375,-0.025220950496196746,-0.05167421926632523,-0.06303484058380127
1782831326383452400,3.768452392578125,-0.07103168455660343,-0.06819631500020623,-0.04233732232879847
1782831326393381400,3.77838134765625,-0.09535013325512409,-0.030053777480125426,-0.06488076071143149
1782831326403311600,3.7883115234375,-0.07174421674013137,0.02550524733029306,-0.11105920470622367
1782831326413240300,3.798240234375,-0.0400064316958189,0.002703486805036664,-0.08582122087683527
1782831326423169300,3.808169189453125,-0.010724807631969452,-0.0072623922184109685,-0.03343635998996906
1782831326433098200,3.81809814453125,-0.04690671260356903,-0.04233005233779549,0.007648295396612956
1782831326443028500,3.828028564453125,-0.06343465355634689,-0.07912658207640051,0.035917792409006506
1782831326452957400,3.83795751953125,-0.05651274533867836,-0.04627747478932142,0.022096854525757954
1782831326462886400,3.847886474609375,-0.04575871161222458,-0.039482407821714874,0.0149150806623511
1782831326472815600,3.857815673828125,-0.08867080162167548,-0.05270728864111006,0.05044808413800783
1782831326482745300,3.867745361328125,-0.11275777965188026,-0.05456913699023425,0.04967222266099416
1782831326492674300,3.87767431640625,-0.09359890567362308,-0.0313396525721997,0.0011393153613898901
1782831326502603300,3.887603271484375,-0.11179974827468395,-0.034727833705767985,0.0066147784972563385
1782831326512532500,3.897532470703125,-0.16290391256809234,-0.0624248189266771,0.05644433801127598
1782831326522462500,3.90746240234375,-0.0943950244873762,-0.08096702231131493,0.011867136934353038
1782831326532391400,3.917391357421875,-0.057846039769053455,-0.051409357785061,-0.0019222641663160173
1782831326542320400,3.9273203125,-0.0043920974791049954,-0.05498188250958919,-0.014759753103321418
1782831326552249300,3.937249267578125,0.009358195453882216,-0.09117964263744652,0.03610019977120683
1782831326562179300,3.947179443359375,0.034597850650548934,-0.11848434060513972,0.06872674121563323
1782831326572108500,3.957108642578125,-0.02261515191197395,-0.10020290704853832,0.07341446064044721
1782831326582037500,3.96703759765625,-0.07250292615294456,-0.08752535791359842,0.042211193464789534
1782831326591967200,3.97696728515625,-0.12453238859772682,-0.05329853253252804,0.04537943910420872
1782831326601896400,3.986896484375,-0.18111995273828504,-0.058077072045952076,0.023397854121727867
1782831326611825400,3.996825439453125,-0.23052432737648484,-0.034124826311320064,0.02122897651689127
1782831326621754400,4.00675439453125,-0.1998363436460495,-0.034871333829686046,-0.0027638843559194353
1782831326631684400,4.016684326171875,-0.1531149244815111,-0.035044863765686746,-0.009906970176752657
1782831326641613600,4.026613525390625,-0.1286456691354513,-0.051705783448368306,0.006311356837581843
1782831326651542500,4.03654248046875,-0.08999299013614653,-0.06552125057205557,0.023352891601994632
1782831326661471500,4.046471435546875,-0.05455108987689018,-0.023617168561369178,0.027455961272958664
1782831326671401500,4.0564013671875,-0.04139467118382454,-0.018307298650220037,0.025094328441843387
1782831326681330400,4.066330322265625,-0.019205051207542418,-0.01894859222844243,0.03346901101740077
1782831326691259400,4.07625927734375,-0.027491233515739438,-0.0008360124327242374,0.024215317117609082
1782831326701188400,4.086188232421875,-0.03912146555483341,-0.022654680204764008,0.02706181085621938
1782831326711118300,4.096118408203125,-0.07862403938174248,0.011020502642914652,0.02870655498909764
1782831326721047300,4.10604736328125,-0.08388298282325267,0.005432546442747116,-0.047602759443176906
1782831326730976300,4.115976318359375,-0.0850976193100214,-0.024658932699263093,-0.07748211193815804
1782831326740905500,4.125905517578125,-0.07444587691426277,-0.04023658718988299,-0.028771674380870534
1782831326750835500,4.13583544921875,-0.0547287845313549,-0.09846826527565718,0.00036322555551305413
1782831326760764400,4.145764404296875,-0.04359539609849453,-0.11041194717809558,-0.04561519322199747
1782831326770693400,4.155693359375,-0.019866729986667633,-0.0352693201713264,-0.04548148383973166
1782831326780622600,4.16562255859375,0.04017652756571769,-0.07503434432670474,-0.028185033599333834
1782831326790552300,4.17555224609375,0.005945756661891937,-0.0961677332483232,-0.0304740213193465
1782831326800481300,4.185481201171875,-0.046018823853135105,-0.03777669988237321,-0.02764499017219059
1782831326810410500,4.195410400390625,-0.08882219279110432,-0.006917670433968305,-0.09068308215900324
1782831326820340500,4.205340576171875,-0.13408990601599216,-0.013850684567540883,-0.07528309492338449
1782831326830269400,4.21526953125,-0.11324059473276138,0.009037585197389125,-0.008092340236529707
1782831326840198400,4.225198486328125,-0.07988017692267894,0.04474938843920827,0.028572388949105514
1782831326850127400,4.23512744140625,-0.04931786539852619,0.008710691330581903,0.05186043515396304
1782831326860057300,4.245057373046875,-0.09134148213565349,-0.009342194167152047,0.06397314434722065
1782831326869986300,4.254986328125,-0.0483937362909317,-0.03354761094525456,0.049791446860181166
1782831326879915500,4.26491552734375,-0.022400632378458976,-0.040207434160634874,0.025140094679174944
1782831326889844500,4.274844482421875,-0.01846212388575077,-0.07662468225806951,0.0550573680317495
1782831326899774200,4.284774169921875,-0.045562312257289884,-0.11755480467006564,0.06932822337327525
1782831326909703400,4.294703369140625,-0.08339432252347469,-0.04766724864728748,0.018312111822655422
1782831326919632400,4.30463232421875,-0.15110416918098926,-0.0353038069628179,-0.018617597575252876
1782831326929561300,4.314561279296875,-0.14155775767862797,-0.04087766157239675,-0.031672227261122315
1782831326939491000,4.324490966796875,-0.131307581821084,-0.03376351871825754,-0.03807234922754578
1782831326949420000,4.334419921875,-0.11725684463679789,-0.05594751267135143,-0.012078121937066316
1782831326959349000,4.344348876953125,-0.11832651969492435,-0.10315276983007789,0.030149237211234865
1782831326969278200,4.3542783203125,-0.08903495875895023,-0.1374595285795629,0.021612304145516827
1782831326979208000,4.3642080078125,-0.052663084173202514,-0.10387976893037557,-0.008121264936914667
1782831326989137000,4.374136962890625,-0.11164894162714481,-0.07368687524050474,0.03648655960713513
1782831326999066000,4.384066162109375,-0.11569032597243785,-0.10447919612824916,-0.020729155502282083
1782831327008996000,4.39399609375,-0.0854155992180109,-0.05258519663140177,-0.07106350446697324
1782831327018925000,4.403925048828125,-0.10746844107210636,-0.014251520453393458,-0.011530507124820724
1782831327028854000,4.41385400390625,-0.13621698117256165,-0.04789835398942232,-0.022969289978733286
1782831327038783000,4.423782958984375,-0.11313245818316936,-0.008924772472679615,-0.09284510076479055
1782831327048713000,4.433712890625,-0.04401274472773075,0.05995820961743593,-0.12027019197545014
1782831327058642200,4.44364208984375,-0.03674947572648525,0.04279898502379655,-0.06969905684650875
1782831327068571100,4.453571044921875,-0.07055413017272949,0.009533990412205456,-0.002385168970329687
1782831327078500000,4.4635,-0.08043781080543995,-0.022405162423104048,0.005749466904811561
1782831327088429800,4.473429931640625,-0.0309960267663002,0.009323416401445865,-0.03661821402963251
1782831327098359000,4.483359130859375,0.014134908336400985,0.026987521777302025,-0.06041708670030348
1782831327108288000,4.4932880859375,0.035892566636204715,0.0035072774685919283,-0.07300935957143083
1782831327118217000,4.503217041015625,-0.07461363469660282,-0.002821925552934408,-0.059527946707699446
1782831327128147200,4.513147216796875,-0.01716097815930843,-0.0651662996545434,-0.08379399849870242
1782831327138076200,4.523076171875,0.05480068072378635,-0.044348844814300535,-0.08565897038667462
1782831327148005000,4.533005126953125,-0.03220072638094425,-0.03384958956651389,-0.04751722745103761
1782831327157933800,4.542933837890625,-0.06303951675891876,-0.11063048529960215,-0.056219379282137376
1782831327167864000,4.552864013671875,-0.07962298729121685,-0.086735376579687,-0.0673761120579671
1782831327177793000,4.56279296875,-0.10551555343866348,-0.07422485457472502,-0.06120528706908226
1782831327187722000,4.572721923828125,-0.144562200191617,-0.0881740310806781,-0.048537839203048494
1782831327197652200,4.58265234375,-0.23661738355457781,-0.038552871886640784,-0.07578107104077934
1782831327207581000,4.592580810546875,-0.265470553073287,-0.03460902963168919,-0.10970244720187038
1782831327217510000,4.602510009765625,-0.21596271806061268,-0.02889035972394049,-0.1367172771112062
1782831327227438800,4.61243896484375,-0.1937742671281099,-0.022447686390578744,-0.08087271335767582
1782831327237369000,4.622369140625,-0.09485036703944205,-0.07309855395853519,-0.011014712222944945
1782831327247298000,4.632298095703125,0.00760346074104309,-0.047757045822590584,-0.03499110601814463
1782831327257227000,4.64222705078125,0.049590837121009826,-0.04079816659539938,-0.024082256189314647
1782831327267156200,4.65215625,-0.025541268491744994,-0.06188800863623619,0.03422196654286235
1782831327277086000,4.6620859375,0.007790507745742798,-0.07814195495322346,-0.008179662326956168
1782831327287015000,4.672014892578125,-0.002122398981451988,0.00926613325625658,-0.06850666872416622
1782831327296944000,4.681944091796875,-0.021926585125923156,0.031244448569416997,-0.10773236183845437
1782831327306873000,4.691873046875,-0.05825988126695156,-0.014239976146072149,-0.09124402224370277
1782831327316803000,4.701802978515625,-0.07277706691920757,-0.012399170584976672,-0.061843667171010745
1782831327326732000,4.71173193359375,-0.05473287618458271,-0.021084873604774474,-0.05199941436639055
1782831327336661000,4.721660888671875,-0.1008048915296793,-0.026060031668841837,-0.027074085815902798
1782831327346591000,4.731591064453125,-0.08113280733227729,-0.023176585187017915,-0.030618087698845192
1782831327356520000,4.74152001953125,-0.14898703089654444,0.013637187947332858,0.0017216909597627817
1782831327366449200,4.75144921875,-0.14895195958316326,0.001357698219269514,-0.011753063834318891
1782831327376378000,4.761378173828125,-0.14113105669915676,0.023466946435719727,-0.03721531227310188
1782831327386307800,4.771307861328125,-0.12180442493855953,0.008665829275548457,-0.00997001634244807
1782831327396237000,4.781237060546875,-0.11242869382798672,-0.009290683175623416,0.030876208912068975
1782831327406166000,4.791166015625,-0.13028466851413248,-0.01896276688426733,0.02199854525043629
1782831327416095000,4.801094970703125,-0.09967501071691512,-0.017839315812289713,-0.01281650094790384
1782831327426025200,4.811025146484375,-0.08888415211141108,-0.003234744137525558,0.02588740591513924
1782831327435954200,4.8209541015625,-0.0981686978071928,-0.05049012404829263,0.05102229469623416
1782831327445883100,4.830883056640625,-0.09378244554698467,-0.044452012927830215,0.015755604873411357
1782831327455812000,4.84081201171875,-0.027706922093033787,-0.01314370534196496,-0.029667874301923438
1782831327465742000,4.8507421875,0.006889174991846084,-0.007967910139262676,-0.04141802465994842
1782831327475671000,4.860671142578125,-0.008157587492465972,-0.062482613528519866,0.011309731380455195
1782831327485600000,4.87060009765625,-0.00998246483206749,-0.0784507286414504,0.06492480078255758
1782831327495529000,4.880529052734375,-0.0693991149187088,-0.05589855896309018,0.07881819198066368
1782831327505459000,4.890458984375,-0.1108212586313486,-0.051748307415843006,0.0559652127248235
1782831327515388000,4.900387939453125,-0.11293722787201405,-0.0016676409512758254,-0.006648845163639634
1782831327525316900,4.91031689453125,-0.13847674279808997,0.03240413999855518,-0.053669037212198595
1782831327535247000,4.9202470703125,-0.16043606114983558,-0.02087327668070793,-0.03498531559817493
1782831327545176000,4.930176025390625,-0.12450491606891155,-0.06436155914291739,-0.008954455224890261
1782831327555105000,4.94010498046875,-0.13546119436919687,-0.05134966348707676,-0.011002829988906159
1782831327565034200,4.9500341796875,-0.13256430388391016,-0.06326631125211715,-0.009790796451177447
1782831327574964000,4.9599638671875,-0.09324877706170082,-0.04383665750846266,-0.036843346288707106
1782831327584893000,4.969892822265625,-0.0743698890686035,-0.015098638802021742,-0.02254263466503471
1782831327594822000,4.97982177734375,-0.04628828844428062,-0.062051236373931166,-0.023550323003390803
1782831327604751000,4.989751220703125,-0.021745383340120314,-0.07848331573680042,0.018550541954720393
1782831327614681000,4.99968115234375,0.024026187753677368,-0.07209799861386418,0.04926483830334619
1782831327624610000,5.009610107421875,-0.04490589417517185,-0.05360723315551877,0.01688940380946733
1782831327634539000,5.0195390625,-0.089380411195755,-0.0367146966740489,-0.033086121780192476
1782831327644468000,5.029468017578125,-0.06571896510124206,0.014511194302886724,-0.0970927026061341
1782831327654398000,5.03939794921875,-0.12214637024402618,0.039067543410509824,-0.07587032935996539
1782831327664327200,5.0493271484375,-0.16216156976819038,-0.027817250599712132,-0.0471057057743892
1782831327674256100,5.059256103515625,-0.10439327141046524,-0.06576192746013403,-0.028496857761172577
1782831327684185900,5.069185791015625,-0.035168928536772726,-0.04806801146790385,-0.010339781236601992
1782831327694114800,5.07911474609375,-0.04324935913980007,-0.04506780673861503,0.03345556701393798
1782831327704044000,5.0890439453125,0.0009013327538967132,-0.04920169167295098,-0.03778523024870083
1782831327713973000,5.098972900390625,0.011850596791505814,0.020079349824041127,-0.06306778387217782
1782831327723903000,5.108903076171875,0.03639408641755581,-0.00390782109349966,-0.010068873607041314
1782831327733832200,5.118832275390625,-0.028301380854845046,-0.006819324626028537,0.0608864577777218
1782831327743761200,5.12876123046875,-0.04064297603368759,-0.0065481064692139625,-0.006283628580439835
1782831327753690000,5.138690185546875,-0.007673603367805481,0.001585661756247282,-0.0942739279915113
1782831327763620000,5.1486201171875,-0.051317514783143996,0.010351882666349411,-0.05895646696267649
1782831327773549000,5.158549072265625,-0.1542383755534887,-0.05059884511977434,-0.00014335399344563485
1782831327783478000,5.16847802734375,-0.14736965882778166,-0.05415434564426541,0.01929577996460721
1782831327793407000,5.178406982421875,-0.14220365436673163,0.010196253713220357,0.006406889633927494
1782831327803337200,5.188337158203125,-0.17290683566629886,0.015157237121462821,-0.047517474046209825
1782831327813266000,5.198265869140625,-0.15332126070857047,0.03189487530216575,-0.05838614712827839
1782831327823195000,5.20819482421875,-0.12364508436918258,0.0201959619410336,-0.004465290579479187
1782831327833123800,5.218123779296875,-0.07679857752025127,-0.009719576112180947,0.010855813600495458
1782831327843054000,5.22805419921875,-0.05888590421080589,-0.005461918667703867,0.03027450755871832
1782831327852983000,5.237983154296875,-0.029994156247377394,0.008930763822048902,0.018590042848046866
1782831327862912000,5.247912109375,-0.048553310766816134,0.0064805941909551615,0.03202683111876249
1782831327872842000,5.257842041015625,-0.030989012503623962,0.004987725284695625,-0.01918558845524676
1782831327882771000,5.26777099609375,-0.07642974420785903,0.055829731510579586,0.013848830537172034
1782831327892700000,5.277699951171875,-0.09178396520614623,0.026234949844330547,0.03477657735147513
1782831327902629000,5.287629150390625,-0.038781273815035815,0.03963905968815088,-0.0006129351334180683
1782831327912559000,5.29755908203125,-0.012585925328731536,0.07052826507911086,-0.040025355591997505
1782831327922484000,5.30748388671875,-0.012457915034890174,0.06964008406773209,-0.039196357421949504
1782831327932414000,5.3174140625,-0.1236655426353216,-0.0027526597090065477,0.008257896928628905
1782831327942343200,5.32734326171875,-0.08717734819352627,-0.04038417896702885,0.0031822376321535557
1782831327952272100,5.337272216796875,-0.021853519889712333,0.03267915754765272,-0.08297743055196478
1782831327962201000,5.347201171875,-0.08520166420638561,0.013056611580401658,-0.06643321431782097
1782831327972131300,5.35713134765625,-0.08372808452248573,-0.06231997031271457,-0.03185939299683086
1782831327982060300,5.367060302734375,-0.0074526540935039515,0.002556991006433964,-0.04091615781872533
1782831327991989200,5.3769892578125,0.02816343368887901,0.030419688183069227,-0.05106964096929878
1782831328001918000,5.38691796875,-0.04169277734756469,-0.031711481559276576,-0.008774038890376687
1782831328011848200,5.39684814453125,-0.06232698457539081,-0.06778948776498436,-0.041093414081772785
1782831328021777200,5.406777099609375,-0.00996200656592846,0.0015029519088566301,-0.08128249973496422
1782831328031706000,5.4167060546875,-0.033822774624824525,-0.007466828749328852,-0.07298301955377683
1782831328041636400,5.42663623046875,-0.08165595442354678,-0.07006444695964455,-0.053160393570316954
1782831328051565000,5.43656494140625,-0.10674480297267436,-0.06867620747163891,-0.05109899492794648
1782831328061494000,5.446493896484375,-0.0592208352535963,-0.10107172577232122,-0.06974236626527272
1782831328071423000,5.456423095703125,-0.040730069795250894,-0.11524141316115856,-0.03075644585676491
1782831328081353200,5.466353271484375,-0.04639057977497577,-0.09787804429754614,0.0012051836718339473
1782831328091282200,5.4762822265625,-0.10033493593037128,-0.09856105812564492,0.0032734961121808734
1782831328101211100,5.486211181640625,-0.10115502014160156,-0.0563442569039762,-0.03736924245948903
1782831328111140400,5.496140380859375,-0.07289104868769646,-0.01785860503464937,-0.05752155705504119
1782831328121070000,5.506070068359375,-0.08963409369587898,-0.046556876252591604,-0.0455612436782103
1782831328130999000,5.5159990234375,-0.13781974019408225,-0.07578019425794481,0.008267258412018417
1782831328140928300,5.52592822265625,-0.1271381871819496,-0.08733721493035554,0.020310190304694695
1782831328150857200,5.535857177734375,-0.12620879737734794,-0.04484320420250296,-0.014990292189875618
1782831328160787200,5.545787109375,-0.19496318465173243,-0.032604338745772836,0.00922253157654777
1782831328170716200,5.555716064453125,-0.16120996813178062,-0.04094181284978986,-0.024899920114595443
1782831328180645000,5.56564501953125,-0.09711889649331569,0.03794014681577682,-0.047177218374330546
1782831328190575000,5.5755751953125,-0.08180559202730656,0.013942746765166521,0.02573006906211376
1782831328200504000,5.585504150390625,-0.12506196542978287,-0.07554404741451144,0.06299480996751226
1782831328210433300,5.595433349609375,-0.03518178801834583,-0.06412512003853917,0.027530058555630964
1782831328220362200,5.6053623046875,-0.04453998347222805,-0.019905162300914526,0.03729827784881927
1782831328230292000,5.6152919921875,-0.16853870358467102,-0.05908975621983409,0.06108305806205608
1782831328240221200,5.62522119140625,-0.09624503626823425,-0.013864274701476097,-0.027147023187950252
1782831328250150100,5.635150146484375,-0.02922960161566734,0.09007657676637172,-0.0895717873157002
1782831328260079000,5.6450791015625,-0.05511515350043773,0.01920943512171507,-0.014026479525864123
1782831328270009300,5.65500927734375,-0.0667500617146492,-0.07348784553706646,0.058964303209260105
1782831328279938300,5.664938232421875,-0.02295066747665405,-0.06322860959023237,0.03270624648397788
1782831328289867300,5.6748671875,-0.015016367346048354,-0.05230009607970714,0.05100542575982399
1782831328299796200,5.684796142578125,0.05197743999660015,-0.038926527504622936,-0.02678551466548815
1782831328309726200,5.694726318359375,0.029613632497191428,0.03584638940691948,-0.09314580074441618
1782831328319655200,5.7046552734375,0.03142097418010235,-0.0215204885430634,-0.06072700203284621
1782831328329584000,5.714584228515625,-0.01229249534010887,-0.04793269465044141,-0.008773527433723212
1782831328339514400,5.724514404296875,-0.026577041280269623,-0.03581234100684523,-0.003199051769636571
1782831328349443000,5.734443115234375,-0.04217559242844581,-0.05692249518334865,-0.0036507410598918795
1782831328359372000,5.7443720703125,-0.12281389424204826,-0.06630816316604614,0.002890506410272792
1782831328369301000,5.754301025390625,-0.16237082860469818,-0.0703814039543271,0.0036944066716823724
1782831328379231200,5.764231201171875,-0.1934527800887823,-0.03192556270137429,-0.029192530141444874
1782831328389160200,5.77416015625,-0.22278350399136543,-0.03729878017231822,-0.050807756896410136
1782831328399089200,5.784089111328125,-0.23413550361096858,-0.06039484746903181,-0.04660828677942045
1782831328409018400,5.794018310546875,-0.15913900707662104,-0.03411109004691243,-0.017815971469320357
1782831328418948000,5.803947998046875,-0.10583177978098392,-0.026996289605647324,-0.002018966006441042
1782831328428877000,5.813876953125,-0.0506114123404026,-0.03312383257523179,0.016427613250305874
1782831328438806000,5.823805908203125,-0.04501344620287418,-0.03745382460355758,0.03466609358116984
1782831328448735200,5.8337353515625,-0.009891279417276381,-0.05713643019497394,0.039359274632390584
1782831328458665200,5.843665283203125,-0.008353402325510979,-0.03622735154852271,0.016363178845122457
1782831328468594200,5.85359423828125,-0.052039983838796613,-0.021837737798690793,0.009595511341094971
1782831328478523100,5.863523193359375,-0.06753098295927047,-0.02027472626566887,-0.0062052113156765695
1782831328488452000,5.8734521484375,-0.10692775832414626,0.02818739908635616,-0.045493987128278235
1782831328498382000,5.883382080078125,-0.1430284147530794,0.03527808799967169,-0.005947044436680152
1782831328508311300,5.893311279296875,-0.09075871381163597,0.008980448182672261,-0.036690429882472377
1782831328518240300,5.903240234375,-0.037896892195940016,0.05055982828363776,-0.03528376882178709
1782831328528170000,5.913169921875,-0.03630114743709564,0.004802870237082243,0.021577735155634582
1782831328538099000,5.923098876953125,-0.04439736013114452,-0.03867255274355411,0.04840476000844501
1782831328548028200,5.933028076171875,-0.04525543826520443,-0.0025227964758872986,0.013707586302421986
1782831328557957000,5.94295703125,-0.1353641637355089,0.004353957425802946,0.0038540633459575474
1782831328567887000,5.95288720703125,-0.13294541215598582,-0.013395342015475034,-0.04933678016155026
1782831328577818000,5.962818115234375,-0.07353343824446201,0.020379794075340033,-0.050813958308333525
1782831328587747000,5.9727470703125,-0.059680853980779644,-0.06086933311298489,0.003490061472309753
1782831328597677300,5.98267724609375,-0.03588262976408005,-0.045876346642524005,-0.014342377074621618
1782831328607606300,5.992606201171875,-0.019093992048501967,-0.04834945875778794,-0.047335021018236875
1782831328617535200,6.00253515625,-0.024733459240198135,-0.04583820658922195,-0.049382263271091506
1782831328627465200,6.01246533203125,-0.027114216896891592,-0.04158668662458658,-0.051286242862045764
1782831328637394200,6.022394287109375,-0.0014221417576074599,-0.04119418017566204,-0.06288883797554298
1782831328647323100,6.0323232421875,-0.04986731597483158,-0.02559066059142351,-0.005585572446836158
1782831328657252000,6.042252197265625,-0.05299450808465481,-0.08122735374793409,0.01869947630558163
1782831328667182000,6.05218212890625,-0.07228723757565021,-0.044377486386895176,0.016174853198789058
1782831328677111000,6.062111083984375,-0.12828268104195595,0.00877878813073039,0.03391489162137732
1782831328687040000,6.0720400390625,-0.12107143448889254,-0.023759645771980285,-0.00678926741448231
1782831328696969200,6.08196923828125,-0.09579261632561684,0.018295096755772827,-0.07210225466387346
1782831328706899200,6.091899169921875,-0.13695406327545642,0.01995338535681367,-0.05985007306784391
1782831328716828200,6.101828125,-0.13923428316712377,-0.053598757588118315,0.024804898774903265
1782831328726757000,6.111757080078125,-0.08236614851951599,-0.031414544439315795,0.03221764098312706
1782831328736686300,6.121686279296875,-0.09717617963850497,0.0044148938328027725,0.029430531015247105
1782831328746616000,6.131615966796875,-0.11077098974883556,-0.010130348870158195,0.005520471321372315
1782831328756545000,6.141544921875,-0.06548924799859523,0.03329918914213777,-0.034757854384696106
1782831328766474200,6.15147412109375,-0.1143809969395399,0.05541340579465031,-0.0018864987331908196
1782831328776403200,6.1614033203125,-0.16057751544713972,-0.05010901577621698,0.058502768378425385
1782831328786333200,6.171333251953125,-0.054365796437859534,-0.03530760635510087,-0.00863464868599549
1782831328796262100,6.18126220703125,-0.10495499694645405,0.04157499618679285,-0.020717428531870245
1782831328806191000,6.191191162109375,-0.09824760826230049,-0.04376958362162113,-0.016439915609452873
1782831328816121000,6.20112109375,-0.060519058370590205,-0.02856193148717284,-0.035632582259457556
1782831328826050000,6.211050048828125,-0.0008528174370527267,0.012455723077803849,-0.03188824463197961
1782831328835979300,6.220979248046875,-0.04442074100673198,-0.02872618213817477,0.0016618779307696967
1782831328845908200,6.230908203125,-0.06442834076881408,-0.06517959752753377,-0.005126905426522717
1782831328855838000,6.240837890625,0.028730419921875,0.00924845146909356,-0.06439591807024553
1782831328865767200,6.25076708984375,0.03320902664065361,0.03562558626309037,-0.09383211164129897
1782831328875696000,6.260696044921875,-0.06256020880937575,-0.041912265317142004,-0.008749872563499957
1782831328885625000,6.270625,-0.14372691841125487,-0.07211246553063393,0.019195972851943223
1782831328895555300,6.280555419921875,-0.022406477597355843,-0.018899492389708755,-0.07153560635759494
1782831328905484300,6.290484375,0.006485270366072654,0.010213058717548847,-0.0937362591845449
1782831328915413200,6.300413330078125,-0.07211421909630299,-0.07715016743689775,-0.008738099927315487
1782831328925342200,6.31034228515625,-0.12206161457002163,-0.11961816694065927,0.07667772761955857
1782831328935272700,6.320272705078125,-0.14392331776618958,-0.05454875178933143,-0.00008584708597045391
1782831328945201700,6.33020166015625,-0.15536474923491478,-0.008009265062958001,-0.09524440785832702
1782831328955130600,6.340130615234375,-0.24082418759465216,-0.02099412658140063,-0.061192829446308314
1782831328965059800,6.350059814453125,-0.213233585357666,-0.07519026554077864,0.006731692008348182
1782831328974989600,6.359989501953125,-0.17228139724433422,-0.04965455000698566,-0.021012566420389338
1782831328984918500,6.36991845703125,-0.09098550830483436,0.0010055237807333468,-0.01421710672713816
1782831328994847700,6.37984765625,-0.07990355779826641,-0.09710764444693923,-0.013878960813954472
1782831329004777700,6.38977783203125,-0.07267828271985054,-0.10023366751298307,0.015197066808352247
1782831329014706700,6.399706787109375,-0.04142623536586761,-0.08339870643764734,0.019031466472614555
1782831329024635600,6.4096357421875,-0.014744564667344093,-0.10494652137905358,0.022877209514798595
1782831329034564600,6.419564697265625,-0.04417465729117393,-0.08622077812105416,0.028316834152303634
1782831329044494600,6.42949462890625,-0.07050210772454739,-0.051450201252102847,0.050123975883331146
1782831329054423600,6.439423583984375,-0.06781915225088596,-0.015523878476768732,-0.023073170478316023
1782831329064352800,6.449352783203125,-0.06629355011880397,0.049609541821479794,-0.05404980755755678
1782831329074281700,6.45928173828125,-0.07645838578045368,0.047733957207947965,-0.007308231520978733
1782831329084211700,6.469211669921875,-0.05596504832804203,0.022705022152513264,0.013369202927220611
1782831329094140700,6.479140625,-0.09082593382894992,0.033668022454529996,0.037964121346408496
1782831329104069600,6.489069580078125,-0.09230594325363635,-0.010833674833923577,0.04001383868413977
1782831329113998600,6.49899853515625,-0.058142392367124554,-0.032133652494102716,0.0391222601392772
1782831329123928600,6.508928466796875,-0.03676759590506554,-0.006699936030060053,0.012147725707711651
1782831329133857800,6.51885791015625,-0.08781447705328464,-0.017852175293862817,-0.019341792797110974
1782831329143786800,6.528786865234375,-0.07559095529615878,-0.013081161499768495,-0.020844288048241285
1782831329153716500,6.538716552734375,-0.042376083436608314,0.05315992777943611,-0.0208276565738488
1782831329163645700,6.548645751953125,-0.11141571739315986,0.0546045736297965,-0.025679626649664715
1782831329173574700,6.55857470703125,-0.07824117754399776,0.016639876894652843,-0.06287555836886168
1782831329183503600,6.568503662109375,-0.048285015219449993,0.02875365466699004,-0.038508229027315974
1782831329193433900,6.578433837890625,0.01708615935742855,-0.01371639066338539,-0.02741210386492312
1782831329203362800,6.58836279296875,-0.06646481503248214,-0.030450375582277773,-0.002842986607272178
1782831329213291500,6.59829150390625,-0.05578676915168762,-0.0787983730353415,0.012364747725566849
1782831329223220500,6.608220458984375,-0.020808979272842407,-0.04735051084831357,-0.010280881523061542
1782831329233150700,6.618150634765625,-0.02441781741976738,-0.016734277179837227,-0.00884039125801064
1782831329243079700,6.62807958984375,-0.02191197207868099,-0.05674903831258416,-0.031350813287030904
1782831329253008600,6.638008544921875,-0.04924538468420505,-0.012900982627272605,-0.023154345955746246
1782831329262937600,6.6479375,-0.12475333787202834,-0.04881459205150604,-0.011982963600056245
1782831329272867600,6.65786767578125,-0.14897358689308166,-0.1111763556793332,-0.0695468619594816
1782831329282796500,6.667796630859375,-0.09379296694099902,-0.018206687819957733,-0.03939570678579621
1782831329292725500,6.6777255859375,-0.16777882512807846,-0.039526100832968945,-0.022759309623017906
1782831329302654700,6.68765478515625,-0.17596330062747,-0.10119608280435204,0.002229667881364003
1782831329312584700,6.697584716796875,-0.15513152500092983,-0.05966887128204107,-0.01491736395098269
1782831329322513700,6.707513671875,-0.1162637419462204,-0.06487754584103822,-0.02006095108424779
1782831329332443000,6.71744287109375,-0.1095014082044363,-0.08936360619142651,0.01980778460735455
1782831329342372600,6.72737255859375,-0.10098843140304088,-0.06673574092835187,0.0334253545387648
1782831329352301600,6.737301513671875,-0.1454419056355953,-0.03337210824787617,0.032156343816523436
1782831329362230800,6.747230712890625,-0.12465396915078163,0.006429740786552429,0.035697487022099086
1782831329372159700,6.75715966796875,-0.1005436102449894,0.07650193266123533,0.059633854767587036
1782831329382089700,6.76708984375,-0.1835574090182781,0.06727788498103618,0.06551667486163787
1782831329392018400,6.777018310546875,-0.15328735843896865,0.025235271282494066,0.04906540217453148
1782831329401947600,6.78694775390625,-0.09841478152275085,0.05712371684387326,0.007000074320682324
1782831329411876600,6.796876708984375,-0.12270984934568405,0.047507016584277154,0.01133218067428097
1782831329421806600,6.806806640625,-0.1315787999778986,-0.016413666923344134,0.06220695665860548
1782831329431735800,6.81673583984375,-0.05645663123726844,-0.01951587072238326,-0.014394641551398671
1782831329441664800,6.826664794921875,-0.029411972445249557,0.017506430596113204,-0.055039275252632795
1782831329451593700,6.83659375,0.035109307304024694,-0.037787586602568625,0.009085639289929531
1782831329461523700,6.846523681640625,0.11158932039439677,-0.024826690481603145,0.03783795594978146
1782831329471452700,6.85645263671875,0.08769640363156794,-0.014570815535634754,0.003869484677375294
1782831329481381600,6.866381591796875,0.005758125135302544,-0.06780687729120254,-0.028525636331085114
1782831329491311600,6.8763115234375,-0.023627543824911116,-0.07189940730184316,-0.0575193605313776
1782831329501240800,6.88624072265625,-0.03030512189269066,-0.06680471451133489,-0.08517861212436109
1782831329511169800,6.896169677734375,-0.05526186849474907,-0.06785685391277074,-0.0567578746395884
1782831329521098500,6.906098388671875,-0.07811024464070797,-0.03995046372488141,-0.0694301174117485
1782831329531028700,6.91602880859375,-0.08650222541093826,-0.012657821521162986,-0.09477766712941228
1782831329540957700,6.925957763671875,-0.14593758019804953,-0.017408815440535543,-0.09783965764907188
1782831329550886700,6.93588671875,-0.1456207693338394,-0.04304389969557523,-0.09584833770138211
1782831329560815600,6.945815673828125,-0.13225100015103816,-0.052379737187176936,-0.08070459024915472
1782831329570745600,6.95574560546875,-0.09820493816435337,-0.07166618306785821,-0.047284163047256876
1782831329580674600,6.965674560546875,-0.05967676232755184,-0.07301452893689274,-0.007282877884013578
1782831329590603500,6.975603515625,-0.08649228853881359,-0.049582361553609365,0.0017227138730697333
1782831329600532700,6.98553271484375,-0.035541853502392765,-0.03708148415982723,-0.05643224114810582
1782831329610462700,6.995462646484375,-0.044271687924861906,-0.03149301650300622,-0.028401872954098507
1782831329620391700,7.0053916015625,-0.01894084731340408,-0.046455753965675826,-0.008435778812761419
1782831329630320600,7.015320556640625,-0.03963759838342666,-0.019098960484564304,-0.021288963075820354
1782831329640249900,7.025249755859375,-0.06383680461645126,-0.013193681963533162,-0.021986393588338978
1782831329650179600,7.0351796875,-0.08448387132585049,-0.015692659172415732,-0.004252666175528429
1782831329660108500,7.045108642578125,-0.07577800230085849,0.003987169940024614,-0.012792371153645217
1782831329670037800,7.055037841796875,-0.0684925214678049,0.045747021174430844,-0.019912578422389922
1782831329679967700,7.0649677734375,-0.12626023530364036,0.02456803954541683,-0.011491508554993196
1782831329689896700,7.074896728515625,-0.11542144590318203,-0.033392712644487614,-0.014217472053319215
1782831329699825700,7.08482568359375,-0.056502223944664,-0.005909516304731369,0.0016707644901238381
1782831329709754600,7.094754638671875,-0.07821779666841029,-0.011651128696650265,0.01183740851636976
1782831329719684600,7.1046845703125,-0.09050970748662948,-0.03313756883963943,-0.036346721878182144
1782831329729613600,7.114613525390625,-0.05953238542079925,0.008953998567163944,0.0009813574538566172
1782831329739542800,7.124542724609375,-0.025079496198892593,0.014054098185151815,0.033942053622938693
1782831329749471700,7.1344716796875,-0.027179098826646802,-0.027361908047646284,0.031834057626174764
1782831329759401500,7.1444013671875,-0.03752396723031998,-0.03935732013732195,-0.009861870659701526
1782831329769330700,7.15433056640625,-0.002390110006928444,-0.017946283318102357,-0.007078094293223694
1782831329779259600,7.164259765625,0.005980243453383445,-0.00024856793358922003,0.024392281119711697
1782831329789188600,7.174188720703125,-0.07751870848834515,0.0067218556009232995,0.0344941802135203
1782831329799118800,7.184118896484375,-0.130074825155735,0.01725406327024102,0.026918822188954798
1782831329809047800,7.1940478515625,-0.13218027300238608,0.02641089093312621,0.007569841599231585
1782831329818976800,7.203976806640625,-0.12710545395612716,0.029059213484823702,-0.022095119226397945
1782831329828905500,7.213905517578125,-0.12249708337783813,-0.02757204366698861,0.029488709209579973
1782831329838835700,7.223835693359375,-0.12190846983492373,-0.09780103353857994,0.0484060386500787
1782831329848764700,7.2337646484375,-0.060526072633266446,-0.10804580256864428,-0.012812454960448666
1782831329858693600,7.243693603515625,-0.0609375760436058,-0.053654871689528226,-0.002649162801913917
1782831329868622600,7.25362255859375,-0.1300631347179413,-0.09368322295621037,-0.001699022470228374
1782831329878552600,7.263552490234375,-0.12696516870260238,-0.07572232659086585,-0.0605279631962534
1782831329888481500,7.2734814453125,-0.1559516092121601,-0.003357347603887319,-0.08481899416488595
1782831329898410500,7.283410400390625,-0.20207506248354912,0.019786504357308148,-0.01439668281143531
1782831329908340700,7.2933408203125,-0.2517377957969904,-0.022552754200249908,0.03655448287734762
1782831329918269700,7.303269775390625,-0.17735563176870345,-0.005523293466120958,-0.02103374620573595
1782831329928198700,7.31319873046875,-0.16474749460816382,0.011861994968354701,-0.05471753248497843
1782831329938131500,7.32313134765625,-0.17079671164453028,-0.04826791795417666,-0.05135426659695804
1782831329948061200,7.333061279296875,-0.13155951075553893,-0.06681684334054588,-0.04048349288934842
1782831329957990100,7.342990234375,-0.022855974930524825,-0.07536401467248798,0.006986854079505428
1782831329967919400,7.35291943359375,0.01490413914322853,-0.08104176804795861,-0.05772785674948245
1782831329977848300,7.362848388671875,0.1043383263528347,-0.060031567114591594,-0.07447999837957323
1782831329987778300,7.3727783203125,0.14062076908946036,-0.0241762637488544,-0.06596472002323717
1782831329997707300,7.382707275390625,0.12515841154158114,0.022593524602055548,-0.010371427617035805
1782831330007636200,7.39263623046875,0.18458266041278837,0.03642988838329911,-0.0014758081736043094
1782831330017565200,7.402565185546875,0.1940975077331066,0.055859395996481175,-0.04767260067583993
1782831330027495400,7.412495361328125,0.02988017447888851,0.03265475375875831,-0.06264704684261233
1782831330037424400,7.42242431640625,-0.01983107415139675,-0.042236967226862904,-0.04898445045938715
1782831330047353300,7.432353271484375,-0.04547112684249878,-0.002966010198742151,0.006159125417936593
1782831330057282300,7.4422822265625,-0.10982932498455047,0.006133242058008909,0.04102359111541882
1782831330067212300,7.45221240234375,-0.14665186594724655,-0.007312076579034328,-0.0369817318460904
1782831330077141200,7.462141357421875,-0.09543605797290801,0.04725640282407403,-0.120495936155878
1782831330087070200,7.4720703125,-0.11972352701127528,0.030915655006468295,-0.06875499919573776
1782831330097000400,7.48200048828125,-0.1329202777147293,-0.03503726498112082,0.0005733246422372758
1782831330106929400,7.491929443359375,-0.1394078861683607,-0.06035422319769859,0.04870441880845464
1782831330116858400,7.5018583984375,-0.1487631590127945,-0.0483937362909317,0.002549547485494986
1782831330126787000,7.511787109375,-0.1416653097063303,-0.02626958276629448,-0.039624848499707876
1782831330136717300,7.52171728515625,-0.16160159779787062,-0.004393558783829212,-0.07592332905568182
1782831330146646300,7.531646240234375,-0.1375467684715986,-0.007601122653484344,-0.0638720311934594
1782831330156575200,7.5415751953125,-0.16388006412386893,-0.033766368262469766,0.012151095841731876
1782831330166504400,7.55150439453125,-0.13302782974243163,-0.06940072235390543,0.005098830109508708
1782831330176434200,7.56143408203125,-0.14621873522698878,-0.05794336266368627,-0.019414611438149584
1782831330186363100,7.571363037109375,-0.1759293983578682,-0.09884703546017408,-0.004812204321008175
1782831330196292400,7.581292236328125,-0.13701134642064572,-0.11138166899308562,-0.05165796225126833
1782831330206222300,7.591222412109375,-0.12335925316512585,-0.047330637104064224,-0.0698754454598762
1782831330216151300,7.6011513671875,-0.09119126001000404,-0.06446764986589551,-0.040120057271281255
1782831330226080300,7.611080322265625,-0.10109130725562572,-0.03173968474045396,-0.00024369996222667394
1782831330236009500,7.621009521484375,-0.10620119761526584,-0.030816870807111263,-0.0005529394413344562
1782831330245939200,7.630939208984375,-0.11018822142481803,-0.0557953908495605,-0.052767028604866935
1782831330255868200,7.6408681640625,-0.08250877186059952,-0.0419169414922595,-0.0824275689837057
1782831330265797400,7.65079736328125,-0.03995382472574711,-0.03969137439727783,-0.036928439889429135
1782831330275726300,7.660726318359375,-0.007145195579528808,-0.029001638078689572,-0.020023527983576057
1782831330285656300,7.67065625,-0.011192425143718718,-0.014014935218542813,-0.060348578908201306
1782831330295585300,7.680585205078125,-0.010102291819453239,-0.011414981853216885,-0.05141900239624083
1782831330305514200,7.69051416015625,-0.003145312288403511,0.034835020407289266,-0.00800388563494198
1782831330315443200,7.700443115234375,-0.0113806411921978,0.020974983489513398,-0.022172166517982258
1782831330325373200,7.710373291015625,-0.030570494830608367,0.004516746772080659,-0.04069156441576779
1782831330335302400,7.720302490234375,-0.11170856285989283,-0.002239303359389305,-0.009168810361623763
1782831330345231400,7.7302314453125,-0.06816518920958042,-0.019503011240810154,0.001271042849123478
1782831330355160300,7.740160400390625,-0.046080783173441886,0.008158902666717767,0.026642827392322942
1782831330365090300,7.75009033203125,-0.035353637453913685,-0.01573065309524536,0.019970172094833104
1782831330375019300,7.760019287109375,-0.06706570353507996,-0.049283086346089834,0.030292061481717973
1782831330384948200,7.7699482421875,-0.1017366194218397,-0.05405541531443596,0.07686134969131089
1782831330394878500,7.77987841796875,-0.08766133231818675,-0.04819353754371404,0.038834520105924454
1782831330404807400,7.789807373046875,-0.09011983138620853,0.01123962528631091,-0.029996960125816985
1782831330414736400,7.799736328125,-0.09652268416583537,-0.016149901420623062,-0.015396909362543374
1782831330424665000,7.8096650390625,-0.12660744130611418,-0.06306713541820645,-0.012096461311355233
1782831330434595300,7.81959521484375,-0.12246844180524348,-0.04772431259676814,0.02605116337579675
1782831330444524300,7.829524169921875,-0.12536591681241988,-0.05420169191733002,0.03888029547641054
1782831330454453200,7.839453369140625,-0.13521803326308726,-0.047360739981383085,-0.01361779826027341
1782831330464382200,7.84938232421875,-0.12180384041666983,-0.02453691375479102,-0.06327500601522625
1782831330474312200,7.859312255859375,-0.09744856683909893,-0.03244914818406105,-0.06776217963295057
1782831330484241200,7.8692412109375,-0.10235445905923843,-0.0672260086633265,-0.023003721971297634
1782831330494170000,7.879170166015625,-0.04582651615142822,-0.10340148389413953,-0.02864867818886414
1782831330504099300,7.889099365234375,-0.014696049350500106,-0.10038900420516729,-0.046057082637446
1782831330514029300,7.899029296875,-0.017580080354213712,-0.07700257565975188,-0.04887150987051427
1782831330523958300,7.908958251953125,-0.028156419426202773,-0.03571721006929874,-0.027666142558073623
1782831330533887500,7.918887451171875,-0.0966916109919548,-0.044132571715116496,0.0038832894404418764
1782831330543816400,7.92881640625,-0.05412731150686741,-0.026088234850019217,-0.07457337575145065
1782831330553746200,7.93874609375,-0.10548924995362759,0.04536635129377246,-0.12274173318813554
1782831330563675400,7.94867529296875,-0.08072013487815856,-0.018313363064825533,-0.09583036365327424
1782831330573604400,7.958604248046875,-0.01265022273659706,-0.03780819099918008,-0.06293626644699835
1782831330583534300,7.968534423828125,-0.002404723054170608,-0.032964550360292194,-0.053491653084987774
1782831330593463300,7.97846337890625,-0.09594108488559722,-0.0717227355606854,0.013425865017902106
1782831330603392300,7.988392333984375,-0.1909773298859596,-0.07527297538816928,0.05037914708764292
1782831330613321200,7.9983212890625,-0.10842764149308204,0.00004252396747469902,-0.0484378220278304
1782831330623251200,8.008251220703125,-0.11497019500434398,0.05372194557636976,-0.07643726079403422
1782831330633180400,8.018180419921874,-0.13988894768357277,-0.025730361323058604,-0.04515616087550297
1782831330643109400,8.028109375,-0.07877776863873004,-0.03691884094402194,0.016281912036146966
1782831330653038300,8.038038330078125,-0.057394788870215416,0.0102194884583354,0.05073970576203428
1782831330662968300,8.04796826171875,-0.09944178648293017,-0.011456336776912211,0.04484995360369794
1782831330672897300,8.057897216796874,-0.1613900008738041,-0.0009209142372012137,0.03653944970499724
1782831330682826200,8.067826171875,-0.14886311225593088,0.050287002691626545,-0.01267300995714031
1782831330692755200,8.077755126953125,-0.16950024209320544,0.07112652323320508,-0.04830862442390062
1782831330702685400,8.087685546875,-0.11480477530956268,0.015938889018446208,-0.0194060902049765
1782831330712614400,8.097614501953124,-0.1009311482578516,-0.004471300195157527,0.05324760606288909
1782831330722543400,8.10754345703125,-0.11093874753117561,-0.028850685300678015,0.08513906556526199
1782831330732472000,8.11747216796875,-0.07347323248982429,-0.03805895088985562,0.027770963772572575
1782831330742402300,8.12740234375,0.0003998129725456238,0.0180349845148623,-0.05751222297111526
1782831330752331300,8.137331298828125,-0.04258884940445423,0.0221381820499897,-0.03419893272714689
1782831330762260200,8.14726025390625,-0.07362579270303249,-0.03982727573662996,0.02379289045445621
1782831330772189400,8.157189453125,-0.006098316875100135,0.004884703301638364,-0.019082082414999604
1782831330782119200,8.167119140625,-0.06494856525063514,0.06732128573134541,-0.00035314255291596055
1782831330792048000,8.177048095703125,-0.14686054026186465,-0.01510126915052533,0.01722063592467457
1782831330801977300,8.186977294921874,-0.024726444977521893,0.014527560915797948,-0.07842248892765492
1782831330811907300,8.1969072265625,-0.04919511580169201,0.08166019220724702,-0.07901053621498867
1782831330821836300,8.206836181640625,-0.09941606751978396,-0.06766235425397753,0.02207790323011577
1782831330831765200,8.21676513671875,-0.030606735187768935,-0.061088090430200095,0.028914690447598694
1782831330841694500,8.226694580078124,-0.05950608193576336,0.018614537968486545,0.017555457369610665
1782831330851624200,8.236624267578126,-0.11022504630386828,-0.042905221877247095,-0.005647248639352619
1782831330861553200,8.24655322265625,-0.014055997881293296,-0.01387260413840413,-0.06438161555025726
1782831330871482400,8.256482421875,0.041805590072274204,0.027060294752568007,-0.06458121150927618
1782831330881411300,8.266411376953124,0.000029810616374015806,-0.07386442376449703,0.014967176175769417
1782831330891341300,8.27634130859375,0.0026718495577573776,-0.10741934123337268,-0.015838899242691693
1782831330901270300,8.286270263671875,-0.012620996642112732,-0.040071752016991376,-0.029267979130987075
1782831330911199200,8.29619921875,-0.12227438053786754,-0.05088745280280709,-0.002182385540381074
1782831330921128200,8.306128173828125,-0.150196406686306,-0.05732201589494943,-0.037790490945708
1782831330931058200,8.31605810546875,-0.08667290580272674,-0.015972499027103185,-0.08635317232906818
1782831330940983000,8.325983154296875,-0.0780213973134756,-0.02304477550089359,-0.005952843989804387
1782831330950912000,8.335912109375,-0.09056348350048064,-0.08584142341464758,0.04135813856571913
1782831330960841200,8.34584130859375,-0.06575929711163044,-0.09456468196585774,0.009934625368658453
1782831330970771200,8.355771240234375,-0.0851496417582035,-0.08886325545385479,0.01303346816683188
1782831330980700000,8.365699951171875,-0.12429215010106563,-0.0976509575434029,0.007833862830279394
1782831330990629000,8.375629150390624,-0.12200374690294265,-0.048963352872431275,-0.0007022391183767468
1782831331000559000,8.38555908203125,-0.16400222919881344,-0.001939443629980087,-0.0006278313084505499
1782831331010488000,8.395488037109375,-0.13591887500882147,0.015493044947087763,-0.060235291259456425
1782831331020417000,8.4054169921875,-0.11863280916512012,0.04929799165427685,-0.0241546729715541
1782831331030346200,8.41534619140625,-0.10149345831573009,-0.011210399191826582,0.007263807857362553
1782831331040276000,8.42527587890625,-0.12696575322449208,-0.029563509745150804,0.02601191821079701
1782831331050205000,8.435204833984375,-0.06363163743317127,-0.050454468213021755,0.03399970209430903
1782831331060134100,8.445134033203125,-0.02404255436658859,-0.015681553256511688,0.011178341819439082
1782831331070063000,8.45506298828125,-0.10136486349999904,0.012931085504591464,0.04659837730675936
1782831331079993000,8.4649931640625,-0.07986790196299552,0.014234569318592547,0.03424105483582243
1782831331089922300,8.47492236328125,-0.09368775300085544,0.08777151469439268,0.015070581751316784
1782831331099851000,8.48485107421875,-0.08419745559990406,0.0906077610336244,0.028837789286486802
1782831331109780000,8.494780029296875,-0.0789455264210701,0.06225494225248694,0.030723036777507512
1782831331119710000,8.5047099609375,-0.02485913144648075,0.08589680686369537,0.027309922132082283
1782831331129639200,8.51463916015625,0.05314005403518676,0.04439122265130281,0.055806661162246016
1782831331139568000,8.524568115234375,0.08296002275943756,0.018099281922727823,0.07543075976576656
1782831331149497000,8.5344970703125,-0.0013607669591903686,-0.0035286125175654887,0.08554660518653691
1782831331159427000,8.544427001953125,0.011238017851114272,-0.019175825113058088,0.06534872528305277
1782831331169356000,8.55435595703125,-0.012027706924080847,0.05372822918668389,0.025410792246181518
1782831331179285000,8.564284912109375,-0.11042436826825142,0.05305953614488244,0.016878855015989392
1782831331189215200,8.57421533203125,-0.11558335846662521,-0.004179039250314235,-0.0007583806192502379
1782831331199144200,8.584144287109375,-0.1292652623385191,0.027281097896397113,0.029501221631281077
1782831331209073200,8.5940732421875,-0.13185937048494814,-0.030274288363009688,0.03171763730542734
1782831331219002000,8.604002197265626,-0.1198269873857498,-0.08521028590425848,0.001321750123053789
1782831331228932000,8.61393212890625,-0.09347966320812702,-0.052572629410773515,0.032783293775562196
1782831331238861000,8.623861083984375,-0.06670505352914333,-0.059980421449244016,0.04775938391014933
1782831331248790000,8.6337900390625,-0.02959083614349365,-0.03277501913756132,-0.01153767665112391
1782831331258719000,8.643718994140626,-0.05862754553556442,0.018112141404300928,-0.04347259170273319
1782831331268649200,8.653649169921875,-0.09467033429741858,-0.012029314359277486,0.003335519364569336
1782831331278578000,8.663577880859375,-0.09624795887768268,-0.04653422602936625,0.06363010306321085
1782831331288507000,8.6735068359375,-0.13529635919630525,-0.044510757377743716,0.03957160220881924
1782831331298436000,8.68343603515625,-0.1717845536381006,-0.06128916596025228,-0.022732659078110007
1782831331308366000,8.693365966796875,-0.1179670387327671,-0.025195962185412642,-0.07043410225594415
1782831331318295000,8.703294921875,-0.10750234334170818,0.0001819324381649494,-0.04936972344992682
1782831331328224300,8.713224365234375,-0.07115326510965823,-0.09029548021405935,-0.05150238809706643
1782831331338153200,8.7231533203125,-0.040352468654513356,-0.062300388829410074,-0.009480123066809027
1782831331348083000,8.7330830078125,-0.02956394813656807,-0.06582987812981009,-0.014018844208680093
1782831331358012000,8.743011962890625,-0.049074119770526885,-0.06296469795703888,-0.03155534114949405
1782831331367941000,8.752941162109375,-0.10130290417969226,-0.013504355347901582,-0.06999748267065733
1782831331377870000,8.7628701171875,-0.13278291507065296,0.009738719204068184,-0.09606518618930131
1782831331387800000,8.772800048828126,-0.12378829223215579,-0.0044160628765821455,-0.0675855078917928
1782831331397729300,8.782729248046875,-0.06182838740348816,0.012482172693312168,-0.060216148167569185
1782831331407658000,8.792657958984375,-0.053798225682973856,0.007116115615516901,-0.054253568235039705
1782831331417588000,8.802587890625,-0.08514671914875507,-0.03845774094909429,-0.02605011306302622
1782831331427517200,8.81251708984375,-0.08438391808271407,-0.028265871150046584,-0.03697508290959522
1782831331437446100,8.822446044921875,-0.02386661327779293,0.011978022563457489,-0.09102635177187621
1782831331447375000,8.832375,-0.009171732971072197,0.04494505714178085,-0.0645763344047591
1782831331457305000,8.84230517578125,-0.006618541356921195,0.021942367216944692,0.03308435908136889
1782831331467234000,8.852234130859374,-0.055334933730959886,0.03663870882838964,0.02209640700118616
1782831331477163000,8.8621630859375,-0.08187456561028957,0.03314969766885042,-0.020098145856056363
1782831331487092000,8.872092041015625,-0.07013327441215515,0.01502571969628334,-0.05197071799486875
1782831331497022200,8.882022216796875,-0.08966799596548079,-0.004786065232753754,-0.026730460010003298
1782831331506951200,8.891951171875,-0.10094342321753501,-0.028469869289547204,0.003441756218019873
1782831331516880100,8.901880126953126,-0.08420622342824935,-0.02732259895056486,0.011906984887551516
1782831331526809000,8.91180908203125,-0.10279343499839305,0.02978051349669695,0.0429238717787899
1782831331536739000,8.921739013671875,-0.08611118026673793,0.044338177289813756,-0.022346235310100018
1782831331546668000,8.93166796875,-0.12845511499941348,0.08208148635923862,-0.0527723532339558
1782831331556597000,8.941596923828126,-0.14777473249733447,0.05657338948473334,-0.028801019206363705
1782831331566527200,8.95152734375,-0.12046119363605975,0.034963030701130625,-0.005601802062429487
1782831331576456200,8.961456298828125,-0.06983224563896656,0.03348988940864801,0.02472923972280696
1782831331586385000,8.971385009765624,-0.08408464287519454,0.020744389604032038,0.043132801821734755
1782831331596314000,8.981314208984376,-0.10781681611835955,0.038297874212265014,0.022501699866447598
1782831331606244000,8.991244140625,-0.1366419285863638,0.06300780644640326,0.010529211994633077
1782831331616173000,9.001173095703125,-0.11496727239489554,0.04411795866787433,-0.03684188498398289
1782831331626102000,9.01110205078125,-0.10269289723336696,0.04033610204160213,-0.04061955862548202
1782831331636031200,9.02103125,-0.1266769994109869,0.017207593780010938,-0.019138050385937095
1782831331645961000,9.0309609375,-0.10329787738919258,-0.015017390259355307,-0.00021225451119244096
1782831331655890000,9.040889892578125,-0.08052958074212074,-0.0006656243018805981,0.010277977179922163
1782831331665819100,9.050819091796875,-0.08109072175621986,0.00233560334071517,-0.007183353899139911
1782831331675748000,9.060748046875,-0.006901449951529502,0.008969780658185482,-0.0679520396492444
1782831331685678000,9.070677978515626,0.0004547580301761627,0.05011281516849994,-0.06021055867699906
1782831331695607300,9.080607177734375,-0.03717793027162552,-0.01507379662171006,-0.026131178942602126
1782831331705536000,9.090535888671875,-0.032358547291159626,-0.06876081701517105,-0.01222255364274606
1782831331715465000,9.10046484375,-0.05957037934362888,-0.07398498140424489,-0.05957039760993793
1782831331725395000,9.11039501953125,-0.03647065878510475,-0.099035543769598,-0.0485182942523621
1782831331735324200,9.12032421875,-0.06476268728971481,-0.10007862308174371,0.04076110425433144
1782831331745253000,9.130253173828125,-0.08667816649973392,-0.0775426738858223,-0.010613383146747946
1782831331755182000,9.14018212890625,-0.06462298655807971,0.0005718085385859012,-0.024622747141029685
1782831331765112000,9.150112060546874,-0.10218611675500869,0.01642389605641365,-0.014188172893598675
1782831331775041000,9.160041015625,-0.12998948495984078,-0.01811148381717503,-0.03251065084664151
1782831331784970000,9.169969970703125,-0.08870061223804951,-0.02543444711640477,-0.031172132251877337
1782831331794900200,9.179900146484375,-0.07515081031322479,-0.03628784956410527,0.022074542229250073
1782831331804829200,9.1898291015625,-0.058304889452457424,-0.07949746121540666,0.04973901342004537
1782831331814758100,9.199758056640626,-0.07871580931842327,-0.04146685963720083,0.048599451463483274
1782831331824687000,9.20968701171875,-0.03628945699930191,-0.0016214637219905852,0.03559256077632308
1782831331834617000,9.2196171875,-0.0746235715687275,0.030390169827640055,0.0556381544612348
1782831331844546000,9.229546142578124,-0.1352209558725357,0.003271715147048235,0.011985822277422994
1782831331854475000,9.23947509765625,-0.0933060602068901,-0.00555807251855731,0.004959211576264351
1782831331864404000,9.249404052734375,-0.0807142896592617,-0.005723784474283456,0.0492686924945563
1782831331874334200,9.259334228515625,-0.060756958779692644,-0.03268792537599802,0.05803752548685297
1782831331884263000,9.269262939453125,-0.052415831413865084,-0.046236850517988204,0.05756941478475928
1782831331894191900,9.27919189453125,-0.08800327762365341,-0.03347220762148499,0.034926881675515324
1782831331904121000,9.28912109375,-0.0827706376671791,-0.006224938929453492,0.0021567579087801276
1782831331914051000,9.299051025390625,-0.0787234081029892,0.021239479644596576,-0.0009492452825419605
1782831331923980000,9.30897998046875,-0.11304302633404731,0.018261632877588273,0.03397460418567061
1782831331933907000,9.318906982421876,-0.11358663169145583,0.02269669271558523,0.03488589207800105
1782831331943835600,9.328835693359375,-0.09578677110671996,-0.013345949915796518,0.039589594523236155
1782831331953764600,9.3387646484375,-0.13716507567763328,-0.00842456786558032,0.04779717690357938
1782831331963694800,9.34869482421875,-0.16690262681543827,-0.04302008042857051,0.01577851082496345
1782831331973623800,9.358623779296876,-0.12281681685149669,-0.026102409505844113,-0.021468539160117504
1782831331983552800,9.368552734375,-0.13445289410948752,-0.017472820587456226,-0.016779961218778044
1782831331993482800,9.378482666015625,-0.05851473281085491,-0.03588379880785942,-0.019917583391070366
1782831332003411700,9.38841162109375,-0.01279576868712902,0.0030558804392814636,-0.007104169449396431
1782831332013340700,9.398340576171876,-0.027612229546904562,-0.036521512189507485,-0.04393215377219021
1782831332023270000,9.408269775390625,-0.031930092746019365,-0.06453939992785454,-0.025616269956715402
1782831332033199900,9.418199951171875,-0.05029986217319965,-0.05084142170399427,0.017044658303260803
1782831332043128800,9.42812890625,-0.04633914184868335,-0.03878755742534995,-0.0017913769287988541
1782831332053057800,9.438057861328126,-0.0988783073812723,-0.02061199539601803,-0.023305508796311915
1782831332062986800,9.44798681640625,-0.06673486414551734,0.01904912999346852,-0.02017440769635141
1782831332072916700,9.457916748046875,-0.06772504422664642,0.0312903335377574,-0.0024547362083569167
1782831332082845700,9.467845703125,-0.08354805178046226,-0.003183306211233139,-0.004976929896045476
1782831332092775000,9.47777490234375,-0.12139116796255112,-0.033102789787203074,0.008170392175111918
1782831332102703900,9.487703857421875,-0.08422843526005744,-0.0836307616278529,-0.0038749600035138426
1782831332112633600,9.497633544921875,-0.08567395789325237,-0.04426481979265809,-0.012611826954968272
1782831332122562800,9.507562744140625,-0.1297001466244459,-0.015214374136179685,0.032776206447649746
1782831332132491800,9.51749169921875,-0.08079144654870032,0.027190058612078426,0.04757025454621762
1782831332142420700,9.527420654296876,-0.10729133093953132,0.09041223846152424,-0.011154723481833934
1782831332152351000,9.53735107421875,-0.1540951676905155,0.039663171216100454,-0.06847231892999261
1782831332162280000,9.547280029296875,-0.1606651937305927,-0.026415128716826438,-0.027176413679216055
1782831332172209000,9.557208984375,-0.05215571917295456,-0.04003258905038237,0.013295571435429155
1782831332182137600,9.5671376953125,-0.004306172761321067,-0.009906330855935811,0.03437474595177918
1782831332192067800,9.57706787109375,-0.01165595100224018,-0.03104951051920652,0.042734121360350395
1782831332201996800,9.586996826171875,-0.03937222544550895,-0.03222556856125593,-0.05286052470775321
1782831332211925800,9.59692578125,-0.0752326433777809,0.020883213552832604,-0.00475356946894899
1782831332221856000,9.60685595703125,-0.0584235473960638,0.006085238197818398,0.005968991407006978
1782831332231784700,9.61678466796875,-0.11057692848145961,0.010931801446154714,-0.03015363939171657
1782831332241713700,9.626713623046875,-0.07160042435526848,-0.017437164752185343,-0.05430882381992414
1782831332251642600,9.636642578125,0.00931318726837635,-0.009071560532227158,-0.10371206594696268
1782831332261572900,9.64657275390625,0.04943360073268413,-0.02029357709661126,-0.0793563539779745
1782831332271501800,9.656501708984376,0.06458674620091914,-0.06359568933695554,-0.019386691384762525
1782831332281430800,9.6664306640625,0.00042260932624340057,-0.08968341273032128,0.012430314641911536
1782831332291360000,9.676360107421875,-0.004087561574578285,-0.06691555447466671,-0.01775085207754746
1782831332301289700,9.686289794921874,-0.033412440258264536,-0.018179507552087307,-0.07725636775773018
1782831332311218700,9.69621875,-0.09094634533822536,0.0012066723760217428,-0.015216145968157797
1782831332321147600,9.706147705078125,-0.12461305261850357,-0.014287906941026449,0.09699530664626509
1782831332331076900,9.716076904296875,-0.11062193666696547,-0.023119448172301053,0.03910477014835924
1782831332341006800,9.7260068359375,-0.16516601228117941,-0.029608956322073936,-0.05337331480178982
1782831332350935800,9.735935791015624,-0.19018997890055178,-0.053539647812023757,-0.04102927193753421
1782831332360864800,9.74586474609375,-0.13176876959204673,-0.032129195514693856,0.012912271206267178
1782831332370793700,9.755793701171875,-0.1136059209138155,-0.011237068003043532,-0.00022016382301226256
1782831332380723700,9.7657236328125,-0.09907996743321418,-0.013855799134075641,-0.042222445511166
1782831332390653000,9.77565283203125,-0.07713292404115199,-0.005520005530491471,-0.0346117695780471
1782831332400582000,9.785581787109376,-0.10182312866151333,-0.0230596808090806,0.012552753711491822
1782831332410511600,9.79551171875,-0.11351064384579658,-0.05895626603327691,0.010469974354375152
1782831332420440600,9.805440673828125,-0.15162264009714127,-0.056437268949672575,-0.021257782486267387
1782831332430369800,9.815369873046874,-0.10100362897217273,-0.03997384460046887,-0.0009516016364097595
1782831332440298800,9.825298828125,-0.12381985641419886,0.00029262627102434634,0.017676161139830945
1782831332450228700,9.835228759765625,-0.0981686978071928,-0.005843684526905417,-0.00266498142555356
1782831332460158000,9.845157958984375,-0.10054185667932033,-0.01642309233881533,-0.066012833481282
1782831332470087000,9.8550869140625,-0.22036884406507015,-0.07317951024025678,-0.09748243257608265
1782831332480016000,9.865015869140626,-0.10824877779483795,-0.14337211362421512,-0.22096162232644856
1782831332489945900,9.87494580078125,0.25552140598893164,-0.016349004189297557,-0.15970413014609366
1782831332499874800,9.884874755859375,1.215469430461526,0.1838111645836383,0.2091153729164973
1782831332509803800,9.8948037109375,-0.000495090040564537,0.07880019966624677,0.46883529004119334
1782831332519732700,9.904732666015626,-0.5458937606066465,-0.3342055780600756,0.10572072062194347
1782831332529662700,9.914662841796876,-0.17828852870464323,0.004826031916961074,-0.15538886076286434
1782831332539591700,9.924591796875,-0.19103578207492827,0.37043519463092084,-0.11955609802249818
1782831332549520600,9.934520751953125,-0.3769160810828209,0.12438516214676201,-0.06484386276714503
1782831332559449600,9.94444970703125,-0.6115232938587665,0.01249919689334929,0.018235676452424375
1782831332569379800,9.9543798828125,-0.32877135111689565,0.018781345902755854,0.020930322363879532
1782831332579308800,9.964308837890625,0.0971095441430807,0.08561828218325972,0.024259284123498946
1782831332589237800,9.97423779296875,-0.07442015795111656,0.08777012645490467,0.2417982019922696
