time,seconds_elapsed,z,y,x
1782831322689771800,0.074771728515625,-0.03071685880422592,-0.0017958031967282295,0.21461547911167145
1782831322699701800,0.08470166015625,-0.01494242250919342,-0.0024573318660259247,0.14468751847743988
1782831322709630700,0.094630615234375,-0.025953825563192368,-0.02857355587184429,0.07141999900341034
1782831322719560000,0.104559814453125,-0.05540039762854576,-0.048691071569919586,0.022776564583182335
1782831322729489000,0.114489013671875,-0.08588400483131409,-0.04715319722890854,0.012248225510120392
1782831322739418600,0.124418701171875,-0.11369726806879044,-0.049492523074150085,0.01554841548204422
1782831322749347800,0.134347900390625,-0.1139569953083992,-0.05597982555627823,0.031535930931568146
1782831322759276800,0.14427685546875,-0.10782425850629807,-0.06683273613452911,0.05358397588133812
1782831322769205800,0.154205810546875,-0.10101881623268127,-0.09259223192930222,0.07185870409011841
1782831322779134700,0.164134765625,-0.08492160588502884,-0.12269952893257141,0.0738704577088356
1782831322789065000,0.17406494140625,-0.060431480407714844,-0.15754613280296326,0.06965231150388718
1782831322798994000,0.183993896484375,-0.020463285967707634,-0.19745998084545135,0.0825880840420723
1782831322808923000,0.1939228515625,0.03710806369781494,-0.1909840852022171,0.10676481574773788
1782831322818851600,0.2038515625,0.09556285291910172,-0.16663400828838348,0.13173381984233856
1782831322828781800,0.21378173828125,0.13252855837345123,-0.16231806576251984,0.13748396933078766
1782831322838710800,0.223710693359375,0.13634246587753296,-0.17971302568912506,0.12056330591440201
1782831322848639700,0.2336396484375,0.10278234630823135,-0.1749463826417923,0.10459596663713455
1782831322858569000,0.24356884765625,0.04719631373882294,-0.1462220549583435,0.10864343494176865
1782831322868498700,0.253498779296875,-0.006379029713571072,-0.08367648720741272,0.12750974297523499
1782831322878427600,0.263427734375,-0.05981908366084099,-0.01363401673734188,0.12751266360282898
1782831322888356900,0.27335693359375,-0.09753623604774475,0.02660210244357586,0.11485636234283447
1782831322898285800,0.283285888671875,-0.12496493756771088,0.0595797598361969,0.09388343244791031
1782831322908215800,0.2932158203125,-0.11988111585378647,0.08052699267864227,0.04845709353685379
1782831322918145000,0.30314501953125,-0.07576292753219604,0.0683174654841423,-0.0033906549215316772
1782831322928074800,0.31307470703125,-0.010558892041444778,0.012465553358197212,-0.032536350190639496
1782831322938004000,0.32300390625,0.0414169579744339,-0.07396040856838226,-0.04644497483968735
1782831322947934000,0.332933837890625,0.07192666083574295,-0.1686112880706787,-0.040774308145046234
1782831322957863000,0.34286279296875,0.08725262433290482,-0.23324114084243774,-0.0009954683482646942
1782831322967792000,0.352792236328125,0.09426522254943848,-0.2569211423397064,0.04169032722711563
1782831322977721000,0.36272119140625,0.08728188276290894,-0.2873227298259735,0.08757127076387405
1782831322987649800,0.37264990234375,0.07520867139101028,-0.3011365830898285,0.11402228474617004
1782831322997580000,0.382580078125,0.058553799986839294,-0.2767244577407837,0.10752736777067184
1782831323007509000,0.392509033203125,0.038008809089660645,-0.222226083278656,0.06818819046020508
1782831323017438000,0.40243798828125,0.024063965305685997,-0.14413687586784363,-0.008667442947626114
1782831323027367000,0.412366943359375,0.014070287346839905,-0.05125253647565842,-0.10813263058662415
1782831323037297000,0.422296875,0.009313082322478294,0.03713378310203552,-0.17985528707504272
1782831323047225900,0.432225830078125,0.01799212396144867,0.10732459276914597,-0.20276202261447906
1782831323057154800,0.44215478515625,0.02569398656487465,0.16564969718456268,-0.1809621900320053
1782831323067083800,0.452083740234375,0.03054683282971382,0.19976384937763214,-0.14037179946899414
1782831323077014000,0.462013916015625,0.029250141233205795,0.18929123878479004,-0.08947532624006271
1782831323086943000,0.47194287109375,0.027049768716096878,0.17899316549301147,-0.03505880758166313
1782831323096872000,0.481871826171875,0.024736013263463974,0.18336047232151031,0.020329084247350693
1782831323106801200,0.49180126953125,0.023557566106319427,0.1725003719329834,0.059523895382881165
1782831323116731000,0.50173095703125,0.03415721282362938,0.12266702204942703,0.07374437153339386
1782831323126659800,0.511659912109375,0.05243182182312012,0.014982279390096664,0.057197555899620056
1782831323136589000,0.521589111328125,0.08665557950735092,-0.08094984292984009,0.02678106538951397
1782831323146518000,0.53151806640625,0.0997890830039978,-0.14966320991516113,-0.009279437363147736
1782831323156448000,0.541447998046875,0.09661272913217545,-0.12588730454444885,-0.03251631557941437
1782831323166377000,0.551376953125,0.07926756143569946,-0.03965947777032852,-0.054476477205753326
1782831323176306000,0.561305908203125,0.0709204226732254,0.008582087233662605,-0.07057714462280273
1782831323186235000,0.57123486328125,0.0693574771285057,0.041546374559402466,-0.06574960052967072
1782831323196164900,0.581164794921875,0.06518670171499252,0.05645075440406799,-0.04140511155128479
1782831323206094000,0.591093994140625,0.05549981817603111,0.03920486941933632,-0.0026258807629346848
1782831323216023000,0.60102294921875,0.051359135657548904,0.022310838103294373,0.05828780680894852
1782831323225952000,0.610951904296875,0.054755568504333496,0.0022936658933758736,0.11133598536252975
1782831323235882000,0.620882080078125,0.054265812039375305,-0.011404302902519703,0.13593879342079163
1782831323245811000,0.63081103515625,0.05244680494070053,-0.036855243146419525,0.13119292259216309
1782831323255740000,0.640739990234375,0.04576946049928665,-0.053284283727407455,0.09990211576223373
1782831323265668900,0.6506689453125,0.030043363571166992,-0.06797516345977783,0.05634588748216629
1782831323275598000,0.66059814453125,0.009624640457332134,-0.07260506600141525,0.017601417377591133
1782831323285528000,0.670528076171875,-0.017765570431947708,-0.037389207631349564,-0.014190897345542908
1782831323295456800,0.680456787109375,-0.03926100954413414,0.015484127216041088,-0.05002212896943092
1782831323305386000,0.690385986328125,-0.049274202436208725,0.09114497900009155,-0.06865327805280685
1782831323315315000,0.70031494140625,-0.06406193226575851,0.1617259383201599,-0.0682828277349472
1782831323325245000,0.710244873046875,-0.07960234582424164,0.20113827288150787,-0.0517231822013855
1782831323335174000,0.720173828125,-0.09585375338792801,0.19624124467372894,-0.025813553482294083
1782831323345103000,0.73010302734375,-0.10044041275978088,0.15551720559597015,-0.002294765319675207
1782831323355032000,0.740031982421875,-0.09833785146474838,0.10418238490819931,0.0018744138069450855
1782831323364961800,0.7499619140625,-0.09703918546438217,0.03163232281804085,-0.01360287331044674
1782831323374891000,0.75989111328125,-0.10198148339986801,-0.0375954806804657,-0.026561016216874123
1782831323384820000,0.769820068359375,-0.10582179576158524,-0.0399399995803833,-0.04145696386694908
1782831323394749000,0.7797490234375,-0.0946226641535759,-0.0043311407789587975,-0.047608066350221634
1782831323404679200,0.78967919921875,-0.07693831622600555,0.07591155171394348,-0.04547209292650223
1782831323414608100,0.799608154296875,-0.06067705526947975,0.14386451244354248,-0.023479707539081573
1782831323424536800,0.809536865234375,-0.058192525058984756,0.19205394387245178,-0.0009418502449989319
1782831323434465800,0.8194658203125,-0.06735566258430481,0.21509695053100586,0.00777893653139472
1782831323444396000,0.82939599609375,-0.08731891959905624,0.149039626121521,-0.02583148516714573
1782831323454325000,0.839324951171875,-0.09878622740507126,0.021030254662036896,-0.08139940351247787
1782831323464254000,0.84925390625,-0.10819770395755768,-0.10276392102241516,-0.11880409717559814
1782831323474183000,0.859182861328125,-0.11771637201309204,-0.17691351473331451,-0.13415029644966125
1782831323484113000,0.86911279296875,-0.12599311769008636,-0.2089206725358963,-0.1457071453332901
1782831323494041900,0.879041748046875,-0.11028445512056351,-0.21534660458564758,-0.16328586637973785
1782831323503970800,0.888970703125,-0.09153980016708374,-0.22666950523853302,-0.19887514412403107
1782831323513900000,0.898900146484375,-0.08921006321907043,-0.22489823400974274,-0.22381699085235596
1782831323523830000,0.908830078125,-0.08337900787591934,-0.18768301606178284,-0.2063860297203064
1782831323533759000,0.918759033203125,-0.09491528570652008,-0.10669548064470291,-0.14744122326374054
1782831323543688000,0.92868798828125,-0.11499887704849243,0.013208658434450626,-0.06262930482625961
1782831323553617000,0.938616943359375,-0.12582889199256897,0.11227771639823914,0.0130955521017313
1782831323563545900,0.9485458984375,-0.13166415691375732,0.16031202673912048,0.048806797713041306
1782831323573475800,0.958475830078125,-0.1333070546388626,0.15858975052833557,0.03121049888432026
1782831323583405000,0.968405029296875,-0.12534768879413605,0.14155274629592896,-0.014282570220530033
1782831323593334000,0.978333984375,-0.11384151130914688,0.11871959269046783,-0.07528520375490189
1782831323603263000,0.988262939453125,-0.0991947203874588,0.11724003404378891,-0.11874065548181534
1782831323613193000,0.99819287109375,-0.08410737663507462,0.10286589711904526,-0.15211965143680573
1782831323623122000,1.008121826171875,-0.06845901161432266,0.0564957857131958,-0.16040410101413727
1782831323633051000,1.01805078125,-0.04119623079895973,0.03200589120388031,-0.1327093541622162
1782831323642979800,1.027979736328125,-0.02398735284805298,0.0007706191390752792,-0.07846187800168991
1782831323652910000,1.03791015625,-0.012356794439256191,-0.023007147014141083,-0.006756003014743328
1782831323662839000,1.047839111328125,0.00001615472137928009,-0.04739133268594742,0.06722338497638702
1782831323672768000,1.05776806640625,-0.009592795744538307,-0.05239221453666687,0.1450827568769455
1782831323682697000,1.067697021484375,-0.022840026766061783,-0.009856126271188259,0.22059640288352966
1782831323692627000,1.077626953125,-0.027804426848888397,0.010047540999948978,0.2488144487142563
1782831323702556000,1.087555908203125,-0.015719197690486908,0.03555147722363472,0.24108794331550598
1782831323712484900,1.09748486328125,0.0019484786316752434,0.052919287234544754,0.19622966647148132
1782831323722414000,1.1074140625,0.012440198101103306,0.0587640181183815,0.12711745500564575
1782831323732343800,1.11734375,0.0252516008913517,0.037718918174505234,0.045389845967292786
1782831323742272800,1.127272705078125,0.023657768964767456,-0.001046113669872284,-0.02220115251839161
1782831323752202000,1.137201904296875,0.011116410605609417,-0.03356783837080002,-0.06964962929487228
1782831323762131000,1.147130859375,0.007056753616780043,-0.05955079197883606,-0.07505093514919281
1782831323772061000,1.15706103515625,0.013230226933956146,-0.0866769552230835,-0.05959874019026756
1782831323781990100,1.166990234375,0.023916594684123993,-0.10001400858163834,-0.026276614516973495
1782831323791919000,1.176919189453125,0.031682372093200684,-0.07070272415876389,0.014120874926447868
1782831323801847800,1.186847900390625,0.03575088083744049,-0.05945293605327606,0.04286637902259827
1782831323811778000,1.196778076171875,0.04429243877530098,-0.051406458020210266,0.0572194866836071
1782831323821707000,1.20670703125,0.04252466559410095,-0.048786669969558716,0.06239936500787735
1782831323831636000,1.216635986328125,0.035305365920066833,-0.0681113675236702,0.04946519061923027
1782831323841565000,1.22656494140625,0.03648604825139046,-0.08317521959543228,0.028412574902176857
1782831323851494000,1.236493896484375,0.03645621985197067,-0.08495315164327621,0.010336637496948242
1782831323861423900,1.246423828125,0.03651527687907219,-0.06654652953147888,0.015327077358961105
1782831323871352800,1.256352783203125,0.03428168222308159,-0.05374950170516968,0.03703610226511955
1782831323881281800,1.26628173828125,0.03857206925749779,-0.03368377685546875,0.0600576177239418
1782831323891211000,1.2762109375,0.04383554309606552,-0.03868945315480232,0.061706915497779846
1782831323901141000,1.28614111328125,0.05437806248664856,-0.052097953855991364,0.051591336727142334
1782831323911070000,1.296070068359375,0.06577346473932266,-0.052591703832149506,0.03712451457977295
1782831323920999200,1.305999267578125,0.08197863399982452,-0.06262874603271484,0.025916602462530136
1782831323930927900,1.315927978515625,0.10360430181026459,-0.09337067604064941,0.031440798193216324
1782831323940857900,1.32585791015625,0.10803908854722977,-0.11784501373767853,0.0588325634598732
1782831323950787000,1.335787109375,0.1041460856795311,-0.0882655531167984,0.09808968752622604
1782831323960716000,1.345716064453125,0.09313490986824036,-0.04950198531150818,0.12854474782943726
1782831323970645000,1.35564501953125,0.08479894697666168,-0.033591195940971375,0.11987002193927765
1782831323980574700,1.36557470703125,0.07537149637937546,-0.03143268823623657,0.07731733471155167
1782831323990504000,1.37550390625,0.07890710234642029,-0.03635607287287712,0.024242926388978958
1782831324000433000,1.385432861328125,0.07969950139522552,-0.04283294081687927,-0.010883755050599575
1782831324010361900,1.39536181640625,0.08297865092754364,-0.02361956238746643,-0.009513558819890022
1782831324020292000,1.4052919921875,0.07912155985832214,-0.012227661907672882,0.006913056131452322
1782831324030221000,1.415220947265625,0.07707865536212921,-0.01606367900967598,0.024110684171319008
1782831324040150000,1.42514990234375,0.07593535631895065,-0.013523822650313377,0.028486257418990135
1782831324050079000,1.435078857421875,0.0776241272687912,-0.027843397110700607,0.017768897116184235
1782831324060009000,1.445009033203125,0.09400041401386261,-0.014345104806125164,0.00348319998010993
1782831324069938000,1.45493798828125,0.11379355192184448,-0.009098411537706852,-0.006753458175808191
1782831324079867000,1.464866943359375,0.11012808233499527,-0.04659523814916611,-0.01478700339794159
1782831324089796000,1.474796142578125,0.0906774178147316,-0.0833204984664917,-0.005711216479539871
1782831324099726000,1.48472607421875,0.05544299632310867,-0.0826876312494278,0.030824217945337296
1782831324109654800,1.49465478515625,0.005509789567440748,-0.0857771635055542,0.07633683830499649
1782831324119583700,1.504583740234375,-0.02814357727766037,-0.07532639056444168,0.1131676509976387
1782831324129513000,1.514512939453125,-0.02982163429260254,-0.0496218279004097,0.1091659888625145
1782831324139442000,1.52444189453125,-0.0018441639840602875,-0.021307477727532387,0.07572778314352036
1782831324149372000,1.534371826171875,0.051114924252033234,0.028994839638471603,0.03243250399827957
1782831324159301000,1.544301025390625,0.09286323189735413,0.0539545901119709,-0.0006915712729096413
1782831324169230000,1.55422998046875,0.10314330458641052,0.03360617533326149,-0.022040801122784615
1782831324179159000,1.564158935546875,0.08679232746362686,-0.00317327119410038,-0.02389773353934288
1782831324189089000,1.574089111328125,0.04852297157049179,-0.030565213412046432,-0.016519181430339813
1782831324199018000,1.58401806640625,0.01791629195213318,-0.05731051415205002,-0.015489486046135426
1782831324208947000,1.593947021484375,-0.000029685907065868378,-0.06670854240655899,-0.014875095337629318
1782831324218876000,1.6038759765625,0.0010702330619096756,-0.0608888640999794,-0.0019022151827812195
1782831324228806100,1.61380615234375,0.0014039268717169762,-0.028973542153835297,0.01337580755352974
1782831324238734800,1.62373486328125,0.0022910255938768387,-0.029329074546694756,0.025067351758480072
1782831324248663800,1.633663818359375,-0.0022754967212677,-0.04132688045501709,0.029422152787446976
1782831324258592800,1.6435927734375,-0.009975559078156948,-0.04819605126976967,0.03542592376470566
1782831324268523000,1.65352294921875,-0.011828054673969746,-0.023677922785282135,0.028911566361784935
1782831324278452000,1.663451904296875,0.002666066400706768,-0.0031846491619944572,0.015934424474835396
1782831324288381000,1.673380859375,0.026207610964775085,0.0006042299792170525,-0.01072994340211153
1782831324298310100,1.68331005859375,0.0423852801322937,-0.009418931789696217,-0.024601541459560394
1782831324308240000,1.693239990234375,0.04508466273546219,-0.02986987866461277,-0.03630320355296135
1782831324318168800,1.7031689453125,0.040384650230407715,-0.06272338330745697,-0.036449186503887177
1782831324328098000,1.71309814453125,0.02669227495789528,-0.09777883440256119,-0.0404985211789608
1782831324338027000,1.723027099609375,0.011215411126613617,-0.1230662390589714,-0.04190191626548767
1782831324347957000,1.73295703125,0.0001925872638821602,-0.13768379390239716,-0.03340030834078789
1782831324357886000,1.742885986328125,-0.015808381140232086,-0.12500301003456116,-0.01994229108095169
1782831324367815000,1.75281494140625,-0.023163501173257828,-0.08865699172019958,-0.00001172628253698349
1782831324377744000,1.762743896484375,-0.018738724291324615,-0.01981983706355095,0.020239220932126045
1782831324387673900,1.772673828125,-0.0045922789722681046,0.04244859889149666,0.027825769037008286
1782831324397603000,1.78260302734375,0.004451815038919449,0.07126060128211975,0.02369029074907303
1782831324407532000,1.792531982421875,0.00911740679293871,0.04646231234073639,0.0058172824792563915
1782831324417461000,1.8024609375,0.018916375935077667,-0.0036004697903990746,-0.0175001360476017
1782831324427391000,1.812390869140625,0.021925214678049088,-0.04517481103539467,-0.011495240963995457
1782831324437320000,1.82231982421875,0.009871681220829487,-0.06272798031568527,0.010805357247591019
1782831324447249000,1.832248779296875,-0.010247968137264252,-0.0842689573764801,0.027144381776452065
1782831324457177900,1.842177734375,-0.012133120559155941,-0.05937708169221878,0.03823014348745346
1782831324467108000,1.852108154296875,-0.011258537881076336,-0.021010784432291985,0.04031939432024956
1782831324477037000,1.862037109375,-0.005845396779477596,-0.0005549443885684013,0.029439374804496765
1782831324486966000,1.871966064453125,0.00412254873663187,0.012683629989624023,0.009721862152218819
1782831324496894700,1.881894775390625,0.010998965241014957,0.003562220372259617,-0.014704620465636253
1782831324506825000,1.891824951171875,0.02193816564977169,-0.026213519275188446,-0.03462320193648338
1782831324516754000,1.90175390625,0.01703169010579586,-0.06902530789375305,-0.037482742220163345
1782831324526683000,1.911682861328125,0.0023315735161304474,-0.09434211254119873,-0.032737523317337036
1782831324536612000,1.921612060546875,-0.009322918951511383,-0.0688479021191597,-0.01969520002603531
1782831324546541000,1.931541015625,-0.011793799698352814,-0.035729099065065384,-0.007250247988849878
1782831324556470800,1.941470703125,0.003290511667728424,-0.012001978233456612,-0.007925300858914852
1782831324566400000,1.95139990234375,0.01358176488429308,-0.008397655561566353,-0.01823865808546543
1782831324576329000,1.961328857421875,0.01747853495180607,-0.006019255146384239,-0.029254859313368797
1782831324586258000,1.9712578125,0.0035747038200497627,-0.026948239654302597,-0.03046819567680359
1782831324596188200,1.981188232421875,-0.01186487264931202,-0.055766258388757706,-0.014872251078486443
1782831324606117000,1.9911171875,-0.027248622849583626,-0.05392255261540413,0.009524168446660042
1782831324616045800,2.0010458984375,-0.04511254280805588,-0.05688241496682167,0.02312695048749447
1782831324625974800,2.010974853515625,-0.05150732398033142,-0.04821515455842018,0.010878274217247963
1782831324635905000,2.020905029296875,-0.05158039182424545,-0.020478852093219757,-0.013946449384093285
1782831324645834000,2.030833984375,-0.0508355051279068,0.00598045252263546,-0.039950352162122726
1782831324655763000,2.040762939453125,-0.04958871379494667,0.03742668405175209,-0.04322825372219086
1782831324665692000,2.05069189453125,-0.04704699292778969,0.057197462767362595,-0.03579244390130043
1782831324675622000,2.060621826171875,-0.04275950789451599,0.056890636682510376,-0.0362694226205349
1782831324685550800,2.07055078125,-0.04142046719789505,0.027294659987092018,-0.03912246599793434
1782831324695479800,2.080479736328125,-0.04512026160955429,-0.004083585925400257,-0.027280155569314957
1782831324705409000,2.090408935546875,-0.04748888313770294,-0.024549447000026703,0.0023959805257618427
1782831324715339000,2.100339111328125,-0.04656170308589935,-0.02261224389076233,0.04064732417464256
1782831324725268000,2.11026806640625,-0.022565288469195366,-0.01061044167727232,0.06598436832427979
1782831324735197200,2.120197265625,-0.0009639216586947441,-0.011127800680696964,0.07587230950593948
1782831324745126000,2.1301259765625,0.021456431597471237,-0.020501330494880676,0.07707206159830093
1782831324755055900,2.140055908203125,0.028654690831899643,-0.008873107843101025,0.07514700293540955
1782831324764984800,2.14998486328125,0.0144943967461586,0.0030634459108114243,0.07298291474580765
1782831324774914000,2.1599140625,-0.013383607380092144,-0.0002971310168504715,0.05008562281727791
1782831324784843000,2.169843017578125,-0.04373858496546745,0.013958503492176533,0.020658759400248528
1782831324794772700,2.179772705078125,-0.06390050798654556,0.041533153504133224,-0.007147124968469143
1782831324804702000,2.189701904296875,-0.05909030884504318,0.08505959063768387,-0.017072992399334908
1782831324814631000,2.199630859375,-0.04264921694993973,0.11029407382011414,-0.012996766716241837
1782831324824559900,2.209559814453125,-0.03014460951089859,0.09652499854564667,0.01002999022603035
1782831324834490000,2.219489990234375,-0.012556130066514015,0.06265033781528473,0.04050619900226593
1782831324844419000,2.229419189453125,0.0035533318296074867,0.03314758092164993,0.0768495574593544
1782831324854348000,2.23934814453125,0.005025993101298809,0.009086853824555874,0.09867077320814133
1782831324864277000,2.249277099609375,-0.004943549633026123,-0.03322251886129379,0.09143736213445663
1782831324874207000,2.25920703125,-0.010384688153862953,-0.041721444576978683,0.08298034220933914
1782831324884136000,2.269135986328125,-0.022671181708574295,-0.0065195136703550816,0.07545371353626251
1782831324894065000,2.27906494140625,-0.033805958926677704,0.03345155715942383,0.06415370851755142
1782831324903993900,2.288993896484375,-0.041023656725883484,0.06752457469701767,0.04735342785716057
1782831324913924000,2.298924072265625,-0.041933655738830566,0.09270396828651428,0.0337153822183609
1782831324923852800,2.308852783203125,-0.029898302629590034,0.10615452378988266,0.030353140085935593
1782831324933781000,2.318781005859375,-0.022513456642627716,0.11016833782196045,0.030828701332211494
1782831324943710000,2.3287099609375,-0.00872946809977293,0.0820900946855545,0.043336234986782074
1782831324953639700,2.3386396484375,0.003102690912783146,0.04818731173872948,0.0698702484369278
1782831324963569000,2.34856884765625,0.006306739524006844,0.017609696835279465,0.10125213861465454
1782831324973497900,2.358497802734375,0.009058285504579544,-0.02615932747721672,0.12608729302883148
1782831324983426800,2.3684267578125,0.002040322870016098,-0.0789535641670227,0.13746938109397888
1782831324993357000,2.378357177734375,-0.005202342756092548,-0.11583946645259857,0.12849003076553345
1782831325003285800,2.38828564453125,-0.010708694346249104,-0.09393949061632156,0.11113368719816208
1782831325013214700,2.398214599609375,-0.02187376469373703,-0.04134342074394226,0.07757677137851715
1782831325023143700,2.408143798828125,-0.0265798382461071,0.010794347152113914,0.025352975353598595
1782831325033074000,2.418073974609375,-0.027867209166288376,0.05684541538357735,-0.03647569566965103
1782831325043003000,2.4280029296875,-0.024500705301761627,0.07839811593294144,-0.08465894311666489
1782831325052931800,2.437931884765625,-0.021593865007162094,0.07196791470050812,-0.10031753033399582
1782831325062860800,2.44786083984375,-0.02277790755033493,0.04769585654139519,-0.08697295933961868
1782831325072790800,2.457790771484375,-0.021392764523625374,0.012874899432063103,-0.050901684910058975
1782831325082719700,2.4677197265625,-0.01288263313472271,-0.013906646519899368,-0.00805648136883974
1782831325092648700,2.477648681640625,-0.005729183554649353,-0.039680685847997665,0.0195663683116436
1782831325102578000,2.487577880859375,-0.0007165810093283653,-0.0724431574344635,0.02589244209229946
1782831325112508000,2.4975078125,0.017551638185977936,-0.05530955269932747,0.023822832852602005
1782831325122436900,2.507436767578125,0.025859635323286057,-0.011710142716765404,0.01663416437804699
1782831325132365800,2.51736572265625,0.03314631059765816,0.009769583120942116,0.004359387326985598
1782831325142294800,2.527294677734375,0.027431167662143707,-0.005702583584934473,-0.015249201096594334
1782831325152224800,2.537224853515625,0.016650857403874397,-0.03543032705783844,-0.03468189761042595
1782831325162153700,2.54715380859375,0.01088937558233738,-0.025212842971086502,-0.02163134329020977
1782831325172083000,2.5570830078125,0.0057118902914226055,0.004448080435395241,0.011030705645680428
1782831325182012000,2.567011962890625,-0.002136179246008396,0.015282617881894112,0.031598299741744995
1782831325191941600,2.576941650390625,-0.009085430763661861,0.014300178736448288,0.035979196429252625
1782831325201870800,2.586870849609375,-0.0058334460482001305,-0.0005578631535172462,0.03274372220039368
1782831325211799800,2.5967998046875,0.0018496755510568619,-0.005550584755837917,0.026143742725253105
1782831325221728800,2.606728759765625,0.01958686113357544,0.0037425151094794273,0.019885312765836716
1782831325231659000,2.616658935546875,0.04078458994626999,-0.003587649203836918,0.01003216952085495
1782831325241588000,2.626587890625,0.05868023261427879,-0.03921115770936012,-0.00047693075612187386
1782831325251517000,2.636516845703125,0.061159104108810425,-0.06768561899662018,-0.005661970004439354
1782831325261446000,2.64644580078125,0.04988913983106613,-0.07990712672472,-0.00020541949197649956
1782831325271376000,2.6563759765625,0.03290263190865517,-0.041508838534355164,0.011799592524766922
1782831325281304800,2.666304931640625,0.014166494831442833,0.014512884430587292,0.021563008427619934
1782831325291233800,2.67623388671875,0.0023215198889374733,0.045599184930324554,0.00668403459712863
1782831325301162800,2.686162841796875,0.008625754155218601,0.07211654633283615,-0.016208231449127197
1782831325311092700,2.6960927734375,0.02065208926796913,0.07986079156398773,-0.036529723554849625
1782831325321021700,2.706021728515625,0.01967604085803032,0.04661974310874939,-0.03222126141190529
1782831325330950700,2.71595068359375,0.011111450381577015,0.009628516621887684,0.011811945587396622
1782831325340880000,2.7258798828125,0.001026858575642109,-0.010633877478539944,0.07426253706216812
1782831325350809900,2.735809814453125,-0.006159815937280655,-0.01542775146663189,0.12361861020326614
1782831325360738800,2.74573876953125,0.0029042521491646767,-0.004647009074687958,0.13911765813827515
1782831325370668000,2.75566796875,0.01873035356402397,-0.010114211589097977,0.10837414115667343
1782831325380597000,2.765596923828125,0.02130722813308239,-0.03126450628042221,0.05159847438335419
1782831325390526700,2.775526611328125,0.012870734557509422,-0.05680190771818161,-0.008379608392715454
1782831325400455700,2.78545556640625,-0.0020584138110280037,-0.0576261542737484,-0.053514860570430756
1782831325410385000,2.795385009765625,-0.0047817956656217575,-0.0026908712461590767,-0.07440239191055298
1782831325420313900,2.80531396484375,-0.013485273346304893,0.03674468770623207,-0.0782272219657898
1782831325430243800,2.815243896484375,-0.022132623940706253,0.033178746700286865,-0.07594115287065506
1782831325440172800,2.8251728515625,-0.030812934041023254,0.020945783704519272,-0.05747426301240921
1782831325450101800,2.835101806640625,-0.025472495704889297,0.016532020643353462,-0.03210798650979996
1782831325460030700,2.84503076171875,-0.02085217460989952,-0.0026416731998324394,-0.016219032928347588
1782831325469961000,2.8549609375,-0.007687637582421303,-0.007754409685730934,0.002494999673217535
1782831325479890000,2.864889892578125,-0.0010017724707722664,0.014427058398723602,0.027170784771442413
1782831325489819000,2.87481884765625,0.005148099269717932,0.032134462147951126,0.04795803129673004
1782831325499747800,2.884747802734375,0.003451399505138397,0.03496886417269707,0.04323411360383034
1782831325509677800,2.894677734375,0.0039520408026874065,0.021858248859643936,0.02533252164721489
1782831325519606800,2.904606689453125,-0.003100542351603508,-0.0005048457533121109,0.013507818803191185
1782831325529535700,2.91453564453125,-0.005151477642357349,0.0012781061232089996,0.0232246033847332
1782831325539464700,2.924464599609375,0.009128392674028873,0.02403322234749794,0.029798617586493492
1782831325549395000,2.93439501953125,0.027058158069849014,0.04591548815369606,0.023302992805838585
1782831325559324000,2.944323974609375,0.03892440348863602,0.049678269773721695,-0.0034165028482675552
1782831325569252600,2.954252685546875,0.04858165979385376,0.0632900595664978,-0.025416797026991844
1782831325579181800,2.964181884765625,0.05441371724009514,0.0841069221496582,-0.028234155848622322
1782831325589111800,2.97411181640625,0.058087944984436035,0.08682522922754288,-0.019224053248763084
1782831325599040800,2.984040771484375,0.06429577618837357,0.07039885222911835,-0.015926526859402657
1782831325608970000,2.993969970703125,0.07006118446588516,0.039544522762298584,-0.022072486579418182
1782831325618899000,3.00389892578125,0.06929019838571548,0.0009345468133687973,-0.03210754320025444
1782831325628828700,3.01382861328125,0.06606454402208328,-0.03728387504816055,-0.04192125424742699
1782831325638758000,3.0237578125,0.05570564791560173,-0.07361019402742386,-0.03668254613876343
1782831325648686800,3.033686767578125,0.04912184923887253,-0.07663707435131073,-0.021019913256168365
1782831325658615800,3.04361572265625,0.04833195358514786,-0.050301603972911835,-0.0005119754932820797
1782831325668545800,3.0535458984375,0.05529395490884781,-0.015340829268097878,0.012861263006925583
1782831325678475000,3.06347509765625,0.061225615441799164,0.006951160728931427,0.022221475839614868
1782831325688404000,3.073404052734375,0.06839301437139511,0.03566454350948334,0.026452863588929176
1782831325698332700,3.083332763671875,0.06678792834281921,0.044256165623664856,0.02953254245221615
1782831325708263000,3.093262939453125,0.05713556334376335,0.03109801933169365,0.02237236686050892
1782831325718191900,3.10319189453125,0.04979243129491806,0.017523622140288353,0.005907106678932905
1782831325728120800,3.113120849609375,0.04113496094942093,0.0035143177956342697,-0.024302642792463303
1782831325738049800,3.1230498046875,0.03782545030117035,-0.005547088570892811,-0.04900133237242699
1782831325747979800,3.132979736328125,0.036981794983148575,-0.006884863134473562,-0.06385248899459839
1782831325757908700,3.14290869140625,0.028556086122989655,-0.020166845992207527,-0.06625838577747345
1782831325767837700,3.152837646484375,0.023131925612688065,-0.023204021155834198,-0.05317142605781555
1782831325777767000,3.162766845703125,0.0243694968521595,-0.03844315931200981,-0.02686472050845623
1782831325787697000,3.17269677734375,0.030945073813199997,-0.035811033099889755,0.010952873155474663
1782831325797625900,3.1826259765625,0.02530450001358986,-0.011939521878957748,0.05000147223472595
1782831325807554800,3.192554931640625,0.016741137951612473,-0.011848567984998226,0.07467761635780334
1782831325817483800,3.20248388671875,0.0020450176671147346,-0.028069615364074707,0.0715116485953331
1782831325827413800,3.212413818359375,-0.012617414817214012,-0.04366367310285568,0.04766221344470978
1782831325837342700,3.2223427734375,-0.014490149915218353,-0.04511483013629913,0.014115437865257263
1782831325847272000,3.23227197265625,-0.012576370500028133,-0.018392695114016533,-0.018645547330379486
1782831325857201000,3.242200927734375,-0.014009683392941952,0.003171985037624836,-0.050348348915576935
1782831325867131000,3.252130859375,-0.016519080847501755,0.01882641389966011,-0.06872328370809555
1782831325877059800,3.262059814453125,-0.018196072429418564,0.04345080256462097,-0.06563268601894379
1782831325886988800,3.27198876953125,-0.02757282741367817,0.049136243760585785,-0.04366915673017502
1782831325896917800,3.281917724609375,-0.038806043565273285,0.03570139408111572,-0.015650304034352303
1782831325906847700,3.29184765625,-0.03926743566989899,0.013249967247247696,0.021079182624816895
1782831325916777000,3.30177685546875,-0.0376032255589962,-0.015152646228671074,0.04998965933918953
1782831325926706000,3.311705810546875,-0.029396194964647293,-0.007164265029132366,0.06867783516645432
1782831325936636400,3.321636474609375,-0.021536409854888916,0.00713025126606226,0.06594756245613098
1782831325946565400,3.3315654296875,-0.018370743840932846,0.010420073755085468,0.04259686917066574
1782831325956494300,3.341494384765625,-0.023852329701185226,0.01097427774220705,0.004859346430748701
1782831325966423600,3.351423583984375,-0.0360945463180542,0.010959056206047535,-0.023190416395664215
1782831325976353300,3.361353271484375,-0.0539529025554657,-0.0016251793131232262,-0.03128403052687645
1782831325986282200,3.3712822265625,-0.07010704278945923,-0.029859144240617752,-0.028849581256508827
1782831325996211500,3.38121142578125,-0.06707502901554108,-0.049070123583078384,-0.022051064297556877
1782831326006140400,3.391140380859375,-0.058377183973789215,-0.07465876638889313,-0.029118521139025688
1782831326016070400,3.4010703125,-0.03286463022232056,-0.08358115702867508,-0.040779706090688705
1782831326025999400,3.410999267578125,-0.008884763345122337,-0.06270535290241241,-0.04241010919213295
1782831326035928600,3.420928466796875,0.0007617389783263206,-0.023708419874310493,-0.03281953185796738
1782831326045857500,3.430857421875,0.009197135455906391,0.0135114761069417,-0.011358847841620445
1782831326055787300,3.440787353515625,0.005663653369992971,0.025005146861076355,0.007823634892702103
1782831326065716500,3.450716552734375,-0.009279211051762104,0.028709258884191513,0.022076904773712158
1782831326075645400,3.4606455078125,-0.02414950355887413,-0.0021549155935645103,0.024524085223674774
1782831326085574400,3.470574462890625,-0.030579470098018646,-0.048083823174238205,0.0255267396569252
1782831326095504600,3.480504638671875,-0.03434384986758232,-0.06334426999092102,0.027648478746414185
1782831326105433300,3.490433349609375,-0.026490285992622375,-0.06498167663812637,0.025263216346502304
1782831326115362300,3.5003623046875,-0.009813306853175163,-0.03924701735377312,0.012912539765238762
1782831326125291300,3.510291259765625,0.007934598252177238,-0.01390090398490429,-0.012955095618963242
1782831326135221500,3.520221435546875,0.013613788411021233,-0.0069170305505394936,-0.034932564944028854
1782831326145150500,3.530150390625,0.022102780640125275,0.024891026318073273,-0.03093503788113594
1782831326155079400,3.540079345703125,0.01773279905319214,0.046071410179138184,-0.02154366672039032
1782831326165008400,3.55000830078125,0.01171821728348732,0.035288918763399124,-0.0024892878718674183
1782831326174938400,3.5599384765625,0.005339679773896933,0.008185130544006824,0.009494669735431671
1782831326184867300,3.569867431640625,-0.0046849921345710754,-0.0105490917339921,0.03020121157169342
1782831326194796300,3.57979638671875,-0.0064450763165950775,-0.013080159202218056,0.038587238639593124
1782831326204725500,3.5897255859375,0.003799939528107643,-0.0017730770632624626,0.03988773748278618
1782831326214655500,3.599655517578125,0.011436554603278637,0.003613431937992573,0.03892340511083603
1782831326224584400,3.60958447265625,0.01593819633126259,-0.0019769230857491493,0.030968818813562393
1782831326234513400,3.619513427734375,0.029257996007800102,0.003422901965677738,0.028758395463228226
1782831326244442400,3.6294423828125,0.03166086599230766,0.0029686810448765755,0.01895821839570999
1782831326254372400,3.639372314453125,0.02562827244400978,0.0011068647727370262,0.0025097369216382504
1782831326264301300,3.64930126953125,0.015514054335653782,0.002327646128833294,-0.013040907680988312
1782831326274230500,3.65923046875,0.004456609021872282,0.000155571848154068,-0.017405562102794647
1782831326284159500,3.669159423828125,-0.00998567882925272,-0.007171917241066694,-0.011278996244072914
1782831326294089200,3.679089111328125,-0.016298703849315643,-0.0019702306017279625,-0.00209268881008029
1782831326304018400,3.689018310546875,-0.007324483245611191,-0.0019542528316378593,0.008575119078159332
1782831326313947400,3.698947509765625,0.0034005986526608467,-0.0016959263011813164,0.01722719706594944
1782831326323877400,3.70887744140625,0.017715122550725937,-0.007005701772868633,0.02410190738737583
1782831326333806600,3.718806640625,0.02109627239406109,-0.013254542835056782,0.02981758303940296
1782831326343735600,3.728735595703125,0.016392996534705162,-0.02674476057291031,0.026825089007616043
1782831326353664500,3.73866455078125,-0.001546323299407959,-0.01838989183306694,0.02977028116583824
1782831326363594200,3.74859423828125,-0.023861113935709,-0.00594702223315835,0.028491105884313583
1782831326373523500,3.7585234375,-0.043768510222435,-0.006930527742952108,0.01517396792769432
1782831326383452400,3.768452392578125,-0.04501543566584587,-0.011235242709517479,-0.012870607897639275
1782831326393381400,3.77838134765625,-0.032395780086517334,-0.006295877508819103,-0.043017592281103134
1782831326403311600,3.7883115234375,-0.01547771692276001,0.0070475321263074875,-0.04491950571537018
1782831326413240300,3.798240234375,-0.005765967071056366,0.0247034914791584,-0.032253243029117584
1782831326423169300,3.808169189453125,-0.007272916845977306,0.02557399868965149,-0.015522966161370277
1782831326433098200,3.81809814453125,-0.0098263556137681,0.005472191609442234,-0.0038870833814144135
1782831326443028500,3.828028564453125,-0.008969716727733612,-0.013589857146143913,0.007025343831628561
1782831326452957400,3.83795751953125,-0.008266909047961235,-0.03542058542370796,0.012641951441764832
1782831326462886400,3.847886474609375,-0.01057180855423212,-0.04145710542798042,0.018566200509667397
1782831326472815600,3.857815673828125,-0.01691199466586113,-0.04114897921681404,0.008409703150391579
1782831326482745300,3.867745361328125,-0.0203281007707119,-0.020947683602571487,-0.0032069827429950237
1782831326492674300,3.87767431640625,-0.017540302127599716,0.0027501871809363365,-0.019854668527841568
1782831326502603300,3.887603271484375,-0.01217326894402504,0.019113726913928986,-0.040541667491197586
1782831326512532500,3.897532470703125,-0.01247873343527317,0.02366187423467636,-0.04936152324080467
1782831326522462500,3.90746240234375,-0.016536522656679153,0.04391501471400261,-0.03245146945118904
1782831326532391400,3.917391357421875,-0.013338600285351276,0.06198003888130188,-0.011052967980504036
1782831326542320400,3.9273203125,-0.0019729947671294212,0.05981865152716637,0.014176245778799057
1782831326552249300,3.937249267578125,0.0032457364723086357,0.024129360914230347,0.02449013851583004
1782831326562179300,3.947179443359375,0.008077207952737808,-0.022894158959388733,0.025261498987674713
1782831326572108500,3.957108642578125,0.01995091140270233,-0.0716228187084198,0.016845379024744034
1782831326582037500,3.96703759765625,0.028412971645593643,-0.09262016415596008,0.008598597720265388
1782831326591967200,3.97696728515625,0.03274300694465637,-0.07904496788978577,-0.0006095478311181068
1782831326601896400,3.986896484375,0.031557269394397736,-0.05270129442214966,-0.007244488690048456
1782831326611825400,3.996825439453125,0.025406964123249054,-0.010880875401198864,-0.006254059262573719
1782831326621754400,4.00675439453125,0.021329598501324654,0.030605461448431015,0.0032145599834620953
1782831326631684400,4.016684326171875,0.012593897990882397,0.05896439775824547,0.010090310126543045
1782831326641613600,4.026613525390625,0.0069719296880066395,0.05637747794389725,0.015745040029287338
1782831326651542500,4.03654248046875,0.008777553215622902,0.04351148009300232,0.015838516876101494
1782831326661471500,4.046471435546875,0.01910695806145668,0.02959439903497696,0.00461067957803607
1782831326671401500,4.0564013671875,0.024507582187652588,0.014111313968896866,-0.005570052191615105
1782831326681330400,4.066330322265625,0.029899083077907562,-0.00567603949457407,-0.000881073996424675
1782831326691259400,4.07625927734375,0.032443203032016754,-0.017173703759908676,0.01262807659804821
1782831326701188400,4.086188232421875,0.026173654943704605,-0.024903463199734688,0.033719561994075775
1782831326711118300,4.096118408203125,0.02055092342197895,-0.009549274109303951,0.042140476405620575
1782831326721047300,4.10604736328125,0.026197921484708786,0.023521840572357178,0.03133859112858772
1782831326730976300,4.115976318359375,0.04348157346248627,0.04674433544278145,0.009613852947950363
1782831326740905500,4.125905517578125,0.04077709838747978,0.04970430210232735,-0.025784974917769432
1782831326750835500,4.13583544921875,0.034531719982624054,0.029660552740097046,-0.05049245432019234
1782831326760764400,4.145764404296875,0.03129871189594269,0.001782011240720749,-0.06144525110721588
1782831326770693400,4.155693359375,0.010511406697332859,-0.01740233600139618,-0.04590996727347374
1782831326780622600,4.16562255859375,-0.01149542722851038,-0.024947404861450195,-0.003348176833242178
1782831326790552300,4.17555224609375,-0.023458346724510193,-0.037275709211826324,0.030651068314909935
1782831326800481300,4.185481201171875,-0.032687798142433167,-0.023042872548103333,0.054515186697244644
1782831326810410500,4.195410400390625,-0.018131492659449577,-0.003740547224879265,0.042969051748514175
1782831326820340500,4.205340576171875,0.007283421698957682,0.01925019547343254,0.015693366527557373
1782831326830269400,4.21526953125,0.03017488867044449,0.03157823532819748,-0.011238648556172848
1782831326840198400,4.225198486328125,0.03612985089421272,0.03840916231274605,-0.01823420636355877
1782831326850127400,4.23512744140625,0.04364795237779617,0.03269774839282036,-0.018704254180192947
1782831326860057300,4.245057373046875,0.038527559489011765,0.019805826246738434,-0.01571740210056305
1782831326869986300,4.254986328125,0.03583217412233353,0.010629636235535145,-0.01127098873257637
1782831326879915500,4.26491552734375,0.018933452665805817,-0.0070300051011145115,-0.005529006011784077
1782831326889844500,4.274844482421875,0.004331872798502445,-0.020055260509252548,0.002004810143262148
1782831326899774200,4.284774169921875,-0.004983064718544483,-0.02555186301469803,0.0018928912468254566
1782831326909703400,4.294703369140625,-0.004991053603589535,-0.019825534895062447,-0.0029114512726664543
1782831326919632400,4.30463232421875,0.009236816316843033,-0.0008719908073544502,-0.004649546463042498
1782831326929561300,4.314561279296875,0.027414489537477493,0.03123534470796585,0.005413474049419165
1782831326939491000,4.324490966796875,0.04247745871543884,0.04758744686841965,0.02519766241312027
1782831326949420000,4.334419921875,0.044968847185373306,0.049496933817863464,0.03475068882107735
1782831326959349000,4.344348876953125,0.04087739810347557,0.03079165890812874,0.029567355290055275
1782831326969278200,4.3542783203125,0.03395504504442215,0.009308204986155033,0.01738419383764267
1782831326979208000,4.3642080078125,0.023673446848988533,-0.006252581719309092,0.001219120342284441
1782831326989137000,4.374136962890625,0.0028701648116111755,-0.020511943846940994,-0.02051786705851555
1782831326999066000,4.384066162109375,-0.005818466655910015,-0.007577942218631506,-0.027695735916495323
1782831327008996000,4.39399609375,-0.017521992325782776,0.004702425561845303,-0.03075091354548931
1782831327018925000,4.403925048828125,-0.023744234815239906,0.018717702478170395,-0.03692128509283066
1782831327028854000,4.41385400390625,-0.005758311599493027,0.031415656208992004,-0.04450809583067894
1782831327038783000,4.423782958984375,0.016965409740805626,0.03740737587213516,-0.03162655979394913
1782831327048713000,4.433712890625,0.04083399102091789,0.03446298465132713,-0.004976840689778328
1782831327058642200,4.44364208984375,0.05464780703186989,0.01531123649328947,0.028291700407862663
1782831327068571100,4.453571044921875,0.05860552936792374,-0.015351868234574795,0.03730090707540512
1782831327078500000,4.4635,0.05796437710523605,-0.027845319360494614,0.03661318123340607
1782831327088429800,4.473429931640625,0.045210763812065125,-0.02637631818652153,0.032148923724889755
1782831327098359000,4.483359130859375,0.033913832157850266,0.0034731244668364525,0.028222573921084404
1782831327108288000,4.4932880859375,0.02425188571214676,0.01512791495770216,0.005225913133472204
1782831327118217000,4.503217041015625,0.012263065204024315,0.0045981379225850105,-0.016469910740852356
1782831327128147200,4.513147216796875,0.010044917464256287,0.0127197140827775,-0.023612774908542633
1782831327138076200,4.523076171875,0.002029670402407646,0.014344572089612484,-0.020084038376808167
1782831327148005000,4.533005126953125,-0.0005994020029902458,-0.0067844148725271225,-0.020090695470571518
1782831327157933800,4.542933837890625,0.007645344361662865,-0.028707101941108704,-0.024215897545218468
1782831327167864000,4.552864013671875,0.00876600295305252,-0.054471321403980255,-0.01989838294684887
1782831327177793000,4.56279296875,0.004097548313438892,-0.0706251934170723,-0.012609526515007019
1782831327187722000,4.572721923828125,0.001267140731215477,-0.05782177671790123,0.0014160103164613247
1782831327197652200,4.58265234375,0.0005073389038443565,-0.03928223252296448,0.01587764360010624
1782831327207581000,4.592580810546875,0.006573753897100687,0.012338082306087017,0.03086085431277752
1782831327217510000,4.602510009765625,0.012601088732481003,0.05088447406888008,0.03851082921028137
1782831327227438800,4.61243896484375,0.014528417959809303,0.06419894099235535,0.04053190350532532
1782831327237369000,4.622369140625,0.014185568317770958,0.046123601496219635,0.04054427891969681
1782831327247298000,4.632298095703125,0.017064178362488747,0.013059125281870365,0.03461688384413719
1782831327257227000,4.64222705078125,0.002635505050420761,-0.03262200951576233,0.02491210773587227
1782831327267156200,4.65215625,-0.010779901407659054,-0.072581946849823,0.012422412633895874
1782831327277086000,4.6620859375,-0.018975879997015,-0.07156413048505783,0.008024528622627258
1782831327287015000,4.672014892578125,-0.021181244403123856,-0.04553918540477753,0.0087523702532053
1782831327296944000,4.681944091796875,-0.016459261998534203,-0.0036851707845926285,0.002312334720045328
1782831327306873000,4.691873046875,-0.010494314134120941,0.01363629475235939,-0.007700085639953613
1782831327316803000,4.701802978515625,-0.005798526108264923,0.017456162720918655,-0.018000323325395584
1782831327326732000,4.71173193359375,-0.004321269690990448,0.0018239403143525124,-0.019623519852757454
1782831327336661000,4.721660888671875,-0.003367193043231964,-0.017383921891450882,-0.004499394446611404
1782831327346591000,4.731591064453125,-0.006300132721662521,-0.02977534383535385,0.02181503362953663
1782831327356520000,4.74152001953125,-0.007555246353149414,-0.03615666925907135,0.039830081164836884
1782831327366449200,4.75144921875,-0.0005521988496184349,-0.023431021720170975,0.056506529450416565
1782831327376378000,4.761378173828125,0.0048487563617527485,-0.010990472510457039,0.06203097850084305
1782831327386307800,4.771307861328125,0.006059163250029087,-0.004105402156710625,0.05296317860484123
1782831327396237000,4.781237060546875,0.003083447925746441,-0.005866721738129854,0.028850723057985306
1782831327406166000,4.791166015625,0.0035766661167144775,0.0005802586674690247,0.004819688852876425
1782831327416095000,4.801094970703125,0.004669860936701298,0.0038528786972165108,-0.01743457466363907
1782831327426025200,4.811025146484375,0.006715700961649418,-0.0013552000746130943,-0.030408697202801704
1782831327435954200,4.8209541015625,0.01094729732722044,-0.00226488895714283,-0.032904669642448425
1782831327445883100,4.830883056640625,0.014414200559258461,0.0008635260164737701,-0.0179587434977293
1782831327455812000,4.84081201171875,0.016686609014868736,0.02497774362564087,0.008943326771259308
1782831327465742000,4.8507421875,0.011576268821954727,0.029766373336315155,0.02796628698706627
1782831327475671000,4.860671142578125,0.00864692497998476,0.009096702560782433,0.030605513602495193
1782831327485600000,4.87060009765625,0.001058514229953289,-0.028065312653779984,0.022802185267210007
1782831327495529000,4.880529052734375,-0.0030414890497922897,-0.0637865737080574,0.00918659009039402
1782831327505459000,4.890458984375,0.005991420708596706,-0.06469471007585526,-0.0014087958261370659
1782831327515388000,4.900387939453125,0.02032129094004631,-0.035010065883398056,-0.01395806111395359
1782831327525316900,4.91031689453125,0.029016513377428055,-0.0012041665613651276,-0.015680059790611267
1782831327535247000,4.9202470703125,0.012307507917284966,0.029190585017204285,-0.010703261941671371
1782831327545176000,4.930176025390625,-0.006068836897611618,0.05002955347299576,-0.000948635395616293
1782831327555105000,4.94010498046875,-0.019330646842718124,0.05136053264141083,0.018402110785245895
1782831327565034200,4.9500341796875,-0.01576334238052368,0.061346590518951416,0.032303813844919205
1782831327574964000,4.9599638671875,-0.002019435167312622,0.05641220882534981,0.032034602016210556
1782831327584893000,4.969892822265625,0.012095051817595959,0.04120129719376564,0.022392358630895615
1782831327594822000,4.97982177734375,0.023070041090250015,-0.0009321048855781555,0.007814088836312294
1782831327604751000,4.989751220703125,0.02099064365029335,-0.034279145300388336,0.00009544938802719116
1782831327614681000,4.99968115234375,0.002587367780506611,-0.05060727894306183,-0.010230448096990585
1782831327624610000,5.009610107421875,-0.0046926504001021385,-0.0539972186088562,-0.013244880363345146
1782831327634539000,5.0195390625,-0.007556847296655178,-0.0175595972687006,-0.0002817818894982338
1782831327644468000,5.029468017578125,-0.0075973281636834145,0.026577770709991455,0.016179749742150307
1782831327654398000,5.03939794921875,0.00016139540821313858,0.048911698162555695,0.0236060693860054
1782831327664327200,5.0493271484375,0.005454161670058966,0.045550789684057236,0.028187237679958344
1782831327674256100,5.059256103515625,0.009625904262065887,0.03438863530755043,0.03293757885694504
1782831327684185900,5.069185791015625,0.005487884394824505,0.01916227862238884,0.03782793879508972
1782831327694114800,5.07911474609375,-0.00012919213622808456,0.007316505536437035,0.026147371158003807
1782831327704044000,5.0890439453125,0.006314858328551054,0.005287175998091698,0.016398869454860687
1782831327713973000,5.098972900390625,0.005201226565986872,0.007202458567917347,0.002686923835426569
1782831327723903000,5.108903076171875,-0.001995166763663292,0.0007885005325078964,-0.0016074231825768948
1782831327733832200,5.118832275390625,-0.014803805388510227,-0.013882382772862911,-0.005030777305364609
1782831327743761200,5.12876123046875,-0.014363852329552174,-0.009362466633319855,-0.0029652295634150505
1782831327753690000,5.138690185546875,-0.011800924316048622,0.01201553177088499,-0.0043757157400250435
1782831327763620000,5.1486201171875,-0.014033185318112373,0.010782754980027676,-0.010474886745214462
1782831327773549000,5.158549072265625,-0.016312051564455032,-0.006189889740198851,-0.022019822150468826
1782831327783478000,5.16847802734375,-0.020419180393218994,-0.01594424992799759,-0.020331112667918205
1782831327793407000,5.178406982421875,-0.018957972526550293,-0.0039060255512595177,-0.013527048751711845
1782831327803337200,5.188337158203125,-0.004758797585964203,0.023578064516186714,-0.004953800700604916
1782831327813266000,5.198265869140625,0.004568195901811123,0.043508052825927734,0.0009999419562518597
1782831327823195000,5.20819482421875,0.012479914352297783,0.04075434431433678,0.004751802887767553
1782831327833123800,5.218123779296875,0.0154898501932621,0.03122127428650856,0.010001054033637047
1782831327843054000,5.22805419921875,0.009077224880456924,0.017953138798475266,0.018059778958559036
1782831327852983000,5.237983154296875,0.0035597551614046097,-0.001787104643881321,0.024343356490135193
1782831327862912000,5.247912109375,-0.003563934937119484,-0.0031884601339697838,0.023231487721204758
1782831327872842000,5.257842041015625,0.004057100974023342,0.0065498920157551765,0.014275440946221352
1782831327882771000,5.26777099609375,0.010462269186973572,0.0041485195979475975,0.001152182463556528
1782831327892700000,5.277699951171875,0.020460009574890137,-0.002441183663904667,-0.0024280622601509094
1782831327902629000,5.287629150390625,0.0263674333691597,0.005531255155801773,-0.0005297609604895115
1782831327912559000,5.29755908203125,0.025503870099782944,0.0029159169644117355,-0.0032294001430273056
1782831327922484000,5.30748388671875,0.01826939359307289,-0.01285452302545309,-0.012294534593820572
1782831327932414000,5.3174140625,0.012932851910591125,0.001638408750295639,-0.0030774041078984737
1782831327942343200,5.32734326171875,0.005670678336173296,0.0186149962246418,0.002883549313992262
1782831327952272100,5.337272216796875,0.004178106319159269,0.013310857117176056,0.0036135553382337093
1782831327962201000,5.347201171875,0.008775521069765091,0.014382779598236084,0.0011605178005993366
1782831327972131300,5.35713134765625,0.010559306479990482,0.013044273480772972,0.006239697802811861
1782831327982060300,5.367060302734375,0.017702171579003334,0.0005908003076910973,0.004422889556735754
1782831327991989200,5.3769892578125,0.01745150424540043,-0.02289733849465847,-0.02159751206636429
1782831328001918000,5.38691796875,0.018806254491209984,-0.014276153407990932,-0.037104565650224686
1782831328011848200,5.39684814453125,0.009016671217978,0.004393340088427067,-0.030322076752781868
1782831328021777200,5.406777099609375,0.0034384140744805336,0.03381887450814247,-0.022133123129606247
1782831328031706000,5.4167060546875,-0.006499703973531723,0.03878780081868172,-0.018497908487915993
1782831328041636400,5.42663623046875,-0.005208071321249008,0.030101634562015533,-0.01787339709699154
1782831328051565000,5.43656494140625,-0.010735658928751945,0.013939770869910717,-0.02251710183918476
1782831328061494000,5.446493896484375,-0.01721060276031494,-0.005813160445541143,-0.017627272754907608
1782831328071423000,5.456423095703125,-0.019852425903081894,-0.03639660030603409,-0.012315573170781136
1782831328081353200,5.466353271484375,-0.011510605923831463,-0.05243575572967529,-0.00993284210562706
1782831328091282200,5.4762822265625,0.0025524497032165527,-0.04655766114592552,0.0034364680759608746
1782831328101211100,5.486211181640625,0.00837571732699871,-0.025096043944358826,0.012674441561102867
1782831328111140400,5.496140380859375,0.005923810880631208,-0.02201123721897602,0.014477983117103577
1782831328121070000,5.506070068359375,-0.008477765135467052,-0.020539307966828346,0.004620825406163931
1782831328130999000,5.5159990234375,-0.02457524463534355,-0.002902524545788765,-0.004316477105021477
1782831328140928300,5.52592822265625,-0.03510564938187599,0.00678632128983736,-0.014194674789905548
1782831328150857200,5.535857177734375,-0.030274007469415665,0.01320361066609621,-0.024213584139943123
1782831328160787200,5.545787109375,-0.006093837320804596,0.031179148703813553,-0.022108621895313263
1782831328170716200,5.555716064453125,0.0062391930259764194,0.04081759974360466,-0.002749884035438299
1782831328180645000,5.56564501953125,0.004775519482791424,0.025601360946893692,0.005180210340768099
1782831328190575000,5.5755751953125,0.000985010527074337,-0.0034201545640826225,0.007990483194589615
1782831328200504000,5.585504150390625,-0.01018961239606142,-0.010971015319228172,0.018275611102581024
1782831328210433300,5.595433349609375,-0.021755652502179146,-0.02265157550573349,0.012344533577561378
1782831328220362200,5.6053623046875,-0.021266164258122444,-0.021897900849580765,0.001734232995659113
1782831328230292000,5.6152919921875,-0.006713324226438999,0.014316245913505554,0.014841383323073387
1782831328240221200,5.62522119140625,0.00585732888430357,0.046814266592264175,0.023446589708328247
1782831328250150100,5.635150146484375,0.01243976503610611,0.03957787901163101,0.01645744778215885
1782831328260079000,5.6450791015625,0.007976040244102478,0.002808148041367531,0.0040894621051847935
1782831328270009300,5.65500927734375,-0.0013471189886331558,-0.041651271283626556,-0.004513125866651535
1782831328279938300,5.664938232421875,-0.01033661887049675,-0.04800131171941757,-0.003398858942091465
1782831328289867300,5.6748671875,-0.0032975533977150917,-0.027409628033638,0.004528558347374201
1782831328299796200,5.684796142578125,0.009424366988241673,-0.010169388726353645,0.004850267898291349
1782831328309726200,5.694726318359375,0.013312984257936478,0.004647238180041313,0.0036900253035128117
1782831328319655200,5.7046552734375,0.011095370166003704,-0.009890957735478878,-0.004397728480398655
1782831328329584000,5.714584228515625,0.004998222459107637,-0.022747136652469635,-0.009870918467640877
1782831328339514400,5.724514404296875,-0.00022450275719165802,-0.035632841289043427,-0.017399940639734268
1782831328349443000,5.734443115234375,-0.003315660171210766,-0.0512978658080101,-0.021238461136817932
1782831328359372000,5.7443720703125,-0.003684508614242077,-0.042246848344802856,-0.021689865738153458
1782831328369301000,5.754301025390625,0.001385384239256382,-0.012389209121465683,-0.017371192574501038
1782831328379231200,5.764231201171875,-0.0006242375820875168,0.017320483922958374,-0.014583928510546684
1782831328389160200,5.77416015625,0.0010910360142588615,0.03574560955166817,-0.011052288115024567
1782831328399089200,5.784089111328125,0.004577380605041981,0.044448018074035645,0.0012270142324268818
1782831328409018400,5.794018310546875,0.0026019811630249023,0.045601245015859604,0.010790124535560608
1782831328418948000,5.803947998046875,0.006430275738239288,0.020754750818014145,0.022737331688404083
1782831328428877000,5.813876953125,0.00891926884651184,-0.016856756061315536,0.022066611796617508
1782831328438806000,5.823805908203125,-0.0002052541822195053,-0.0447927825152874,0.020077763125300407
1782831328448735200,5.8337353515625,-0.006506027653813362,-0.0501428060233593,0.01798638328909874
1782831328458665200,5.843665283203125,-0.014465149492025375,-0.03095366805791855,0.005850890185683966
1782831328468594200,5.85359423828125,-0.011647960171103477,0.008713366463780403,-0.009128117002546787
1782831328478523100,5.863523193359375,-0.007439898326992989,0.036099717020988464,-0.029469873756170273
1782831328488452000,5.8734521484375,0.007340744137763977,0.046547986567020416,-0.04286796227097511
1782831328498382000,5.883382080078125,0.026042526587843895,0.04389867186546326,-0.029080510139465332
1782831328508311300,5.893311279296875,0.029386993497610092,0.01723889634013176,-0.007820980623364449
1782831328518240300,5.903240234375,0.01667918637394905,-0.017132926732301712,0.025490371510386467
1782831328528170000,5.913169921875,0.00418136827647686,-0.03586386516690254,0.05247289314866066
1782831328538099000,5.923098876953125,-0.006517880596220493,-0.035813529044389725,0.04598356783390045
1782831328548028200,5.933028076171875,-0.0027803322300314903,-0.024903669953346252,0.020433710888028145
1782831328557957000,5.94295703125,0.009378595277667046,0.005294713191688061,-0.01446701493114233
1782831328567887000,5.95288720703125,0.02150273509323597,0.0385417714715004,-0.03245346248149872
1782831328577818000,5.962818115234375,0.020090727135539055,0.03916282206773758,-0.0361882783472538
1782831328587747000,5.9727470703125,0.015343742445111275,0.012568273581564426,-0.02165493555366993
1782831328597677300,5.98267724609375,0.0076706428080797195,-0.015324344858527184,-0.0011720308102667332
1782831328607606300,5.992606201171875,0.01060817763209343,-0.02874235063791275,0.019029691815376282
1782831328617535200,6.00253515625,0.012034299783408642,-0.03705540671944618,0.025963231921195984
1782831328627465200,6.01246533203125,0.015243209898471832,-0.023934265598654747,0.02746783383190632
1782831328637394200,6.022394287109375,0.012299617752432823,-0.012582275085151196,0.028475044295191765
1782831328647323100,6.0323232421875,-0.0006472049281001091,-0.012185169383883476,0.013047918677330017
1782831328657252000,6.042252197265625,-0.009968800470232964,-0.022645799443125725,-0.00964514259248972
1782831328667182000,6.05218212890625,-0.01327242236584425,-0.02578776329755783,-0.03608651086688042
1782831328677111000,6.062111083984375,-0.010430830530822277,-0.025740092620253563,-0.050393812358379364
1782831328687040000,6.0720400390625,0.0035141166299581528,0.002117733471095562,-0.04610099270939827
1782831328696969200,6.08196923828125,0.016963345929980278,0.018827471882104874,-0.025974417105317116
1782831328706899200,6.091899169921875,0.01900668628513813,0.01591840386390686,-0.0009719342924654484
1782831328716828200,6.101828125,0.014851356856524944,-0.0016339579597115517,0.024277759715914726
1782831328726757000,6.111757080078125,0.0077761029824614525,-0.016643298789858818,0.042701754719018936
1782831328736686300,6.121686279296875,-0.0004298947751522064,-0.022033536806702614,0.04120319336652756
1782831328746616000,6.131615966796875,0.01682046800851822,-0.02103879675269127,0.02625313401222229
1782831328756545000,6.141544921875,0.03284204378724098,-0.005626550875604153,0.0074418955482542515
1782831328766474200,6.15147412109375,0.03697916120290756,-0.02386850118637085,-0.009076697751879692
1782831328776403200,6.1614033203125,0.027788061648607254,-0.025473589077591896,-0.00924314558506012
1782831328786333200,6.171333251953125,0.017147734761238098,-0.009562361054122448,0.00016218936070799828
1782831328796262100,6.18126220703125,-0.0017053158953785896,0.0010085245594382286,-0.00042237434536218643
1782831328806191000,6.191191162109375,-0.006344441324472427,0.0246589332818985,0.0003231843002140522
1782831328816121000,6.20112109375,-0.0015731221064925194,0.030662763863801956,-0.005832978989928961
1782831328826050000,6.211050048828125,0.00235573947429657,0.02033231221139431,-0.015577694401144981
1782831328835979300,6.220979248046875,0.0075566270388662815,-0.011967836879193783,-0.02496160753071308
1782831328845908200,6.230908203125,0.007248499896377325,-0.02337399683892727,-0.015889883041381836
1782831328855838000,6.240837890625,0.00937210489064455,-0.007890379056334496,0.003940013702958822
1782831328865767200,6.25076708984375,0.003287479281425476,0.0046330401673913,0.017632318660616875
1782831328875696000,6.260696044921875,-0.004769382067024708,-0.009228980168700218,0.007929623126983643
1782831328885625000,6.270625,-0.004809697158634663,-0.015586258843541145,-0.017185259610414505
1782831328895555300,6.280555419921875,0.005307386163622141,0.00947648286819458,-0.021738998591899872
1782831328905484300,6.290484375,0.00632917694747448,0.012071345001459122,-0.028579579666256905
1782831328915413200,6.300413330078125,0.002178107388317585,-0.0250651054084301,-0.03643697127699852
1782831328925342200,6.31034228515625,-0.007620261050760746,-0.06328760087490082,-0.03296652436256409
1782831328935272700,6.320272705078125,-0.015083237551152706,-0.05676339194178581,-0.0059090727008879185
1782831328945201700,6.33020166015625,-0.013889641501009464,-0.021213579922914505,0.023886417970061302
1782831328955130600,6.340130615234375,-0.012270440347492695,0.007022584788501263,0.047484684735536575
1782831328965059800,6.350059814453125,-0.0009418530389666557,0.027920018881559372,0.06045544147491455
1782831328974989600,6.359989501953125,0.006167721468955278,0.03549431636929512,0.060530275106430054
1782831328984918500,6.36991845703125,0.007128358818590641,0.03342911973595619,0.0456090047955513
1782831328994847700,6.37984765625,0.015908002853393555,0.017976660281419754,0.017593614757061005
1782831329004777700,6.38977783203125,0.00527273491024971,0.0005140593275427818,-0.004981018602848053
1782831329014706700,6.399706787109375,-0.011519295163452625,0.0005617300048470497,-0.013713257387280464
1782831329024635600,6.4096357421875,-0.024237651377916336,-0.0033056670799851418,-0.015788983553647995
1782831329034564600,6.419564697265625,-0.037717774510383606,-0.012100757099688053,-0.012138854712247849
1782831329044494600,6.42949462890625,-0.037245698273181915,-0.014383397996425629,-0.011000827886164188
1782831329054423600,6.439423583984375,-0.022999916225671768,0.00044694729149341583,-0.007727270480245352
1782831329064352800,6.449352783203125,-0.005941005423665047,0.00825307797640562,0.003569949883967638
1782831329074281700,6.45928173828125,0.01053091324865818,0.022149719297885895,0.017242087051272392
1782831329084211700,6.469211669921875,0.018497392535209656,0.022935040295124054,0.025117645040154457
1782831329094140700,6.479140625,0.012286102399230003,0.011995305307209492,0.011968553066253662
1782831329104069600,6.489069580078125,0.0010650381445884705,0.0010163262486457825,0.0033638072200119495
1782831329113998600,6.49899853515625,-0.01340844389051199,-0.0010289819911122322,-0.013444467447698116
1782831329123928600,6.508928466796875,-0.024696554988622665,-0.004252391867339611,-0.03046468272805214
1782831329133857800,6.51885791015625,-0.029681194573640823,-0.011965972371399403,-0.034109748899936676
1782831329143786800,6.528786865234375,-0.01567665860056877,-0.009672004729509354,-0.019420601427555084
1782831329153716500,6.538716552734375,-0.011950629763305187,0.0007556024938821793,-0.0027550715021789074
1782831329163645700,6.548645751953125,0.008004170842468739,0.011440097354352474,0.009505253285169601
1782831329173574700,6.55857470703125,0.023551706224679947,0.018046334385871887,0.018973058089613914
1782831329183503600,6.568503662109375,0.030999667942523956,0.027272917330265045,0.02119532600045204
1782831329193433900,6.578433837890625,0.025509826838970184,0.0211750790476799,0.02135458216071129
1782831329203362800,6.58836279296875,0.017655998468399048,-0.010670265182852745,0.00961231254041195
1782831329213291500,6.59829150390625,0.014280974864959717,-0.02496558055281639,0.007277786266058683
1782831329223220500,6.608220458984375,0.011888289824128151,-0.030739676207304,0.002738357987254858
1782831329233150700,6.618150634765625,0.002946993336081505,-0.022565901279449463,-0.012435801327228546
1782831329243079700,6.62807958984375,0.0068874722346663475,-0.013930164277553558,-0.020983366295695305
1782831329253008600,6.638008544921875,0.0017960406839847565,-0.01916567236185074,-0.028368046507239342
1782831329262937600,6.6479375,0.004746725782752037,-0.03573495149612427,-0.02081266976892948
1782831329272867600,6.65786767578125,0.008696193806827068,-0.010275663807988167,0.0031408662907779217
1782831329282796500,6.667796630859375,0.004046715330332518,-0.0032386602833867073,0.04709244146943092
1782831329292725500,6.6777255859375,0.0027130041271448135,-0.005968134384602308,0.0735272467136383
1782831329302654700,6.68765478515625,-0.001493692398071289,-0.0013011246919631958,0.07912144064903259
1782831329312584700,6.697584716796875,-0.0030654901638627052,0.00393677968531847,0.05436868965625763
1782831329322513700,6.707513671875,-0.010924680158495903,0.006123783066868782,0.018952032551169395
1782831329332443000,6.71744287109375,-0.01295054703950882,0.0036790017038583755,-0.019731981679797173
1782831329342372600,6.72737255859375,-0.019542768597602844,-0.0023444248363375664,-0.04732846841216087
1782831329352301600,6.737301513671875,-0.008781732991337776,-0.02267446368932724,-0.044816307723522186
1782831329362230800,6.747230712890625,0.006245320662856102,-0.032394248992204666,-0.016730019822716713
1782831329372159700,6.75715966796875,0.0166979618370533,-0.03845533728599548,0.01613791659474373
1782831329382089700,6.76708984375,0.022014297544956207,-0.04617442935705185,0.052788835018873215
1782831329392018400,6.777018310546875,0.02166249416768551,-0.0216246135532856,0.0843355804681778
1782831329401947600,6.78694775390625,0.016472622752189636,0.012766114436089993,0.1063474789261818
1782831329411876600,6.796876708984375,0.01541215181350708,0.02855706214904785,0.10271093249320984
1782831329421806600,6.806806640625,0.021772246807813644,0.04171481728553772,0.0789712592959404
1782831329431735800,6.81673583984375,0.027149969711899757,0.054158441722393036,0.049539338797330856
1782831329441664800,6.826664794921875,0.033947255462408066,0.0343586802482605,0.02090257778763771
1782831329451593700,6.83659375,0.036407217383384705,0.015608430840075016,0.022683167830109596
1782831329461523700,6.846523681640625,0.026210207492113113,0.0006654523313045502,0.021868880838155746
1782831329471452700,6.85645263671875,0.01703987829387188,-0.021009482443332672,0.014780610799789429
1782831329481381600,6.866381591796875,0.012948796153068542,-0.03314991295337677,0.00046557048335671425
1782831329491311600,6.8763115234375,0.010045417584478855,-0.03508922830224037,-0.011120512150228024
1782831329501240800,6.88624072265625,0.003090105950832367,-0.02978403866291046,-0.015817146748304367
1782831329511169800,6.896169677734375,0.003728199750185013,-0.022947438061237335,-0.008034057915210724
1782831329521098500,6.906098388671875,0.008245420642197132,-0.02067669853568077,0.004676319193094969
1782831329531028700,6.91602880859375,0.015434890985488892,-0.017267588526010513,0.02088192105293274
1782831329540957700,6.925957763671875,0.016197454184293747,-0.0037673907354474068,0.03009733185172081
1782831329550886700,6.93588671875,0.01578759402036667,0.019728079438209534,0.029892269521951675
1782831329560815600,6.945815673828125,0.007950941100716591,0.024018988013267517,0.027138471603393555
1782831329570745600,6.95574560546875,-0.004140608943998814,0.030879024416208267,0.02216794714331627
1782831329580674600,6.965674560546875,-0.013791770674288273,0.030944030731916428,0.007118721026927233
1782831329590603500,6.975603515625,-0.011059899814426899,0.025827832520008087,-0.008997131139039993
1782831329600532700,6.98553271484375,-0.002232617698609829,0.02284601703286171,-0.02569178119301796
1782831329610462700,6.995462646484375,0.0003184238448739052,0.010703068226575851,-0.03413666412234306
1782831329620391700,7.0053916015625,-0.0051052384078502655,0.013388997875154018,-0.04340323433279991
1782831329630320600,7.015320556640625,-0.015232441946864128,0.017838340252637863,-0.04218004643917084
1782831329640249900,7.025249755859375,-0.027968307957053185,0.027719154953956604,-0.03728482872247696
1782831329650179600,7.0351796875,-0.03529120236635208,0.024309508502483368,-0.018905023112893105
1782831329660108500,7.045108642578125,-0.033620137721300125,0.029624737799167633,0.004652117844671011
1782831329670037800,7.055037841796875,-0.03203076124191284,0.034698594361543655,0.011324668303132057
1782831329679967700,7.0649677734375,-0.017283406108617783,0.020191658288240433,0.003923818003386259
1782831329689896700,7.074896728515625,-0.0035295113921165466,0.00834618229418993,0.004510778468102217
1782831329699825700,7.08482568359375,-0.002335119992494583,0.001871153712272644,-0.004255438689142466
1782831329709754600,7.094754638671875,0.0034769633784890175,0.0009739352390170097,-0.018559010699391365
1782831329719684600,7.1046845703125,0.0075950114987790585,0.004696020856499672,-0.022515803575515747
1782831329729613600,7.114613525390625,0.003234351985156536,0.0015540234744548798,-0.020877160131931305
1782831329739542800,7.124542724609375,-0.009778885170817375,-0.002895713783800602,-0.006648332811892033
1782831329749471700,7.1344716796875,-0.015206141397356987,-0.01070836279541254,-0.0060906666330993176
1782831329759401500,7.1444013671875,-0.011766036972403526,-0.014103846624493599,-0.026862049475312233
1782831329769330700,7.15433056640625,-0.006469808518886566,-0.01031576655805111,-0.03961220011115074
1782831329779259600,7.164259765625,-0.008744481019675732,-0.005122507456690073,-0.04682761803269386
1782831329789188600,7.174188720703125,-0.0050725145265460014,-0.003440987318754196,-0.043647538870573044
1782831329799118800,7.184118896484375,-0.004610056988894939,0.011510769836604595,-0.02322545275092125
1782831329809047800,7.1940478515625,0.004357872065156698,0.028858069330453873,-0.00158220948651433
1782831329818976800,7.203976806640625,0.01178769115358591,0.031083963811397552,0.020778855308890343
1782831329828905500,7.213905517578125,0.009449968114495277,0.005097906105220318,0.022913645952939987
1782831329838835700,7.223835693359375,0.005398436449468136,-0.025311946868896484,0.021966975182294846
1782831329848764700,7.2337646484375,-0.007905119098722935,-0.031381554901599884,0.017591135576367378
1782831329858693600,7.243693603515625,-0.03202284127473831,-0.02396947145462036,0.0008898214437067509
1782831329868622600,7.25362255859375,-0.04903431236743927,0.0018602609634399414,-0.020268727093935013
1782831329878552600,7.263552490234375,-0.047335248440504074,0.03288615867495537,-0.03984158858656883
1782831329888481500,7.2734814453125,-0.031104348599910736,0.05353204905986786,-0.038600556552410126
1782831329898410500,7.283410400390625,-0.019269859418272972,0.058302395045757294,-0.03061598353087902
1782831329908340700,7.2933408203125,-0.005075210705399513,0.051937706768512726,-0.00015421444550156593
1782831329918269700,7.303269775390625,-0.001222650520503521,0.07920073717832565,0.03175700455904007
1782831329928198700,7.31319873046875,-0.010722411796450615,0.10005195438861847,0.0537259541451931
1782831329938131500,7.32313134765625,-0.020453501492738724,0.12166973203420639,0.048523008823394775
1782831329948061200,7.333061279296875,-0.0337408110499382,0.11877860873937607,0.03544848412275314
1782831329957990100,7.342990234375,-0.046841900795698166,0.10092408955097198,0.019111311063170433
1782831329967919400,7.35291943359375,-0.04680648073554039,0.07037044316530228,-0.0020983703434467316
1782831329977848300,7.362848388671875,-0.025913912802934647,0.038366079330444336,-0.021795526146888733
1782831329987778300,7.3727783203125,-0.011178110726177692,-0.010890682227909565,-0.036371540278196335
1782831329997707300,7.382707275390625,0.0016942108049988747,-0.04753142595291138,-0.03615301102399826
1782831330007636200,7.39263623046875,-0.00026294682174921036,-0.03810010477900505,-0.023669974878430367
1782831330017565200,7.402565185546875,-0.005543661303818226,-0.013198576867580414,-0.034021832048892975
1782831330027495400,7.412495361328125,-0.013360572047531605,-0.01293092966079712,-0.06431689113378525
1782831330037424400,7.42242431640625,-0.01591397635638714,-0.019834982231259346,-0.08769601583480835
1782831330047353300,7.432353271484375,-0.022323140874505043,-0.0385652594268322,-0.08357823640108109
1782831330057282300,7.4422822265625,-0.021598629653453827,-0.04223214089870453,-0.06763752549886703
1782831330067212300,7.45221240234375,-0.008569644764065742,-0.026905914768576622,-0.039526525884866714
1782831330077141200,7.462141357421875,0.0029308833181858063,-0.002590094693005085,-0.013324867933988571
1782831330087070200,7.4720703125,0.011931302957236767,-0.004972026217728853,-0.005955102853477001
1782831330097000400,7.48200048828125,0.01311567798256874,-0.0341961570084095,-0.009688804857432842
1782831330106929400,7.491929443359375,0.005466812755912542,-0.058775536715984344,-0.018655935302376747
1782831330116858400,7.5018583984375,-0.0003431066870689392,-0.05071587115526199,-0.026732144877314568
1782831330126787000,7.511787109375,0.002654014155268669,-0.022618990391492844,-0.02350279502570629
1782831330136717300,7.52171728515625,0.012890907004475594,0.00403991062194109,-0.014323238283395767
1782831330146646300,7.531646240234375,0.0139199523255229,0.018177032470703125,-0.006505262106657028
1782831330156575200,7.5415751953125,0.013971918262541294,0.01056990958750248,0.00353747745975852
1782831330166504400,7.55150439453125,0.010467464104294777,0.008316876366734505,0.01179647259414196
1782831330176434200,7.56143408203125,0.005056353285908699,0.003684897907078266,0.010826140642166138
1782831330186363100,7.571363037109375,-0.0031911898404359818,0.01345763448625803,0.0006885514594614506
1782831330196292400,7.581292236328125,-0.0023985328152775764,0.02079218626022339,-0.005517004057765007
1782831330206222300,7.591222412109375,0.002194354310631752,0.017715703696012497,-0.003651992417871952
1782831330216151300,7.6011513671875,-0.0013011451810598373,0.01269820611923933,0.0016319104470312595
1782831330226080300,7.611080322265625,-0.013384439051151276,0.008677099831402302,0.00006224308162927628
1782831330236009500,7.621009521484375,-0.024227332323789597,0.017352405935525894,-0.0011256686411798
1782831330245939200,7.630939208984375,-0.02851129323244095,0.03675806149840355,-0.021263428032398224
1782831330255868200,7.6408681640625,-0.03357269987463951,0.04195680469274521,-0.04168898984789848
1782831330265797400,7.65079736328125,-0.03222833573818207,0.03161495178937912,-0.054878562688827515
1782831330275726300,7.660726318359375,-0.020032256841659546,0.011221184395253658,-0.05433551222085953
1782831330285656300,7.67065625,-0.01066778413951397,-0.005839557386934757,-0.04044046625494957
1782831330295585300,7.680585205078125,0.0030067842453718185,-0.021958041936159134,-0.015246406197547913
1782831330305514200,7.69051416015625,-0.0006255004554986954,-0.028025254607200623,0.003994133789092302
1782831330315443200,7.700443115234375,-0.0001936042681336403,-0.006020791828632355,0.021566085517406464
1782831330325373200,7.710373291015625,-0.00891732145100832,0.016657620668411255,0.027036752551794052
1782831330335302400,7.720302490234375,-0.0129567701369524,0.020929738879203796,0.020526213571429253
1782831330345231400,7.7302314453125,-0.003041289746761322,0.026689622551202774,0.017408184707164764
1782831330355160300,7.740160400390625,0.004927420057356358,0.025942448526620865,0.009663781151175499
1782831330365090300,7.75009033203125,0.01547140721231699,0.006435859017074108,-0.004205695353448391
1782831330375019300,7.760019287109375,0.018166527152061462,-0.025548281148076057,-0.018546087667346
1782831330384948200,7.7699482421875,0.012277212925255299,-0.042013272643089294,-0.02426495961844921
1782831330394878500,7.77987841796875,0.006743998732417822,-0.03180428221821785,-0.011548606678843498
1782831330404807400,7.789807373046875,0.0017686812207102776,-0.008061135187745094,0.0028401860035955906
1782831330414736400,7.799736328125,-0.002202225849032402,0.010542565025389194,0.012044105678796768
1782831330424665000,7.8096650390625,-0.003231271170079708,0.005241542123258114,0.008948979899287224
1782831330434595300,7.81959521484375,-0.004611654207110405,-0.0072800153866410255,0.0013191723264753819
1782831330444524300,7.829524169921875,0.0028281519189476967,-0.014635666273534298,-0.013042191043496132
1782831330454453200,7.839453369140625,0.011020099744200706,-0.007474300917237997,-0.01341930590569973
1782831330464382200,7.84938232421875,0.021769415587186813,0.015517833642661572,-0.010030167177319527
1782831330474312200,7.859312255859375,0.02600148320198059,0.029454723000526428,0.00511225825175643
1782831330484241200,7.8692412109375,0.017649011686444283,0.014221174642443657,0.011702783405780792
1782831330494170000,7.879170166015625,0.00816555880010128,-0.000541997142136097,0.013782557100057602
1782831330504099300,7.889099365234375,-0.0033739181235432625,-0.018357746303081512,0.007652226369827986
1782831330514029300,7.899029296875,-0.008164012804627419,-0.020040035247802734,0.0007227850146591663
1782831330523958300,7.908958251953125,-0.02340262196958065,-0.024322133511304855,-0.00582859106361866
1782831330533887500,7.918887451171875,-0.02291276678442955,-0.015216579660773277,-0.010128391906619072
1782831330543816400,7.92881640625,-0.01225639320909977,0.014243043027818203,-0.002050491515547037
1782831330553746200,7.93874609375,-0.0056445300579071045,0.026631299406290054,0.0029288441874086857
1782831330563675400,7.94867529296875,0.0008868733420968056,0.02823292464017868,0.018265722319483757
1782831330573604400,7.958604248046875,0.0033096810802817345,0.0177583210170269,0.02083318494260311
1782831330583534300,7.968534423828125,-0.0038760602474212646,-0.003570670261979103,0.01209535263478756
1782831330593463300,7.97846337890625,-0.019826626405119896,-0.03148949518799782,-0.012082304805517197
1782831330603392300,7.988392333984375,-0.02802356891334057,-0.040255025029182434,-0.023737095296382904
1782831330613321200,7.9983212890625,-0.02624717727303505,-0.0018540909513831139,-0.016310954466462135
1782831330623251200,8.008251220703125,-0.019166097044944763,0.030129142105579376,-0.017990875989198685
1782831330633180400,8.018180419921874,-0.011355609633028507,0.033530816435813904,-0.024033214896917343
1782831330643109400,8.028109375,-0.011068521998822689,0.01611986942589283,-0.016511648893356323
1782831330653038300,8.038038330078125,-0.012172534130513668,-0.015787117183208466,-0.00568033941090107
1782831330662968300,8.04796826171875,-0.01459254790097475,-0.03957900032401085,0.008201653137803078
1782831330672897300,8.057897216796874,-0.0176420696079731,-0.030179675668478012,0.021118834614753723
1782831330682826200,8.067826171875,-0.005758780054748058,0.014031725935637951,0.031846582889556885
1782831330692755200,8.077755126953125,0.009100728668272495,0.048786748200654984,0.02957640215754509
1782831330702685400,8.087685546875,0.018651623278856277,0.05733789503574371,0.0185578390955925
1782831330712614400,8.097614501953124,0.015929406508803368,0.032251887023448944,0.0030490360222756863
1782831330722543400,8.10754345703125,0.007694380357861519,-0.002348700538277626,-0.005734868347644806
1782831330732472000,8.11747216796875,0.003426295705139637,-0.0013296054676175117,0.0006814147345721722
1782831330742402300,8.12740234375,-0.0024662138894200325,0.01813916675746441,0.00665302062407136
1782831330752331300,8.137331298828125,-0.015388504602015018,0.021672338247299194,-0.002662660088390112
1782831330762260200,8.14726025390625,-0.014019905589520931,0.01755908504128456,-0.012908106669783592
1782831330772189400,8.157189453125,-0.005383405834436417,0.015878068283200264,-0.01772080734372139
1782831330782119200,8.167119140625,-0.002064574509859085,-0.0033448953181505203,-0.022989071905612946
1782831330792048000,8.177048095703125,0.015390615910291672,-0.0013985168188810349,-0.01048464048653841
1782831330801977300,8.186977294921874,0.020638640969991684,0.031934138387441635,0.025192130357027054
1782831330811907300,8.1969072265625,0.013369409367442131,0.029512181878089905,0.04818562790751457
1782831330821836300,8.206836181640625,0.009458824060857296,0.009577088989317417,0.055418774485588074
1782831330831765200,8.21676513671875,-0.0019227610900998116,-0.009853314608335495,0.043240778148174286
1782831330841694500,8.226694580078124,-0.002635689452290535,-0.024471139535307884,0.008289188146591187
1782831330851624200,8.236624267578126,0.010583976283669472,-0.014388678595423698,-0.02298697642982006
1782831330861553200,8.24655322265625,0.015544911846518517,0.007043641991913319,-0.03220151364803314
1782831330871482400,8.256482421875,0.003036944195628166,0.011682809330523014,-0.023742906749248505
1782831330881411300,8.266411376953124,-0.007670295424759388,0.003627813421189785,-0.018144674599170685
1782831330891341300,8.27634130859375,-0.011038528755307198,-0.016280777752399445,-0.018082721158862114
1782831330901270300,8.286270263671875,-0.006837658584117889,-0.034154582768678665,-0.021958153694868088
1782831330911199200,8.29619921875,0.003977406304329634,-0.03136490657925606,-0.023371651768684387
1782831330921128200,8.306128173828125,0.01480182446539402,-0.010716352611780167,0.0000945250503718853
1782831330931058200,8.31605810546875,0.012942703440785408,0.021448493003845215,0.033422280102968216
1782831330940983000,8.325983154296875,0.006500783376395702,0.019897200167179108,0.057726290076971054
1782831330950912000,8.335912109375,-0.002673841081559658,0.0007016342133283615,0.051000721752643585
1782831330960841200,8.34584130859375,-0.005730350501835346,-0.02114054746925831,0.01889844238758087
1782831330970771200,8.355771240234375,-0.004599304869771004,-0.04002577066421509,-0.028371470049023628
1782831330980700000,8.365699951171875,-0.0026040636003017426,-0.04198293015360832,-0.06470764428377151
1782831330990629000,8.375629150390624,-0.00807486567646265,-0.029321324080228806,-0.07307592034339905
1782831331000559000,8.38555908203125,-0.009043990634381771,-0.009105268865823746,-0.04585575312376022
1782831331010488000,8.395488037109375,-0.007979588583111763,0.019767802208662033,0.0026675877161324024
1782831331020417000,8.4054169921875,-0.008391046896576881,0.03782137110829353,0.04896824061870575
1782831331030346200,8.41534619140625,-0.007719329558312893,0.02334502711892128,0.06751268357038498
1782831331040276000,8.42527587890625,-0.014218241907656193,-0.001696145161986351,0.04536290094256401
1782831331050205000,8.435204833984375,-0.019171323627233505,-0.00777520751580596,0.016703465953469276
1782831331060134100,8.445134033203125,-0.027040164917707443,-0.0020656567066907883,-0.008842906914651394
1782831331070063000,8.45506298828125,-0.032124340534210205,-0.0018847631290555,-0.021466776728630066
1782831331079993000,8.4649931640625,-0.02540944516658783,0.012814554385840893,-0.013351325877010822
1782831331089922300,8.47492236328125,-0.014239182695746422,0.023470457643270493,-0.0035236021503806114
1782831331099851000,8.48485107421875,0.0006747851148247719,0.03915834054350853,0.010820714756846428
1782831331109780000,8.494780029296875,0.021566517651081085,0.03879762068390846,0.02291102707386017
1782831331119710000,8.5047099609375,0.030872400850057602,0.02541683241724968,0.02718859724700451
1782831331129639200,8.51463916015625,0.02973064035177231,0.01224487740546465,0.026965372264385223
1782831331139568000,8.524568115234375,0.014864075928926468,-0.01254249457269907,0.010309163480997086
1782831331149497000,8.5344970703125,0.0019440501928329468,-0.04116974025964737,-0.013258922845125198
1782831331159427000,8.544427001953125,-0.00016623828560113907,-0.033493444323539734,-0.026967277750372887
1782831331169356000,8.55435595703125,0.004928451031446457,-0.016569890081882477,-0.0428529791533947
1782831331179285000,8.564284912109375,0.015061512589454651,0.0018053892999887466,-0.05603349581360817
1782831331189215200,8.57421533203125,0.0371951162815094,0.016303326934576035,-0.05080600082874298
1782831331199144200,8.584144287109375,0.039572782814502716,0.01814436912536621,-0.03754878416657448
1782831331209073200,8.5940732421875,0.03763290494680405,0.011078438721597195,-0.02816302888095379
1782831331219002000,8.604002197265626,0.03644992783665657,-0.00014252308756113052,-0.009245263412594795
1782831331228932000,8.61393212890625,0.023126300424337387,-0.009714502841234207,0.007547090295702219
1782831331238861000,8.623861083984375,0.017865492030978203,-0.014381959103047848,0.02048552595078945
1782831331248790000,8.6337900390625,0.025926344096660614,0.006809563376009464,0.02587243914604187
1782831331258719000,8.643718994140626,0.02783343568444252,0.01741533726453781,0.021639877930283546
1782831331268649200,8.653649169921875,0.025953378528356552,0.00974689144641161,0.020721981301903725
1782831331278578000,8.663577880859375,0.019518915563821793,0.005784639157354832,0.016566917300224304
1782831331288507000,8.6735068359375,0.018010998144745827,-0.0028874436393380165,0.0018840865232050419
1782831331298436000,8.68343603515625,0.026768004521727562,0.01135221216827631,-0.00679275905713439
1782831331308366000,8.693365966796875,0.03159092366695404,0.03522008657455444,-0.01733526401221752
1782831331318295000,8.703294921875,0.026999633759260178,0.04006730765104294,-0.018691878765821457
1782831331328224300,8.713224365234375,0.022516101598739624,0.026046093553304672,-0.012785391882061958
1782831331338153200,8.7231533203125,0.001861422322690487,-0.005719826091080904,-0.0042180027812719345
1782831331348083000,8.7330830078125,-0.014216211624443531,-0.019030865281820297,0.002589200157672167
1782831331358012000,8.743011962890625,-0.02127092331647873,-0.014801766723394394,0.003611587453633547
1782831331367941000,8.752941162109375,-0.017253082245588303,-0.00042102858424186707,-0.006322850473225117
1782831331377870000,8.7628701171875,-0.006717883050441742,0.01523915771394968,-0.014169322326779366
1782831331387800000,8.772800048828126,-0.0035752207040786743,0.03689270839095116,-0.01934407651424408
1782831331397729300,8.782729248046875,-0.006775273941457272,0.05310922861099243,-0.017651371657848358
1782831331407658000,8.792657958984375,-0.01068782340735197,0.047805387526750565,-0.022124426439404488
1782831331417588000,8.802587890625,-0.019751623272895813,0.029148880392313004,-0.030901938676834106
1782831331427517200,8.81251708984375,-0.02128247730433941,0.025554347783327103,-0.03230493888258934
1782831331437446100,8.822446044921875,-0.023502757772803307,0.030309688299894333,-0.010908038355410099
1782831331447375000,8.832375,-0.02871512994170189,0.031334973871707916,0.018466873094439507
1782831331457305000,8.84230517578125,-0.03287205845117569,0.027122385799884796,0.04256422072649002
1782831331467234000,8.852234130859374,-0.028346911072731018,0.02228608727455139,0.0366351418197155
1782831331477163000,8.8621630859375,-0.017139531672000885,0.03177093341946602,0.01094469241797924
1782831331487092000,8.872092041015625,-0.008861328475177288,0.036889247596263885,-0.02962654083967209
1782831331497022200,8.882022216796875,-0.009450419805943966,0.02999591827392578,-0.06285746395587921
1782831331506951200,8.891951171875,-0.012594712898135185,0.011012738570570946,-0.07575401663780212
1782831331516880100,8.901880126953126,-0.027336906641721725,-0.005067427642643452,-0.06375168263912201
1782831331526809000,8.91180908203125,-0.03767672926187515,-0.00448386836796999,-0.025759965181350708
1782831331536739000,8.921739013671875,-0.03523940220475197,0.01139682624489069,0.01135491207242012
1782831331546668000,8.93166796875,-0.029128320515155792,0.023678196594119072,0.031176239252090454
1782831331556597000,8.941596923828126,-0.01894758641719818,0.028142189607024193,0.03770045191049576
1782831331566527200,8.95152734375,-0.010278696194291115,0.01643485575914383,0.036005835980176926
1782831331576456200,8.961456298828125,-0.008699974045157433,-0.006035832222551107,0.025485284626483917
1782831331586385000,8.971385009765624,-0.004662421531975269,-0.028542645275592804,0.006889380980283022
1782831331596314000,8.981314208984376,0.005673839244991541,-0.0332319401204586,-0.0063151041977107525
1782831331606244000,8.991244140625,0.003972477745264769,-0.02335701696574688,-0.008777427487075329
1782831331616173000,9.001173095703125,0.0024139955639839172,0.001479090191423893,0.002667506691068411
1782831331626102000,9.01110205078125,-0.004731496796011925,0.02238839864730835,0.00491976598277688
1782831331636031200,9.02103125,-0.010972082614898682,0.02514876425266266,0.004990073386579752
1782831331645961000,9.0309609375,-0.012079191394150257,0.014998946338891983,-0.00828088354319334
1782831331655890000,9.040889892578125,-0.00861255545169115,-0.004351582378149033,-0.014637582935392857
1782831331665819100,9.050819091796875,0.0075781322084367275,-0.017087245360016823,-0.00596200255677104
1782831331675748000,9.060748046875,0.025286555290222168,-0.012536968104541302,0.019988372921943665
1782831331685678000,9.070677978515626,0.02144973911345005,-0.012332702986896038,0.03429220989346504
1782831331695607300,9.080607177734375,0.015932202339172363,-0.010558505542576313,0.033277012407779694
1782831331705536000,9.090535888671875,0.0011638086289167404,-0.00428270548582077,0.015619583427906036
1782831331715465000,9.10046484375,-0.013389036059379578,-0.0019372589886188507,-0.015327680855989456
1782831331725395000,9.11039501953125,-0.029933322221040726,-0.006090021226555109,-0.037470683455467224
1782831331735324200,9.12032421875,-0.0401793010532856,-0.02328631840646267,-0.05292687192559242
1782831331745253000,9.130253173828125,-0.03620190545916557,-0.03019176796078682,-0.04291907325387001
1782831331755182000,9.14018212890625,-0.027108807116746902,-0.025849750265479088,-0.02876809984445572
1782831331765112000,9.150112060546874,-0.016561491414904594,-0.005789677146822214,-0.011517505161464214
1782831331775041000,9.160041015625,-0.0022470010444521904,0.01122286170721054,0.002225204836577177
1782831331784970000,9.169969970703125,-0.00008641090244054794,0.01586407795548439,0.013704400509595871
1782831331794900200,9.179900146484375,-0.01230978686362505,0.005837810225784779,0.014758747071027756
1782831331804829200,9.1898291015625,-0.024408327415585518,-0.006302593741565943,0.015752125531435013
1782831331814758100,9.199758056640626,-0.026304764673113823,-0.020976610481739044,0.017210206016898155
1782831331824687000,9.20968701171875,-0.022077731788158417,-0.014040396548807621,0.019480731338262558
1782831331834617000,9.2196171875,-0.015628617256879807,-0.0008383076637983322,0.008548455312848091
1782831331844546000,9.229546142578124,-0.0023977337405085564,0.015971066430211067,-0.005438440479338169
1782831331854475000,9.23947509765625,0.003271603025496006,0.02645966038107872,-0.02558312378823757
1782831331864404000,9.249404052734375,-0.005677251145243645,0.02777143195271492,-0.033845122903585434
1782831331874334200,9.259334228515625,-0.009720461443066597,0.013104070909321308,-0.029690857976675034
1782831331884263000,9.269262939453125,-0.013691169209778309,-0.008701823651790619,-0.01931832917034626
1782831331894191900,9.27919189453125,-0.013373187743127346,-0.02795914188027382,-0.006942886393517256
1782831331904121000,9.28912109375,-0.008783631026744843,-0.028674330562353134,0.015861397609114647
1782831331914051000,9.299051025390625,-0.0023787282407283783,-0.017257094383239746,0.03927084803581238
1782831331923980000,9.30897998046875,-0.0012151245027780533,-0.014657624065876007,0.04862917587161064
1782831331933907000,9.318906982421876,0.004965539555996656,-0.005753078497946262,0.043000053614377975
1782831331943835600,9.328835693359375,0.0065332092344760895,-0.014313889667391777,0.010634426027536392
1782831331953764600,9.3387646484375,0.012839308008551598,-0.004813594743609428,-0.019306961447000504
1782831331963694800,9.34869482421875,0.013753370381891727,0.0060052452608942986,-0.03713717311620712
1782831331973623800,9.358623779296876,0.010469959117472172,0.01680729165673256,-0.031669702380895615
1782831331983552800,9.368552734375,0.004794563632458448,0.02772839367389679,-0.008007600903511047
1782831331993482800,9.378482666015625,0.0010448331013321877,0.029560651630163193,0.011684611439704895
1782831332003411700,9.38841162109375,-0.0030365288257598877,0.01719702035188675,0.016455549746751785
1782831332013340700,9.398340576171876,0.0007848404347896576,-0.010358707047998905,0.008912678807973862
1782831332023270000,9.408269775390625,-0.0005690092220902443,-0.02292952686548233,-0.006262207869440317
1782831332033199900,9.418199951171875,0.0015721721574664116,-0.022589441388845444,-0.015926286578178406
1782831332043128800,9.42812890625,0.007926140911877155,-0.014948741532862186,-0.014110926538705826
1782831332053057800,9.438057861328126,0.014249018393456936,0.008394931443035603,-0.004412492737174034
1782831332062986800,9.44798681640625,0.013368910178542137,0.024184241890907288,0.0024930699728429317
1782831332072916700,9.457916748046875,0.015387852676212788,0.03234123811125755,-0.0002987212501466274
1782831332082845700,9.467845703125,0.010580779053270817,0.01267899852246046,-0.014529507607221603
1782831332092775000,9.47777490234375,-0.001606910489499569,0.011779117397964,-0.019241172820329666
1782831332102703900,9.487703857421875,-0.016361555084586143,0.00260789692401886,-0.018988322466611862
1782831332112633600,9.497633544921875,-0.028902115300297737,-0.002042781561613083,0.008923204615712166
1782831332122562800,9.507562744140625,-0.03431032970547676,0.019532259553670883,0.03855369985103607
1782831332132491800,9.51749169921875,-0.018462389707565308,0.03835601359605789,0.05022846534848213
1782831332142420700,9.527420654296876,0.009418977424502373,0.043035972863435745,0.032931849360466
1782831332152351000,9.53735107421875,0.031889401376247406,0.02091362699866295,0.00402084132656455
1782831332162280000,9.547280029296875,0.04463119059801102,-0.007981506176292896,-0.005922945216298103
1782831332172209000,9.557208984375,0.03242752328515053,-0.014286539517343044,-0.016521792858839035
1782831332182137600,9.5671376953125,0.01999731734395027,-0.017863541841506958,-0.02357676438987255
1782831332192067800,9.57706787109375,0.012285868637263775,-0.008171766996383667,-0.02098763920366764
1782831332201996800,9.586996826171875,0.0027048150077462196,0.005698654800653458,-0.020541012287139893
1782831332211925800,9.59692578125,-0.00475443247705698,0.03007190302014351,-0.021702149882912636
1782831332221856000,9.60685595703125,-0.01784040778875351,0.04520968347787857,-0.01830202527344227
1782831332231784700,9.61678466796875,-0.012331128120422363,0.057814955711364746,-0.009733038954436779
1782831332241713700,9.626713623046875,-0.0038031525909900665,0.05074959248304367,0.0005347789265215397
1782831332251642600,9.636642578125,-0.00025768671184778214,0.030140187591314316,0.008748235180974007
1782831332261572900,9.64657275390625,0.005028055980801582,-0.01573014445602894,0.0075099230743944645
1782831332271501800,9.656501708984376,0.006075743585824966,-0.05565039813518524,0.00007757265120744705
1782831332281430800,9.6664306640625,0.012724624015390873,-0.05702471360564232,-0.010798951610922813
1782831332291360000,9.676360107421875,0.014746496453881264,-0.03960790857672691,-0.019367938861250877
1782831332301289700,9.686289794921874,0.005630230065435171,-0.028616882860660553,-0.019163740798830986
1782831332311218700,9.69621875,-0.015399687923491001,-0.015310664661228657,-0.011780394241213799
1782831332321147600,9.706147705078125,-0.022485695779323578,0.0043935589492321014,-0.014416289515793324
1782831332331076900,9.716076904296875,-0.01671915128827095,0.010201381519436836,-0.027214642614126205
1782831332341006800,9.7260068359375,-0.0038128411397337914,0.014216943643987179,-0.04013849049806595
1782831332350935800,9.735935791015624,0.0000783037394285202,0.0160507969558239,-0.03342412784695625
1782831332360864800,9.74586474609375,0.0056440457701683044,0.026007503271102905,-0.031777430325746536
1782831332370793700,9.755793701171875,0.01608230546116829,0.032015059143304825,-0.012410921975970268
1782831332380723700,9.7657236328125,0.015771247446537018,0.03629348427057266,-0.0007061273790895939
1782831332390653000,9.77565283203125,0.005303159821778536,0.031611379235982895,-0.0009764386340975761
1782831332400582000,9.785581787109376,-0.005882248282432556,0.03507847338914871,-0.015164990909397602
1782831332410511600,9.79551171875,-0.019179411232471466,0.04005885124206543,-0.02391214296221733
1782831332420440600,9.805440673828125,-0.026014847680926323,0.07305897027254105,-0.032079391181468964
1782831332430369800,9.815369873046874,-0.03198831528425217,0.09281989187002182,-0.03830958902835846
1782831332440298800,9.825298828125,-0.02125747874379158,0.10767102986574173,-0.04600799083709717
1782831332450228700,9.835228759765625,0.0015317220240831375,0.09695553034543991,-0.06429006159305573
1782831332460158000,9.845157958984375,0.022884884849190712,0.07635680586099625,-0.08180758357048035
1782831332470087000,9.8550869140625,0.04613321274518967,0.0899282768368721,-0.08717598766088486
1782831332480016000,9.865015869140626,0.041695356369018555,0.1617116928100586,-0.016524432227015495
1782831332489945900,9.87494580078125,-0.05001991614699364,0.13545584678649902,0.11389856040477753
1782831332499874800,9.884874755859375,-0.08696874976158142,-0.16186505556106567,0.12740761041641235
1782831332509803800,9.8948037109375,-0.01979396864771843,-0.29154157638549805,0.0708194300532341
1782831332519732700,9.904732666015626,0.01865658536553383,-0.24022646248340607,0.022459428757429123
1782831332529662700,9.914662841796876,0.03688565641641617,-0.12989754974842072,-0.03214283287525177
1782831332539591700,9.924591796875,0.0645567923784256,-0.04648331180214882,-0.10943154990673065
1782831332549520600,9.934520751953125,0.06459248065948486,-0.009139667265117168,-0.17844365537166595
1782831332559449600,9.94444970703125,0.058324333280324936,0.0785260796546936,-0.16324740648269653
1782831332569379800,9.9543798828125,0.02910652756690979,0.1158074140548706,-0.09635812789201736
1782831332579308800,9.964308837890625,0.005990986246615648,0.0029434524476528168,-0.013491211459040642
1782831332589237800,9.97423779296875,0.018837809562683105,-0.15126636624336243,0.052811913192272186
