time,seconds_elapsed,z,y,x
1782831954451597000,0.08359716796875,0.5168056132882833,-0.16123437192067502,0.7381053084626793
1782831954461526000,0.093526123046875,0.41297640550136566,-0.19315408940315246,0.7651552279517054
1782831954471455000,0.103455078125,0.2779962726473808,-0.09231178847253323,0.6302689108610153
1782831954481383700,0.1133837890625,0.2081277866512537,0.10633359182327985,0.44166291321627793
1782831954491313000,0.12331298828125,0.10056114590167999,0.16000760660469532,0.2994895443899557
1782831954501241900,0.133241943359375,0.07929273242354393,0.13640636626482008,0.17314336610222233
1782831954511170800,0.1431708984375,0.1277741469979286,0.08643105987086891,0.19701098402701317
1782831954521099800,0.153099853515625,0.15130816732048988,0.13253858492076395,0.2308649209750816
1782831954531029000,0.163029052734375,0.15042963092029094,0.10363485425859689,0.27900590634765104
1782831954540958000,0.1729580078125,0.23764321947097777,-0.007917202865332365,0.392971399555169
1782831954550887000,0.182886962890625,0.3529892620503902,-0.028178777388483286,0.36570188249871133
1782831954560815900,0.19281591796875,0.284163563105464,-0.07538944137468934,0.35199911850187926
1782831954570745000,0.2027451171875,-0.16154431465268135,-0.24614435970410703,0.48385286296363916
1782831954580674000,0.212674072265625,-0.2661334008961916,-0.3152114661894738,0.31050807427149263
1782831954590602800,0.222602783203125,-0.23524083450436592,-0.20905162349790332,0.1212932240134105
1782831954600531700,0.23253173828125,-0.48856151557862754,0.0017182020947337149,0.13458967223167417
1782831954610461000,0.2424609375,-0.6666682579755783,0.017011925077438355,0.011824311572778969
1782831954620390000,0.252389892578125,-0.6035732116371393,-0.01624181748777628,0.010010485350154339
1782831954630318800,0.26231884765625,-0.5972808334946632,0.09532733690142631,0.17155101887686178
1782831954640247800,0.272247802734375,-0.47682431603372094,0.07602160179838538,0.23960808980315923
1782831954650175700,0.28217578125,-0.22299860804677007,-0.02294613743200898,0.23635528028598055
1782831954660105000,0.29210498046875,-0.20316227319836616,-0.1214592647626996,0.21746738700252025
1782831954670034000,0.302033935546875,-0.255248434266448,-0.25749051410481333,0.23233557804953306
1782831954679963000,0.311962890625,-0.25992168677449223,-0.4322464847691357,0.21604340034769848
1782831954689891800,0.321891845703125,-0.18190555015802382,-0.5169548125006258,0.14660469320411793
1782831954699821000,0.331821044921875,0.06244213538765907,-0.4647906177602708,0.017280448953667656
1782831954709750000,0.34175,0.0453653283804655,-0.5372684094719589,-0.014537401889800093
1782831954719679000,0.351678955078125,0.06769874074161052,-0.7258795947484672,-0.03117429224292282
1782831954729608000,0.36160791015625,0.10467267287373543,-0.7558131068497895,-0.04785082048668991
1782831954739537000,0.371536865234375,-0.0009895955592393875,-0.7062516419537365,0.0004714899692684412
1782831954749465900,0.3814658203125,-0.06343114642500877,-0.6722258921027183,0.01985009622898651
1782831954759394800,0.391394775390625,-0.0850455968618393,-0.5748522901959717,0.012317184540082234
1782831954769323800,0.40132373046875,-0.2100304054021835,-0.5033877671800554,0.08159116382533683
1782831954779252700,0.411252685546875,-0.17645839066803454,-0.43400677243992686,0.11339120958405546
1782831954789182000,0.421181884765625,-0.05180734412670135,-0.3280639334999025,0.1606402602187358
1782831954799111000,0.43111083984375,-0.057874096819758414,-0.3327915465436876,0.25500417718179524
1782831954809040000,0.441039794921875,0.05761515362262726,-0.4490406754426658,0.33856775532495226
1782831954818968800,0.45096875,0.17328034515380858,-0.5136074017688632,0.42624264124445616
1782831954828898000,0.46089794921875,0.1110258412927389,-0.4846025488197803,0.5580780463319271
1782831954838827000,0.470826904296875,0.29223464135825633,-0.4629869293391704,0.5054116742230952
1782831954848755700,0.480755615234375,0.4160930762171745,-0.5105692031167447,0.416900410544686
1782831954858685000,0.490684814453125,0.2851122421324253,-0.43022710777074097,0.37458530004769564
1782831954868614000,0.50061376953125,0.2934223898380995,-0.28268340755030513,0.3272232448920607
1782831954878541800,0.510541748046875,0.30271687240600587,-0.2314581010952592,0.3713583738904446
1782831954888471000,0.520470947265625,0.47570086496174335,-0.30517157208174467,0.41712519574388857
1782831954898400000,0.53039990234375,0.5972638823598623,-0.37969197553694245,0.33618334440644826
1782831954908329000,0.540328857421875,0.3839981482982635,-0.30725889974981546,0.45343058096468447
1782831954918258000,0.5502578125,0.24140052617788313,-0.2401926116928458,0.5335123448740691
1782831954928187000,0.560186767578125,0.1864338412374258,-0.31148499301224947,0.4732150760279968
1782831954938116000,0.5701162109375,0.22472470118701457,-0.3979594536334276,0.4590024628128856
1782831954948045000,0.580045166015625,0.20173370169997215,-0.334290260668844,0.4882912472698837
1782831954957974000,0.58997412109375,0.005226794737577438,-0.24345628966391086,0.5088799713881687
1782831954967903000,0.599903076171875,-0.16153613134622574,-0.2428969022154808,0.4516139234641567
1782831954977832200,0.609832275390625,-0.30900282080769537,-0.221384596978873,0.4617843851489946
1782831954987761000,0.619760986328125,-0.33147476485669614,-0.1525890009112656,0.5033423936683684
1782831954997689900,0.62968994140625,-0.4288648795068264,-0.059386547209322446,0.45235926193874326
1782831955007618800,0.639618896484375,-0.46535599655807014,0.03575798047110438,0.4338282010026276
1782831955017548000,0.649548095703125,-0.3506587732762098,0.15395312887132168,0.3218857197890058
1782831955027477000,0.65947705078125,-0.17833061428070068,0.2189940485805273,0.1985011495195329
1782831955037406000,0.669406005859375,-0.087707509547472,0.24141557761654256,0.07907200234495103
1782831955047335000,0.6793349609375,-0.04298690881133079,0.2656993933930993,0.05472750588972121
1782831955057264000,0.68926416015625,-0.03216448602378368,0.2849557363964617,0.18967687827926127
1782831955067193000,0.699193115234375,0.07780687777996063,0.2704454188764095,0.2731586598904803
1782831955077122000,0.7091220703125,0.14526128837168215,0.1696823206618428,0.3224508428584784
1782831955087051000,0.719051025390625,0.04792904138863086,0.01412920924797654,0.3794804882107302
1782831955096980000,0.72897998046875,-0.0821387695044279,-0.16821093293502926,0.3993265772681683
1782831955106908200,0.738908203125,-0.059141924798488614,-0.20179726845547555,0.38879831512160595
1782831955116837000,0.748837158203125,0.07761515460014343,0.026083120283484456,0.3188114269101992
1782831955126766000,0.75876611328125,0.10441372967660427,0.18813801480680703,0.1990797531250864
1782831955136694800,0.76869482421875,0.053859015959501266,0.17249021768942474,0.09581117489561437
1782831955146624000,0.7786240234375,0.16225509327054022,0.21612243866696954,-0.012698701520822942
1782831955156553000,0.788552978515625,0.19664894578158854,0.2733136677891016,-0.08410535686966031
1782831955166482000,0.79848193359375,0.15077449883520602,0.2920886570163071,-0.10375062612537295
1782831955176411000,0.808410888671875,0.17269991491734982,0.2752265156731009,-0.10484298793934285
1782831955186340000,0.818340087890625,0.23457097241878508,0.2468427172318101,-0.08327833146099001
1782831955196269000,0.82826904296875,0.13770400485992432,0.24373291464820504,-0.026028138693235812
1782831955206198000,0.838197998046875,0.0902384893298149,0.21148294229805467,-0.06682396720107645
1782831955216127000,0.848126953125,0.1756365528911352,0.13376578862816094,-0.16807024582270533
1782831955226056200,0.85805615234375,0.2594710203975439,0.1290440208032727,-0.1466501123815775
1782831955235985200,0.867985107421875,0.2550783383965492,0.17857494443058966,-0.10362360221222043
1782831955245913900,0.877913818359375,0.33558103113174437,0.17266089808121324,-0.10765771656651049
1782831955255842800,0.8878427734375,0.2689817760646343,0.16586539272218942,-0.21747122292742133
1782831955265772000,0.89777197265625,0.34092648381292817,0.07943067958950996,-0.3296978183120489
1782831955275701000,0.907700927734375,0.46210547032952304,-0.0019457272402942179,-0.33906635249685496
1782831955285630000,0.9176298828125,0.46099721682667727,-0.0713237993709743,-0.3018802754513919
1782831955295559000,0.927558837890625,0.5640671306788921,-0.1423047766536474,-0.29026348741576075
1782831955305488100,0.937488037109375,0.6795487823367119,-0.14101707493066787,-0.2971665630687959
1782831955315417000,0.9474169921875,0.6650339347720146,-0.17400719812363385,-0.3045359045267105
1782831955325346000,0.957345947265625,0.6948924819409846,-0.24474019199460745,-0.37297066792529077
1782831955335274000,0.96727392578125,0.7957476423531771,-0.24506504003480076,-0.48052441266067325
1782831955345203000,0.977202880859375,0.7370230661839247,-0.24147519884929058,-0.5840042955532669
1782831955355132200,0.987132080078125,0.677478405803442,-0.3933351548336446,-0.630334304247424
1782831955365061000,0.99706103515625,0.6358423270791769,-0.5282892764635384,-0.5576903621885925
1782831955374990000,1.006989990234375,0.49744566377997396,-0.6661275752276182,-0.5078218041047453
1782831955384919000,1.0169189453125,0.30527006402015683,-0.7551327233701944,-0.40041108456924557
1782831955394848000,1.026847900390625,0.08071955035626888,-0.7892255471080541,-0.42667679487802085
1782831955404777000,1.03677685546875,-0.038651509955525395,-0.7998587309338152,-0.43975532602928574
1782831955414706000,1.046705810546875,-0.22987959973216054,-0.7565856986574828,-0.5073961625711992
1782831955424635000,1.056634765625,-0.40539048041701314,-0.7493328049197793,-0.559580048392713
1782831955434564000,1.066564208984375,-0.5138935252338648,-0.8348669159509241,-0.5986602320890874
1782831955444493000,1.0764931640625,-0.5588058491498231,-0.8514587159201502,-0.6460659071907401
1782831955454422000,1.086422119140625,-0.4957476276904344,-0.8229961531542241,-0.5610230502752587
1782831955464351000,1.09635107421875,-0.5352963787466287,-0.8878115935444831,-0.4090053829785436
1782831955474280200,1.1062802734375,-0.5476549250602721,-1.0139113775894044,-0.29819300177339464
1782831955484209200,1.116209228515625,-0.514047839012742,-1.0997804196633398,-0.32208664918858554
1782831955494138000,1.12613818359375,-0.377124755397439,-1.1032860896967351,-0.3513960745748132
1782831955504067000,1.136067138671875,-0.22317688722312448,-1.0649519751273095,-0.36717221077959983
1782831955513996000,1.14599609375,-0.20530629948973655,-1.102610966914147,-0.32475448015835134
1782831955523925000,1.155925048828125,-0.2550426825612783,-1.1494977327082305,-0.26833626296902074
1782831955533854000,1.16585400390625,-0.16315233437120913,-1.1742842373099178,-0.26947281098458914
1782831955543783000,1.175782958984375,-0.07450082197189331,-1.1150458663996308,-0.29640792672121896
1782831955553712000,1.185712158203125,-0.14209434877336025,-1.0755998450655488,-0.268614312725421
1782831955563640000,1.19564013671875,-0.17175591206550597,-1.0909705788072197,-0.23588357112100347
1782831955573569000,1.205569091796875,-0.20567747088968752,-1.067049604993686,-0.2289971726081334
1782831955583498000,1.215498046875,-0.36180151405930516,-1.0835362640880049,-0.2785765932859853
1782831955593427000,1.225427001953125,-0.4028647613316774,-1.133518584744632,-0.3245368553522974
1782831955603356200,1.235356201171875,-0.5232148958086967,-1.1231249818284064,-0.3128681544663384
1782831955613285000,1.24528515625,-0.6406213780492543,-1.1003593155298381,-0.33799189166575666
1782831955623214000,1.255214111328125,-0.6333814899235963,-1.0657955863445996,-0.34288119807727635
1782831955633143000,1.26514306640625,-0.6686088706493377,-1.0730470918428152,-0.3517546056888997
1782831955643072300,1.275072265625,-0.6515028375476598,-1.0919484839286655,-0.32637422684729095
1782831955653001000,1.2850009765625,-0.7703373067647218,-0.9838189485993236,-0.3112337216649204
1782831955662930000,1.294929931640625,-0.8193839540064335,-0.7919253806512803,-0.335118235925585
1782831955672859000,1.30485888671875,-0.8091641732871532,-0.7218432519044726,-0.2473704126340337
1782831955682787800,1.314787841796875,-0.9586416180491447,-0.8030346575561911,-0.08018548001218587
1782831955692717000,1.324717041015625,-1.166378359556198,-0.830504263762012,-0.11879570810925215
1782831955702646000,1.33464599609375,-1.0758142915338278,-0.5905193034704774,0.05008536090599373
1782831955712575000,1.344574951171875,-0.9601672201812267,-0.2719582345921546,0.2778276928811334
1782831955722504000,1.35450390625,-0.9672089553862809,-0.07421272574551403,0.4024184788689017
1782831955732433200,1.36443310546875,-0.8233563647687435,0.09822181623391807,0.39816367096863686
1782831955742362000,1.374362060546875,-0.6770055275946855,0.21468539160117506,0.2294916598604992
1782831955752291000,1.384291015625,-0.265989023989439,0.32063181073777375,0.24256958822356536
1782831955762220000,1.394219970703125,0.09716682728826999,0.454522467854619,0.33613471949175
1782831955772149000,1.40414892578125,0.272816824182868,0.5219868883837014,0.5440687006039545
1782831955782078000,1.414077880859375,0.4805255086392164,0.5070574686687439,0.6834528771031647
1782831955792007000,1.4240068359375,0.7299509358406067,0.49989239934496577,0.6530209870256484
1782831955801934800,1.433934814453125,1.0872416944772005,0.58268144945167,0.6142293379470706
1782831955811863800,1.44386376953125,1.406522163671255,0.7196418694026768,0.6862488644972443
1782831955821793000,1.45379296875,1.5640841306895017,0.7909663994260132,0.8704973245196044
1782831955831722000,1.463721923828125,1.5408599069684743,0.7463473593682051,1.0089275978274643
1782831955841651000,1.47365087890625,1.5446435171604156,0.6929664823144673,0.9987461032919586
1782831955851583000,1.4835830078125,1.7159779889434574,0.7077933184377849,0.915044760645926
1782831955861512000,1.493511962890625,1.7140420524448154,0.7322773329615593,0.8663079830709844
1782831955871441000,1.50344091796875,1.6109925968587397,0.7332248429447412,0.8678790317799896
1782831955881369900,1.513369873046875,1.5198539438188075,0.6679121205568314,0.9145406835813075
1782831955891298800,1.523298828125,1.4257178625285625,0.5630125070594251,0.9465477140210569
1782831955901228000,1.53322802734375,1.1510673931777478,0.52376361573264,0.988783731399849
1782831955911157000,1.543156982421875,0.7131587909936904,0.44959071054086086,1.0697276650965213
1782831955921086000,1.5530859375,0.24155191734731196,0.28654782789349553,1.118080119528994
1782831955931014700,1.5630146484375,-0.2715519188135862,0.19469313553869724,1.1870515105549246
1782831955940944000,1.57294384765625,-0.9108002549439668,0.1023056514814496,1.2801340642042458
1782831955950872800,1.582872802734375,-1.4641595291256904,-0.11049772576540708,1.2176486741967498
1782831955960801800,1.5928017578125,-1.8354034097909926,-0.12807152250930667,1.0776011749505996
1782831955970730800,1.602730712890625,-2.086770034188032,0.046066608517616986,0.967777329858765
1782831955980660000,1.612659912109375,-2.2231664635807276,0.17921777237877248,0.8234513495758176
1782831955990589000,1.6225888671875,-2.2284055332779884,0.21238778218328952,0.7459972307562828
1782831956000518000,1.632517822265625,-2.0850474481791257,0.17891586682274938,0.7524692032493651
1782831956010446800,1.64244677734375,-1.8497662816643714,0.15420768815428018,0.8310672314070164
1782831956020376000,1.6523759765625,-1.4139911843776702,0.10011310987323523,0.929850992372632
1782831956030305000,1.662304931640625,-0.9296791429370641,0.05388093553036451,0.9747141433846205
1782831956040233000,1.67223291015625,-0.45976212207376954,0.019191461073607204,0.9731439714584499
1782831956050162000,1.682161865234375,-0.026928923457860944,-0.0015272095672786235,0.9208944365222006
1782831956060091000,1.6920908203125,0.33527707974910737,-0.0436653925947845,0.8137616571452468
1782831956070019800,1.702019775390625,0.6550853722095489,-0.17954349720180032,0.7803975860733539
1782831956079948800,1.71194873046875,0.819644066247344,-0.3790428639784455,0.7978842890556901
1782831956089877800,1.721877685546875,0.8633218799322843,-0.5300593548759818,0.8693350027419626
1782831956099806700,1.731806640625,0.9893822087496519,-0.5575478119127452,0.861427736748755
1782831956109736000,1.74173583984375,1.0071680408090353,-0.5321329462796449,0.8627487562194466
1782831956119665000,1.751664794921875,0.7467565246909856,-0.6513974774770438,0.8585719089262187
1782831956129593900,1.76159375,0.6370727456569671,-0.78099445598796,0.7541304144598543
1782831956139522800,1.771522705078125,0.8092734788805246,-0.6735676621004939,0.4926778283236548
1782831956149452000,1.7814521484375,0.6501391479790211,-0.49597968288064,0.3991292280651629
1782831956159381000,1.791381103515625,0.39337329488694667,-0.597478986415267,0.41473442814983424
1782831956169310000,1.80131005859375,0.3823685012698173,-0.7666323147669434,0.45175157836917784
1782831956179239000,1.811239013671875,0.4090869968473911,-0.8329203119277954,0.43168435737434774
1782831956189167900,1.82116796875,0.4696294360935688,-0.8276267355643212,0.40419922480583187
1782831956199096800,1.831096923828125,0.3760615100800991,-0.9089327075064182,0.4541396425494924
1782831956209025800,1.84102587890625,0.1773755055129528,-0.9615389469258486,0.4077909656874835
1782831956218954800,1.850954833984375,0.05167231957018375,-0.9330829600311815,0.23756500313561407
1782831956228884000,1.860884033203125,-0.01818447598814964,-0.8783692269384861,0.11656772986147552
1782831956238813000,1.87081298828125,-0.17301088056266306,-0.9299453926578164,0.1453532775040716
1782831956248742000,1.880741943359375,-0.551678189226985,-1.0363749922014773,0.2548215506238863
1782831956258670800,1.8906708984375,-0.9194868347465991,-0.9347111457549035,0.46425103099085385
1782831956268600000,1.90060009765625,-1.2145517310947178,-0.701440734540671,0.5850476305937394
1782831956278529000,1.910529052734375,-1.4451491237074137,-0.533141831061244,0.45139089183062314
1782831956288458000,1.9204580078125,-1.5446172136753797,-0.3870008372455835,0.24855532983597367
1782831956298386000,1.930385986328125,-1.597295495417714,-0.15217501328289507,0.06576357142794877
1782831956308315000,1.94031494140625,-1.5594810208082197,0.015261428148299455,-0.004354286219365894
1782831956318244000,1.950244140625,-1.5967904685050247,0.07074366139546036,-0.0918653964119032
1782831956328172800,1.9601728515625,-1.5879612653613089,0.13366203599274157,-0.2373781022613868
1782831956338101800,1.970101806640625,-1.5293658685296774,0.2004474612817168,-0.3349583691887557
1782831956348030700,1.98003076171875,-1.309472825282812,0.17295169772133231,-0.31026100417524577
1782831956357960000,1.9899599609375,-1.041583520630002,0.18575155806168914,-0.06708075497373939
1782831956367889000,1.999888916015625,-0.8589140003621578,0.24601196549609303,0.32368937167748807
1782831956377817900,2.00981787109375,-0.6247767431855201,0.25079993042498827,0.6253147955849766
1782831956387746800,2.019746826171875,-0.4968909525066614,0.2943004878468811,0.7645951829161495
1782831956397676000,2.029676025390625,-0.5979857668936253,0.3351978770330548,0.9325801250755786
1782831956407605000,2.03960498046875,-0.6940624608576297,0.3627027006827295,1.0041703933630137
1782831956417534000,2.049533935546875,-1.0113602318018675,0.42941973691061136,0.8335583175703882
1782831956427463000,2.059462890625,-1.2597989860534666,0.5097751301296055,0.526486610955745
1782831956437392000,2.069391845703125,-1.0482792188763619,0.602897650463134,0.22944219469558447
1782831956447320800,2.07932080078125,-0.7787339637100696,0.7305711135655641,0.025444201325438915
1782831956457249800,2.089249755859375,-0.4097872540712356,0.8902151475548744,-0.0533252744089812
1782831956467178800,2.0991787109375,-0.06402034448981285,1.0051568471170962,-0.072677405937016
1782831956477108000,2.10910791015625,0.16481354558169842,1.0043453846037387,-0.09548669218160212
1782831956487037000,2.119036865234375,0.42921851525008675,1.0019133351512253,-0.19458390301056205
1782831956496966000,2.1289658203125,0.7520704131901264,1.1070504106663166,-0.30813312530107795
1782831956506894800,2.138894775390625,1.0860732352197169,1.1925883210897446,-0.40196313631683583
1782831956516823800,2.14882373046875,1.2615531362444161,1.149459081198275,-0.5102139599382877
1782831956526753000,2.1587529296875,1.2930302245259284,1.0759585223101078,-0.5767958254791796
1782831956536682000,2.168681884765625,1.3019798391789197,0.9090032885245978,-0.5985238923583179
1782831956546610000,2.17860986328125,1.2360738270729779,0.7339186704277992,-0.5433451721023768
1782831956556539000,2.188538818359375,0.9807032277315855,0.6165380532808602,-0.5459275167457759
1782831956566468000,2.198468017578125,0.706279552873969,0.5164622066780924,-0.6621004386033863
1782831956576397000,2.20839697265625,0.4899760585516691,0.4896889121733606,-0.7367786629687995
1782831956586325800,2.21832568359375,0.187291334849596,0.548986758185923,-0.7445411867290734
1782831956596254700,2.228254638671875,-0.10561842929124832,0.5722025063395499,-0.7249416563112289
1782831956606183700,2.23818359375,-0.41928631930053234,0.527517999830097,-0.8121814022164792
1782831956616113000,2.24811279296875,-0.38087270975410936,0.5149550169855356,-0.9356759721990674
1782831956626041900,2.258041748046875,-0.3391927918881178,0.5471965137682855,-0.9777332720100879
1782831956635970800,2.267970703125,-0.3442535824090242,0.5086427650988101,-0.9256351282432674
1782831956645899800,2.277899658203125,-0.3952753291159868,0.3165276633545756,-0.7018477079063653
1782831956655829000,2.2878291015625,-0.3338601986885071,0.007233166123926639,-0.5405639438860118
1782831956665758000,2.297758056640625,-0.004949731361865997,-0.24251024098545312,-0.5580220052957534
1782831956675687000,2.30768701171875,0.203813430583477,-0.35026407487019895,-0.6931631008651107
1782831956685615900,2.317615966796875,0.37298692494034763,-0.5108379370555282,-0.8044567993137985
1782831956695544800,2.327544921875,0.5353635987639427,-0.6906143662303685,-0.8452026512000709
1782831956705473800,2.337473876953125,0.6475549767047166,-0.8633652806825935,-0.7421376327186823
1782831956715402800,2.34740283203125,0.7594429877847433,-0.9959611487485468,-0.5920291965767741
1782831956725331700,2.357331787109375,0.815538969016075,-1.03258860553056,-0.5220000401262194
1782831956735261000,2.367260986328125,0.7727227405965328,-1.0629714688345788,-0.5329740002136677
1782831956745190000,2.37718994140625,0.6797036806374788,-1.0848092066332697,-0.6318287805888801
1782831956755118800,2.387118896484375,0.4955699330359697,-1.1592759802050887,-0.7504846053034067
1782831956765047800,2.3970478515625,0.4195400018006563,-1.2638140669137239,-0.7457215556200594
1782831956774977000,2.40697705078125,0.5062164147347211,-1.267606298803538,-0.676635890564695
1782831956784906000,2.416906005859375,0.5130541518002748,-1.2166085905592887,-0.5991935352481901
1782831956794835000,2.4268349609375,0.6135971775233745,-1.1465026425454765,-0.5117474531158804
1782831956804764000,2.436763916015625,0.676228698003292,-1.0635556253980845,-0.41443215726763005
1782831956814691800,2.44669189453125,0.6922428442150353,-0.9624186523698269,-0.3494037317138165
1782831956824621000,2.45662109375,0.43419864175021644,-0.8905652031015604,-0.3465688736140728
1782831956834550000,2.466550048828125,0.3063882543951273,-0.898316109489277,-0.4672030126642436
1782831956844478700,2.476478759765625,0.18854805691242216,-0.831617777961865,-0.54822322646752
1782831956854404900,2.48640478515625,0.06699205377697945,-0.806355837868154,-0.5420384003527462
1782831956864334000,2.496333984375,0.19324995099306105,-0.8523276807744056,-0.4753928949911147
1782831956874263000,2.506262939453125,0.31546412577629085,-0.861949349470064,-0.39842166431769727
1782831956884192000,2.51619189453125,0.16604513320326805,-0.948091728592664,-0.27673553199656303
1782831956894121000,2.526120849609375,-0.009600187516212463,-1.112996313458681,-0.2076451907660812
1782831956904050200,2.53605029296875,-0.13176935411393642,-1.1789063441526144,-0.28875490948371585
1782831956913979100,2.545979248046875,-0.30560850219428537,-1.161915900254622,-0.4073525742702186
1782831956923908000,2.555908203125,-0.49117257485985755,-1.2307324660450218,-0.43817865129709244
1782831956933837000,2.565837158203125,-0.7010059963852167,-1.2511882479660212,-0.38929187079221006
1782831956943766000,2.57576611328125,-0.9948474884182215,-1.2156108116935938,-0.35092451154030857
1782831956953695000,2.585695068359375,-1.1903396653801201,-1.2502606117270887,-0.35631672597266734
1782831956963624000,2.5956240234375,-1.4733932214170693,-1.2278829218327998,-0.33090456375330685
1782831956973553000,2.605552978515625,-1.7159820805966852,-1.140159191802889,-0.2891083990965038
1782831956983482000,2.615482177734375,-1.89850137873888,-0.9925368003230541,-0.280923485205695
1782831956993411000,2.6254111328125,-1.7916747427016495,-0.7242487786762416,-0.41131972433552144
1782831957003340000,2.635340087890625,-1.5955319928765297,-0.31963951176479455,-0.546148319889605
1782831957013269000,2.64526904296875,-1.5782675543427467,-0.17999262920878825,-0.54468891486153
1782831957023198200,2.6551982421875,-1.6978543032318352,-0.2876472405027598,-0.4559159680396318
1782831957033127200,2.665127197265625,-1.6928811909943817,-0.3137782915811986,-0.31217421738542617
1782831957043056000,2.67505615234375,-1.6227005703091621,-0.21798983997404575,-0.19397154326587915
1782831957052984800,2.68498486328125,-1.7542384537547826,-0.12568170476332305,-0.006492723020166158
1782831957062913800,2.694913818359375,-1.9903075557768344,-0.1873250179234892,0.2275811865966767
1782831957072843000,2.704843017578125,-2.149044996315241,-0.3090533819511533,0.464762268448621
1782831957082772000,2.71477197265625,-2.15702839628458,-0.3258651813466102,0.6654174541968851
1782831957092700000,2.724699951171875,-2.0071949776917695,-0.13142463232949375,0.7335569244433194
1782831957102628900,2.73462890625,-1.6467998232990502,0.07490794146806001,0.5804597548142075
1782831957112558000,2.74455810546875,-1.1460615477144718,0.30457061051391066,0.3995340094737708
1782831957122487000,2.754487060546875,-0.6406348220527172,0.5089972045596689,0.3128618343234062
1782831957132416000,2.764416015625,0.14909166031479834,0.6671472005989402,0.2378790009882301
1782831957142345000,2.774344970703125,0.7684656676739454,0.8362221299521625,0.2577965113140642
1782831957152274000,2.78427392578125,1.0523901613265276,0.8063410786904394,0.36606757400594647
1782831957162203100,2.794203125,1.2806862912595272,0.6132786130934953,0.4507677914962172
1782831957172132000,2.804132080078125,1.5968483361721038,0.5200333431631327,0.4945779993891716
1782831957182061000,2.81406103515625,1.8772937555372713,0.5846921316869557,0.5534308781132101
1782831957191990000,2.823989990234375,1.974763365164399,0.6553327710993587,0.6243944658696651
1782831957201919000,2.8339189453125,2.0707412749290466,0.6872584799312055,0.5226264283962547
1782831957211848000,2.843847900390625,2.039091752690077,0.7725136278904974,0.3842951584834605
1782831957221777000,2.85377685546875,1.8507915330588816,0.87572762638852,0.2929493654988706
1782831957231705900,2.863705810546875,1.484259483346343,0.8572703248083591,0.38631402402520176
1782831957241635000,2.873635009765625,1.2303846755206584,0.774165925142169,0.496040692352876
1782831957251564000,2.88356396484375,1.0965735864460469,0.7966339236684143,0.5983469283562153
1782831957261493000,2.893492919921875,0.722693512058258,0.8362297287367284,0.7583703901171683
1782831957271422000,2.903421875,0.34451486369371415,0.7599392468690872,0.8254958610154688
1782831957281351200,2.91335107421875,0.10495148981511593,0.7385588974490761,0.8333735355880111
1782831957291280100,2.923280029296875,-0.16229074910581112,0.8089971461571752,0.8055160260431468
1782831957301209000,2.933208984375,-0.5087918181806802,0.7604527493491768,0.805423233193159
1782831957311137800,2.9431376953125,-0.705093557959795,0.6914649917103349,0.8425938569411635
1782831957321067000,2.95306689453125,-0.829105137553811,0.7374706638209522,0.8504649556424468
1782831957330996000,2.962995849609375,-0.9040092796295881,0.7668526795193552,0.8592906516548245
1782831957340925000,2.972925048828125,-0.8493751876443624,0.8259900742731988,0.7521914822865277
1782831957350854000,2.98285400390625,-0.5941483806878328,1.007003644027561,0.583644595395401
1782831957360783000,2.992783203125,-0.32133740172386166,1.077368389108032,0.4765644960537553
1782831957370712000,3.002712158203125,-0.24179683201909064,0.9570419277675449,0.5270586386900394
1782831957380641000,3.01264111328125,-0.03964110551476478,0.7749579523026943,0.6315097777675837
1782831957390569000,3.02256884765625,0.43067455927729603,0.6812817436091602,0.6423045088306069
1782831957400498000,3.032497802734375,0.9041542410582304,0.6902423180475831,0.5777033687781542
1782831957410427100,3.04242724609375,1.112617543274164,0.7281754506006837,0.498600459838286
1782831957420356000,3.052356201171875,1.14576636416018,0.646945466504246,0.5166629168819635
1782831957430285000,3.06228515625,1.2505062570512293,0.49313364579975605,0.4976221163254231
1782831957440214000,3.072214111328125,1.3039941016107797,0.42245588924735783,0.42440782703272995
1782831957450143000,3.08214306640625,1.342681267401576,0.4635886946246028,0.35341391720324755
1782831957460072000,3.092072021484375,1.2653852617532013,0.43021600185483694,0.3400611722204834
1782831957470001000,3.1020009765625,1.1090566359221934,0.3045534401834011,0.333595410272479
1782831957479929900,3.111929931640625,0.8168143957793712,0.25546675319224593,0.36777876183800395
1782831957489859000,3.121859130859375,0.4496452172070741,0.23021467690542338,0.3225670165840536
1782831957499788000,3.1317880859375,0.38588907661139965,0.23281389961838722,0.13584032987989483
1782831957509717000,3.141717041015625,0.4459387639045715,0.3990232834726572,-0.05035531868748366
1782831957519646000,3.15164599609375,0.1879927611172199,0.44675504872351884,-0.048963279807195066
1782831957529575200,3.1615751953125,-0.05956161151528358,0.2502715226367116,0.10601232397966086
1782831957539504000,3.171504150390625,-0.1816319939136505,0.11097469562739133,0.17464929541945456
1782831957549433000,3.18143310546875,-0.2555015322446823,0.1292201080225408,0.17403686260953544
1782831957559362000,3.191362060546875,-0.43118426236510277,0.04829714404866099,0.2038363730676472
1782831957569291000,3.201291015625,-0.482803390443325,-0.036041765848547215,0.1754272940546274
1782831957579220000,3.211219970703125,-0.7293091308057308,0.02377601238489151,0.1022037254769355
1782831957589149000,3.22114892578125,-1.1074766732543706,-0.08438800973594188,0.1715204228091985
1782831957599078000,3.231077880859375,-1.27601829944849,-0.23068609380945562,0.1485027545109391
1782831957609007000,3.241007080078125,-1.4147791198849677,-0.14705416313782332,0.06895363617353141
1782831957618936000,3.25093603515625,-1.5257663827329873,-0.048236792163550854,0.012733809366822241
1782831957628865000,3.260864990234375,-1.5781301916986703,-0.06630129503384233,0.046800548815354705
1782831957638794000,3.2707939453125,-1.6088503241330385,-0.11391674042865634,0.14515987382382153
1782831957648723200,3.28072314453125,-1.4340437923252582,-0.14119184697568415,0.1846280339244753
1782831957658652200,3.290652099609375,-1.2561100684076547,-0.1618276616387069,0.23132556075677274
1782831957668581000,3.3005810546875,-0.9491782086551189,-0.09797273684367537,0.21478329901769755
1782831957678509800,3.310509765625,-0.8039806331694126,0.09122574680149555,0.2090642637837678
1782831957688438800,3.320438720703125,-0.8552437874168157,-0.007151917581260204,0.2978668020263314
1782831957698368000,3.330367919921875,-0.9287000687718391,-0.24360841148570178,0.3280011704619974
1782831957708296000,3.3402958984375,-1.088333581367135,-0.34563787637427446,0.4077962263844907
1782831957718225000,3.350224853515625,-1.2472925557017325,-0.378869407107681,0.6159921829011291
1782831957728153900,3.36015380859375,-1.455480548107624,-0.4251526540506631,0.8362909574046731
1782831957738083000,3.3700830078125,-1.6656354566723108,-0.4426864841103553,0.9197779266476631
1782831957748012000,3.380011962890625,-1.6599626717329024,-0.3308940423592925,0.7828451984211802
1782831957757941000,3.38994091796875,-1.4309025716900825,-0.09996113418191671,0.5419610973328352
1782831957767870000,3.399869873046875,-1.0751228021383286,0.11708017289564013,0.3820109930690378
1782831957777799200,3.409799072265625,-0.5746691887140274,0.3637864773314446,0.37341048411466177
1782831957787728100,3.41972802734375,-0.24698621735572812,0.5381208615828306,0.4501305165059864
1782831957797657000,3.429656982421875,-0.04190671235918998,0.3797220784142613,0.43907395616900174
1782831957807586000,3.4395859375,0.13170447218418121,0.09304631329216062,0.4044619308626279
1782831957817515000,3.449514892578125,0.6445546258449554,0.04652925759330392,0.33557281129267064
1782831957827444000,3.45944384765625,1.2451426841914652,0.05292136978320777,0.20428473788965493
1782831957837373000,3.469373046875,1.6607167049705982,0.04502659794539213,0.07843896513842046
1782831957847302000,3.479302001953125,2.0672686303824186,0.0962291811119765,-0.05909837791770696
1782831957857229800,3.489229736328125,2.362505376166105,0.2738927828513086,-0.22877777597010135
1782831957867158500,3.499158447265625,2.529241414242983,0.4471982624463737,-0.3719467682376504
1782831957877087700,3.509087646484375,2.688081146112084,0.6044247138999402,-0.5588531223576516
1782831957887016700,3.5190166015625,2.625598094192147,0.7957374132201075,-0.6797071877688169
1782831957896945700,3.528945556640625,2.3638427622497082,0.8721024216286838,-0.6731996325056999
1782831957906874600,3.53887451171875,2.1523422842949627,0.8811876453600823,-0.618914427023381
1782831957916803800,3.548803955078125,1.715354304087162,0.9304166634313762,-0.6048406012244523
1782831957926732800,3.55873291015625,0.978725205656886,0.8305462762728333,-0.5897149282850325
1782831957936661800,3.568661865234375,0.07671148375868797,0.48299058357849717,-0.6191964588351547
1782831957946590700,3.5785908203125,-0.7630085713118314,0.07602160179838538,-0.6292590031661093
1782831957956520000,3.58852001953125,-1.3501309988856314,-0.15336305402368305,-0.6216170370455831
1782831957966449000,3.598448974609375,-1.7803028693377971,-0.2176763170454651,-0.686549601009488
1782831957976377600,3.608377685546875,-2.1833985168159007,-0.3258835937861353,-0.7552488970957696
1782831957986306600,3.618306640625,-2.277465624523163,-0.3704245271064341,-0.8043381413701921
1782831957996235800,3.62823583984375,-2.180031670731306,-0.29024200623631474,-0.9483898347564041
1782831958006164700,3.638164794921875,-1.626965826538205,-0.1465394916139543,-1.105091385553032
1782831958016093700,3.64809375,-0.990267759412527,-0.06536394111849367,-1.1382418869394808
1782831958026022700,3.658022705078125,-0.45963937247693537,-0.2010265763439238,-0.9397260513074696
1782831958035951900,3.667951904296875,-0.13232406538724897,-0.4856054422520101,-0.6750570238754153
1782831958045879800,3.6778798828125,0.3017641017258167,-0.7079031354878097,-0.4550985141769051
1782831958055808800,3.687808837890625,0.7780442278802394,-0.8202849944993853,-0.31735205841474234
1782831958065737700,3.69773779296875,1.1455804861992598,-0.8868319348573684,-0.2133166605312377
1782831958075666700,3.707666748046875,1.5115022950589656,-0.8996631401840597,-0.09530812074430287
1782831958085596000,3.717595947265625,1.7705635656118393,-0.8004255710363387,-0.06561886572763323
1782831958095524900,3.72752490234375,1.876617463710904,-0.6953476783625782,-0.05586414523683488
1782831958105453800,3.737453857421875,1.96099787466228,-0.6265162072639912,-0.05442344490922987
1782831958115382800,3.7473828125,1.8893658861249685,-0.5261308563206345,-0.08824271240271628
1782831958125311700,3.757311767578125,1.6475515184491871,-0.43267705820612606,-0.13689005812853575
1782831958135240700,3.76724072265625,1.3796452626615763,-0.44371385439671573,-0.14637699452862143
1782831958145169700,3.777169677734375,1.0439163474917412,-0.4625149279132485,-0.07786255348995327
1782831958155098600,3.7870986328125,0.5764876363128424,-0.5725498584724963,0.046683279111236334
1782831958165027800,3.79702783203125,0.26043957316875455,-0.7421206815838813,0.0837002466674894
1782831958174956800,3.806956787109375,-0.18383856404721735,-0.7943349260110407,0.04717617719471454
1782831958184885800,3.8168857421875,-0.5587655171394348,-0.7761586333293468,-0.010830679159238934
1782831958194814700,3.826814697265625,-0.8922884466975927,-0.7226490883946418,-0.11533873605579137
1782831958204744000,3.836743896484375,-1.1544301476091146,-0.6766551067218184,-0.19679803539607674
1782831958214673000,3.8466728515625,-1.4365724340200423,-0.6759742117855697,-0.18261939751580356
1782831958224601900,3.856601806640625,-1.653859678682685,-0.7409185392525046,-0.21526995002347973
1782831958234530600,3.866530517578125,-1.5717963125020264,-0.7415907394256442,-0.2488472985198721
1782831958244459800,3.876459716796875,-1.6576491340935229,-0.6810176858454943,-0.24340645917281506
1782831958254388700,3.886388671875,-1.6755021861702202,-0.7043175320859998,-0.2581679749749601
1782831958264317700,3.896317626953125,-1.532833252379298,-0.6557092762615532,-0.297766154663451
1782831958274246700,3.90624658203125,-1.3506249198824167,-0.5237652962330729,-0.3234176785966381
1782831958284176000,3.91617578125,-1.235982641658187,-0.4203521219011396,-0.38393878279384225
1782831958294104800,3.926104736328125,-1.3114496783137322,-0.3348784358203411,-0.4246328314276412
1782831958304033800,3.93603369140625,-1.4471440969169138,-0.31043723752498625,-0.4599343733681366
1782831958313962800,3.945962646484375,-1.6972516611635684,-0.31225173960104585,-0.4999073046531528
1782831958323892000,3.95589208984375,-1.8208634277850388,-0.27968627156093717,-0.4155862957388162
1782831958333821000,3.965821044921875,-1.8989234035432339,-0.22068901593014598,-0.30199981017783284
1782831958343750000,3.97575,-2.130543124940991,-0.11134908189773558,-0.3181756497573107
1782831958353678600,3.9856787109375,-2.3908909281730653,-0.0640638913705945,-0.3049354617709294
1782831958363607600,3.995607666015625,-2.3444126701146364,-0.07539820920303464,-0.18224709360469132
1782831958373536800,4.005536865234375,-2.117458017918467,0.05925868304595351,0.018277953824726863
1782831958383465700,4.0154658203125,-1.8020903382539748,0.21554420038759708,0.24333021559882909
1782831958393394700,4.025394775390625,-1.3642501251310108,0.3982274569198489,0.4291851609697565
1782831958403323600,4.03532373046875,-0.9514514142841101,0.6425045614473521,0.5913240439821035
1782831958413251800,4.045251953125,-0.46391631914377207,0.7754735006093978,0.7210293782383204
1782831958423180800,4.055180908203125,0.10486614961922168,0.8956921176612377,0.7416923731692134
1782831958433109800,4.06510986328125,0.5549328071087598,1.0502074104599655,0.8172535178489982
1782831958443038700,4.075038818359375,0.935662308999896,1.0567473336227238,0.98218192198202
1782831958452967700,4.0849677734375,1.2423211970299481,1.0049553331956267,1.1133732570122927
1782831958462897000,4.09489697265625,1.4734680402189493,0.9665070907272398,1.206953531050682
1782831958472825900,4.104825927734375,1.8607120385706424,0.9642058280475437,1.24909726703614
1782831958482754800,4.1147548828125,2.0338649579524994,1.0188235534198582,1.304136286560446
1782831958492683800,4.124683837890625,2.051066268122196,0.9388261798582971,1.3374350373111665
1782831958502612700,4.13461279296875,2.1572902620911596,0.8213624144725501,1.3135079260177909
1782831958512541700,4.144541748046875,2.2059715831518174,0.8199076856195926,1.3572946069046854
1782831958522470700,4.154470703125,2.081201294144988,0.7198993512950838,1.4946302168436347
1782831958532399600,4.164399658203125,1.9200895256906747,0.5162620079308748,1.5955825540199875
1782831958542328800,4.174328857421875,1.7459937725007533,0.4192401420712471,1.626330158983171
1782831958552257800,4.1842578125,1.5715280169546604,0.3780922852553427,1.6908973237007856
1782831958562186800,4.194186767578125,1.2345417952001094,0.234558112937212,1.6818420567162333
1782831958572115700,4.20411572265625,0.823901723691821,0.13418357564881442,1.634898080842197
1782831958582045000,4.214044921875,0.2736807475358248,0.09706906600221991,1.6604123151965438
1782831958591974000,4.223973876953125,-0.3275321647107601,0.024485914219915864,1.7554466605007648
1782831958601902800,4.23390283203125,-0.874876124125719,-0.016477818200737238,1.8241535553716122
1782831958611831600,4.24383154296875,-1.2984101639986037,0.0062307110831141465,1.8840593041494487
1782831958621760800,4.2537607421875,-1.5431670148670673,0.1374757490620017,1.8095355396933852
1782831958631689700,4.263689697265625,-1.573734587088227,0.3056133975651115,1.599578345657885
1782831958641618700,4.27361865234375,-1.4819675730168818,0.43446949458085,1.439208627742529
1782831958651547600,4.283547607421875,-1.2676496995538473,0.44924576956070955,1.3226651920720933
1782831958661476900,4.293476806640625,-0.9836346050083636,0.34527686104215677,1.1774933355495334
1782831958671405800,4.30340576171875,-0.6258335587620735,0.19562296373471616,1.0865475747331976
1782831958681334800,4.313334716796875,-0.20402795011699199,-0.03188742264807224,1.0543912720158695
1782831958691263700,4.323263671875,0.2686725639849901,-0.2758480816375464,0.9470875199861823
1782831958701193000,4.33319287109375,0.6313111133903264,-0.4827206075306982,0.8697530820235609
1782831958711122000,4.343121826171875,0.9256704918175935,-0.6551655978389084,0.8814158280927687
1782831958721050600,4.353050537109375,1.2767775933831929,-0.6633080608274787,0.8943753359742462
1782831958730979600,4.3629794921875,1.4353583820551632,-0.5419282910417765,0.8310440697271376
1782831958740908800,4.37290869140625,1.5486317100137472,-0.5191670086573809,0.7440018191553652
1782831958750837800,4.382837646484375,1.6579501628667115,-0.4979881000936031,0.6069034520383924
1782831958760766700,4.3927666015625,1.4733873761981724,-0.41958975922651587,0.4847616118390113
1782831958770695700,4.40269580078125,1.2388988213658332,-0.5202954281654208,0.4339369586067274
1782831958780625000,4.412625,1.1287439176887273,-0.6449389489874243,0.4385926023928448
1782831958790553900,4.422553955078125,1.055681019565463,-0.6621935237143188,0.47926012834589926
1782831958800482800,4.43248291015625,1.0677934821635484,-0.7751646538559347,0.5158581763703376
1782831958810410800,4.44241064453125,0.8978823211818933,-0.9812294435627757,0.5150306395050138
1782831958820339700,4.452339599609375,0.633107933679223,-1.1443057170230895,0.5059877570779994
1782831958830269000,4.46226904296875,0.43850247642397877,-1.2383794736668468,0.47802459520157425
1782831958840198000,4.472197998046875,0.26884090628921986,-1.3120293778978287,0.49040243073757733
1782831958850126800,4.482126953125,0.06107143155634403,-1.2770024881802498,0.4989398843931034
1782831958860057000,4.49205712890625,-0.0067693480044603346,-1.2452113655135035,0.4856655749414116
1782831958869986000,4.501986083984375,-0.28732758009433745,-1.1796411612331867,0.4193292451268062
1782831958879915000,4.5119150390625,-0.6471838053047657,-1.1587523216571658,0.3916501974213868
1782831958889844000,4.521843994140625,-0.9670090489000082,-1.2531187776371835,0.4266460709461942
1782831958899773200,4.531773193359375,-1.2832283769577741,-1.3038839192345737,0.48203602280002084
1782831958909702100,4.5417021484375,-1.4471318219572304,-1.3256002226106822,0.4739572361648082
1782831958919631000,4.551631103515625,-1.562175666719675,-1.2997199314229189,0.5729755365386605
1782831958929560000,4.56156005859375,-1.795581102490425,-1.303532913839817,0.6481918133035302
1782831958939489000,4.571489013671875,-1.946471336659789,-1.2547967938520013,0.6898805720631033
1782831958949418000,4.58141796875,-2.099519625645876,-1.1358057458337396,0.786257491082698
1782831958959347000,4.591346923828125,-2.193219653606415,-0.9168148390583694,0.8155738941989839
1782831958969276000,4.60127587890625,-2.3613334097772833,-0.6709926239807158,0.7957434045694768
1782831958979204900,4.611204833984375,-2.533148358553648,-0.6136603789526969,0.8665649535067379
1782831958989134000,4.621134033203125,-2.689648249298334,-0.605078940024972,0.9339491484064608
1782831958999063000,4.63106298828125,-2.8142928660988806,-0.5980812631573528,1.0607999700143933
1782831959008992000,4.640991943359375,-2.9106074604719874,-0.6192869135975837,1.1814274601280688
1782831959018921000,4.6509208984375,-2.8588579840123653,-0.5324304679214954,1.2081401104867457
1782831959028850200,4.66085009765625,-2.6293466330707074,-0.29704693701080975,1.2411325717672705
1782831959038779100,4.670779052734375,-2.3930793781280517,-0.10167897095046936,1.1602267781239002
1782831959048707800,4.680707763671875,-1.9882021079301833,0.08034121856316924,1.0277607469826937
1782831959058636800,4.69063671875,-1.387728615874052,0.2498518359199166,0.8683405848771333
1782831959068566000,4.70056591796875,-0.7059983978450298,0.3828833189241588,0.7380441528599709
1782831959078495000,4.710494873046875,-0.027598201021552086,0.46809601598121225,0.6474264549542218
1782831959088424000,4.720423828125,0.5671446384280919,0.4933901778440922,0.6373096231527626
1782831959098353000,4.730352783203125,1.0792594635516404,0.49526729682758447,0.7456924756560475
1782831959108282000,4.7402822265625,1.3693091620862483,0.5079597512707114,0.8806574840061366
1782831959118211000,4.750211181640625,1.5894745925337075,0.5001499543026089,0.864958614288643
1782831959128140000,4.76014013671875,1.8287258317232131,0.5482879622668028,0.73114986330159
1782831959138069000,4.770069091796875,2.1007932988435027,0.6896889219485223,0.5810710916455835
1782831959147998200,4.779998291015625,2.4655776281058785,0.8458420450821519,0.4688176082540303
1782831959157927000,4.789927001953125,2.6502994047284125,1.0026821275666356,0.41220900132544336
1782831959167855900,4.79985595703125,2.7338924646943807,1.0809358723312616,0.37497422630004584
1782831959177784800,4.809784912109375,2.7412299679756162,1.1695032135784624,0.27976594920102504
1782831959187714000,4.819714111328125,2.6414766313254834,1.3080385546959936,0.18503131749574095
1782831959197643000,4.82964306640625,2.492011461523175,1.3666018028236926,0.14867058535851538
1782831959207572000,4.839572021484375,2.1956389897078274,1.4300336799010633,0.1835404213508591
1782831959217501000,4.8495009765625,1.6947101599872112,1.393183666409552,0.2514172586057335
1782831959227428900,4.859428955078125,1.258382689514756,1.2921636708244681,0.33574005761835723
1782831959237358000,4.869358154296875,0.7525795317560434,1.3422273861542344,0.34763124214857816
1782831959247287000,4.879287109375,0.1779687952309847,1.4059136763840914,0.30053638656176623
1782831959257216000,4.889216064453125,-0.35487317610085006,1.3273888595931231,0.2027839414052665
1782831959267145000,4.89914501953125,-0.8415852644205093,1.2665541594021021,0.20235271038115024
1782831959277074200,4.90907421875,-1.2824725901544094,1.203818447895348,0.34446064928844566
1782831959287003100,4.919003173828125,-1.624852779906988,1.063557598159462,0.40514724624566734
1782831959296932000,4.92893212890625,-1.4518518362164496,1.048424180305004,0.3271431653931737
1782831959306860800,4.93886083984375,-1.1029600726127624,1.2048004446700216,0.1883110150198452
1782831959316790000,4.9487900390625,-0.8471458211570978,1.2461945313319562,0.09094998033372685
1782831959326719000,4.958718994140625,-0.6252209798216819,0.9751030696369707,0.02719400413483381
1782831959336648000,4.96864794921875,-0.3629460079193115,0.6307572058346123,-0.009690678811259568
1782831959346577000,4.978576904296875,0.16289572926163673,0.4545538128409534,-0.06685173199083656
1782831959356506000,4.988506103515625,0.6172364108085632,0.2876290472589433,-0.19654994238652287
1782831959366435000,4.99843505859375,1.0049731611132622,0.008234963577613235,-0.2987773409999907
1782831959376364000,5.008364013671875,1.3495990839660168,-0.19024178215302526,-0.3351791723325848
1782831959386293000,5.01829296875,1.5045704499691723,-0.340716055932641,-0.3161103147253394
1782831959396222200,5.02822216796875,1.6900263860851525,-0.5312005608003586,-0.312875278326869
1782831959406151200,5.038151123046875,1.7113631886243819,-0.5862174415580927,-0.367514338748157
1782831959416080000,5.048079833984375,1.4778116223812103,-0.6044801704142242,-0.3523268526189029
1782831959426008800,5.0580087890625,1.286979253923893,-0.7701213989917188,-0.3398505251444876
1782831959435938000,5.06793798828125,1.1007026490747929,-0.8087927096262574,-0.32501594410613177
1782831959445867000,5.077866943359375,0.8772808471798896,-0.8066214300017803,-0.2947189324546605
1782831959455796000,5.0877958984375,0.5821358713328838,-0.9219122352626175,-0.29726006830483676
1782831959465725000,5.097724853515625,0.21885843950212,-1.0155994037415832,-0.35593021087311205
1782831959475654100,5.107654052734375,0.05881342349648475,-1.1144856752336025,-0.2592470023833215
1782831959485583000,5.1175830078125,-0.16422727012634275,-1.2135299137663096,-0.10729498420134186
1782831959495512000,5.127511962890625,-0.43190790046453476,-1.3422647955551743,-0.04101765456497669
1782831959505441000,5.13744091796875,-0.4813537761569023,-1.4160586383014917,-0.03984875691607594
1782831959515370000,5.147369873046875,-0.5431646279036998,-1.4377392858423292,-0.07041121457070112
1782831959525299200,5.15729931640625,-0.6637059010386467,-1.4726754285365342,-0.06877272664867341
1782831959535228000,5.167227783203125,-0.769139621412754,-1.5460130519479511,0.006683496351912618
1782831959545156900,5.177156982421875,-0.8286047868162393,-1.5291194925531744,0.05994140461310744
1782831959555085800,5.1870859375,-0.9033598758101463,-1.5233299493663013,0.11078224179521202
1782831959565015000,5.19701513671875,-0.9987433268129825,-1.5564670798145233,0.15513963524214922
1782831959574944000,5.206944091796875,-1.1589935100018978,-1.5197548673585057,0.1594666315957904
1782831959584873000,5.216873046875,-1.2910001800030468,-1.4459756376594304,0.176183373118937
1782831959594802000,5.226802001953125,-1.5819044495403767,-1.4272795588873326,0.24555494244359433
1782831959604731100,5.236731201171875,-1.8048323304384946,-1.4074036226809024,0.3316767171695828
1782831959614660000,5.24666015625,-1.8538871609866618,-1.2335144979789852,0.39174452464133497
1782831959624589000,5.256589111328125,-1.7361854951918123,-0.9665728494398296,0.46107181643284856
1782831959634518000,5.26651806640625,-1.787595364433527,-0.69154434055686,0.5755798738181591
1782831959644447000,5.276447021484375,-1.958579123082757,-0.5415609920993447,0.7053014285568148
1782831959654376000,5.2863759765625,-2.0415128423571587,-0.46407136357501144,0.7370069187667221
1782831959664304000,5.29630419921875,-2.135948198854923,-0.38163682599440213,0.6886045607779174
1782831959674232800,5.30623291015625,-2.2380413766294716,-0.3072216364793479,0.6983367041107267
1782831959684161800,5.316161865234375,-2.3315882598549127,-0.2816628323309123,0.704236502739042
1782831959694091000,5.326091064453125,-2.3729595501631495,-0.26462014678902923,0.7606144427169114
1782831959704020000,5.33602001953125,-2.2519208489000797,-0.15454875667691229,0.8314423483297229
1782831959713949000,5.345948974609375,-2.0103040496230125,-0.0025590003004297614,0.8506509797338396
1782831959723878000,5.3558779296875,-1.6178046149611471,0.16923819362353532,0.7989953921027481
1782831959733807000,5.36580712890625,-1.112832062807679,0.37925628753341734,0.7522876361373811
1782831959743736000,5.375736083984375,-0.5646376240432263,0.5539053637571633,0.7022767469733953
1782831959753665000,5.3856650390625,-0.061955228653550146,0.6066617887696251,0.6598289865400642
1782831959763594000,5.395593994140625,0.342428120547533,0.5785479298435151,0.6388068759731949
1782831959773523200,5.405523193359375,0.6550351033270359,0.517454980575107,0.641368104763329
1782831959783452200,5.4154521484375,1.0474901143252848,0.4964811295967549,0.5528639649454504
1782831959793380900,5.425380859375,1.5222124896436928,0.5429568303719162,0.415858609874174
1782831959803309800,5.435309814453125,1.9324246911287306,0.5636355343285948,0.31261962306536734
1782831959813239000,5.445239013671875,2.240938267114758,0.5060545752365142,0.2713040084671229
1782831959823168000,5.45516796875,2.330695694929361,0.42506935968138276,0.26896643236503004
1782831959833097000,5.465096923828125,2.2951760532587766,0.3152582279406488,0.3155796419147402
1782831959843026000,5.47502587890625,2.3591981513142586,0.2010745802041143,0.3069181965533644
1782831959852955100,5.484955078125,2.254202822357416,0.21745171450935302,0.28890374336987734
1782831959862883800,5.4948837890625,2.048763251876831,0.2234309350494295,0.2800156496457755
1782831959872812800,5.504812744140625,1.8679425743460654,0.22110461099371312,0.3380210446950048
1782831959882741800,5.51474169921875,1.5383505544960498,0.2561118461627513,0.3813272485885769
1782831959892671000,5.5246708984375,1.2693582570374011,0.28135237814225256,0.3693079441666603
1782831959902600000,5.534599853515625,0.89441961350739,0.3032635465033352,0.3931372211087495
1782831959912528600,5.544528564453125,0.525504468050599,0.32391346275694666,0.45325018289647995
1782831959922457600,5.55445751953125,0.1939969699680805,0.37433921633213757,0.5161641735795885
1782831959932386800,5.56438671875,-0.11950550034642218,0.4432520090386271,0.5560600575730205
1782831959942315800,5.574315673828125,-0.3125719114661217,0.4691194407448172,0.5972877746921033
1782831959952244700,5.58424462890625,-0.5658733033180237,0.47744478601962326,0.5230100939515978
1782831959962173700,5.594173583984375,-0.6532710162639618,0.5412768413957209,0.46199397277906534
1782831959972103000,5.60410302734375,-0.43352761062085626,0.6401705655418336,0.44510669699460265
1782831959982032000,5.614031982421875,-0.22121698532700537,0.7478792451106011,0.35470943690650164
1782831959991960800,5.6239609375,-0.05899111815094948,0.7127420999515801,0.2684376592505723
1782831960001889800,5.633889892578125,0.13007365611195565,0.5444990183126182,0.1817122926082462
1782831960011819000,5.643819091796875,0.2980833673864603,0.40748650284819304,0.13586086121127008
1782831960021747700,5.653747802734375,0.5198118093669414,0.23138890831656753,0.1132549885842949
1782831960031676700,5.6636767578125,0.8139210124254226,0.07701243946664035,0.17419957889057694
1782831960041605600,5.673605712890625,0.9416080656617879,0.027665494104102253,0.3312174290947616
1782831960051534800,5.683534912109375,0.9229127175420522,-0.04491144713312387,0.42324316716752947
1782831960061463800,5.6934638671875,0.9134118987470865,-0.04987454943321645,0.381024027858302
1782831960071392800,5.703392822265625,0.810535461640358,0.05049772283285856,0.2697268953435123
1782831960081321700,5.71332177734375,0.7184814473211765,0.0456502097364515,0.16940701085180043
1782831960091251000,5.7232509765625,0.5429752428114414,0.022956951086968182,0.15745346514247358
1782831960101180000,5.733179931640625,0.3254921833157539,-0.0583783200148493,0.2608865862838924
1782831960111108900,5.74310888671875,0.2921165679365396,-0.13121055118739605,0.31208325116634367
1782831960121036800,5.753036865234375,0.12398586063086986,-0.10375577722452581,0.3752276896044612
1782831960130965800,5.7629658203125,-0.11201017615497112,-0.09966310108341277,0.44251967617608606
1782831960140895000,5.77289501953125,-0.2823457000285387,-0.11140563439056277,0.49256110660880803
1782831960150824000,5.782823974609375,-0.444026208281517,-0.061382689462602134,0.4633805317666381
1782831960160753000,5.7927529296875,-0.6868769332677126,-0.008471402681991458,0.504069027442485
1782831960170681600,5.802681640625,-0.779818836337328,-0.04001958343833684,0.513284015033394
1782831960180610800,5.81261083984375,-0.8812725471645593,0.0816580733153969,0.3905450857236981
1782831960190539800,5.822539794921875,-1.1376613836377858,0.12363923915028571,0.3440340944394469
1782831960200468700,5.83246875,-1.2433160532861947,0.005495017219707369,0.3675776863079518
1782831960210397700,5.842397705078125,-1.3039718897789716,0.02401939268670976,0.410008495606482
1782831960220327000,5.852326904296875,-1.328029641714692,0.10388437204025686,0.47438510618805885
1782831960230255900,5.862255859375,-1.2924930489093065,0.11371756459474563,0.49369873233661055
1782831960240184800,5.872184814453125,-1.264129124212265,0.18666268155723809,0.37258375096693636
1782831960250113800,5.88211376953125,-1.3323942666649817,0.23539105663001536,0.3152644384857267
1782831960260043000,5.89204296875,-1.3840572338849306,0.17848032494969665,0.35947767422161997
1782831960269972000,5.901971923828125,-1.551847164928913,0.17806765249557793,0.4204937953941524
1782831960279900700,5.911900634765625,-1.8753262548565863,0.10701339078098535,0.4463672184497118
1782831960289829600,5.92182958984375,-2.1337726083815096,-0.04275090809836984,0.3863946149807423
1782831960299758800,5.9317587890625,-2.281377829530835,-0.09428725326396524,0.3445830335590988
1782831960309687800,5.941687744140625,-2.2005010427862404,-0.047775019870698446,0.3349519394479692
1782831960319616800,5.95161669921875,-1.9331933374136685,0.08159523721225559,0.26028767054267227
1782831960329545700,5.961545654296875,-1.6212036097496747,0.21519633679799735,0.2118462226524949
1782831960339475000,5.971474853515625,-1.2523562688320875,0.3031849283091724,0.17280564031414686
1782831960349404000,5.98140380859375,-0.7646855646133423,0.3749613668184727,0.045693756617233156
1782831960359332900,5.991332763671875,-0.36029812375903125,0.46381081294268367,-0.08200352575220167
1782831960369261800,6.00126171875,-0.17324352027475834,0.43507235584482545,-0.05973331482037902
1782831960379191000,6.01119091796875,-0.051717327755689615,0.20434687987305222,-0.03614471476636827
1782831960389119700,6.02111962890625,0.14903379264771938,0.07589132648222148,-0.0747688252583146
1782831960399048700,6.031048583984375,0.41395606418848035,0.1552238794595003,-0.1630380603417754
1782831960408977700,6.040977783203125,0.5594125828713178,0.2360811577860266,-0.34571737135127184
1782831960418906600,6.05090673828125,0.6481500199884176,0.28411497472338376,-0.49358694252520796
1782831960428835800,6.0608359375,0.8013578834503888,0.40321540140025314,-0.5849970329176635
1782831960438764800,6.070764892578125,0.9415677336513996,0.5693730550672859,-0.6651783116787672
1782831960448693800,6.08069384765625,1.0132897385597228,0.5824141037523746,-0.8190624669671058
1782831960458622700,6.090622802734375,1.00835286667943,0.5678617737215012,-0.9509160652983933
1782831960468552000,6.100552001953125,0.9495032028257846,0.6077049776796252,-0.9820780232161282
1782831960478481000,6.11048095703125,0.9054173928618431,0.6135462510537356,-1.0117789686705916
1782831960488409900,6.120409912109375,0.7894377285540104,0.624387159346044,-0.9558073444712907
1782831960498338800,6.1303388671875,0.6065326459646224,0.5856270744495093,-0.8920302341528237
1782831960508267800,6.140267822265625,0.4496984086990356,0.5047628549255431,-0.8308284542150794
1782831960518196700,6.15019677734375,0.2876233481705189,0.4200771774172783,-0.7830450318422169
1782831960528125700,6.160125732421875,0.04127893584966659,0.3132411890298128,-0.6900587051089853
1782831960538054700,6.1700546875,-0.08997837708890438,0.20651348332241176,-0.6112273065868765
1782831960547984000,6.17998388671875,0.11043196705281734,0.18723207894302904,-0.5623518511936069
1782831960557912800,6.189912841796875,0.06663724898993968,0.2506841220255941,-0.5195348921217025
1782831960567841800,6.199841796875,0.1659866810142994,0.23483656455241142,-0.5526602590668946
1782831960577770800,6.209770751953125,0.381938293159008,0.21076127696000038,-0.6135070880871266
1782831960587700000,6.219699951171875,0.5129302331596612,0.21668087626732885,-0.6371835125550628
1782831960597629000,6.22962890625,0.6964712755650282,0.17890066925361753,-0.6062265756901353
1782831960607558000,6.239557861328125,0.8999562048465013,0.10603811600804328,-0.6138512984149158
1782831960617486600,6.249486572265625,0.983751509386301,-0.003715951783210039,-0.5813143988821655
1782831960627414800,6.259414794921875,1.0147972205132245,-0.18407134988978505,-0.5305330368023365
1782831960637344000,6.269343994140625,1.1795458841651678,-0.3347426806114614,-0.4957494543213397
1782831960647272700,6.279272705078125,1.1619202111035585,-0.3796072198629379,-0.5076746507190167
1782831960657201700,6.28920166015625,1.134151329690218,-0.4487484144978225,-0.4705868098836392
1782831960667130600,6.299130615234375,1.0812994449466466,-0.5024952753197401,-0.47209699525088067
1782831960677059800,6.309059814453125,0.8633160347133875,-0.5056919524691998,-0.488026897245273
1782831960686988800,6.31898876953125,0.6928630219399928,-0.5270679179750383,-0.559372470056638
1782831960696917800,6.328917724609375,0.5981769055515528,-0.4887520697146654,-0.6350172013666481
1782831960706846700,6.3388466796875,0.3321943113029003,-0.43640199701339005,-0.6500888060312717
1782831960716776000,6.34877587890625,0.05150865344107151,-0.5243928535468876,-0.6347061626560986
1782831960726705000,6.358704833984375,-0.038377953711152074,-0.6129125562600791,-0.5962369504649192
1782831960736633900,6.3686337890625,-0.08488602238595486,-0.5882083231143653,-0.5334499471623451
1782831960746562800,6.378562744140625,-0.019150690671801567,-0.5984915244586766,-0.5313255023542791
1782831960756491800,6.38849169921875,0.06844517519474029,-0.6193932965815067,-0.6118570558577776
1782831960766420700,6.398420654296875,0.10543605846166611,-0.663660600592196,-0.6904479236222804
1782831960776349700,6.408349609375,0.13539046722054482,-0.788905959764868,-0.7012442621205002
1782831960786278700,6.418278564453125,0.09130933343172074,-0.9578020984850824,-0.5958643908254802
1782831960796207900,6.428207763671875,0.09329612333476543,-1.0875046562623232,-0.48566791302897033
1782831960806136800,6.43813671875,0.06579261485934257,-1.094544784032181,-0.4497761501103639
1782831960816065800,6.448065673828125,0.06153788002431392,-1.0416452607546,-0.4513707258254289
1782831960825994800,6.457994873046875,0.05318447769880295,-0.9204651782594621,-0.4629065575793385
1782831960835924000,6.467924072265625,-0.1273392627120018,-0.7895794751122593,-0.47427784642130133
1782831960845853000,6.47785302734375,-0.3379553590476513,-0.7688955835238098,-0.5448487085331231
1782831960855782000,6.487781982421875,-0.6379758319765328,-0.7642674853317439,-0.6628115825474262
1782831960865714700,6.497714599609375,-0.9837380653828381,-0.8418217035248875,-0.7212338147692382
1782831960875643600,6.5076435546875,-1.1198135922580956,-0.9649166066654026,-0.6558976384405046
1782831960885572600,6.517572509765625,-1.159696105313301,-0.9869102656781673,-0.51600043438524
1782831960895501800,6.527501708984375,-1.0891624334067105,-0.9835703076004981,-0.4145137711364776
1782831960905430800,6.5374306640625,-0.9994739791750907,-0.9242752380669117,-0.34707696926668286
1782831960915359700,6.54735986328125,-1.1237094306528568,-0.7518963717974722,-0.34828466455601154
1782831960925288700,6.557288818359375,-1.1925783842176199,-0.6196664144344628,-0.44526473710052666
1782831960935218000,6.567218017578125,-1.2691951754301785,-0.6183667300127447,-0.4852024874743074
1782831960945147000,6.57714697265625,-1.2825047388583422,-0.6075967680647969,-0.4654854681566357
1782831960955075800,6.587075927734375,-1.3040993155509233,-0.5400502952754497,-0.30482582738399505
1782831960965004800,6.5970048828125,-1.3446347395569085,-0.526883793579787,-0.2241423712544143
1782831960974933800,6.606933837890625,-1.377390761733055,-0.41495194335803387,-0.20687048006653785
1782831960984862700,6.61686279296875,-1.493623524019122,-0.2795050697751343,-0.2625217132050544
1782831960994791700,6.626791748046875,-1.6190648441553115,-0.17277663341537117,-0.3156095986615866
1782831961004720600,6.636720703125,-1.6498077729433773,-0.10073577181622385,-0.2395295446742326
1782831961014649900,6.64664990234375,-1.5196598825514316,0.01655541348159313,-0.12914273193739353
1782831961024578800,6.656578857421875,-1.308087508404255,0.16934307877011595,-0.012830766935274004
1782831961034507800,6.6665078125,-1.082705220091343,0.2602216926343739,0.013182649112865328
1782831961044436700,6.676436767578125,-0.7750508912831544,0.31651034689359364,0.007904635644704103
1782831961054366000,6.686365966796875,-0.4064432043403387,0.3364008230820298,-0.032922537849470974
1782831961064295000,6.696294921875,0.07425181564688682,0.4268404610071331,-0.01787643295228481
1782831961074223900,6.706223876953125,0.4450029443591833,0.4934793904975056,0.04445215905830264
1782831961084152600,6.716152587890625,0.7468149768799542,0.48339375755190844,0.10281593909114599
1782831961094081800,6.726081787109375,1.0090051931083202,0.53648281205222,0.21648367319479583
1782831961104010800,6.7360107421875,1.261167351797223,0.6469143407136202,0.312442074541375
1782831961113939700,6.745939697265625,1.4415057987689972,0.7507733591169119,0.3533108221549541
1782831961123868700,6.75586865234375,1.3787550358235836,0.8730101841233671,0.3919113325756043
1782831961133797600,6.765797607421875,1.1972194880217313,0.9342670552492142,0.40845132929235695
1782831961143726800,6.775726806640625,1.1397077947735785,0.9455532961562275,0.45744113178029655
1782831961153655800,6.78565576171875,1.0088345127165317,1.086715770906955,0.48964163896553214
1782831961163584800,6.795584716796875,0.7311229022294282,1.1771934758201241,0.4591162253856659
1782831961173512700,6.8055126953125,0.36481004822552204,1.0396434924781321,0.3634557110071182
1782831961183443000,6.81544287109375,0.12006547231674193,0.9561530161038041,0.3013266601566225
1782831961193371000,6.825370849609375,-0.18436580279171466,0.9674287356168031,0.3472217845648527
1782831961203299800,6.8352998046875,-0.4465571880638599,0.9286664587631821,0.4080905331559479
1782831961213228800,6.845228759765625,-0.6564180821180343,0.9035529141642152,0.4273798285808414
1782831961223157800,6.85515771484375,-0.7216442952662706,0.9351546517387032,0.4220262656584382
1782831961233086700,6.865086669921875,-0.581251489713788,0.9778398011244833,0.43382038302235304
1782831961243015700,6.875015625,-0.46136488109529017,0.9664961309418082,0.4681470155160874
1782831961252944600,6.884944580078125,-0.24378654453158377,0.965025912258774,0.43288273684605955
1782831961262873600,6.89487353515625,0.030805472630262374,0.9688612526379525,0.2621719499193132
1782831961272802800,6.904802734375,0.326286548563838,0.9629077510610222,0.11689173765145242
1782831961282731800,6.914731689453125,0.5358738863736391,0.8608103355027735,0.04155965248718858
1782831961292660700,6.92466064453125,0.6884212401002645,0.7098732665169983,0.08271284306533634
1782831961302589700,6.934589599609375,0.8397714929968119,0.5654974557429552,0.15895488268136979
1782831961312519000,6.944518798828125,0.9269061710923909,0.4277790570314973,0.18077230834439395
1782831961322448000,6.95444775390625,0.9369400738507508,0.34394802359119053,0.17381671705283225
1782831961332376800,6.964376953125,0.9830465759873389,0.30332389838844537,0.12115633629336953
1782831961342305500,6.974305419921875,1.0083663106828928,0.26889577828161415,0.002813596116006374
1782831961352234800,6.98423486328125,0.9283516937255859,0.23899836040697992,-0.0166814510140568
1782831961362163700,6.994163818359375,0.7373024676471949,0.15163345375210047,0.035942104866355656
1782831961372092700,7.0040927734375,0.6312105756253004,0.08030680483691394,0.046232758864760394
1782831961382021600,7.014021728515625,0.5612544113457203,0.11209200921952724,0.029694734909385442
1782831961391950800,7.023950927734375,0.36333939115107056,0.10773732114136218,-0.0214617440931499
1782831961401879800,7.0338798828125,0.25179566346406934,0.06872362680993974,-0.0864282833918929
1782831961411808800,7.043808837890625,0.23051088337302206,0.006863748289644718,-0.2130970994964242
1782831961421737700,7.05373779296875,0.2290273668169975,-0.04877352938875556,-0.2554372348368168
1782831961431667000,7.0636669921875,0.15282324805855751,-0.14885207940526307,-0.1963447752032429
1782831961441596000,7.073595947265625,0.11620821236670016,-0.2716165815476328,-0.1259074763432145
1782831961451524600,7.083524658203125,0.028258126235008237,-0.3471674240291118,-0.091118121708557
1782831961461453600,7.09345361328125,-0.021012392890453337,-0.3880302533585578,-0.13868395580798387
1782831961471382800,7.1033828125,-0.17280512885749338,-0.401171620612964,-0.18111878369450568
1782831961481311700,7.113311767578125,-0.2796522231608629,-0.450033339741826,-0.19476568931825458
1782831961491240700,7.12324072265625,-0.4285141663730144,-0.48163493118584155,-0.16477456527817994
1782831961501169700,7.133169677734375,-0.6144090784281492,-0.5138847574055194,-0.10553078754041344
1782831961511099000,7.143098876953125,-0.8354851939797401,-0.515403272209689,-0.0896045388078317
1782831961521027800,7.15302783203125,-0.9806167184919118,-0.45953481612391767,-0.12532799595482647
1782831961530956800,7.162956787109375,-1.0258534520566462,-0.34437910848483444,-0.16851663788333535
1782831961540885800,7.1728857421875,-1.1755547687023877,-0.28077538197189567,-0.13912673113942145
1782831961550815000,7.18281494140625,-1.3415209914505482,-0.32920148616246875,-0.1925826827233657
1782831961560744000,7.192743896484375,-1.4362760814219713,-0.24430362720824778,-0.23449224462676793
1782831961570672600,7.202672607421875,-1.4767244116663931,-0.16090112137831747,-0.23095840794481337
1782831961580601600,7.2126015625,-1.4210714980274437,-0.13516053092218935,-0.1321378951653838
1782831961590530800,7.22253076171875,-1.352780052089691,-0.05780636534579098,-0.04540843686982989
1782831961600459800,7.232459716796875,-1.309782621884346,0.005614113554731011,-0.004589702410437166
1782831961610388700,7.242388671875,-1.1923200255423783,-0.030088118141144513,0.0103572164285928
1782831961620317700,7.252317626953125,-0.9471732985734939,-0.05925130345709621,0.041964105102233584
1782831961630247000,7.262246826171875,-0.8075444631308317,0.09369703228585421,0.06722144208606332
1782831961640175900,7.27217578125,-0.8908131134480237,0.09929777490235865,0.11878507711738347
1782831961650104800,7.282104736328125,-1.0856015260547398,-0.053895475512370464,0.07193721856158226
1782831961660033800,7.29203369140625,-1.1363041238099336,-0.12972959191463887,-0.02898676930312067
1782831961669962800,7.301962646484375,-1.112847260376811,-0.03408770917132497,-0.00677296473365277
1782831961679891700,7.3118916015625,-1.2558669073015452,0.03139817782640457,0.1297831487327814
1782831961689820700,7.321820556640625,-1.3482418241381644,0.06435242598839104,0.13966113027706742
1782831961699749600,7.33174951171875,-1.3621943616449832,0.15316183236315845,0.010059439058415592
1782831961709678600,7.3416787109375,-1.256516311120987,0.22874065883010625,-0.17355510697457938
1782831961719607800,7.35160791015625,-0.9992775798201561,0.37435887088067826,-0.22051234418898819
1782831961729536800,7.361536865234375,-0.7545201444298029,0.49395665262043476,-0.17997713937871157
1782831961739465700,7.3714658203125,-0.46681554771661754,0.4431088742408901,-0.1520415230963379
1782831961749394700,7.381394775390625,-0.14321721532344817,0.35284685790501535,-0.12249266293104737
1782831961759324000,7.391323974609375,0.3505266713291406,0.3168815182935446,-0.08978354863654822
1782831961769252900,7.4012529296875,0.8996317951977253,0.31739560529552396,-0.08404507804978638
1782831961779181800,7.411181884765625,1.3042682423770426,0.3550636571716517,-0.08098981866501272
1782831961789110800,7.42111083984375,1.5525900922507048,0.39239831237494943,-0.05355667201206088
1782831961799039700,7.431039794921875,1.7076444603621959,0.4646156265195459,-0.09157127230353652
1782831961808968000,7.440968017578125,1.8066016781985759,0.6771293731700628,-0.2168257646307349
1782831961818897000,7.45089697265625,1.7780413541465996,0.8881126953829079,-0.36582645872645075
1782831961828826600,7.46082666015625,1.646658369001746,1.0099518993739038,-0.5518737117990851
1782831961838754600,7.470754638671875,1.3673819934159517,1.002518388372287,-0.6932895767889916
1782831961848683800,7.480683837890625,1.0175444733947514,0.9658340868365018,-0.7350105573177337
1782831961858608000,7.490608154296875,0.7937959237635135,0.981394497931376,-0.7243549424644559
1782831961868537000,7.500537109375,0.41230128271877764,0.9783295574028045,-0.7434124749600887
1782831961878466000,7.510466064453125,0.020176526588201522,0.9157228791031986,-0.800423598274961
1782831961888395000,7.52039501953125,-0.4010959980934858,0.9023539867032319,-0.780666904534027
1782831961898324200,7.53032421875,-0.8285708845466375,0.8151284154538064,-0.8033407278306782
1782831961908253200,7.540253173828125,-1.0070885458320378,0.707283907610923,-0.9225042828716337
1782831961918182100,7.55018212890625,-1.0734539921432733,0.7279413495838641,-0.9986973687794058
1782831961928111000,7.560111083984375,-1.075235614863038,0.6526767036326229,-0.9848984143991023
1782831961938040300,7.570040283203125,-0.9858937821120023,0.43315468565523624,-0.994505981504172
1782831961947969300,7.57996923828125,-0.7798661826103925,0.24848631972037255,-1.0062179004773497
1782831961957898200,7.589898193359375,-0.4150397677719593,0.07826331631056964,-1.1189284069214016
1782831961967827200,7.5998271484375,0.04541092108786106,-0.08133088718764483,-1.2367026264958083
1782831961977756200,7.609756103515625,0.5243249028772116,-0.3087402243487537,-1.200621332354471
1782831961987685000,7.61968505859375,0.9302303470790385,-0.5795169940713792,-1.1145474153582007
1782831961997614000,7.629614013671875,1.228238895663619,-0.819421947929263,-1.0147244475379587
1782831962007543000,7.63954296875,1.458873113155365,-1.0358720111154018,-0.8948712297324091
1782831962017472300,7.64947216796875,1.5473457618564366,-1.1394969285018741,-0.7560583868477493
1782831962027401200,7.659401123046875,1.4099252501130104,-1.164881837388128,-0.5225441569402813
1782831962037330200,7.669330078125,1.236608664602041,-1.1813906352490187,-0.5080892228692769
1782831962047259100,7.679259033203125,1.0995376969486474,-1.0227442339949309,-0.5895350416734815
1782831962057188400,7.689188232421875,0.9517325693130493,-0.7375030317205935,-0.6984581385333091
1782831962067117300,7.699117431640625,0.7744137624233961,-0.5915818181354552,-0.7346314218070358
1782831962077046300,7.70904638671875,0.43571839866340156,-0.5608610281139612,-0.6898057532612234
1782831962086975000,7.71897509765625,0.19737141483724116,-0.6146326580509544,-0.5893789743289352
1782831962096904200,7.728904296875,0.10096680409312248,-0.5771479268524795,-0.5210347752906381
1782831962106833200,7.738833251953125,-0.09956804321110248,-0.5120489933457225,-0.47373424106389284
1782831962116762000,7.74876220703125,-0.24860768107771872,-0.542586974146217,-0.4003777668215334
1782831962126691000,7.758691162109375,-0.246630243524909,-0.5091405585531145,-0.3087750764664262
1782831962136620300,7.768620361328125,-0.1429728851735592,-0.3785600488975644,-0.23151538424044846
1782831962146549200,7.77854931640625,-0.10469430018365382,-0.31175862232185897,-0.14505787475407123
1782831962156478200,7.788478271484375,-0.02292377946972847,-0.3008918489359319,0.00911255012974143
1782831962166407200,7.7984072265625,-0.14869126282036305,-0.3626799773942679,0.1638359327211976
1782831962176336400,7.80833642578125,-0.2463426587551832,-0.4566231664609164,0.21412885369695722
1782831962186265300,7.818265380859375,-0.2779705536842346,-0.3621075843337923,0.19507994289919733
1782831962196194000,7.828194091796875,-0.29613924758136273,-0.1967824359681457,0.14483188397847116
1782831962206123000,7.838123046875,-0.3323556393444538,-0.10138663694038987,0.15301920902207494
1782831962216052200,7.84805224609375,-0.2673129660695791,-0.015554273615032433,0.1774159105885774
1782831962225981200,7.857981201171875,-0.26263620643019675,0.06514043456092476,0.2732941593710333
1782831962235910100,7.86791015625,-0.3956406552970409,0.12086802087128162,0.3783786279160529
1782831962245839000,7.877839111328125,-0.5726011502683163,0.1477761938020587,0.4543341787409037
1782831962255768000,7.88776806640625,-0.755209880259633,0.1963718824058771,0.5144448755063116
1782831962265697300,7.897697265625,-0.9080436497122049,0.2509137660630047,0.5675734582994133
1782831962275626200,7.907626220703125,-1.3052286118417977,0.3125443658720702,0.5826579955108463
1782831962285555200,7.91755517578125,-1.7529829007357358,0.28753289340808985,0.6304634105198085
1782831962295484200,7.927484130859375,-2.062748522609472,0.20287205808013675,0.6983056513853371
1782831962305413000,7.9374130859375,-2.164579250055551,0.24594817954488096,0.8607872468881309
1782831962315342000,7.947342041015625,-2.215388230794668,0.36175197582915425,1.1244937128983437
1782831962325271000,7.95727099609375,-2.316738481247425,0.3728806880868971,1.2753048904821276
1782831962335200000,7.967199951171875,-2.1254940248578786,0.4826028263699263,1.2196614753238857
1782831962345129200,7.977129150390625,-1.7500830876410007,0.7167308042615652,1.146038751360774
1782831962355058200,7.98705810546875,-1.3509627735346554,0.8321500582076609,0.9731657448988408
1782831962364987100,7.996987060546875,-0.995070191258192,0.7405667301401495,0.8463190149441361
1782831962374916000,8.006916015625,-0.7844248688280582,0.5783514574233443,0.9058487700164317
1782831962384845300,8.01684521484375,-0.34705811843574047,0.33493769172690807,1.0557860873751341
1782831962394774300,8.026774169921875,0.1565536667585373,0.20052951354198156,1.1000018073290585
1782831962404703200,8.036703125,0.5820014312982559,0.22278474610038101,1.1126207581445575
1782831962414632200,8.046632080078124,0.8601403272867202,0.24088139767460523,1.0723235268086195
1782831962424561200,8.05656103515625,0.9837766438275575,0.28301526985317466,0.9967333021648228
1782831962434490000,8.066489990234375,1.1280623651653527,0.40413010509237646,0.8930823735542595
1782831962444419000,8.076419189453125,1.2295897257506847,0.5544242730647325,0.8010062204685062
1782831962454348000,8.08634814453125,1.2369143695503473,0.5642800427772104,0.8099157953720539
1782831962464277200,8.09627734375,1.1710568727612494,0.5614427735246718,0.802121415168792
1782831962474206200,8.106206298828125,0.9220511322766541,0.551807514695078,0.8909279719993471
1782831962484135200,8.11613525390625,0.7111784308314323,0.4745562249712646,0.9433006949238478
1782831962494064000,8.126064208984374,0.43154666593670843,0.4915322019524872,0.9335269044063985
1782831962503993300,8.135993408203126,0.041057986575365066,0.4682372510828077,0.9463144897870719
1782831962513922300,8.14592236328125,-0.38560558349490165,0.42377588580474257,0.9827693664811551
1782831962523851300,8.155851318359375,-0.7588432683259249,0.43498453143090005,0.9546399081271141
1782831962533779200,8.165779296875,-1.0083195489317178,0.46747386549487707,0.8846436310328543
1782831962543708200,8.175708251953125,-1.2648656217932701,0.5345695257768035,0.8637880361393093
1782831962553637400,8.185637451171875,-1.4255933593660592,0.6199357328951358,0.8509462363533675
1782831962563566000,8.195566162109374,-1.390612062355876,0.7063241226680577,0.8475546942189335
1782831962573495000,8.2054951171875,-1.274960899350047,0.7665794155359268,0.8053054520323872
1782831962583424000,8.215424072265625,-1.0911936469733714,0.7447001766830682,0.7383494194168597
1782831962593353200,8.225353271484375,-0.8222112863868475,0.6833709709733724,0.7707251370385289
1782831962603282200,8.2352822265625,-0.5163029244631528,0.585791909622401,0.8203766183055937
1782831962613211100,8.245211181640625,-0.09465572125017642,0.47510362972095604,0.8173409769367426
1782831962623140000,8.25514013671875,0.30266075830459593,0.3621699089802801,0.768484956896305
1782831962633069300,8.2650693359375,0.6143307524949312,0.28130320523828267,0.7313182056058197
1782831962642998300,8.274998291015624,0.9346294588208198,0.22830168289095162,0.7178611234657466
1782831962652927200,8.28492724609375,1.1529378632247447,0.2316156297445297,0.6942182359412312
1782831962662856200,8.294856201171875,1.3371335701465605,0.2325518876813352,0.6299544380843639
1782831962672785400,8.304785400390625,1.4991116000413893,0.20993585898652672,0.5833928125914186
1782831962682714000,8.314714111328126,1.587457407492399,0.19777838820293545,0.5346872338723391
1782831962692643000,8.32464306640625,1.638721146261692,0.19373685772716998,0.49654118922092016
1782831962702572000,8.334572021484375,1.5890478915542363,0.13974047912359236,0.5066983530327678
1782831962712501200,8.344501220703124,1.5213210937619208,0.13376096632257103,0.5379641366511583
1782831962722430200,8.35443017578125,1.3321937756568192,0.1327744395032525,0.49929187616854903
1782831962732359200,8.364359130859375,1.0931161394685507,0.10333674809485674,0.4983846981957554
1782831962742288100,8.3742880859375,0.9912637847125529,0.09283581234663725,0.5280091443479061
1782831962752217300,8.38421728515625,0.8326257128953933,0.14401640287712217,0.5420492870729416
1782831962762146300,8.394146240234376,0.5153419704765081,0.08093129341080785,0.5912737385669723
1782831962772075300,8.4040751953125,0.384892466789484,-0.08179273254573345,0.5301745056882501
1782831962782004200,8.414004150390625,0.30411154163479803,-0.10931742993965744,0.4512014336731285
1782831962791933200,8.42393310546875,0.25691490617394447,-0.15206570768952368,0.4765317993605509
1782831962801862100,8.433862060546875,0.2656184371113777,-0.3262449013791978,0.5738029272735119
1782831962811791000,8.443791015625,0.2500023503065109,-0.39179201704487204,0.6569089343748986
1782831962821720000,8.453719970703125,0.19445172799825666,-0.3635840135619044,0.6804229348227381
1782831962831649000,8.46364892578125,0.2083539966225624,-0.36550497168712315,0.6251296482764184
1782831962841578200,8.473578125,0.23913375028967856,-0.34163251319043336,0.5650780978197232
1782831962851507200,8.483507080078125,0.18352818292379378,-0.25242497434355315,0.6113706605803221
1782831962861437000,8.49343701171875,0.12968611809909342,-0.3024136516757309,0.68854165160954
1782831962871366100,8.5033662109375,0.1677601204276085,-0.3243255506891757,0.7221405543506145
1782831962881294800,8.513294921875,0.049618309649825096,-0.2805690457448363,0.7383765266194939
1782831962891223800,8.523223876953125,0.004341244074702263,-0.37492045028619464,0.7608937711149454
1782831962901152800,8.53315283203125,-0.023343466186523436,-0.39542555124163625,0.7287848877359181
1782831962911082000,8.54308203125,-0.07814122430086136,-0.3274626796711236,0.7360203188821673
1782831962921011000,8.553010986328125,-0.03937105640172958,-0.31318478266745803,0.7306408178009093
1782831962930940000,8.56293994140625,-0.11272037025094031,-0.2262560754727572,0.6716928081393242
1782831962940868900,8.572868896484374,-0.2050128695011139,-0.14911650249511002,0.610450842321664
1782831962950798000,8.582798095703126,-0.3829875099509954,-0.17848682775571942,0.6338057797502726
1782831962960727000,8.59272705078125,-0.5065946003973484,-0.22376601222269235,0.6873118175536393
1782831962970656000,8.602656005859375,-0.47493864841759204,-0.2341815347097814,0.7110951364621519
1782831962980585000,8.6125849609375,-0.3316881153464317,-0.20527071671970187,0.6980065953735262
1782831962990514000,8.622513916015626,-0.3066922057777643,-0.2501964846391231,0.7600093894958496
1782831963000443000,8.63244287109375,-0.3864215760529041,-0.3373835505090654,0.8444950874526053
1782831963010371800,8.642371826171875,-0.4957990656167268,-0.38020343219041824,0.9040814680829644
1782831963020300800,8.65230078125,-0.5879138702124357,-0.37819793758690357,0.8697466522827744
1782831963030230000,8.66222998046875,-0.7662421464055776,-0.3096711485233158,0.7590218397632241
1782831963040159000,8.672158935546875,-0.9761854580461978,-0.18490400132164359,0.5750534753238782
1782831963050088000,8.682087890625,-1.3766700462430714,-0.1371053083144128,0.42313397117201235
1782831963060017000,8.692016845703124,-1.8565671938508748,-0.22420177329145372,0.3214925922855735
1782831963069945900,8.70194580078125,-2.1961574606239793,-0.30030820382907986,0.324204700788483
1782831963079875000,8.711875,-2.333334811261296,-0.28682890985719856,0.32049207347352054
1782831963089804000,8.721803955078125,-2.2325825267016888,-0.12070157826319336,0.29330873686317355
1782831963099733000,8.73173291015625,-2.0727011768251655,0.039560295363515616,0.18636039240872487
1782831963109661700,8.74166162109375,-1.6080723254978655,0.1663196392957121,0.08755968030830845
1782831963119591000,8.7515908203125,-1.0829857905983924,0.21832477101683614,0.0706998542197747
1782831963129519900,8.761519775390624,-0.8811445368707179,0.2381180704411119,0.04640659019486047
1782831963139448800,8.77144873046875,-0.7364034729808568,0.1890020842902362,-0.0178101125506917
1782831963149377800,8.781377685546875,-0.3668815938025713,0.08987740093246102,-0.109892928272672
1782831963159307000,8.79130712890625,-0.10599135425686836,0.015505612167716025,-0.054776231269119305
1782831963169236000,8.801236083984374,0.16423253082334993,-0.08625212310738861,0.09065330807524732
1782831963179165000,8.8111650390625,0.4336795863121748,-0.06025485447645187,0.24055545365586875
1782831963189094000,8.821093994140625,0.6910895825266837,0.0023242051638662814,0.1962173128986731
1782831963199023000,8.831023193359375,0.9010200346857309,0.06973842987567186,0.04060618768725544
1782831963208952000,8.8409521484375,0.9141302761495113,0.14313340949751435,-0.022927323133684695
1782831963218880800,8.850880859375,0.9544324759215116,0.22464359877482054,-0.13753644800698384
1782831963228809700,8.860809814453125,0.9085872550696134,0.3514896711423993,-0.22177838206943123
1782831963238739000,8.870739013671875,0.8173498178303241,0.39595220546424387,-0.2894986039904877
1782831963248668000,8.88066796875,0.7448860546439886,0.3907679346941411,-0.3538679445810616
1782831963258596900,8.890596923828125,0.7126777294784784,0.4309513303920626,-0.24020631142463533
1782831963268525800,8.90052587890625,0.5097983648747205,0.3531809121649712,-0.19712964197061955
1782831963278455000,8.910455078125,0.1831745471805334,0.20462664666250346,-0.26287786969896404
1782831963288384000,8.920384033203124,-0.13585107046961784,0.183746940241009,-0.3488833245689049
1782831963298313000,8.93031298828125,-0.3704173667132854,0.24479418720416724,-0.44960262017436325
1782831963308242000,8.940241943359375,-0.668755585643649,0.3234465028323233,-0.536186459454149
1782831963318171100,8.950171142578125,-0.8772656496107578,0.3464914975289255,-0.55756333827544
1782831963328099800,8.960099853515626,-0.983859645935893,0.3138573481667787,-0.5144282166324555
1782831963338028800,8.97002880859375,-1.0193266806364059,0.2688160641089082,-0.5094866685770452
1782831963347957800,8.979957763671875,-0.9139625183671712,0.16854564478211104,-0.4756305396718904
1782831963357887000,8.989886962890624,-0.6206839209139347,0.15106785575859247,-0.49459487745873626
1782831963367816000,8.99981591796875,-0.24066402859687805,0.2688467515081167,-0.5533002374708652
1782831963377745000,9.009744873046875,0.05903261920511722,0.4142818620767444,-0.5438881198726594
1782831963387673900,9.019673828125,0.3627151217728853,0.34646044480353594,-0.45245863065999
1782831963397603000,9.02960302734375,0.45556525490581984,0.23070026846528052,-0.2005310844445601
1782831963407532000,9.039531982421876,0.5521306091696023,0.052999914912134405,-0.12191774911992251
1782831963417461000,9.0494609375,0.5667793122470378,-0.14055924816057086,-0.12825250509940087
1782831963427389000,9.059388916015624,0.6621101562798023,-0.28527459308728575,-0.17917042610570788
1782831963437319200,9.069319091796874,0.87006258636415,-0.31396095467172563,-0.18929986166041343
1782831963447247000,9.0792470703125,1.007715153297782,-0.3095666652355343,-0.19224932258315383
1782831963457176000,9.089176025390625,1.0169552753299473,-0.3876872851397842,-0.28728925737794486
1782831963467105000,9.09910498046875,0.893050663241744,-0.5436575259871781,-0.40936142987459895
1782831963477033700,9.10903369140625,0.7848825494676828,-0.6304207404218614,-0.49792372962050135
1782831963486963000,9.118962890625,0.8169377298980951,-0.6133624919846653,-0.5493924529099836
1782831963496892000,9.128891845703125,0.891269625043869,-0.5769890830289572,-0.5611698018021881
1782831963506820900,9.13882080078125,0.7880535807192325,-0.6087054599590599,-0.5130030792001634
1782831963516749800,9.148749755859376,0.5544213504552841,-0.6728629478972404,-0.45933206009343264
1782831963526679000,9.158678955078125,0.37394203370809553,-0.7421510036569088,-0.4822808278739452
1782831963536608000,9.16860791015625,0.344834012645483,-0.7132604978024959,-0.48791492477077986
1782831963546537000,9.178536865234374,0.3963035031199455,-0.6540680118605494,-0.5125093043338507
1782831963556466000,9.1884658203125,0.2928191632479429,-0.6709210200492293,-0.4884160061607137
1782831963566395100,9.19839501953125,0.19028876309990883,-0.7626560315471143,-0.4874015684211626
1782831963576324000,9.208323974609375,0.020547113466262815,-0.8030814923726022,-0.4643868957975879
1782831963586252800,9.218252685546876,0.06991992392241954,-0.8208687857367097,-0.39971283663939683
1782831963596181800,9.228181640625,0.2744534854739904,-0.7471629866000264,-0.36308742568399754
1782831963606110700,9.23811083984375,0.38551790521144863,-0.6998789651166647,-0.3507060464840382
1782831963616040000,9.2480400390625,0.31000586037039757,-0.7727219368789344,-0.3323511092998087
1782831963625969000,9.257968994140626,0.17435761899650096,-0.8610259510148316,-0.22288236125595867
1782831963635897900,9.26789794921875,0.08439853112995624,-0.8673483589693903,-0.1538528103020042
1782831963645826800,9.277826904296875,0.1719458816796541,-0.8088487506624311,-0.19416217046715317
1782831963655756000,9.287756103515624,0.15993571041226387,-0.697546284385398,-0.20924320054724813
1782831963665685000,9.29768505859375,0.05308277088999748,-0.6462692477431148,-0.1971841486368328
1782831963675614000,9.307614013671875,-0.1005646530330181,-0.6504051785040647,-0.24413747686110435
1782831963685543000,9.31754296875,-0.18256839798092842,-0.5582017457768321,-0.2524338883023709
1782831963695472000,9.32747216796875,-0.260638310611248,-0.45681627788022156,-0.25286029702089724
1782831963705400800,9.33740087890625,-0.45081659907400606,-0.4176701162755489,-0.14941585076786576
1782831963715329800,9.347329833984375,-0.651761780744791,-0.41653175989538427,-0.06368300229422748
1782831963725258800,9.3572587890625,-0.8710264629602432,-0.2714277079120278,-0.10038695837855338
1782831963735188000,9.36718798828125,-0.930515009239316,-0.16101590686440467,-0.18841339768208562
1782831963745117000,9.377116943359376,-1.0304074620991945,-0.04469312820732593,-0.1216523761820048
1782831963755046000,9.3870458984375,-1.0880763917356728,0.029953531976044175,-0.04227751843295991
1782831963764974800,9.396974853515625,-1.2963871337383985,0.03842939163744449,-0.024837284940853712
1782831963774904000,9.406904052734374,-1.5501602347552776,-0.016625848369300363,-0.04713058448731899
1782831963784833000,9.4168330078125,-1.7258564088791608,-0.07334756028354167,0.004617722928524017
1782831963794762000,9.426761962890625,-1.776233427941799,-0.028879180742800235,0.1008150475975126
1782831963804691000,9.43669091796875,-1.8071446990340947,0.037713206192106004,0.09514606205038725
1782831963814620000,9.446619873046876,-1.8299521586477756,0.04105462557449937,0.01958155636973679
1782831963824548900,9.456548828125,-1.8273416838884353,0.022098726822435855,0.026280834812670944
1782831963834477800,9.466477783203125,-1.607771296724677,0.08544774792194366,0.047228638034313916
1782831963844406800,9.47640673828125,-1.1491180126756428,0.2286862982943654,0.10154248508922756
1782831963854336000,9.4863359375,-0.7078396417975426,0.4431041250005364,0.1147124208509922
1782831963864265200,9.49626513671875,-0.4809212299585342,0.6160482239373027,0.05760141735821962
1782831963874194200,9.506194091796875,-0.294544087344408,0.5834697502851486,0.07215455110669136
1782831963884123100,9.516123046875,0.0229921685308218,0.5200421109914779,0.20381182314828036
1782831963894052400,9.52605224609375,0.3296089709848165,0.569483310508728,0.34568500345163045
1782831963903981300,9.535981201171875,0.591581745070219,0.5590566090404987,0.4692404367759824
1782831963913910300,9.54591015625,0.8665151230156422,0.5463336133286356,0.48811874024719
1782831963923839000,9.5558388671875,1.088702999201417,0.5862500286534428,0.40453627474047243
1782831963933768200,9.565768310546876,1.2206027016967533,0.557814938416332,0.32254370877370236
1782831963943697200,9.575697265625,1.2599322570443152,0.46907326351553197,0.3913726225890219
1782831963953626000,9.585626220703125,1.3102899868845939,0.4112788078032434,0.4965414084166288
1782831963963555000,9.59555517578125,1.2617074500232934,0.44951004652008414,0.5018706406153738
1782831963973484300,9.605484375,1.085047399303317,0.4409147982627153,0.46292160901799795
1782831963983413200,9.615413330078125,0.9689899935841559,0.39604938222840425,0.4614204106748104
1782831963993342200,9.62534228515625,0.8166466379970312,0.44422962189912796,0.5583312173753977
1782831964003271200,9.635271240234376,0.6615817484915256,0.4430930190846324,0.6443502623792737
1782831964013200400,9.645200439453125,0.4589285938590765,0.4415437438160181,0.7346830058638006
1782831964023129300,9.65512939453125,0.17009236276745796,0.41269349690675733,0.7079848954871296
1782831964033058000,9.66505810546875,-0.0787315914094448,0.3755487382523715,0.610035977910459
1782831964042987000,9.674987060546876,-0.3134843501359224,0.34612902089208364,0.5693140914216638
1782831964052916200,9.684916259765625,-0.5324947653293609,0.29480712219476696,0.5936037889497354
1782831964062845200,9.69484521484375,-0.8494774789750575,0.2373928979717195,0.6126180668255314
1782831964072774100,9.704774169921874,-1.0014788892567157,0.172687859153375,0.5314717789571732
1782831964082703000,9.714703125,-0.807407685008645,0.20426592359133064,0.3510086096271872
1782831964092632300,9.72463232421875,-0.5514093091577291,0.34641529048755765,0.35774467641655355
1782831964102561300,9.734561279296875,-0.2774240257173776,0.4005248471420258,0.4526924759484827
1782831964112490200,9.744490234375,0.798358701634407,0.4532551513325423,0.5671645852375775
1782831964122419200,9.754419189453126,0.7832453036546707,0.5438938189610839,0.8680226049691439
1782831964132348200,9.76434814453125,-0.04157528844773769,0.08846154278516768,0.8063970466613769
1782831964142277000,9.774277099609375,0.341391178715229,-0.15992095123454927,0.46219037213400005
1782831964152206000,9.7842060546875,0.40599896770417687,0.2170169032886624,0.37343174609839913
1782831964162135000,9.794135009765625,0.5215419941604137,0.17487616297788916,0.47015112188011404
1782831964172064000,9.80406396484375,0.48356093081235885,0.026432518243044614,0.6033444809151813
1782831964181993200,9.8139931640625,0.6998661787003279,0.048557694680988785,0.7161736087702214
1782831964191922200,9.823922119140626,0.9915905324488877,0.1506980725981295,0.6963254373535513
1782831964201851100,9.83385107421875,0.7211012744307518,0.18804843682721256,0.6788448718510568
1782831964211780000,9.843780029296875,0.5527618928104638,-0.015100830759108065,0.716347430967167
