time,seconds_elapsed,z,y,x
1782831954451597000,0.08359716796875,0.645952045917511,-0.5687052607536316,0.1696666032075882
1782831954461526000,0.093526123046875,0.5791999101638794,-0.5419154167175293,0.11330187320709229
1782831954471455000,0.103455078125,0.5672812461853027,-0.4563521444797516,0.006921461317688227
1782831954481383700,0.1133837890625,0.5999763607978821,-0.34887149930000305,-0.10698460042476654
1782831954491313000,0.12331298828125,0.6532537937164307,-0.21544533967971802,-0.20285941660404205
1782831954501241900,0.133241943359375,0.7140055298805237,-0.10015257447957993,-0.2571559548377991
1782831954511170800,0.1431708984375,0.7544761300086975,-0.03822315111756325,-0.2679700553417206
1782831954521099800,0.153099853515625,0.7644068002700806,-0.047709330916404724,-0.23556870222091675
1782831954531029000,0.163029052734375,0.7511455416679382,-0.09960143268108368,-0.17426177859306335
1782831954540958000,0.1729580078125,0.7354393005371094,-0.16521480679512024,-0.1191098541021347
1782831954550887000,0.182886962890625,0.7193904519081116,-0.24315764009952545,-0.10050045698881149
1782831954560815900,0.19281591796875,0.6753154397010803,-0.30686870217323303,-0.07429015636444092
1782831954570745000,0.2027451171875,0.6133944988250732,-0.2634023427963257,-0.024440567940473557
1782831954580674000,0.212674072265625,0.551624059677124,-0.12722797691822052,0.03849312290549278
1782831954590602800,0.222602783203125,0.49990782141685486,-0.05709562823176384,0.11810086667537689
1782831954600531700,0.23253173828125,0.49740177392959595,-0.07153608649969101,0.19429896771907806
1782831954610461000,0.2424609375,0.5365883111953735,-0.09941812604665756,0.28806185722351074
1782831954620390000,0.252389892578125,0.5630910396575928,-0.10302777588367462,0.3340674340724945
1782831954630318800,0.26231884765625,0.5651698708534241,-0.05812372267246246,0.32887259125709534
1782831954640247800,0.272247802734375,0.554122269153595,0.06873568892478943,0.2704460322856903
1782831954650175700,0.28217578125,0.5428096652030945,0.21337267756462097,0.1623057872056961
1782831954660105000,0.29210498046875,0.5368931889533997,0.3159419298171997,0.01846553571522236
1782831954670034000,0.302033935546875,0.5440902709960938,0.3640400767326355,-0.12161681801080704
1782831954679963000,0.311962890625,0.5490578413009644,0.37303492426872253,-0.20041602849960327
1782831954689891800,0.321891845703125,0.5280466079711914,0.388848215341568,-0.23020900785923004
1782831954699821000,0.331821044921875,0.49141961336135864,0.32164573669433594,-0.21800294518470764
1782831954709750000,0.34175,0.44984814524650574,0.23377947509288788,-0.1789170652627945
1782831954719679000,0.351678955078125,0.3991386294364929,0.1709033101797104,-0.12262662500143051
1782831954729608000,0.36160791015625,0.3472162187099457,0.11013202369213104,-0.06677926331758499
1782831954739537000,0.371536865234375,0.3004854619503021,0.08757904171943665,-0.0016071842983365059
1782831954749465900,0.3814658203125,0.275686115026474,0.07344751060009003,0.06812049448490143
1782831954759394800,0.391394775390625,0.28874385356903076,0.032530274242162704,0.12025458365678787
1782831954769323800,0.40132373046875,0.3348587453365326,-0.015957767143845558,0.15624791383743286
1782831954779252700,0.411252685546875,0.38945436477661133,-0.0491412878036499,0.15696483850479126
1782831954789182000,0.421181884765625,0.44590505957603455,-0.0905911922454834,0.11944454163312912
1782831954799111000,0.43111083984375,0.4909103512763977,-0.09965206682682037,0.05229879915714264
1782831954809040000,0.441039794921875,0.5142980217933655,-0.10054127871990204,-0.02278919145464897
1782831954818968800,0.45096875,0.5030373334884644,-0.11417985707521439,-0.12007792294025421
1782831954828898000,0.46089794921875,0.49475106596946716,-0.12618690729141235,-0.19797208905220032
1782831954838827000,0.470826904296875,0.5089435577392578,-0.14869967103004456,-0.2519831359386444
1782831954848755700,0.480755615234375,0.5180056095123291,-0.1594451516866684,-0.2850360870361328
1782831954858685000,0.490684814453125,0.5098829865455627,-0.1319544017314911,-0.2835859954357147
1782831954868614000,0.50061376953125,0.4833153784275055,-0.08794930577278137,-0.24530676007270813
1782831954878541800,0.510541748046875,0.45054465532302856,-0.012741906568408012,-0.16073834896087646
1782831954888471000,0.520470947265625,0.42031556367874146,0.0565517395734787,-0.042172908782958984
1782831954898400000,0.53039990234375,0.3879661560058594,0.09366235882043839,0.05004516616463661
1782831954908329000,0.540328857421875,0.35047754645347595,0.08524835109710693,0.10940097272396088
1782831954918258000,0.5502578125,0.32085493206977844,0.027383454144001007,0.1566808819770813
1782831954928187000,0.560186767578125,0.3103727698326111,-0.02419288083910942,0.20145878195762634
1782831954938116000,0.5701162109375,0.28098851442337036,-0.08489564061164856,0.2295767068862915
1782831954948045000,0.580045166015625,0.24328504502773285,-0.19524699449539185,0.21549992263317108
1782831954957974000,0.58997412109375,0.2170073688030243,-0.31881284713745117,0.17541562020778656
1782831954967903000,0.599903076171875,0.19110533595085144,-0.4238935708999634,0.16379697620868683
1782831954977832200,0.609832275390625,0.16910070180892944,-0.4436805844306946,0.196269690990448
1782831954987761000,0.619760986328125,0.15215542912483215,-0.4071503281593323,0.24819417297840118
1782831954997689900,0.62968994140625,0.15144410729408264,-0.3324603736400604,0.30683618783950806
1782831955007618800,0.639618896484375,0.17178794741630554,-0.2144356667995453,0.3706018030643463
1782831955017548000,0.649548095703125,0.21273298561573029,-0.06180271878838539,0.4309200048446655
1782831955027477000,0.65947705078125,0.2742709219455719,0.07727024704217911,0.4687774181365967
1782831955037406000,0.669406005859375,0.33919504284858704,0.1659114509820938,0.49445879459381104
1782831955047335000,0.6793349609375,0.4003610610961914,0.18454839289188385,0.4989039897918701
1782831955057264000,0.68926416015625,0.44643667340278625,0.17004083096981049,0.47620323300361633
1782831955067193000,0.699193115234375,0.49357566237449646,0.14506451785564423,0.4196482002735138
1782831955077122000,0.7091220703125,0.5224669575691223,0.10745030641555786,0.33806225657463074
1782831955087051000,0.719051025390625,0.5434281229972839,0.06715966761112213,0.2562440037727356
1782831955096980000,0.72897998046875,0.548577606678009,0.06102214753627777,0.19289298355579376
1782831955106908200,0.738908203125,0.5313947200775146,0.11024212837219238,0.14210602641105652
1782831955116837000,0.748837158203125,0.5063537955284119,0.16071835160255432,0.09199544787406921
1782831955126766000,0.75876611328125,0.48904669284820557,0.20680108666419983,0.05509628728032112
1782831955136694800,0.76869482421875,0.49047335982322693,0.2851089537143707,0.02654986083507538
1782831955146624000,0.7786240234375,0.5116780996322632,0.34485989809036255,0.0024464079178869724
1782831955156553000,0.788552978515625,0.5513786673545837,0.33775803446769714,-0.0174452755600214
1782831955166482000,0.79848193359375,0.6053529381752014,0.28135326504707336,-0.026530487462878227
1782831955176411000,0.808410888671875,0.6528775691986084,0.19648420810699463,-0.022891541942954063
1782831955186340000,0.818340087890625,0.6849984526634216,0.10378114879131317,-0.036331113427877426
1782831955196269000,0.82826904296875,0.7006860375404358,0.04493168368935585,-0.07162598520517349
1782831955206198000,0.838197998046875,0.7205004692077637,0.04786892235279083,-0.10823321342468262
1782831955216127000,0.848126953125,0.721822202205658,0.10025063157081604,-0.13806301355361938
1782831955226056200,0.85805615234375,0.7095068693161011,0.1535627543926239,-0.1734219640493393
1782831955235985200,0.867985107421875,0.6997970342636108,0.20752744376659393,-0.2200794816017151
1782831955245913900,0.877913818359375,0.6936677098274231,0.2344927340745926,-0.27609261870384216
1782831955255842800,0.8878427734375,0.6881416440010071,0.27285662293434143,-0.3128410279750824
1782831955265772000,0.89777197265625,0.6683322191238403,0.32360151410102844,-0.31712934374809265
1782831955275701000,0.907700927734375,0.6413448452949524,0.35110238194465637,-0.29993170499801636
1782831955285630000,0.9176298828125,0.619448721408844,0.3751354217529297,-0.25697293877601624
1782831955295559000,0.927558837890625,0.6104903817176819,0.4095999300479889,-0.22645951807498932
1782831955305488100,0.937488037109375,0.6257398724555969,0.4167763590812683,-0.21325422823429108
1782831955315417000,0.9474169921875,0.6646124720573425,0.4067554175853729,-0.21908947825431824
1782831955325346000,0.957345947265625,0.7076448798179626,0.4083684980869293,-0.2432413101196289
1782831955335274000,0.96727392578125,0.7451794743537903,0.3672679364681244,-0.288107305765152
1782831955345203000,0.977202880859375,0.786793053150177,0.2727601230144501,-0.3405250012874603
1782831955355132200,0.987132080078125,0.8128995299339294,0.1609792709350586,-0.3777458667755127
1782831955365061000,0.99706103515625,0.8220126628875732,0.016049537807703018,-0.3782530725002289
1782831955374990000,1.006989990234375,0.8060922622680664,-0.10044724494218826,-0.34916043281555176
1782831955384919000,1.0169189453125,0.7638232111930847,-0.14797252416610718,-0.2846072316169739
1782831955394848000,1.026847900390625,0.7021896839141846,-0.09806329011917114,-0.19489839673042297
1782831955404777000,1.03677685546875,0.6414251327514648,-0.0044261617586016655,-0.1302739679813385
1782831955414706000,1.046705810546875,0.5963141322135925,0.10769185423851013,-0.11983197927474976
1782831955424635000,1.056634765625,0.5781001448631287,0.22453241050243378,-0.1536651849746704
1782831955434564000,1.066564208984375,0.5788905620574951,0.3262907564640045,-0.1903211921453476
1782831955444493000,1.0764931640625,0.5801250338554382,0.39913812279701233,-0.20776088535785675
1782831955454422000,1.086422119140625,0.584181547164917,0.4086432158946991,-0.21637354791164398
1782831955464351000,1.09635107421875,0.5766136050224304,0.3917792737483978,-0.22015142440795898
1782831955474280200,1.1062802734375,0.5717136263847351,0.37431055307388306,-0.20955470204353333
1782831955484209200,1.116209228515625,0.5481846928596497,0.41231590509414673,-0.17939645051956177
1782831955494138000,1.12613818359375,0.5002150535583496,0.4689200520515442,-0.1477506458759308
1782831955504067000,1.136067138671875,0.45256897807121277,0.4811241924762726,-0.13269366323947906
1782831955513996000,1.14599609375,0.42033034563064575,0.4534209072589874,-0.1494516134262085
1782831955523925000,1.155925048828125,0.41122084856033325,0.4124966859817505,-0.1620774269104004
1782831955533854000,1.16585400390625,0.41695544123649597,0.3857356607913971,-0.1659001260995865
1782831955543783000,1.175782958984375,0.4402833580970764,0.3473937213420868,-0.15930792689323425
1782831955553712000,1.185712158203125,0.4688955545425415,0.29915907979011536,-0.1461641639471054
1782831955563640000,1.19564013671875,0.49488940834999084,0.26133614778518677,-0.12718337774276733
1782831955573569000,1.205569091796875,0.5175361037254333,0.190265953540802,-0.12320569157600403
1782831955583498000,1.215498046875,0.5490265488624573,0.11475430428981781,-0.11050885170698166
1782831955593427000,1.225427001953125,0.56966632604599,0.018980644643306732,-0.08950529992580414
1782831955603356200,1.235356201171875,0.5831939578056335,-0.06115487962961197,-0.04901105910539627
1782831955613285000,1.24528515625,0.5852488875389099,-0.07305308431386948,0.014704538509249687
1782831955623214000,1.255214111328125,0.5891385674476624,-0.029800213873386383,0.07805892825126648
1782831955633143000,1.26514306640625,0.5894914269447327,0.07528865337371826,0.13818244636058807
1782831955643072300,1.275072265625,0.5718932747840881,0.15484580397605896,0.17833705246448517
1782831955653001000,1.2850009765625,0.5303141474723816,0.1759960949420929,0.1749231517314911
1782831955662930000,1.294929931640625,0.49073800444602966,0.15468981862068176,0.13609926402568817
1782831955672859000,1.30485888671875,0.48103851079940796,0.0876452773809433,0.05908144637942314
1782831955682787800,1.314787841796875,0.4974556565284729,-0.010986671783030033,-0.024650702252984047
1782831955692717000,1.324717041015625,0.485115110874176,-0.0630733072757721,-0.07195137441158295
1782831955702646000,1.33464599609375,0.4440951943397522,-0.0865548625588417,-0.0824965164065361
1782831955712575000,1.344574951171875,0.40224015712738037,-0.09830979257822037,-0.08801325410604477
1782831955722504000,1.35450390625,0.3892748951911926,-0.046719249337911606,-0.09226846694946289
1782831955732433200,1.36443310546875,0.4043366611003876,0.03077048435807228,-0.09490819275379181
1782831955742362000,1.374362060546875,0.4385664761066437,0.14066332578659058,-0.0841844230890274
1782831955752291000,1.384291015625,0.46207472681999207,0.18836292624473572,-0.06458356231451035
1782831955762220000,1.394219970703125,0.46872884035110474,0.12542271614074707,-0.0401727519929409
1782831955772149000,1.40414892578125,0.4920363128185272,0.005278990603983402,-0.00007247040048241615
1782831955782078000,1.414077880859375,0.5468815565109253,-0.10832710564136505,0.0727170780301094
1782831955792007000,1.4240068359375,0.6208375692367554,-0.14406272768974304,0.17880302667617798
1782831955801934800,1.433934814453125,0.6949553489685059,-0.11592423915863037,0.2976542115211487
1782831955811863800,1.44386376953125,0.7423310875892639,-0.05909159034490585,0.399543821811676
1782831955821793000,1.45379296875,0.7688958644866943,-0.004606667906045914,0.4701668322086334
1782831955831722000,1.463721923828125,0.7766251564025879,0.07797954976558685,0.505195140838623
1782831955841651000,1.47365087890625,0.7753657698631287,0.20761193335056305,0.5169758200645447
1782831955851583000,1.4835830078125,0.769813060760498,0.2885371148586273,0.4987345337867737
1782831955861512000,1.493511962890625,0.7659369707107544,0.28200143575668335,0.44888776540756226
1782831955871441000,1.50344091796875,0.7517854571342468,0.22281798720359802,0.3891599774360657
1782831955881369900,1.513369873046875,0.7321255803108215,0.14450255036354065,0.3249382972717285
1782831955891298800,1.523298828125,0.7023746371269226,0.030988235026597977,0.257127583026886
1782831955901228000,1.53322802734375,0.6719747185707092,-0.1679450124502182,0.18039731681346893
1782831955911157000,1.543156982421875,0.6391480565071106,-0.40705397725105286,0.09616073220968246
1782831955921086000,1.5530859375,0.5810354351997375,-0.6105450391769409,-0.007125586271286011
1782831955931014700,1.5630146484375,0.4797700345516205,-0.7240905165672302,-0.14593273401260376
1782831955940944000,1.57294384765625,0.36567285656929016,-0.7335710525512695,-0.27837756276130676
1782831955950872800,1.582872802734375,0.22332264482975006,-0.6228586435317993,-0.3612988293170929
1782831955960801800,1.5928017578125,0.08802641928195953,-0.4208528697490692,-0.3870525658130646
1782831955970730800,1.602730712890625,-0.016140464693307877,-0.1828504055738449,-0.37769821286201477
1782831955980660000,1.612659912109375,-0.05523044988512993,0.058304667472839355,-0.35208871960639954
1782831955990589000,1.6225888671875,-0.038543350994586945,0.29518964886665344,-0.3202786147594452
1782831956000518000,1.632517822265625,-0.0005334308370947838,0.5015333294868469,-0.2808784246444702
1782831956010446800,1.64244677734375,0.03734870254993439,0.6865149140357971,-0.22228194773197174
1782831956020376000,1.6523759765625,0.08362886309623718,0.8214837312698364,-0.1387857049703598
1782831956030305000,1.662304931640625,0.13527022302150726,0.8939435482025146,-0.04601156711578369
1782831956040233000,1.67223291015625,0.181344673037529,0.8967746496200562,0.022779272869229317
1782831956050162000,1.682161865234375,0.23943567276000977,0.8642465472221375,0.04309333115816116
1782831956060091000,1.6920908203125,0.2937660813331604,0.791965126991272,0.023052657023072243
1782831956070019800,1.702019775390625,0.3413253426551819,0.6904776692390442,-0.02106127329170704
1782831956079948800,1.71194873046875,0.35968056321144104,0.562138020992279,-0.06316716223955154
1782831956089877800,1.721877685546875,0.3541739583015442,0.4614745080471039,-0.06845992803573608
1782831956099806700,1.731806640625,0.3243546783924103,0.37665581703186035,-0.05231953412294388
1782831956109736000,1.74173583984375,0.2873567044734955,0.26135319471359253,-0.028599290177226067
1782831956119665000,1.751664794921875,0.26669442653656006,0.1766805499792099,0.022411871701478958
1782831956129593900,1.76159375,0.25972625613212585,0.20963770151138306,0.1104077696800232
1782831956139522800,1.771522705078125,0.25163257122039795,0.239801287651062,0.18592210114002228
1782831956149452000,1.7814521484375,0.2614244818687439,0.2213197648525238,0.2109622061252594
1782831956159381000,1.791381103515625,0.28224971890449524,0.20889218151569366,0.20251525938510895
1782831956169310000,1.80131005859375,0.30180424451828003,0.19157284498214722,0.18685907125473022
1782831956179239000,1.811239013671875,0.3172946870326996,0.1677851378917694,0.18299426138401031
1782831956189167900,1.82116796875,0.3260895013809204,0.11551739275455475,0.1878659874200821
1782831956199096800,1.831096923828125,0.3147438168525696,0.031667303293943405,0.2090151309967041
1782831956209025800,1.84102587890625,0.2791493237018585,-0.04002819210290909,0.23717911541461945
1782831956218954800,1.850954833984375,0.22994326055049896,-0.08821332454681396,0.27195000648498535
1782831956228884000,1.860884033203125,0.16900081932544708,-0.15489913523197174,0.3031412363052368
1782831956238813000,1.87081298828125,0.08927939087152481,-0.279887318611145,0.3245052695274353
1782831956248742000,1.880741943359375,-0.006883891299366951,-0.40003183484077454,0.3283652663230896
1782831956258670800,1.8906708984375,-0.1193467527627945,-0.4406900107860565,0.3157334625720978
1782831956268600000,1.90060009765625,-0.2131137251853943,-0.3643377125263214,0.28850609064102173
1782831956278529000,1.910529052734375,-0.2527409493923187,-0.18586517870426178,0.2421206831932068
1782831956288458000,1.9204580078125,-0.26858198642730713,0.039341848343610764,0.17871694266796112
1782831956298386000,1.930385986328125,-0.26360222697257996,0.25859534740448,0.08156424760818481
1782831956308315000,1.94031494140625,-0.23989051580429077,0.4037195146083832,-0.024399729445576668
1782831956318244000,1.950244140625,-0.22157762944698334,0.4799637496471405,-0.11596409231424332
1782831956328172800,1.9601728515625,-0.22204020619392395,0.5019848942756653,-0.1552467793226242
1782831956338101800,1.970101806640625,-0.2170417755842209,0.4598865211009979,-0.13558998703956604
1782831956348030700,1.98003076171875,-0.21514321863651276,0.34521186351776123,-0.07538257539272308
1782831956357960000,1.9899599609375,-0.21618126332759857,0.16076362133026123,-0.007906118407845497
1782831956367889000,1.999888916015625,-0.20634859800338745,-0.051861293613910675,0.057273149490356445
1782831956377817900,2.00981787109375,-0.1733405590057373,-0.30226200819015503,0.12356635928153992
1782831956387746800,2.019746826171875,-0.13763529062271118,-0.5259742140769958,0.15606650710105896
1782831956397676000,2.029676025390625,-0.13306640088558197,-0.6159675121307373,0.12624001502990723
1782831956407605000,2.03960498046875,-0.1409059464931488,-0.5967759490013123,0.0020943707786500454
1782831956417534000,2.049533935546875,-0.14329783618450165,-0.5301602482795715,-0.14480558037757874
1782831956427463000,2.059462890625,-0.1437809318304062,-0.37372803688049316,-0.22940196096897125
1782831956437392000,2.069391845703125,-0.15387751162052155,-0.15792249143123627,-0.20277540385723114
1782831956447320800,2.07932080078125,-0.1846170425415039,0.07468997687101364,-0.08121434599161148
1782831956457249800,2.089249755859375,-0.22525916993618011,0.28402912616729736,0.08820288628339767
1782831956467178800,2.0991787109375,-0.2604301869869232,0.42292842268943787,0.2615760266780853
1782831956477108000,2.10910791015625,-0.2747659981250763,0.48778223991394043,0.3849749267101288
1782831956487037000,2.119036865234375,-0.2629873752593994,0.5063338279724121,0.44399455189704895
1782831956496966000,2.1289658203125,-0.231339231133461,0.48000723123550415,0.43408575654029846
1782831956506894800,2.138894775390625,-0.18736325204372406,0.394879013299942,0.36254552006721497
1782831956516823800,2.14882373046875,-0.1507350653409958,0.2632473111152649,0.24646741151809692
1782831956526753000,2.1587529296875,-0.14518265426158905,0.08617054671049118,0.11633842438459396
1782831956536682000,2.168681884765625,-0.19142687320709229,-0.07830663025379181,-0.019053589552640915
1782831956546610000,2.17860986328125,-0.27107322216033936,-0.237742617726326,-0.15960271656513214
1782831956556539000,2.188538818359375,-0.3557869791984558,-0.36173170804977417,-0.2809561491012573
1782831956566468000,2.198468017578125,-0.43697768449783325,-0.40735405683517456,-0.37425655126571655
1782831956576397000,2.20839697265625,-0.5121638774871826,-0.41314107179641724,-0.4485424757003784
1782831956586325800,2.21832568359375,-0.575206458568573,-0.3738408088684082,-0.5100047588348389
1782831956596254700,2.228254638671875,-0.595400869846344,-0.29869315028190613,-0.5473649501800537
1782831956606183700,2.23818359375,-0.5615305304527283,-0.13085538148880005,-0.533733069896698
1782831956616113000,2.24811279296875,-0.47816935181617737,0.06725400686264038,-0.47512298822402954
1782831956626041900,2.258041748046875,-0.36166322231292725,0.21915912628173828,-0.40969735383987427
1782831956635970800,2.267970703125,-0.2500055134296417,0.29121068120002747,-0.3490600883960724
1782831956645899800,2.277899658203125,-0.1545836478471756,0.3163110017776489,-0.3012196123600006
1782831956655829000,2.2878291015625,-0.07916129380464554,0.3504229784011841,-0.24107588827610016
1782831956665758000,2.297758056640625,-0.024319350719451904,0.3735293447971344,-0.18171057105064392
1782831956675687000,2.30768701171875,0.02627740055322647,0.3563033938407898,-0.13578040897846222
1782831956685615900,2.317615966796875,0.06812631338834763,0.29285678267478943,-0.10312286019325256
1782831956695544800,2.327544921875,0.09308762848377228,0.19969157874584198,-0.08874610811471939
1782831956705473800,2.337473876953125,0.09870503842830658,0.09944301098585129,-0.09325670450925827
1782831956715402800,2.34740283203125,0.08685625344514847,0.02128233015537262,-0.1146688163280487
1782831956725331700,2.357331787109375,0.06427238136529922,-0.04328467696905136,-0.16740447282791138
1782831956735261000,2.367260986328125,0.04077249765396118,-0.07048850506544113,-0.24500282108783722
1782831956745190000,2.37718994140625,0.012312626466155052,-0.0829038992524147,-0.32279348373413086
1782831956755118800,2.387118896484375,-0.028703145682811737,-0.07830057293176651,-0.37267985939979553
1782831956765047800,2.3970478515625,-0.08468199521303177,-0.048302456736564636,-0.3808586895465851
1782831956774977000,2.40697705078125,-0.1575220376253128,-0.044266730546951294,-0.35022658109664917
1782831956784906000,2.416906005859375,-0.24876724183559418,-0.06889510899782181,-0.29724380373954773
1782831956794835000,2.4268349609375,-0.33121514320373535,-0.11322873830795288,-0.2185964584350586
1782831956804764000,2.436763916015625,-0.39754968881607056,-0.12909691035747528,-0.1531311720609665
1782831956814691800,2.44669189453125,-0.42631566524505615,-0.14515091478824615,-0.13534747064113617
1782831956824621000,2.45662109375,-0.3899398148059845,-0.12566296756267548,-0.16733203828334808
1782831956834550000,2.466550048828125,-0.3101714551448822,-0.1059100329875946,-0.21219848096370697
1782831956844478700,2.476478759765625,-0.21070586144924164,-0.11233171820640564,-0.22799767553806305
1782831956854404900,2.48640478515625,-0.12571518123149872,-0.07690001279115677,-0.18856540322303772
1782831956864334000,2.496333984375,-0.06551921367645264,-0.0007746191695332527,-0.11627814918756485
1782831956874263000,2.506262939453125,-0.03729119896888733,0.04895699769258499,-0.04544682428240776
1782831956884192000,2.51619189453125,-0.02899864688515663,0.09096331149339676,0.009582336992025375
1782831956894121000,2.526120849609375,-0.012448448687791824,0.10983012616634369,0.04066319018602371
1782831956904050200,2.53605029296875,0.0015038521960377693,0.10158604383468628,0.05052993446588516
1782831956913979100,2.545979248046875,0.024002745747566223,0.07405295222997665,0.04616491496562958
1782831956923908000,2.555908203125,0.043931715190410614,0.02401401847600937,0.028229055926203728
1782831956933837000,2.565837158203125,0.054399870336055756,-0.047248780727386475,-0.0006688139401376247
1782831956943766000,2.57576611328125,0.0701705738902092,-0.08666622638702393,-0.0233357772231102
1782831956953695000,2.585695068359375,0.07508760690689087,-0.11944426596164703,-0.011966405436396599
1782831956963624000,2.5956240234375,0.09222238510847092,-0.11978621780872345,0.039748720824718475
1782831956973553000,2.605552978515625,0.13072943687438965,-0.07646100223064423,0.13183310627937317
1782831956983482000,2.615482177734375,0.1955004334449768,0.03213125094771385,0.2716216444969177
1782831956993411000,2.6254111328125,0.27481356263160706,0.1778978407382965,0.4028645157814026
1782831957003340000,2.635340087890625,0.3497314751148224,0.2803051471710205,0.4563988745212555
1782831957013269000,2.64526904296875,0.4110112190246582,0.29823818802833557,0.4214440882205963
1782831957023198200,2.6551982421875,0.42332354187965393,0.2663348615169525,0.34197351336479187
1782831957033127200,2.665127197265625,0.38765043020248413,0.2231406271457672,0.2526529133319855
1782831957043056000,2.67505615234375,0.3122691214084625,0.13500544428825378,0.14093303680419922
1782831957052984800,2.68498486328125,0.22824494540691376,0.015515965409576893,0.0010424754582345486
1782831957062913800,2.694913818359375,0.1518668234348297,-0.0939902812242508,-0.151261568069458
1782831957072843000,2.704843017578125,0.09486355632543564,-0.16109415888786316,-0.26867130398750305
1782831957082772000,2.71477197265625,0.05792125314474106,-0.16672514379024506,-0.3163573443889618
1782831957092700000,2.724699951171875,0.07448185235261917,-0.06662416458129883,-0.2866521179676056
1782831957102628900,2.73462890625,0.14169205725193024,0.11688654124736786,-0.17497433722019196
1782831957112558000,2.74455810546875,0.2449484020471573,0.3137575685977936,-0.0041680168360471725
1782831957122487000,2.754487060546875,0.37122642993927,0.4973923861980438,0.2117869108915329
1782831957132416000,2.764416015625,0.48360538482666016,0.595436692237854,0.41699638962745667
1782831957142345000,2.774344970703125,0.5652672052383423,0.5616981387138367,0.5567238926887512
1782831957152274000,2.78427392578125,0.6280919313430786,0.4492485821247101,0.6323204040527344
1782831957162203100,2.794203125,0.6773801445960999,0.33738091588020325,0.651176929473877
1782831957172132000,2.804132080078125,0.6931532621383667,0.2480573207139969,0.6373275518417358
1782831957182061000,2.81406103515625,0.6704980134963989,0.17371252179145813,0.6121857166290283
1782831957191990000,2.823989990234375,0.6360424160957336,0.11340682208538055,0.5787063837051392
1782831957201919000,2.8339189453125,0.6069018840789795,0.04768214374780655,0.5489367842674255
1782831957211848000,2.843847900390625,0.5728455781936646,-0.009610297158360481,0.5199435949325562
1782831957221777000,2.85377685546875,0.515282928943634,-0.10075351595878601,0.4781820476055145
1782831957231705900,2.863705810546875,0.45095476508140564,-0.15708418190479279,0.4101417362689972
1782831957241635000,2.873635009765625,0.3786664307117462,-0.1759827584028244,0.32274049520492554
1782831957251564000,2.88356396484375,0.29355424642562866,-0.21726197004318237,0.20377929508686066
1782831957261493000,2.893492919921875,0.22443561255931854,-0.2620353102684021,0.07088010013103485
1782831957271422000,2.903421875,0.15126802027225494,-0.28481918573379517,-0.053202152252197266
1782831957281351200,2.91335107421875,0.09108377993106842,-0.3132433593273163,-0.16539394855499268
1782831957291280100,2.923280029296875,0.03812682256102562,-0.37842345237731934,-0.2466863989830017
1782831957301209000,2.933208984375,-0.005738731473684311,-0.4269942045211792,-0.28778713941574097
1782831957311137800,2.9431376953125,-0.0526796355843544,-0.42657214403152466,-0.2794910669326782
1782831957321067000,2.95306689453125,-0.10555537045001984,-0.3548039495944977,-0.22524861991405487
1782831957330996000,2.962995849609375,-0.1454109102487564,-0.1774957776069641,-0.12340592592954636
1782831957340925000,2.972925048828125,-0.16692791879177094,0.0960657149553299,0.0012603760696947575
1782831957350854000,2.98285400390625,-0.1756790280342102,0.39022189378738403,0.1083843782544136
1782831957360783000,2.992783203125,-0.15859323740005493,0.5801332592964172,0.16432754695415497
1782831957370712000,3.002712158203125,-0.12221978604793549,0.6552391052246094,0.17453233897686005
1782831957380641000,3.01264111328125,-0.08247876912355423,0.6812944412231445,0.17572861909866333
1782831957390569000,3.02256884765625,-0.04895275831222534,0.6649299263954163,0.1770935356616974
1782831957400498000,3.032497802734375,-0.021037768572568893,0.5532289147377014,0.170881450176239
1782831957410427100,3.04242724609375,-0.007614446803927422,0.37947478890419006,0.1408655345439911
1782831957420356000,3.052356201171875,-0.0014375122264027596,0.206211119890213,0.09452760219573975
1782831957430285000,3.06228515625,-0.01663532480597496,0.0670807957649231,0.042476147413253784
1782831957440214000,3.072214111328125,-0.05268333852291107,-0.041216909885406494,-0.000009790994226932526
1782831957450143000,3.08214306640625,-0.10993316769599915,-0.13068830966949463,-0.054070934653282166
1782831957460072000,3.092072021484375,-0.16742868721485138,-0.2004500776529312,-0.11970320343971252
1782831957470001000,3.1020009765625,-0.2246263474225998,-0.2610585391521454,-0.18823717534542084
1782831957479929900,3.111929931640625,-0.27444449067115784,-0.2997230887413025,-0.22793851792812347
1782831957489859000,3.121859130859375,-0.3085348904132843,-0.23398420214653015,-0.19465371966362
1782831957499788000,3.1317880859375,-0.33194196224212646,-0.07752668857574463,-0.12234862893819809
1782831957509717000,3.141717041015625,-0.34719333052635193,0.029673315584659576,-0.055457953363657
1782831957519646000,3.15164599609375,-0.3525841236114502,0.06489521265029907,-0.034567054361104965
1782831957529575200,3.1615751953125,-0.3499002456665039,0.06056150048971176,-0.04127103462815285
1782831957539504000,3.171504150390625,-0.35180601477622986,0.014463513158261776,-0.06764458864927292
1782831957549433000,3.18143310546875,-0.3610425889492035,-0.07754510641098022,-0.09668632596731186
1782831957559362000,3.191362060546875,-0.3618530035018921,-0.15415014326572418,-0.11171427369117737
1782831957569291000,3.201291015625,-0.3673105239868164,-0.2339828908443451,-0.13066287338733673
1782831957579220000,3.211219970703125,-0.3903476595878601,-0.3293783962726593,-0.14141805469989777
1782831957589149000,3.22114892578125,-0.4258792996406555,-0.3687380850315094,-0.13110193610191345
1782831957599078000,3.231077880859375,-0.47117939591407776,-0.3495156466960907,-0.11202386021614075
1782831957609007000,3.241007080078125,-0.5134631395339966,-0.28994762897491455,-0.09959601610898972
1782831957618936000,3.25093603515625,-0.5367210507392883,-0.2202303409576416,-0.10017046332359314
1782831957628865000,3.260864990234375,-0.5593211054801941,-0.1653679460287094,-0.1109597235918045
1782831957638794000,3.2707939453125,-0.5735242962837219,-0.09883473068475723,-0.11094507575035095
1782831957648723200,3.28072314453125,-0.5733915567398071,-0.030835038051009178,-0.10356796532869339
1782831957658652200,3.290652099609375,-0.5709283947944641,0.05268941447138786,-0.09161196649074554
1782831957668581000,3.3005810546875,-0.5778471231460571,0.09248325228691101,-0.11258324235677719
1782831957678509800,3.310509765625,-0.5847148299217224,0.0852852612733841,-0.19762037694454193
1782831957688438800,3.320438720703125,-0.578591525554657,0.0058224257081747055,-0.3308046758174896
1782831957698368000,3.330367919921875,-0.5806903839111328,-0.17244531214237213,-0.4645552635192871
1782831957708296000,3.3402958984375,-0.6160194277763367,-0.41301777958869934,-0.5679788589477539
1782831957718225000,3.350224853515625,-0.6723157167434692,-0.6884847283363342,-0.6210761666297913
1782831957728153900,3.36015380859375,-0.7148061394691467,-0.9518410563468933,-0.6279991269111633
1782831957738083000,3.3700830078125,-0.7000966668128967,-1.1478846073150635,-0.5614643096923828
1782831957748012000,3.380011962890625,-0.6213505268096924,-1.2276530265808105,-0.42167314887046814
1782831957757941000,3.38994091796875,-0.5123345255851746,-1.1953561305999756,-0.2019927054643631
1782831957767870000,3.399869873046875,-0.41172897815704346,-0.9847337603569031,0.05407439544796944
1782831957777799200,3.409799072265625,-0.37016183137893677,-0.6179727911949158,0.26500582695007324
1782831957787728100,3.41972802734375,-0.36497601866722107,-0.18129608035087585,0.35511863231658936
1782831957797657000,3.429656982421875,-0.37750670313835144,0.22587941586971283,0.3242533802986145
1782831957807586000,3.4395859375,-0.41945040225982666,0.5908774733543396,0.2238648533821106
1782831957817515000,3.449514892578125,-0.482399046421051,0.8616024255752563,0.12754018604755402
1782831957827444000,3.45944384765625,-0.535112738609314,0.9759827852249146,0.07320070266723633
1782831957837373000,3.469373046875,-0.5651497840881348,0.9501405358314514,0.09326522052288055
1782831957847302000,3.479302001953125,-0.5723304152488708,0.8404216766357422,0.1820506453514099
1782831957857229800,3.489229736328125,-0.564548134803772,0.6852957606315613,0.30347108840942383
1782831957867158500,3.499158447265625,-0.5309281349182129,0.5522992610931396,0.4200708270072937
1782831957877087700,3.509087646484375,-0.4819180369377136,0.4033680856227875,0.48341837525367737
1782831957887016700,3.5190166015625,-0.4256540536880493,0.21725305914878845,0.4908549189567566
1782831957896945700,3.528945556640625,-0.37155354022979736,0.043915633112192154,0.42807140946388245
1782831957906874600,3.53887451171875,-0.33195579051971436,-0.12562701106071472,0.2786078155040741
1782831957916803800,3.548803955078125,-0.3115367889404297,-0.3117167055606842,0.044554587453603745
1782831957926732800,3.55873291015625,-0.30493801832199097,-0.5412870645523071,-0.24564574658870697
1782831957936661800,3.568661865234375,-0.31637656688690186,-0.7913144826889038,-0.5265205502510071
1782831957946590700,3.5785908203125,-0.3324504494667053,-0.9861530065536499,-0.7600815892219543
1782831957956520000,3.58852001953125,-0.33689045906066895,-1.0812046527862549,-0.9142801761627197
1782831957966449000,3.598448974609375,-0.30654841661453247,-1.0665212869644165,-0.9617761969566345
1782831957976377600,3.608377685546875,-0.24130336940288544,-0.918103814125061,-0.8729131817817688
1782831957986306600,3.618306640625,-0.15987519919872284,-0.6406856775283813,-0.6741926670074463
1782831957996235800,3.62823583984375,-0.07722879201173782,-0.21929925680160522,-0.3931407630443573
1782831958006164700,3.638164794921875,-0.0055670952424407005,0.2572162449359894,-0.10094155371189117
1782831958016093700,3.64809375,0.029960807412862778,0.6707026362419128,0.11883500963449478
1782831958026022700,3.658022705078125,0.04774922877550125,0.9014706611633301,0.21823029220104218
1782831958035951900,3.667951904296875,0.03737621754407883,0.982702910900116,0.20453551411628723
1782831958045879800,3.6778798828125,0.019215084612369537,0.9736828804016113,0.11841858923435211
1782831958055808800,3.687808837890625,-0.005101973190903664,0.8801742792129517,0.002770016435533762
1782831958065737700,3.69773779296875,-0.021739132702350616,0.7367677092552185,-0.0996452122926712
1782831958075666700,3.707666748046875,-0.025766365230083466,0.5720599889755249,-0.17855440080165863
1782831958085596000,3.717595947265625,-0.011994794011116028,0.39087527990341187,-0.2077266126871109
1782831958095524900,3.72752490234375,0.018958594650030136,0.22615638375282288,-0.1936720460653305
1782831958105453800,3.737453857421875,0.07445470243692398,0.06556671857833862,-0.14096015691757202
1782831958115382800,3.7473828125,0.16674469411373138,-0.08843483030796051,-0.08320845663547516
1782831958125311700,3.757311767578125,0.2877243161201477,-0.22504585981369019,-0.03241300582885742
1782831958135240700,3.76724072265625,0.4094851016998291,-0.3518102169036865,0.005905888509005308
1782831958145169700,3.777169677734375,0.49854493141174316,-0.4915023446083069,0.041946977376937866
1782831958155098600,3.7870986328125,0.5537751913070679,-0.5681052207946777,0.08490963280200958
1782831958165027800,3.79702783203125,0.5827497839927673,-0.5994147658348083,0.11917901784181595
1782831958174956800,3.806956787109375,0.5991665720939636,-0.5736896991729736,0.13724112510681152
1782831958184885800,3.8168857421875,0.6096776127815247,-0.49185851216316223,0.12856855988502502
1782831958194814700,3.826814697265625,0.6289898157119751,-0.3691136837005615,0.09439752995967865
1782831958204744000,3.836743896484375,0.6471073627471924,-0.2298492044210434,0.04387352615594864
1782831958214673000,3.8466728515625,0.6637492179870605,-0.09821288287639618,-0.0034638941287994385
1782831958224601900,3.856601806640625,0.6776362657546997,0.04586382210254669,0.005790536757558584
1782831958234530600,3.866530517578125,0.6775007247924805,0.12483161687850952,0.061773911118507385
1782831958244459800,3.876459716796875,0.6885280013084412,0.13265374302864075,0.14968834817409515
1782831958254388700,3.886388671875,0.7157764434814453,0.11142488569021225,0.2583751380443573
1782831958264317700,3.896317626953125,0.7566326260566711,0.08423656970262527,0.3491084575653076
1782831958274246700,3.90624658203125,0.8187673687934875,0.04102039337158203,0.40477225184440613
1782831958284176000,3.91617578125,0.8879992365837097,-0.03636137396097183,0.399931937456131
1782831958294104800,3.926104736328125,0.9479238390922546,-0.14135703444480896,0.35331782698631287
1782831958304033800,3.93603369140625,0.9781757593154907,-0.26988694071769714,0.29118192195892334
1782831958313962800,3.945962646484375,0.9528842568397522,-0.36020269989967346,0.2379607856273651
1782831958323892000,3.95589208984375,0.890419602394104,-0.3989940285682678,0.19537091255187988
1782831958333821000,3.965821044921875,0.834298849105835,-0.45254912972450256,0.14157159626483917
1782831958343750000,3.97575,0.8035704493522644,-0.5283282399177551,0.06276483833789825
1782831958353678600,3.9856787109375,0.7755368947982788,-0.5634971857070923,0.00991147942841053
1782831958363607600,3.995607666015625,0.7309106588363647,-0.5511103272438049,0.0019160904921591282
1782831958373536800,4.005536865234375,0.6858595609664917,-0.511434018611908,0.06359037756919861
1782831958383465700,4.0154658203125,0.6606269478797913,-0.43351465463638306,0.17148295044898987
1782831958393394700,4.025394775390625,0.6531248092651367,-0.31942829489707947,0.27748340368270874
1782831958403323600,4.03532373046875,0.664572536945343,-0.15799450874328613,0.36043232679367065
1782831958413251800,4.045251953125,0.6921762228012085,0.020097726956009865,0.41280123591423035
1782831958423180800,4.055180908203125,0.7239775061607361,0.15033107995986938,0.42982131242752075
1782831958433109800,4.06510986328125,0.755585253238678,0.216898113489151,0.41622212529182434
1782831958443038700,4.075038818359375,0.7905089259147644,0.21330887079238892,0.3929539620876312
1782831958452967700,4.0849677734375,0.8198646903038025,0.1664486825466156,0.37805381417274475
1782831958462897000,4.09489697265625,0.8394798040390015,0.1514846533536911,0.36882907152175903
1782831958472825900,4.104825927734375,0.8229727149009705,0.1767503321170807,0.352538526058197
1782831958482754800,4.1147548828125,0.7959445714950562,0.22564086318016052,0.30607056617736816
1782831958492683800,4.124683837890625,0.7813647985458374,0.32962560653686523,0.23335537314414978
1782831958502612700,4.13461279296875,0.7660984396934509,0.44587627053260803,0.12491551786661148
1782831958512541700,4.144541748046875,0.7424578070640564,0.5065569281578064,-0.00794826727360487
1782831958522470700,4.154470703125,0.7290732860565186,0.5269685387611389,-0.13570550084114075
1782831958532399600,4.164399658203125,0.7062161564826965,0.5041473507881165,-0.2451379895210266
1782831958542328800,4.174328857421875,0.6639591455459595,0.4715118110179901,-0.3461706340312958
1782831958552257800,4.1842578125,0.6200753450393677,0.366133451461792,-0.45093780755996704
1782831958562186800,4.194186767578125,0.5883252024650574,0.17173904180526733,-0.5551261305809021
1782831958572115700,4.20411572265625,0.556607723236084,-0.11875751614570618,-0.6486973762512207
1782831958582045000,4.214044921875,0.5325286388397217,-0.4622279107570648,-0.7035564184188843
1782831958591974000,4.223973876953125,0.5144563913345337,-0.7657281160354614,-0.6948116421699524
1782831958601902800,4.23390283203125,0.5032601356506348,-0.9321385622024536,-0.626814067363739
1782831958611831600,4.24383154296875,0.5054604411125183,-0.9295880794525146,-0.4931364059448242
1782831958621760800,4.2537607421875,0.5378426313400269,-0.7540339231491089,-0.31509360671043396
1782831958631689700,4.263689697265625,0.5851569175720215,-0.44245579838752747,-0.13054239749908447
1782831958641618700,4.27361865234375,0.6338900923728943,-0.031199373304843903,0.008427353575825691
1782831958651547600,4.283547607421875,0.6696240901947021,0.3966124355792999,0.06399741023778915
1782831958661476900,4.293476806640625,0.6720052361488342,0.7577996850013733,0.027635933831334114
1782831958671405800,4.30340576171875,0.6319624781608582,1.005057692527771,-0.07812884449958801
1782831958681334800,4.313334716796875,0.567912757396698,1.1285731792449951,-0.20496989786624908
1782831958691263700,4.323263671875,0.4962178170681,1.1016968488693237,-0.3124779760837555
1782831958701193000,4.33319287109375,0.4259820282459259,0.9665213227272034,-0.37485069036483765
1782831958711122000,4.343121826171875,0.37504348158836365,0.791632354259491,-0.3615439534187317
1782831958721050600,4.353050537109375,0.3375607132911682,0.6058416366577148,-0.30454617738723755
1782831958730979600,4.3629794921875,0.3241479694843292,0.464168906211853,-0.20602303743362427
1782831958740908800,4.37290869140625,0.34436947107315063,0.38590219616889954,-0.1052645742893219
1782831958750837800,4.382837646484375,0.3792265057563782,0.3130793869495392,-0.04992036148905754
1782831958760766700,4.3927666015625,0.45504873991012573,0.24212495982646942,-0.051546525210142136
1782831958770695700,4.40269580078125,0.5494740605354309,0.18262514472007751,-0.06763654202222824
1782831958780625000,4.412625,0.6066778302192688,0.12626369297504425,-0.07941725850105286
1782831958790553900,4.422553955078125,0.6199877262115479,0.09023991227149963,-0.07759939134120941
1782831958800482800,4.43248291015625,0.6022087335586548,0.04635798931121826,-0.08757048100233078
1782831958810410800,4.44241064453125,0.5722684264183044,-0.032142944633960724,-0.11479704082012177
1782831958820339700,4.452339599609375,0.5383387207984924,-0.12944911420345306,-0.1465485394001007
1782831958830269000,4.46226904296875,0.5023690462112427,-0.21311365067958832,-0.1487421840429306
1782831958840198000,4.472197998046875,0.4671061635017395,-0.2748730480670929,-0.10290375351905823
1782831958850126800,4.482126953125,0.4409070312976837,-0.2671014070510864,-0.0036887521855533123
1782831958860057000,4.49205712890625,0.4278477728366852,-0.23582467436790466,0.09622557461261749
1782831958869986000,4.501986083984375,0.43165796995162964,-0.2051013857126236,0.1545701026916504
1782831958879915000,4.5119150390625,0.4432418942451477,-0.18561196327209473,0.15557342767715454
1782831958889844000,4.521843994140625,0.4591633379459381,-0.19744093716144562,0.12431217730045319
1782831958899773200,4.531773193359375,0.4691658616065979,-0.21092404425144196,0.09783617407083511
1782831958909702100,4.5417021484375,0.44238778948783875,-0.2300407439470291,0.08969941735267639
1782831958919631000,4.551631103515625,0.3894997835159302,-0.2762914001941681,0.11784465610980988
1782831958929560000,4.56156005859375,0.3253476917743683,-0.30471426248550415,0.17102904617786407
1782831958939489000,4.571489013671875,0.23982590436935425,-0.2888299524784088,0.22379149496555328
1782831958949418000,4.58141796875,0.1503777951002121,-0.22241605818271637,0.25248944759368896
1782831958959347000,4.591346923828125,0.06987522542476654,-0.1417587548494339,0.21880699694156647
1782831958969276000,4.60127587890625,0.022549254819750786,-0.0751618891954422,0.12405943870544434
1782831958979204900,4.611204833984375,-0.003320116549730301,-0.044175874441862106,-0.006110114045441151
1782831958989134000,4.621134033203125,-0.020658094435930252,-0.05835667625069618,-0.13993023335933685
1782831958999063000,4.63106298828125,-0.028639039024710655,-0.09568189084529877,-0.23225770890712738
1782831959008992000,4.640991943359375,-0.02433137781918049,-0.11391788721084595,-0.2557007372379303
1782831959018921000,4.6509208984375,-0.013959161937236786,-0.09036782383918762,-0.21126879751682281
1782831959028850200,4.66085009765625,0.030627479776740074,-0.044305525720119476,-0.1286540925502777
1782831959038779100,4.670779052734375,0.11006052047014236,0.03214716911315918,-0.032933417707681656
1782831959048707800,4.680707763671875,0.22143258154392242,0.10630396008491516,0.08828888088464737
1782831959058636800,4.69063671875,0.3497854173183441,0.15887793898582458,0.23510636389255524
1782831959068566000,4.70056591796875,0.47001275420188904,0.1723274439573288,0.3997451066970825
1782831959078495000,4.710494873046875,0.5620046257972717,0.12654240429401398,0.5598092079162598
1782831959088424000,4.720423828125,0.5988689064979553,0.08020233362913132,0.6864760518074036
1782831959098353000,4.730352783203125,0.5834824442863464,0.05406227335333824,0.742621898651123
1782831959108282000,4.7402822265625,0.5401173830032349,0.07301892340183258,0.7083739042282104
1782831959118211000,4.750211181640625,0.4900342524051666,0.15334799885749817,0.6228055357933044
1782831959128140000,4.76014013671875,0.4263596534729004,0.2717324495315552,0.5253064036369324
1782831959138069000,4.770069091796875,0.35765281319618225,0.4203081429004669,0.47152742743492126
1782831959147998200,4.779998291015625,0.2850358486175537,0.5473989844322205,0.44997021555900574
1782831959157927000,4.789927001953125,0.22351506352424622,0.638213038444519,0.45006129145622253
1782831959167855900,4.79985595703125,0.17931483685970306,0.7010787725448608,0.44224491715431213
1782831959177784800,4.809784912109375,0.14199650287628174,0.7263429164886475,0.40311259031295776
1782831959187714000,4.819714111328125,0.11360880732536316,0.7066829204559326,0.3079474866390228
1782831959197643000,4.82964306640625,0.09479322284460068,0.5964429974555969,0.16921590268611908
1782831959207572000,4.839572021484375,0.09167838841676712,0.3650614023208618,-0.012759748846292496
1782831959217501000,4.8495009765625,0.10659266263246536,0.07837625592947006,-0.20517776906490326
1782831959227428900,4.859428955078125,0.11703331768512726,-0.22589708864688873,-0.3827195167541504
1782831959237358000,4.869358154296875,0.11702287197113037,-0.49599775671958923,-0.5207913517951965
1782831959247287000,4.879287109375,0.134272962808609,-0.6854169368743896,-0.6223490834236145
1782831959257216000,4.889216064453125,0.15401974320411682,-0.7855699062347412,-0.6888105273246765
1782831959267145000,4.89914501953125,0.17445790767669678,-0.7877039313316345,-0.7290309071540833
1782831959277074200,4.90907421875,0.20149075984954834,-0.6878525018692017,-0.7102481126785278
1782831959287003100,4.919003173828125,0.24398015439510345,-0.41221585869789124,-0.6111769676208496
1782831959296932000,4.92893212890625,0.28698891401290894,-0.017292464151978493,-0.4512414038181305
1782831959306860800,4.93886083984375,0.32919466495513916,0.4079597592353821,-0.30948641896247864
1782831959316790000,4.9487900390625,0.388252317905426,0.7740375995635986,-0.23417799174785614
1782831959326719000,4.958718994140625,0.44262394309043884,1.019684076309204,-0.2337835729122162
1782831959336648000,4.96864794921875,0.4765353500843048,1.1735938787460327,-0.28017091751098633
1782831959346577000,4.978576904296875,0.49714046716690063,1.2126517295837402,-0.34445831179618835
1782831959356506000,4.988506103515625,0.5103344321250916,1.1460211277008057,-0.4033285081386566
1782831959366435000,4.99843505859375,0.5167081356048584,1.0078731775283813,-0.43988147377967834
1782831959376364000,5.008364013671875,0.5062363147735596,0.778043270111084,-0.45302698016166687
1782831959386293000,5.01829296875,0.4924027621746063,0.5231707692146301,-0.44267553091049194
1782831959396222200,5.02822216796875,0.47785088419914246,0.2684697210788727,-0.4209234416484833
1782831959406151200,5.038151123046875,0.47210270166397095,0.03274507820606232,-0.42098549008369446
1782831959416080000,5.048079833984375,0.4827600419521332,-0.13807521760463715,-0.4298688471317291
1782831959426008800,5.0580087890625,0.4944814145565033,-0.2368696928024292,-0.4412277638912201
1782831959435938000,5.06793798828125,0.48849084973335266,-0.28915759921073914,-0.45653942227363586
1782831959445867000,5.077866943359375,0.497284859418869,-0.29083937406539917,-0.481110543012619
1782831959455796000,5.0877958984375,0.5200190544128418,-0.27417081594467163,-0.4899720251560211
1782831959465725000,5.097724853515625,0.5340664386749268,-0.20575419068336487,-0.4695248305797577
1782831959475654100,5.107654052734375,0.539981484413147,-0.1465425044298172,-0.4190487563610077
1782831959485583000,5.1175830078125,0.5388100147247314,-0.11431719362735748,-0.35116422176361084
1782831959495512000,5.127511962890625,0.5428056120872498,-0.055026423186063766,-0.26163655519485474
1782831959505441000,5.13744091796875,0.5494956970214844,0.017626209184527397,-0.16681548953056335
1782831959515370000,5.147369873046875,0.5577593445777893,0.061597682535648346,-0.07660723477602005
1782831959525299200,5.15729931640625,0.5705867409706116,0.07255978137254715,-0.010330216027796268
1782831959535228000,5.167227783203125,0.5890668034553528,0.059323351830244064,0.028985021635890007
1782831959545156900,5.177156982421875,0.6108375787734985,0.015509825199842453,0.0465264655649662
1782831959555085800,5.1870859375,0.6314581632614136,-0.038144394755363464,0.05361014977097511
1782831959565015000,5.19701513671875,0.6354755163192749,-0.09124968945980072,0.062113095074892044
1782831959574944000,5.206944091796875,0.6189404129981995,-0.11194996535778046,0.057932477444410324
1782831959584873000,5.216873046875,0.5856381058692932,-0.12035436928272247,0.048548296093940735
1782831959594802000,5.226802001953125,0.5365608334541321,-0.11352544277906418,0.05708978325128555
1782831959604731100,5.236731201171875,0.4762386381626129,-0.04941650480031967,0.09864708036184311
1782831959614660000,5.24666015625,0.4098266363143921,0.0873560979962349,0.17437177896499634
1782831959624589000,5.256589111328125,0.35260143876075745,0.2265419363975525,0.23176290094852448
1782831959634518000,5.26651806640625,0.30597835779190063,0.35623234510421753,0.20568986237049103
1782831959644447000,5.276447021484375,0.2766665518283844,0.4799599051475525,0.09190444648265839
1782831959654376000,5.2863759765625,0.26248499751091003,0.5817883014678955,-0.07875773310661316
1782831959664304000,5.29630419921875,0.257403165102005,0.629482090473175,-0.2737801969051361
1782831959674232800,5.30623291015625,0.2631611227989197,0.5861027836799622,-0.4352310001850128
1782831959684161800,5.316161865234375,0.2907456159591675,0.467336505651474,-0.5355882048606873
1782831959694091000,5.326091064453125,0.324423611164093,0.3263565003871918,-0.5524846315383911
1782831959704020000,5.33602001953125,0.36744165420532227,0.19771598279476166,-0.4895334243774414
1782831959713949000,5.345948974609375,0.4241327941417694,0.11029578745365143,-0.3586053252220154
1782831959723878000,5.3558779296875,0.4870814085006714,0.09280946850776672,-0.18558108806610107
1782831959733807000,5.36580712890625,0.548832356929779,0.13729052245616913,-0.005837451200932264
1782831959743736000,5.375736083984375,0.6141653060913086,0.22103920578956604,0.14175653457641602
1782831959753665000,5.3856650390625,0.687251091003418,0.29566118121147156,0.2341008484363556
1782831959763594000,5.395593994140625,0.7735678553581238,0.328169584274292,0.2776283621788025
1782831959773523200,5.405523193359375,0.8639309406280518,0.3233271837234497,0.29994630813598633
1782831959783452200,5.4154521484375,0.9414017796516418,0.32682153582572937,0.3376747667789459
1782831959793380900,5.425380859375,0.9892286658287048,0.31083112955093384,0.4026475250720978
1782831959803309800,5.435309814453125,1.0043742656707764,0.29683223366737366,0.4695453345775604
1782831959813239000,5.445239013671875,0.9815469980239868,0.24455496668815613,0.5161336064338684
1782831959823168000,5.45516796875,0.9249825477600098,0.1567492038011551,0.5188229084014893
1782831959833097000,5.465096923828125,0.8721150755882263,0.09139151871204376,0.49839726090431213
1782831959843026000,5.47502587890625,0.8118111491203308,0.025936806574463844,0.4503679573535919
1782831959852955100,5.484955078125,0.7490047812461853,-0.06237427517771721,0.37719258666038513
1782831959862883800,5.4948837890625,0.6803389191627502,-0.1558365821838379,0.2846948802471161
1782831959872812800,5.504812744140625,0.5908955931663513,-0.2658478319644928,0.16995692253112793
1782831959882741800,5.51474169921875,0.4845885634422302,-0.34391626715660095,0.028961194679141045
1782831959892671000,5.5246708984375,0.3715309500694275,-0.41947367787361145,-0.13015466928482056
1782831959902600000,5.534599853515625,0.25234436988830566,-0.5094919800758362,-0.2729182243347168
1782831959912528600,5.544528564453125,0.1419866532087326,-0.6064576506614685,-0.37837499380111694
1782831959922457600,5.55445751953125,0.03894788771867752,-0.6731868386268616,-0.4281073808670044
1782831959932386800,5.56438671875,-0.038451001048088074,-0.6669759750366211,-0.4206099212169647
1782831959942315800,5.574315673828125,-0.07920615375041962,-0.6101808547973633,-0.35684558749198914
1782831959952244700,5.58424462890625,-0.1028909906744957,-0.48928940296173096,-0.23002883791923523
1782831959962173700,5.594173583984375,-0.11949101090431213,-0.26941537857055664,-0.05649273470044136
1782831959972103000,5.60410302734375,-0.12295686453580856,0.001287202350795269,0.10250259190797806
1782831959982032000,5.614031982421875,-0.11003600060939789,0.2600897550582886,0.18432821333408356
1782831959991960800,5.6239609375,-0.08743294328451157,0.46154165267944336,0.17094922065734863
1782831960001889800,5.633889892578125,-0.09133686870336533,0.5569299459457397,0.09826461970806122
1782831960011819000,5.643819091796875,-0.11986212432384491,0.5337603092193604,0.0233660526573658
1782831960021747700,5.653747802734375,-0.17897525429725647,0.450846791267395,-0.019549457356333733
1782831960031676700,5.6636767578125,-0.261746346950531,0.32115283608436584,-0.03614657744765282
1782831960041605600,5.673605712890625,-0.3363441526889801,0.16044756770133972,-0.03283147141337395
1782831960051534800,5.683534912109375,-0.3878840506076813,0.026460476219654083,-0.025470230728387833
1782831960061463800,5.6934638671875,-0.4224678575992584,-0.05528924614191055,-0.02009783498942852
1782831960071392800,5.703392822265625,-0.4224971532821655,-0.07404116541147232,-0.021205006167292595
1782831960081321700,5.71332177734375,-0.4189263880252838,-0.07926415652036667,-0.011317487806081772
1782831960091251000,5.7232509765625,-0.4258025586605072,-0.09250077605247498,0.02851105108857155
1782831960101180000,5.733179931640625,-0.4439008831977844,-0.05720217153429985,0.11544834822416306
1782831960111108900,5.74310888671875,-0.4670332372188568,-0.03933412581682205,0.20441140234470367
1782831960121036800,5.753036865234375,-0.4894280433654785,-0.06524588167667389,0.2598307132720947
1782831960130965800,5.7629658203125,-0.5023400783538818,-0.11093214899301529,0.2858346104621887
1782831960140895000,5.77289501953125,-0.5088110566139221,-0.15834572911262512,0.2840614914894104
1782831960150824000,5.782823974609375,-0.5289672613143921,-0.21868844330310822,0.2831598222255707
1782831960160753000,5.7927529296875,-0.5580157041549683,-0.24747295677661896,0.30830779671669006
1782831960170681600,5.802681640625,-0.5896146893501282,-0.2521381378173828,0.3320941925048828
1782831960180610800,5.81261083984375,-0.6227449774742126,-0.2863568365573883,0.31780552864074707
1782831960190539800,5.822539794921875,-0.6527218222618103,-0.29946470260620117,0.2784017026424408
1782831960200468700,5.83246875,-0.6928287744522095,-0.2961898148059845,0.2432897984981537
1782831960210397700,5.842397705078125,-0.7541804909706116,-0.26989129185676575,0.22539421916007996
1782831960220327000,5.852326904296875,-0.8194788098335266,-0.19834600389003754,0.22419339418411255
1782831960230255900,5.862255859375,-0.8817905783653259,-0.09584929794073105,0.21235521137714386
1782831960240184800,5.872184814453125,-0.9379614591598511,-0.019474100321531296,0.17343071103096008
1782831960250113800,5.88211376953125,-0.9998403787612915,0.030605465173721313,0.09443971514701843
1782831960260043000,5.89204296875,-1.0800083875656128,0.01842896267771721,-0.03223486989736557
1782831960269972000,5.901971923828125,-1.176252841949463,-0.055637650191783905,-0.19612890481948853
1782831960279900700,5.911900634765625,-1.2645856142044067,-0.14632093906402588,-0.36099350452423096
1782831960289829600,5.92182958984375,-1.3409874439239502,-0.21780166029930115,-0.48216986656188965
1782831960299758800,5.9317587890625,-1.3923931121826172,-0.23702409863471985,-0.5171211957931519
1782831960309687800,5.941687744140625,-1.4019267559051514,-0.19148215651512146,-0.45176684856414795
1782831960319616800,5.95161669921875,-1.3659991025924683,-0.11153510957956314,-0.30285245180130005
1782831960329545700,5.961545654296875,-1.2905418872833252,-0.015985406935214996,-0.10656557977199554
1782831960339475000,5.971474853515625,-1.1815941333770752,0.0837574303150177,0.11160510778427124
1782831960349404000,5.98140380859375,-1.0682811737060547,0.15729400515556335,0.2843935191631317
1782831960359332900,5.991332763671875,-0.9969449043273926,0.17588499188423157,0.3583196699619293
1782831960369261800,6.00126171875,-0.9601282477378845,0.14487239718437195,0.35128477215766907
1782831960379191000,6.01119091796875,-0.9701963663101196,0.11945280432701111,0.3016974925994873
1782831960389119700,6.02111962890625,-1.01668381690979,0.1477927565574646,0.26094502210617065
1782831960399048700,6.031048583984375,-1.0635138750076294,0.1950279176235199,0.24236148595809937
1782831960408977700,6.040977783203125,-1.0785233974456787,0.24141626060009003,0.26218491792678833
1782831960418906600,6.05090673828125,-1.0752346515655518,0.2979772388935089,0.31902530789375305
1782831960428835800,6.0608359375,-1.057021141052246,0.3349153995513916,0.39058297872543335
1782831960438764800,6.070764892578125,-1.0182604789733887,0.34808552265167236,0.4406554698944092
1782831960448693800,6.08069384765625,-0.9502086043357849,0.28652140498161316,0.457487553358078
1782831960458622700,6.090622802734375,-0.8809581995010376,0.14654166996479034,0.4569120705127716
1782831960468552000,6.100552001953125,-0.7983224391937256,-0.0481383353471756,0.42829132080078125
1782831960478481000,6.11048095703125,-0.7263851165771484,-0.26086872816085815,0.38113874197006226
1782831960488409900,6.120409912109375,-0.6710289716720581,-0.4560870826244354,0.3024762272834778
1782831960498338800,6.1303388671875,-0.6499199271202087,-0.5878883004188538,0.20991328358650208
1782831960508267800,6.140267822265625,-0.651637613773346,-0.65752774477005,0.09910006821155548
1782831960518196700,6.15019677734375,-0.6874158382415771,-0.6846792101860046,-0.012024320662021637
1782831960528125700,6.160125732421875,-0.7340417504310608,-0.6788156628608704,-0.06786736100912094
1782831960538054700,6.1700546875,-0.7863571643829346,-0.5669567584991455,-0.0716882050037384
1782831960547984000,6.17998388671875,-0.8228452801704407,-0.4485040009021759,-0.038115493953228
1782831960557912800,6.189912841796875,-0.8289691805839539,-0.3311416804790497,0.008334293961524963
1782831960567841800,6.199841796875,-0.792078971862793,-0.21368514001369476,0.0523381307721138
1782831960577770800,6.209770751953125,-0.7278310060501099,-0.12243538349866867,0.07991275936365128
1782831960587700000,6.219699951171875,-0.6590890884399414,-0.028532058000564575,0.0914112776517868
1782831960597629000,6.22962890625,-0.5928996801376343,0.04874568432569504,0.07971706986427307
1782831960607558000,6.239557861328125,-0.5241547226905823,0.07751458138227463,0.05057208612561226
1782831960617486600,6.249486572265625,-0.46461787819862366,0.03535434231162071,0.01333709992468357
1782831960627414800,6.259414794921875,-0.415699303150177,-0.043527018278837204,0.006401189137250185
1782831960637344000,6.269343994140625,-0.39508989453315735,-0.16591337323188782,0.0219322107732296
1782831960647272700,6.279272705078125,-0.4010322690010071,-0.2963075637817383,0.06281398981809616
1782831960657201700,6.28920166015625,-0.42011675238609314,-0.39333879947662354,0.11178472638130188
1782831960667130600,6.299130615234375,-0.45027634501457214,-0.4797727167606354,0.1500377058982849
1782831960677059800,6.309059814453125,-0.47433480620384216,-0.5117192268371582,0.18180148303508759
1782831960686988800,6.31898876953125,-0.49242883920669556,-0.45396876335144043,0.19996164739131927
1782831960696917800,6.328917724609375,-0.5065486431121826,-0.38956207036972046,0.1836116909980774
1782831960706846700,6.3388466796875,-0.5118318796157837,-0.3122415840625763,0.12233739346265793
1782831960716776000,6.34877587890625,-0.5088291764259338,-0.21883121132850647,0.044998135417699814
1782831960726705000,6.358704833984375,-0.5048923492431641,-0.11544821411371231,-0.02691631391644478
1782831960736633900,6.3686337890625,-0.5007801651954651,0.0017625615000724792,-0.05725611001253128
1782831960746562800,6.378562744140625,-0.49504396319389343,0.11333724111318588,-0.055933110415935516
1782831960756491800,6.38849169921875,-0.4870092272758484,0.18671612441539764,-0.03788886219263077
1782831960766420700,6.398420654296875,-0.4901464581489563,0.20196613669395447,-0.0376734659075737
1782831960776349700,6.408349609375,-0.5014893412590027,0.15596002340316772,-0.04994797706604004
1782831960786278700,6.418278564453125,-0.5250107049942017,0.08285275846719742,-0.04960567504167557
1782831960796207900,6.428207763671875,-0.5508854389190674,-0.0068281288258731365,-0.02000863291323185
1782831960806136800,6.43813671875,-0.56818026304245,-0.06608197093009949,0.04362628608942032
1782831960816065800,6.448065673828125,-0.5688287615776062,-0.05423996224999428,0.11709889769554138
1782831960825994800,6.457994873046875,-0.5433187484741211,-0.01323719322681427,0.16072988510131836
1782831960835924000,6.467924072265625,-0.4882113039493561,0.04590202867984772,0.16412729024887085
1782831960845853000,6.47785302734375,-0.4044298529624939,0.08844362944364548,0.11699891835451126
1782831960855782000,6.487781982421875,-0.3161007761955261,0.08685052394866943,0.03619435429573059
1782831960865714700,6.497714599609375,-0.23856434226036072,0.06100163608789444,-0.030963586643338203
1782831960875643600,6.5076435546875,-0.20095597207546234,0.05585933476686478,-0.048730868846178055
1782831960885572600,6.517572509765625,-0.18061210215091705,0.07008479535579681,-0.010780120268464088
1782831960895501800,6.527501708984375,-0.17213474214076996,0.10796985775232315,0.05925782397389412
1782831960905430800,6.5374306640625,-0.16689075529575348,0.11457381397485733,0.11736063659191132
1782831960915359700,6.54735986328125,-0.1436392217874527,0.12426718324422836,0.13143225014209747
1782831960925288700,6.557288818359375,-0.09951607137918472,0.1291399598121643,0.09936226159334183
1782831960935218000,6.567218017578125,-0.06379961967468262,0.1212514117360115,0.0339030958712101
1782831960945147000,6.57714697265625,-0.05381542071700096,0.0816102996468544,-0.03705292195081711
1782831960955075800,6.587075927734375,-0.06305766105651855,0.014231523498892784,-0.09098219871520996
1782831960965004800,6.5970048828125,-0.08991905301809311,-0.037332192063331604,-0.1304447501897812
1782831960974933800,6.606933837890625,-0.11327230930328369,-0.08232203871011734,-0.1719977855682373
1782831960984862700,6.61686279296875,-0.11492209881544113,-0.13257499039173126,-0.21937105059623718
1782831960994791700,6.626791748046875,-0.09873247891664505,-0.1691947877407074,-0.250049352645874
1782831961004720600,6.636720703125,-0.07727407664060593,-0.16507145762443542,-0.25164687633514404
1782831961014649900,6.64664990234375,-0.06739561259746552,-0.1291520744562149,-0.199175164103508
1782831961024578800,6.656578857421875,-0.06403803825378418,-0.06368213891983032,-0.12978658080101013
1782831961034507800,6.6665078125,-0.056788913905620575,0.03718055412173271,-0.0430263914167881
1782831961044436700,6.676436767578125,-0.0457247793674469,0.14805975556373596,0.04412965103983879
1782831961054366000,6.686365966796875,-0.03590863570570946,0.2423846572637558,0.13324275612831116
1782831961064295000,6.696294921875,-0.03693045675754547,0.3047834038734436,0.20150433480739594
1782831961074223900,6.706223876953125,-0.025532128289341927,0.3263038992881775,0.2552730441093445
1782831961084152600,6.716152587890625,-0.012417657300829887,0.3017652630805969,0.29015833139419556
1782831961094081800,6.726081787109375,-0.006688399240374565,0.2753083407878876,0.3172985911369324
1782831961104010800,6.7360107421875,0.002105358988046646,0.23444560170173645,0.31365859508514404
1782831961113939700,6.745939697265625,0.02679765596985817,0.14524754881858826,0.2728853225708008
1782831961123868700,6.75586865234375,0.07337139546871185,0.009612561203539371,0.21733443439006805
1782831961133797600,6.765797607421875,0.1396327167749405,-0.1252717524766922,0.17120660841464996
1782831961143726800,6.775726806640625,0.18948708474636078,-0.2518264651298523,0.1407271921634674
1782831961153655800,6.78565576171875,0.21033059060573578,-0.35792359709739685,0.10902518033981323
1782831961163584800,6.795584716796875,0.1848532110452652,-0.42569220066070557,0.07273847609758377
1782831961173512700,6.8055126953125,0.1197487860918045,-0.41530853509902954,0.03408961743116379
1782831961183443000,6.81544287109375,0.006576926913112402,-0.3793066442012787,-0.014545762911438942
1782831961193371000,6.825370849609375,-0.11652529239654541,-0.35339170694351196,-0.07475318014621735
1782831961203299800,6.8352998046875,-0.21545986831188202,-0.3335586190223694,-0.15022476017475128
1782831961213228800,6.845228759765625,-0.28260481357574463,-0.32259252667427063,-0.20774370431900024
1782831961223157800,6.85515771484375,-0.324177086353302,-0.28063347935676575,-0.22861893475055695
1782831961233086700,6.865086669921875,-0.34191080927848816,-0.20860935747623444,-0.22193865478038788
1782831961243015700,6.875015625,-0.3281294107437134,-0.10838679224252701,-0.19476911425590515
1782831961252944600,6.884944580078125,-0.28738757967948914,0.010355042293667793,-0.15311461687088013
1782831961262873600,6.89487353515625,-0.2331964075565338,0.1299273520708084,-0.11760345846414566
1782831961272802800,6.904802734375,-0.1768742799758911,0.21582575142383575,-0.09845399856567383
1782831961282731800,6.914731689453125,-0.14245979487895966,0.21377578377723694,-0.075709767639637
1782831961292660700,6.92466064453125,-0.1416214406490326,0.1479344666004181,-0.057243142277002335
1782831961302589700,6.934589599609375,-0.1648869514465332,0.051638927310705185,-0.028850344941020012
1782831961312519000,6.944518798828125,-0.20216694474220276,-0.041570380330085754,-0.008265440352261066
1782831961322448000,6.95444775390625,-0.24653466045856476,-0.09520932286977768,-0.005372528452426195
1782831961332376800,6.964376953125,-0.28223326802253723,-0.11953862756490707,-0.011318568140268326
1782831961342305500,6.974305419921875,-0.3181116282939911,-0.13605555891990662,-0.039141010493040085
1782831961352234800,6.98423486328125,-0.3498959243297577,-0.1744876354932785,-0.08416600525379181
1782831961362163700,6.994163818359375,-0.3794834017753601,-0.19405415654182434,-0.1257840245962143
1782831961372092700,7.0040927734375,-0.40595921874046326,-0.18610328435897827,-0.154550701379776
1782831961382021600,7.014021728515625,-0.4172361195087433,-0.1715421825647354,-0.16079966723918915
1782831961391950800,7.023950927734375,-0.41151297092437744,-0.13469041883945465,-0.13644105195999146
1782831961401879800,7.0338798828125,-0.3936760425567627,-0.0953565314412117,-0.08851416409015656
1782831961411808800,7.043808837890625,-0.380950391292572,-0.06904157251119614,-0.026829227805137634
1782831961421737700,7.05373779296875,-0.37983083724975586,-0.07410300523042679,0.02942115068435669
1782831961431667000,7.0636669921875,-0.39105233550071716,-0.10103688389062881,0.08330168575048447
1782831961441596000,7.073595947265625,-0.4202682375907898,-0.13476647436618805,0.12646716833114624
1782831961451524600,7.083524658203125,-0.4602590799331665,-0.14467822015285492,0.15999476611614227
1782831961461453600,7.09345361328125,-0.49601078033447266,-0.1618669182062149,0.15037858486175537
1782831961471382800,7.1033828125,-0.5275481939315796,-0.1978882998228073,0.10895179212093353
1782831961481311700,7.113311767578125,-0.562255322933197,-0.2684391140937805,0.038272611796855927
1782831961491240700,7.12324072265625,-0.6006559729576111,-0.3459189832210541,-0.03603730350732803
1782831961501169700,7.133169677734375,-0.6302870512008667,-0.39500290155410767,-0.10549154877662659
1782831961511099000,7.143098876953125,-0.6523827314376831,-0.3950718641281128,-0.13653868436813354
1782831961521027800,7.15302783203125,-0.6736127734184265,-0.3466123938560486,-0.14389914274215698
1782831961530956800,7.162956787109375,-0.6961588263511658,-0.3167213201522827,-0.1253741979598999
1782831961540885800,7.1728857421875,-0.7052212357521057,-0.2987980544567108,-0.1004565954208374
1782831961550815000,7.18281494140625,-0.6995729207992554,-0.29048633575439453,-0.07971882075071335
1782831961560744000,7.192743896484375,-0.6884372234344482,-0.2757730484008789,-0.056516584008932114
1782831961570672600,7.202672607421875,-0.6850440502166748,-0.23330947756767273,-0.024447597563266754
1782831961580601600,7.2126015625,-0.6823341846466064,-0.1805577427148819,0.010111618787050247
1782831961590530800,7.22253076171875,-0.6749833226203918,-0.1278521865606308,0.030193718150258064
1782831961600459800,7.232459716796875,-0.6590613722801208,-0.0610063336789608,0.056786246597766876
1782831961610388700,7.242388671875,-0.660905122756958,0.04534380882978439,0.09517598152160645
1782831961620317700,7.252317626953125,-0.6988335847854614,0.13889138400554657,0.10555198043584824
1782831961630247000,7.262246826171875,-0.7464959025382996,0.16913290321826935,0.04215250164270401
1782831961640175900,7.27217578125,-0.7692477107048035,0.12467070668935776,-0.10125581175088882
1782831961650104800,7.282104736328125,-0.7839456796646118,0.03472030907869339,-0.2610771656036377
1782831961660033800,7.29203369140625,-0.824288547039032,-0.06667101383209229,-0.37605801224708557
1782831961669962800,7.301962646484375,-0.894679844379425,-0.2061852365732193,-0.4361754059791565
1782831961679891700,7.3118916015625,-0.9672147035598755,-0.33213067054748535,-0.43602678179740906
1782831961689820700,7.321820556640625,-1.0202901363372803,-0.3968699872493744,-0.3853878378868103
1782831961699749600,7.33174951171875,-1.041998267173767,-0.3897523283958435,-0.29414528608322144
1782831961709678600,7.3416787109375,-1.0471982955932617,-0.3060811161994934,-0.1710619479417801
1782831961719607800,7.35160791015625,-1.046751618385315,-0.14122599363327026,-0.05452590808272362
1782831961729536800,7.361536865234375,-1.0438727140426636,0.07504637539386749,0.01918240264058113
1782831961739465700,7.3714658203125,-1.036117672920227,0.2924244701862335,0.048711199313402176
1782831961749394700,7.381394775390625,-1.0422708988189697,0.4888229966163635,0.06848170608282089
1782831961759324000,7.391323974609375,-1.0552759170532227,0.6532449126243591,0.0863613411784172
1782831961769252900,7.4012529296875,-1.0693578720092773,0.7444741725921631,0.10268118977546692
1782831961779181800,7.411181884765625,-1.0726436376571655,0.737415611743927,0.12832485139369965
1782831961789110800,7.42111083984375,-1.046154260635376,0.6464300751686096,0.1791909635066986
1782831961799039700,7.431039794921875,-1.0059794187545776,0.5172012448310852,0.2611084580421448
1782831961808968000,7.440968017578125,-0.9663130044937134,0.3710096478462219,0.35963237285614014
1782831961818897000,7.45089697265625,-0.9178813695907593,0.2411247342824936,0.4347754120826721
1782831961828826600,7.46082666015625,-0.8715143799781799,0.10716482251882553,0.4674856960773468
1782831961838754600,7.470754638671875,-0.8396829962730408,-0.043204229325056076,0.4654422104358673
1782831961848683800,7.480683837890625,-0.8487095236778259,-0.17991626262664795,0.4353463351726532
1782831961858608000,7.490608154296875,-0.8776805400848389,-0.3277547061443329,0.36203524470329285
1782831961868537000,7.500537109375,-0.9091484546661377,-0.4763750731945038,0.25294390320777893
1782831961878466000,7.510466064453125,-0.9521307945251465,-0.6044093370437622,0.11022216081619263
1782831961888395000,7.52039501953125,-1.0046336650848389,-0.684735894203186,-0.039087966084480286
1782831961898324200,7.53032421875,-1.0492550134658813,-0.6539878845214844,-0.17292222380638123
1782831961908253200,7.540253173828125,-1.082744836807251,-0.5173531174659729,-0.27937862277030945
1782831961918182100,7.55018212890625,-1.0929099321365356,-0.3105722665786743,-0.3572603464126587
1782831961928111000,7.560111083984375,-1.0480769872665405,-0.07670596987009048,-0.38388901948928833
1782831961938040300,7.570040283203125,-0.9547103643417358,0.15498429536819458,-0.3497077226638794
1782831961947969300,7.57996923828125,-0.8172760605812073,0.3651263415813446,-0.25974082946777344
1782831961957898200,7.589898193359375,-0.6618956327438354,0.5159552097320557,-0.13372105360031128
1782831961967827200,7.5998271484375,-0.5115058422088623,0.5839374661445618,-0.007944740355014801
1782831961977756200,7.609756103515625,-0.38743534684181213,0.530282735824585,0.10034007579088211
1782831961987685000,7.61968505859375,-0.3139989674091339,0.36689457297325134,0.18314974009990692
1782831961997614000,7.629614013671875,-0.29709458351135254,0.1665986180305481,0.24682389199733734
1782831962007543000,7.63954296875,-0.3318547010421753,-0.021832548081874847,0.2718837261199951
1782831962017472300,7.64947216796875,-0.40920546650886536,-0.2014392912387848,0.23680560290813446
1782831962027401200,7.659401123046875,-0.47138363122940063,-0.33050885796546936,0.159264475107193
1782831962037330200,7.669330078125,-0.4934143126010895,-0.38910311460494995,0.05433241277933121
1782831962047259100,7.679259033203125,-0.49068620800971985,-0.37052249908447266,-0.035897884517908096
1782831962057188400,7.689188232421875,-0.46889594197273254,-0.29131555557250977,-0.10960628092288971
1782831962067117300,7.699117431640625,-0.4452265501022339,-0.21878115832805634,-0.1561218649148941
1782831962077046300,7.70904638671875,-0.4189780652523041,-0.1444636732339859,-0.16175998747348785
1782831962086975000,7.71897509765625,-0.39722776412963867,-0.06419172883033752,-0.13113710284233093
1782831962096904200,7.728904296875,-0.35749995708465576,-0.03013496845960617,-0.07426498085260391
1782831962106833200,7.738833251953125,-0.2947700023651123,-0.03938838839530945,-0.0074159069918096066
1782831962116762000,7.74876220703125,-0.21220222115516663,-0.059526022523641586,0.06952691078186035
1782831962126691000,7.758691162109375,-0.1076212003827095,-0.07107774913311005,0.15331421792507172
1782831962136620300,7.768620361328125,-0.007439013570547104,-0.10766687989234924,0.23696517944335938
1782831962146549200,7.77854931640625,0.07060226052999496,-0.13327689468860626,0.3022381663322449
1782831962156478200,7.788478271484375,0.11982500553131104,-0.14430560171604156,0.3231843411922455
1782831962166407200,7.7984072265625,0.15771593153476715,-0.13971804082393646,0.3172859847545624
1782831962176336400,7.80833642578125,0.19769856333732605,-0.10874693095684052,0.309721976518631
1782831962186265300,7.818265380859375,0.23998689651489258,-0.0508229099214077,0.3196728825569153
1782831962196194000,7.828194091796875,0.29693281650543213,0.012393573299050331,0.3533870577812195
1782831962206123000,7.838123046875,0.34340789914131165,0.07980962842702866,0.4034550189971924
1782831962216052200,7.84805224609375,0.3641812801361084,0.12837101519107819,0.4473743140697479
1782831962225981200,7.857981201171875,0.37454894185066223,0.12946531176567078,0.4295801520347595
1782831962235910100,7.86791015625,0.37889572978019714,0.09971775859594345,0.3490961790084839
1782831962245839000,7.877839111328125,0.3723030686378479,0.06394271552562714,0.22242531180381775
1782831962255768000,7.88776806640625,0.3601183295249939,0.04007634148001671,0.06688815355300903
1782831962265697300,7.897697265625,0.34234973788261414,-0.02658577263355255,-0.11902286112308502
1782831962275626200,7.907626220703125,0.32648277282714844,-0.16008983552455902,-0.31269964575767517
1782831962285555200,7.91755517578125,0.32472774386405945,-0.3258175551891327,-0.46192747354507446
1782831962295484200,7.927484130859375,0.3325498104095459,-0.4788806140422821,-0.5155744552612305
1782831962305413000,7.9374130859375,0.3382447063922882,-0.5684635043144226,-0.48509854078292847
1782831962315342000,7.947342041015625,0.37716343998908997,-0.5964738130569458,-0.3816133737564087
1782831962325271000,7.95727099609375,0.4545977711677551,-0.4788241684436798,-0.2188258022069931
1782831962335200000,7.967199951171875,0.5466325879096985,-0.22826619446277618,-0.023913782089948654
1782831962345129200,7.977129150390625,0.6474380493164062,0.062173888087272644,0.14837968349456787
1782831962355058200,7.98705810546875,0.7516718506813049,0.30025777220726013,0.24856005609035492
1782831962364987100,7.996987060546875,0.8188535571098328,0.4148874282836914,0.2524714171886444
1782831962374916000,8.006916015625,0.8342716693878174,0.4544665217399597,0.21061240136623383
1782831962384845300,8.01684521484375,0.8125578165054321,0.44939345121383667,0.17545227706432343
1782831962394774300,8.026774169921875,0.762336790561676,0.43580472469329834,0.16380900144577026
1782831962404703200,8.036703125,0.7109750509262085,0.409895122051239,0.17222006618976593
1782831962414632200,8.046632080078124,0.6856207251548767,0.3883489668369293,0.19265510141849518
1782831962424561200,8.05656103515625,0.7015003561973572,0.39168882369995117,0.21999698877334595
1782831962434490000,8.066489990234375,0.7392982840538025,0.411929190158844,0.24651692807674408
1782831962444419000,8.076419189453125,0.7858911156654358,0.42689722776412964,0.2654469311237335
1782831962454348000,8.08634814453125,0.8252159953117371,0.4079495370388031,0.2681731879711151
1782831962464277200,8.09627734375,0.8271923661231995,0.327678918838501,0.24598796665668488
1782831962474206200,8.106206298828125,0.8104779720306396,0.23841194808483124,0.1877005696296692
1782831962484135200,8.11613525390625,0.7675148248672485,0.12047704309225082,0.10140135884284973
1782831962494064000,8.126064208984374,0.7210748195648193,-0.013297281228005886,-0.013909715227782726
1782831962503993300,8.135993408203126,0.6668304800987244,-0.15251855552196503,-0.12432011216878891
1782831962513922300,8.14592236328125,0.6057149171829224,-0.2721932828426361,-0.21022862195968628
1782831962523851300,8.155851318359375,0.5573961138725281,-0.33897870779037476,-0.24707718193531036
1782831962533779200,8.165779296875,0.5277090668678284,-0.3857647776603699,-0.23122486472129822
1782831962543708200,8.175708251953125,0.5161579251289368,-0.41545313596725464,-0.16073206067085266
1782831962553637400,8.185637451171875,0.5207240581512451,-0.37993183732032776,-0.04687874764204025
1782831962563566000,8.195566162109374,0.5409595370292664,-0.29423582553863525,0.08610539883375168
1782831962573495000,8.2054951171875,0.57999587059021,-0.1901872158050537,0.20510143041610718
1782831962583424000,8.215424072265625,0.6068320274353027,-0.06427056342363358,0.277072012424469
1782831962593353200,8.225353271484375,0.6110535860061646,0.05811377987265587,0.30205199122428894
1782831962603282200,8.2352822265625,0.580143928527832,0.1737722009420395,0.28298667073249817
1782831962613211100,8.245211181640625,0.524993896484375,0.2703075110912323,0.23138318955898285
1782831962623140000,8.25514013671875,0.4632303714752197,0.32701659202575684,0.15201620757579803
1782831962633069300,8.2650693359375,0.4013765752315521,0.3752348721027374,0.06598889082670212
1782831962642998300,8.274998291015624,0.3399622142314911,0.4086202383041382,-0.02546991966664791
1782831962652927200,8.28492724609375,0.29756680130958557,0.42852020263671875,-0.12093213945627213
1782831962662856200,8.294856201171875,0.27813613414764404,0.42587512731552124,-0.19904370605945587
1782831962672785400,8.304785400390625,0.27522483468055725,0.39191555976867676,-0.24415507912635803
1782831962682714000,8.314714111328126,0.2749612033367157,0.31873083114624023,-0.2592562735080719
1782831962692643000,8.32464306640625,0.27837803959846497,0.20323090255260468,-0.2467224895954132
1782831962702572000,8.334572021484375,0.28416508436203003,0.06820277124643326,-0.21912680566310883
1782831962712501200,8.344501220703124,0.3090808093547821,-0.07096685469150543,-0.18773120641708374
1782831962722430200,8.35443017578125,0.3451823592185974,-0.19101017713546753,-0.1441645622253418
1782831962732359200,8.364359130859375,0.38275718688964844,-0.24503597617149353,-0.0918833464384079
1782831962742288100,8.3742880859375,0.4037333130836487,-0.2493673413991928,-0.04718111827969551
1782831962752217300,8.38421728515625,0.4050391912460327,-0.24583302438259125,-0.04270334914326668
1782831962762146300,8.394146240234376,0.41071170568466187,-0.19219377636909485,-0.07540243864059448
1782831962772075300,8.4040751953125,0.40028947591781616,-0.11873514205217361,-0.12165805697441101
1782831962782004200,8.414004150390625,0.3659088611602783,-0.06490679830312729,-0.17357851564884186
1782831962791933200,8.42393310546875,0.3205229640007019,-0.034066010266542435,-0.21710164844989777
1782831962801862100,8.433862060546875,0.2645803391933441,-0.032490748912096024,-0.22606265544891357
1782831962811791000,8.443791015625,0.20760536193847656,-0.05700215324759483,-0.20572201907634735
1782831962821720000,8.453719970703125,0.17368069291114807,-0.050259560346603394,-0.17874179780483246
1782831962831649000,8.46364892578125,0.1646369844675064,-0.021727634593844414,-0.13614511489868164
1782831962841578200,8.473578125,0.16872814297676086,-0.008070412091910839,-0.0975191667675972
1782831962851507200,8.483507080078125,0.1746472716331482,-0.006782271433621645,-0.05662064999341965
1782831962861437000,8.49343701171875,0.18917295336723328,0.012956012971699238,-0.027309099212288857
1782831962871366100,8.5033662109375,0.18373407423496246,0.011395132169127464,-0.02599530853331089
1782831962881294800,8.513294921875,0.17264333367347717,0.012519251555204391,-0.05000663548707962
1782831962891223800,8.523223876953125,0.16258566081523895,-0.006379287224262953,-0.09305045008659363
1782831962901152800,8.53315283203125,0.14663678407669067,-0.05600862205028534,-0.13683255016803741
1782831962911082000,8.54308203125,0.12976112961769104,-0.10129647701978683,-0.15302883088588715
1782831962921011000,8.553010986328125,0.1132974699139595,-0.14103803038597107,-0.14401669800281525
1782831962930940000,8.56293994140625,0.09799936413764954,-0.1509445309638977,-0.1347976177930832
1782831962940868900,8.572868896484374,0.09536176919937134,-0.14708666503429413,-0.13082391023635864
1782831962950798000,8.582798095703126,0.08757255226373672,-0.11744413524866104,-0.13194626569747925
1782831962960727000,8.59272705078125,0.0774030089378357,-0.05714617669582367,-0.09927006810903549
1782831962970656000,8.602656005859375,0.07276444137096405,0.03314391151070595,-0.04354507103562355
1782831962980585000,8.6125849609375,0.08116564899682999,0.10930339246988297,0.003444008994847536
1782831962990514000,8.622513916015626,0.07570088654756546,0.12960536777973175,0.00852898508310318
1782831963000443000,8.63244287109375,0.062011972069740295,0.09190511703491211,-0.01939798705279827
1782831963010371800,8.642371826171875,0.05580535903573036,0.034370601177215576,-0.0619623027741909
1782831963020300800,8.65230078125,0.05923790857195854,-0.07893039286136627,-0.1045699492096901
1782831963030230000,8.66222998046875,0.06479557603597641,-0.20683272182941437,-0.15636959671974182
1782831963040159000,8.672158935546875,0.05184648185968399,-0.3531869947910309,-0.23322390019893646
1782831963050088000,8.682087890625,0.023310624063014984,-0.5082510709762573,-0.31598275899887085
1782831963060017000,8.692016845703124,-0.018858933821320534,-0.6348659992218018,-0.353476345539093
1782831963069945900,8.70194580078125,-0.05638357624411583,-0.6698154807090759,-0.31879690289497375
1782831963079875000,8.711875,-0.09595522284507751,-0.5993919372558594,-0.2067478448152542
1782831963089804000,8.721803955078125,-0.10808570683002472,-0.46998026967048645,-0.053640324622392654
1782831963099733000,8.73173291015625,-0.08637481927871704,-0.29319483041763306,0.12558509409427643
1782831963109661700,8.74166162109375,-0.055340927094221115,-0.12684690952301025,0.28799864649772644
1782831963119591000,8.7515908203125,-0.03785727173089981,-0.03174782544374466,0.3644835650920868
1782831963129519900,8.761519775390624,-0.03166144713759422,0.004349884577095509,0.3285174071788788
1782831963139448800,8.77144873046875,-0.034557636827230453,0.05497577413916588,0.21470218896865845
1782831963149377800,8.781377685546875,-0.052213504910469055,0.09743033349514008,0.07807493209838867
1782831963159307000,8.79130712890625,-0.0841812938451767,0.12342464923858643,-0.01322329230606556
1782831963169236000,8.801236083984374,-0.1376458704471588,0.15909604728221893,-0.024712756276130676
1782831963179165000,8.8111650390625,-0.19101482629776,0.2387666404247284,0.030728928744792938
1782831963189094000,8.821093994140625,-0.2143595814704895,0.34308871626853943,0.12321726232767105
1782831963199023000,8.831023193359375,-0.21648503839969635,0.4023752212524414,0.21774961054325104
1782831963208952000,8.8409521484375,-0.19501423835754395,0.43034040927886963,0.2938811779022217
1782831963218880800,8.850880859375,-0.15578746795654297,0.4206472933292389,0.31338751316070557
1782831963228809700,8.860809814453125,-0.12272799760103226,0.3679429292678833,0.28424203395843506
1782831963238739000,8.870739013671875,-0.09537386894226074,0.2665015459060669,0.23002062737941742
1782831963248668000,8.88066796875,-0.11818938702344894,0.12203057110309601,0.19418840110301971
1782831963258596900,8.890596923828125,-0.18855729699134827,-0.04880961403250694,0.13096655905246735
1782831963268525800,8.90052587890625,-0.25962740182876587,-0.2144862860441208,0.03918398916721344
1782831963278455000,8.910455078125,-0.3156443238258362,-0.33958134055137634,-0.06231893226504326
1782831963288384000,8.920384033203124,-0.36271506547927856,-0.3846004903316498,-0.16624769568443298
1782831963298313000,8.93031298828125,-0.38861724734306335,-0.3832255005836487,-0.23633331060409546
1782831963308242000,8.940241943359375,-0.41419681906700134,-0.3244291841983795,-0.2784396708011627
1782831963318171100,8.950171142578125,-0.4531221091747284,-0.22078533470630646,-0.30983808636665344
1782831963328099800,8.960099853515626,-0.4951012134552002,-0.11630383878946304,-0.31349900364875793
1782831963338028800,8.97002880859375,-0.5135118961334229,-0.020161064341664314,-0.2940598130226135
1782831963347957800,8.979957763671875,-0.4970565736293793,0.0790896937251091,-0.2320488840341568
1782831963357887000,8.989886962890624,-0.4390648901462555,0.17283615469932556,-0.13843877613544464
1782831963367816000,8.99981591796875,-0.3513167202472687,0.24674372375011444,-0.042707957327365875
1782831963377745000,9.009744873046875,-0.22772395610809326,0.2972828149795532,0.047303956001996994
1782831963387673900,9.019673828125,-0.10901486873626709,0.31353747844696045,0.10651398450136185
1782831963397603000,9.02960302734375,-0.011494968086481094,0.3364284336566925,0.1046990379691124
1782831963407532000,9.039531982421876,0.06605415046215057,0.3100958466529846,0.06504412740468979
1782831963417461000,9.0494609375,0.12546607851982117,0.26570653915405273,0.040959831327199936
1782831963427389000,9.059388916015624,0.14998897910118103,0.19469569623470306,0.06820017844438553
1782831963437319200,9.069319091796874,0.13853313028812408,0.13279850780963898,0.11980132013559341
1782831963447247000,9.0792470703125,0.10710446536540985,0.11481764912605286,0.1391284465789795
1782831963457176000,9.089176025390625,0.07971785217523575,0.1025354191660881,0.10324128717184067
1782831963467105000,9.09910498046875,0.06711340695619583,0.0738397091627121,0.03867402672767639
1782831963477033700,9.10903369140625,0.05826505646109581,0.06188051775097847,-0.015600927174091339
1782831963486963000,9.118962890625,0.038507211953401566,0.07172029465436935,-0.04462803900241852
1782831963496892000,9.128891845703125,0.01283567026257515,0.07411527633666992,-0.06857891380786896
1782831963506820900,9.13882080078125,-0.004401030018925667,0.06536035984754562,-0.11575747281312943
1782831963516749800,9.148749755859376,-0.002724836580455303,0.038723163306713104,-0.1459534615278244
1782831963526679000,9.158678955078125,0.011325110681355,0.02098092995584011,-0.12703783810138702
1782831963536608000,9.16860791015625,0.014056980609893799,0.03290337324142456,-0.056584447622299194
1782831963546537000,9.178536865234374,0.015874585136771202,0.05618096888065338,0.011850090697407722
1782831963556466000,9.1884658203125,0.02501002699136734,0.10364408791065216,0.061878371983766556
1782831963566395100,9.19839501953125,0.040287382900714874,0.13948266208171844,0.07590360194444656
1782831963576324000,9.208323974609375,0.05284152552485466,0.17857147753238678,0.08946415036916733
1782831963586252800,9.218252685546876,0.06623473018407822,0.25064533948898315,0.11436194181442261
1782831963596181800,9.228181640625,0.07726101577281952,0.3241126537322998,0.14126811921596527
1782831963606110700,9.23811083984375,0.08970140665769577,0.3581523001194,0.132139652967453
1782831963616040000,9.2480400390625,0.09756039828062057,0.34253475069999695,0.10641193389892578
1782831963625969000,9.257968994140626,0.10569405555725098,0.307490736246109,0.08459310978651047
1782831963635897900,9.26789794921875,0.12095742672681808,0.2760707437992096,0.09516612440347672
1782831963645826800,9.277826904296875,0.138528510928154,0.24813520908355713,0.12683133780956268
1782831963655756000,9.287756103515624,0.1587541550397873,0.21951794624328613,0.15380409359931946
1782831963665685000,9.29768505859375,0.19353628158569336,0.1655772477388382,0.16604597866535187
1782831963675614000,9.307614013671875,0.23014408349990845,0.11599931120872498,0.18106621503829956
1782831963685543000,9.31754296875,0.2570042610168457,0.09064750373363495,0.20715151727199554
1782831963695472000,9.32747216796875,0.26633039116859436,0.07299473881721497,0.22220928966999054
1782831963705400800,9.33740087890625,0.26055821776390076,0.05940532311797142,0.2245309203863144
1782831963715329800,9.347329833984375,0.24535369873046875,0.0329420268535614,0.21267585456371307
1782831963725258800,9.3572587890625,0.2585102915763855,0.022705279290676117,0.20311331748962402
1782831963735188000,9.36718798828125,0.28018656373023987,-0.0029548099264502525,0.18784169852733612
1782831963745117000,9.377116943359376,0.29712414741516113,-0.024954820051789284,0.15374860167503357
1782831963755046000,9.3870458984375,0.3133329153060913,-0.05212119594216347,0.06861480325460434
1782831963764974800,9.396974853515625,0.33536583185195923,-0.08902958035469055,-0.05735845863819122
1782831963774904000,9.406904052734374,0.34904569387435913,-0.16114291548728943,-0.17774905264377594
1782831963784833000,9.4168330078125,0.34471070766448975,-0.23983648419380188,-0.23751987516880035
1782831963794762000,9.426761962890625,0.3253421187400818,-0.28606390953063965,-0.23289716243743896
1782831963804691000,9.43669091796875,0.31525328755378723,-0.2795105576515198,-0.21624106168746948
1782831963814620000,9.446619873046876,0.30502885580062866,-0.23082424700260162,-0.1943671852350235
1782831963824548900,9.456548828125,0.30088186264038086,-0.13740599155426025,-0.1486504077911377
1782831963834477800,9.466477783203125,0.29526734352111816,-0.002564826048910618,-0.0712331086397171
1782831963844406800,9.47640673828125,0.29211705923080444,0.15081194043159485,0.01724211312830448
1782831963854336000,9.4863359375,0.2906171679496765,0.26698970794677734,0.055553287267684937
1782831963864265200,9.49626513671875,0.30859339237213135,0.32883208990097046,0.028891082853078842
1782831963874194200,9.506194091796875,0.3317010998725891,0.3570179045200348,-0.02642144076526165
1782831963884123100,9.516123046875,0.35538262128829956,0.35588568449020386,-0.08366924524307251
1782831963894052400,9.52605224609375,0.38473600149154663,0.34377145767211914,-0.12454424053430557
1782831963903981300,9.535981201171875,0.4254131615161896,0.35008227825164795,-0.11833792179822922
1782831963913910300,9.54591015625,0.46735796332359314,0.3827030658721924,-0.08747508376836777
1782831963923839000,9.5558388671875,0.5156516432762146,0.3989968001842499,-0.03947126865386963
1782831963933768200,9.565768310546876,0.5483368635177612,0.36923038959503174,0.01112852618098259
1782831963943697200,9.575697265625,0.5604901909828186,0.3087175786495209,0.07267077267169952
1782831963953626000,9.585626220703125,0.5480700135231018,0.2199501395225525,0.13272106647491455
1782831963963555000,9.59555517578125,0.5333356261253357,0.11382785439491272,0.1634242832660675
1782831963973484300,9.605484375,0.5327694416046143,0.021073685958981514,0.17002439498901367
1782831963983413200,9.615413330078125,0.5341969132423401,-0.08042363077402115,0.15745048224925995
1782831963993342200,9.62534228515625,0.5405229926109314,-0.19472330808639526,0.11955475807189941
1782831964003271200,9.635271240234376,0.5458153486251831,-0.31260108947753906,0.04986811429262161
1782831964013200400,9.645200439453125,0.5538610219955444,-0.4266948997974396,-0.05538081005215645
1782831964023129300,9.65512939453125,0.5543757081031799,-0.5077882409095764,-0.17042629420757294
1782831964033058000,9.66505810546875,0.5241293907165527,-0.540098249912262,-0.2618376910686493
1782831964042987000,9.674987060546876,0.4674898386001587,-0.5199660658836365,-0.3112134039402008
1782831964052916200,9.684916259765625,0.3923969566822052,-0.4699045419692993,-0.34062403440475464
1782831964062845200,9.69484521484375,0.3226042687892914,-0.378705769777298,-0.33432337641716003
1782831964072774100,9.704774169921874,0.281574547290802,-0.21102595329284668,-0.2869316041469574
1782831964082703000,9.714703125,0.25387394428253174,-0.039478980004787445,-0.22848498821258545
1782831964092632300,9.72463232421875,0.24864934384822845,0.11055313050746918,-0.17974302172660828
1782831964102561300,9.734561279296875,0.2554391026496887,0.32480719685554504,-0.06803152710199356
1782831964112490200,9.744490234375,0.20542171597480774,0.32317599654197693,0.04789241403341293
1782831964122419200,9.754419189453126,0.21869342029094696,0.07174216955900192,0.03846990689635277
1782831964132348200,9.76434814453125,0.29091888666152954,-0.0629810243844986,-0.013149349018931389
1782831964142277000,9.774277099609375,0.32419607043266296,-0.13218961656093597,-0.07842756062746048
1782831964152206000,9.7842060546875,0.32012224197387695,-0.10075873136520386,-0.13415127992630005
1782831964162135000,9.794135009765625,0.2853296101093292,-0.043195419013500214,-0.166972354054451
1782831964172064000,9.80406396484375,0.22890838980674744,0.06438350677490234,-0.1476902812719345
1782831964181993200,9.8139931640625,0.1601986289024353,0.18821586668491364,-0.06600971519947052
1782831964191922200,9.823922119140626,0.12300225347280502,0.17230747640132904,0.005059402901679277
1782831964201851100,9.83385107421875,0.11886884272098541,0.10916629433631897,0.055376507341861725
1782831964211780000,9.843780029296875,0.1341966688632965,0.05656860023736954,0.09631515294313431
