time,seconds_elapsed,z,y,x
1782836825477274000,0.076274169921875,0.25774434273540975,-0.12406352897696196,0.3351671896338463
1782836825487203000,0.086203125,0.25598376280367374,-0.14409414428845047,0.24924101054519412
1782836825497132000,0.096132080078125,0.25253040747940536,-0.24931078784577548,0.2249478058857843
1782836825507061200,0.106061279296875,0.13339900114238262,-0.3234752174701542,0.24311814375072716
1782836825516991200,0.1159912109375,0.032146365845203397,-0.3717700964964926,0.19092233002940193
1782836825526920200,0.125920166015625,0.05179565368890762,-0.3169621092490852,0.17731666973149404
1782836825536849200,0.13584912109375,0.11588146463036536,-0.2042920809458941,0.10977978675439953
1782836825546778000,0.145778076171875,0.20049919146895406,-0.09704320090860127,0.12802015764825045
1782836825556707000,0.15570703125,0.16886720488667487,-0.05503909258954227,0.11847031207978724
1782836825566637000,0.165636962890625,0.20542261934578418,-0.07841996817700564,0.011593060100171715
1782836825576566300,0.175566162109375,0.08717910175919533,-0.050514235576242204,0.00911214827094227
1782836825586495200,0.1854951171875,-0.12454232546985149,-0.08091931071206927,-0.06123445836463943
1782836825596424200,0.195424072265625,0.04619008876681328,-0.15455504028722644,-0.12812339882701634
1782836825606353200,0.205353271484375,0.09856734173595905,-0.16031638029292225,-0.05824389824653044
1782836825616283100,0.215283203125,0.08183423359990119,-0.13569938703924417,0.0717450935229659
1782836825626212000,0.225212158203125,0.07420680746138096,-0.13416589386165143,0.180834706056118
1782836825636141000,0.23514111328125,0.055960372152924535,-0.18580840281546115,0.18544514072732998
1782836825646070300,0.2450703125,0.13065583991408347,-0.17161314259395002,0.10198357992023228
1782836825656000300,0.255000244140625,0.13488836291730402,-0.05681530848182737,0.05854788616178557
1782836825665929000,0.264928955078125,0.05084872822761535,-0.002178147756680846,0.08626379527887329
1782836825675858200,0.274858154296875,0.026877485531568525,-0.11913038342371582,0.07912080992273986
1782836825685787600,0.28478759765625,0.043753217008709905,-0.30960465915836394,0.08996628479231149
1782836825695716600,0.294716552734375,-0.03579787409007549,-0.40186311000846325,0.14080558760445563
1782836825705646800,0.304646728515625,-0.006857026287913322,-0.39821846989579496,0.13345646695066243
1782836825715575800,0.314575927734375,0.10676116958558558,-0.41507615425959227,0.051091706670634444
1782836825725504500,0.32450439453125,0.19971067143976687,-0.4433052005305886,0.020125417455472052
1782836825735433500,0.33443359375,0.2478939798504114,-0.4613483683519065,0.04711615410316735
1782836825745362700,0.34436279296875,0.221568282982707,-0.4872322397362441,0.06084310269318521
1782836825755292700,0.354292724609375,0.09528174419403075,-0.56941192577295,0.06127352999970317
1782836825765221600,0.3642216796875,0.05571078130602836,-0.7158013413917272,-0.041001287952065466
1782836825775150600,0.374150634765625,0.0074181673020124435,-0.8099651874717324,-0.14357592910062522
1782836825785079800,0.384079833984375,0.043751463443040844,-0.8030504396472126,-0.22760654023364185
1782836825795008800,0.3940087890625,0.16613690313994883,-0.7861716394301503,-0.2710915347602218
1782836825804938500,0.4039384765625,0.24044249480068683,-0.7952766638405621,-0.2967898935098201
1782836825814867700,0.41386767578125,0.2533528297781944,-0.8840295177225023,-0.3436579911360517
1782836825824796700,0.423796630859375,0.20435528237521647,-0.976089158064872,-0.4257489394433796
1782836825834725600,0.4337255859375,0.20723229911625385,-1.0164061170145868,-0.3995473804119974
1782836825844655900,0.44365576171875,0.2019979055941105,-1.0016039769411087,-0.4125737064519897
1782836825854584600,0.45358447265625,0.21775077052116393,-0.9991869058620184,-0.44040929642599075
1782836825864513500,0.463513427734375,0.25990122850835323,-1.04429372943677,-0.4867626494631171
1782836825874442500,0.4734423828125,0.25805238577127454,-1.1576032977525144,-0.5161399889864027
1782836825884371700,0.483371826171875,0.20175474448800085,-1.2661867873944341,-0.46548561428710816
1782836825894301700,0.4933017578125,0.09350304408371447,-1.3450655321896074,-0.4986933988187462
1782836825904230700,0.503230712890625,0.08951251314282417,-1.3781485943630336,-0.617941271142289
1782836825914159600,0.51315966796875,0.04612169970571994,-1.3549085885509848,-0.7183310790650547
1782836825924088800,0.5230888671875,0.03145896810293197,-1.3623941220007836,-0.7463659179382026
1782836825934017500,0.533017578125,0.0211795661509037,-1.4064930837072431,-0.79486559882164
1782836825943947500,0.542947509765625,0.07640344072282314,-1.4534702311985195,-0.7685413632586598
1782836825953876700,0.552876708984375,0.04947276369929313,-1.4479194652035832,-0.6509026796974241
1782836825963805700,0.5628056640625,-0.06054945350885391,-1.4636825592637062,-0.6966954397097229
1782836825973734700,0.572734619140625,-0.16306290252208708,-1.4390429157868028,-0.7775159662224352
1782836825983663600,0.58266357421875,-0.29639468364715577,-1.3547295787222682,-0.8093297391124069
1782836825993593600,0.592593505859375,-0.3549503329902887,-1.259816375579685,-0.7983138395793735
1782836826003522600,0.6025224609375,-0.3231616945415735,-1.2259069455847142,-0.7627839687757194
1782836826013451500,0.612451416015625,-0.31979251036942,-1.204608283098787,-0.7007609355829656
1782836826023380700,0.622380615234375,-0.3713157768577337,-1.151181521076709,-0.6946173182614147
1782836826033310700,0.632310791015625,-0.3732189801305532,-1.174152646819502,-0.725208563619107
1782836826043239700,0.64223974609375,-0.40631344048082824,-1.1650979643568395,-0.6857388691484928
1782836826053168600,0.652168701171875,-0.3735778765708208,-1.128493303928524,-0.6908336350042372
1782836826063097600,0.66209765625,-0.24861411081850526,-1.085952969840914,-0.7082174621339887
1782836826073026600,0.672026611328125,-0.15233984845578669,-1.0172042085897177,-0.7152201074376702
1782836826082956500,0.68195654296875,-0.18902268868684768,-0.9579622574828565,-0.6624749710042029
1782836826092885800,0.6918857421875,-0.23696575860083102,-0.9949154390878975,-0.5996493527242913
1782836826102814700,0.701814697265625,-0.17509294753372667,-1.073808066277951,-0.6001290625326335
1782836826112743700,0.71174365234375,-0.23285306258499622,-1.0151998830299824,-0.6598977409273385
1782836826122672600,0.721672607421875,-0.2957932106226682,-0.9473436136391014,-0.6939645534411072
1782836826132602600,0.7316025390625,-0.272729145899415,-0.9691728028051555,-0.6969963223524391
1782836826142531600,0.741531494140625,-0.2822200278222561,-0.9616795244403182,-0.6915091961782425
1782836826152460500,0.75146044921875,-0.34714170506596564,-0.9015208238147199,-0.7184629618164151
1782836826162389800,0.7613896484375,-0.29076632237136363,-0.8728675607822834,-0.7569504403166473
1782836826172318700,0.771318603515625,-0.2564297530055046,-0.8039063988894224,-0.7238039575181902
1782836826182248700,0.781248779296875,-0.2882669067710638,-0.6702424632005393,-0.6821226514127106
1782836826192177400,0.791177490234375,-0.24116145672500133,-0.5314166147038341,-0.6924014688428491
1782836826202106600,0.801106689453125,-0.33430443532466886,-0.44112771036103365,-0.6541449495542794
1782836826212035600,0.81103564453125,-0.4462824627757072,-0.45677631119601425,-0.6195302208341658
1782836826221965600,0.820965576171875,-0.5260200163573027,-0.4984514067564159,-0.6656432988420129
1782836826231894800,0.830894775390625,-0.5556389095515012,-0.38439460026994343,-0.5749887760572135
1782836826241823700,0.84082373046875,-0.56836044395864,-0.2284129612457007,-0.40325587954111397
1782836826251752700,0.850752685546875,-0.6295809285968542,-0.19217611121647057,-0.23120339568182824
1782836826261681700,0.860681640625,-0.7105763732850551,-0.20781959748491644,-0.16109620555900037
1782836826271611600,0.870611572265625,-0.8086959712535142,-0.10352262605577707,-0.20965543460994956
1782836826281540600,0.88054052734375,-0.9693857149034738,0.08249554705284536,-0.28444048035070296
1782836826291469600,0.890469482421875,-0.9590823475539684,0.2059513193950057,-0.254393096078746
1782836826301398800,0.900398681640625,-0.9501993683964014,0.2286937509484589,-0.25854024235345424
1782836826311327700,0.91032763671875,-0.9877753580749035,0.2306500726480037,-0.24601978347636758
1782836826321257500,0.920257568359375,-0.9050006287544965,0.2602233000695705,-0.17424637717436997
1782836826331186400,0.9301865234375,-0.8648644331991672,0.2311618215624243,-0.09955280910935252
1782836826341115600,0.94011572265625,-0.8453986852288246,0.12339184026047587,-0.02549143800064921
1782836826351044600,0.950044677734375,-0.6642313862174749,0.009202566500753163,-0.07751914687976241
1782836826360974600,0.959974609375,-0.4530184930324554,0.05381166968643665,-0.11808197034932673
1782836826370903800,0.96990380859375,-0.2998532996684313,0.09553513443320989,-0.05674567731171846
1782836826380832800,0.979832763671875,-0.16824878072738647,0.0809931066006422,0.0018509616289287805
1782836826390761700,0.98976171875,-0.14295301142930983,0.12145758426226674,-0.03513802194185555
1782836826400690400,0.9996904296875,-0.11403028380572795,0.22209990564137697,-0.13148483808413147
1782836826410620700,1.00962060546875,0.015619009414315222,0.2958139611497521,-0.19790749447531997
1782836826420549600,1.019549560546875,0.15734803200662134,0.3244256500627845,-0.14088614202737806
1782836826430478600,1.029478515625,0.2324392210870981,0.30792430485598743,-0.01718552807867527
1782836826440407800,1.03940771484375,0.35935762803852556,0.2535955524928868,0.05480879096500575
1782836826450336800,1.049336669921875,0.45358080309033394,0.23711517700888216,0.10440649621821939
1782836826460266500,1.0592666015625,0.5418997225344181,0.30356676723361015,0.11508658792562781
1782836826470195700,1.06919580078125,0.5737982510983943,0.3354422071829438,0.11670754019096494
1782836826480124700,1.079124755859375,0.6877069543510675,0.3196476950712502,0.20520247378908096
1782836826490053600,1.0890537109375,0.8232599186569451,0.3528023611761629,0.2561185681644827
1782836826499983600,1.098983642578125,0.9585796587288379,0.40273287858031687,0.2560970139198005
1782836826509912800,1.108912841796875,0.9689058224320412,0.40851884157061574,0.3005081103153527
1782836826519841800,1.118841796875,0.9575468085497617,0.33643852474391456,0.33056159553453324
1782836826529770500,1.1287705078125,0.9058078534841537,0.24825411839969455,0.29163682159557935
1782836826539699500,1.138699462890625,0.9095353495746851,0.2310707092128694,0.3487341618891805
1782836826549629700,1.148629638671875,0.8510270465046167,0.2427740795534104,0.45882652172408994
1782836826559558700,1.15855859375,0.7480927417308092,0.18688509213626384,0.4928431384205818
1782836826569487600,1.168487548828125,0.7177467033058404,0.09593450901433825,0.5281046771442517
1782836826579416800,1.178416748046875,0.4793354220718145,0.043162046182528134,0.5596131469447165
1782836826589345800,1.188345703125,0.24327216526865958,-0.0030623832453042267,0.5122763358281925
1782836826599275500,1.198275634765625,-0.007280220136046409,-0.07953245946355164,0.41469533824846144
1782836826609204700,1.208204833984375,-0.13153671440184114,-0.10869842125847935,0.406768746500276
1782836826619133700,1.2181337890625,-0.25130875672996045,-0.071419003373757,0.4808625220412388
1782836826629062700,1.228062744140625,-0.4640443294376135,-0.018745982328429816,0.47569699250422415
1782836826638992600,1.23799267578125,-0.7030541610866785,-0.012167115394771099,0.4158247441371903
1782836826648921900,1.247921875,-0.8310738072782754,-0.05954626781567931,0.3506149706671014
1782836826658850600,1.2578505859375,-0.9221662830889225,-0.07396043148487806,0.3694788072215393
1782836826668779500,1.267779541015625,-0.8930582620263099,-0.04659698906727135,0.42740839708819983
1782836826678708500,1.27770849609375,-0.6978700364470481,0.0066484981037676335,0.4144990484913811
1782836826688638500,1.287638427734375,-0.44201662202477454,0.04334529379494488,0.39096659907139836
1782836826698567700,1.297567626953125,-0.25402736803889275,-0.0008185498412698507,0.4430418368866667
1782836826708496600,1.30749658203125,-0.08506605512797832,-0.11358984656184912,0.494136283503659
1782836826718425600,1.317425537109375,0.2173503730267286,-0.1781492663644254,0.4876922584634274
1782836826728354600,1.3273544921875,0.43636078822016716,-0.16707067685872315,0.5242259725473821
1782836826738284500,1.337284423828125,0.4967945063948631,-0.17074381241351366,0.5098959800302982
1782836826748213500,1.347213623046875,0.6348340268194675,-0.21564846447966993,0.466798377386108
1782836826758142500,1.357142578125,0.6374456706225872,-0.24201230140067637,0.4693829505192116
1782836826768071400,1.367071533203125,0.563112606433034,-0.26765549589693544,0.3907875161774456
1782836826778001700,1.377001708984375,0.5842711297959089,-0.3301137056365609,0.4005272217622027
1782836826787930400,1.386930419921875,0.5682189896613359,-0.4160887653682381,0.4223693800076842
1782836826797859300,1.396859375,0.5390811579823493,-0.45034225956052537,0.4076800526589155
1782836826807788500,1.40678857421875,0.4936889415949583,-0.4877293756034225,0.38356227763164785
1782836826817717500,1.416717529296875,0.39288697267472744,-0.5349317832179368,0.3043914545547217
1782836826827647500,1.4266474609375,0.3321381972014904,-0.5953505960844456,0.2803663993122056
1782836826837576700,1.43657666015625,0.3173006935536861,-0.6388194431938231,0.28667061402294786
1782836826847505700,1.446505615234375,0.2787900533735752,-0.6712671300731599,0.29029074074886735
1782836826857434600,1.4564345703125,0.3537964867800474,-0.6842449042636901,0.25865367613267154
1782836826867364600,1.466364501953125,0.36832419382631776,-0.6654238108724355,0.2150191901328042
1782836826877293600,1.47629345703125,0.36958442302048206,-0.6770362880591303,0.20191457469221202
1782836826887222500,1.486222412109375,0.36623745068013663,-0.7138654779583216,0.2024619063766673
1782836826897151500,1.4961513671875,0.30641514240205286,-0.7516299759462476,0.21516809708420187
1782836826907080400,1.50608056640625,0.309490312063694,-0.7940482910893857,0.21692133395969868
1782836826917010400,1.516010498046875,0.22959610661566257,-0.8252746925454586,0.1951775945873931
1782836826926939400,1.525939453125,0.13687106116712092,-0.8724056423589587,0.19727884118296204
1782836826936868400,1.535868408203125,0.13345862237513065,-0.9506634787768125,0.1497928673867136
1782836826946797600,1.545797607421875,0.09936521411538124,-0.9697254682518541,0.1298614381333813
1782836826956726500,1.5557265625,0.052044660013914106,-0.9017785249028354,0.14648330444730817
1782836826966656500,1.565656494140625,0.02508300333023071,-0.8222476728744804,0.07875851594898849
1782836826976585700,1.575585693359375,-0.027674773389101025,-0.792226117163524,0.03279160494618118
1782836826986514700,1.5855146484375,-0.2064724206596613,-0.7868756960462778,-0.006735774528421461
1782836826996443400,1.595443359375,-0.3655342708468437,-0.7694088668081909,0.016846797643601894
1782836827006373600,1.60537353515625,-0.5117196883261204,-0.7313998194746673,0.07161047082524746
1782836827016302600,1.615302490234375,-0.6572293985009193,-0.6778543995089829,0.12005034781284629
1782836827026231600,1.6252314453125,-0.8843272585600614,-0.6318457317236811,0.1796917830986902
1782836827036160500,1.635160400390625,-1.1530132665485142,-0.646851212349534,0.15866459449790418
1782836827046089500,1.64508935546875,-1.2186521521508693,-0.6648203650865704,0.08394468641523271
1782836827056019500,1.65501953125,-1.0884440560042858,-0.5740295756362378,0.10223781040962784
1782836827065948400,1.664948486328125,-0.9725760353773831,-0.4550209919612854,0.18015205755420027
1782836827075877400,1.67487744140625,-0.9006576311141252,-0.4228177082970738,0.25706085398327555
1782836827085806600,1.684806640625,-0.8328869941800833,-0.4736438593667,0.28200258567929265
1782836827095735600,1.694735595703125,-0.6420137091904878,-0.4751842937417328,0.28590233306419105
1782836827105665500,1.70466552734375,-0.7450128958940505,-0.41196335600130257,0.37103242987170815
1782836827115594800,1.7145947265625,-0.9728355630964041,-0.4732947536680847,0.42647988406643267
1782836827125523500,1.7245234375,-0.916419263869524,-0.5377314969390631,0.46747076022233813
1782836827135452400,1.734452392578125,-0.8372165478169917,-0.38070911669023333,0.42591918144375085
1782836827145382700,1.744382568359375,-0.8114724502295255,-0.1296224782783538,0.40902467220090327
1782836827155311600,1.7543115234375,-0.8144564344763755,0.03662270754165947,0.4119256543394178
1782836827165240600,1.764240478515625,-0.8241694347172975,0.07345723120309412,0.36408261073380704
1782836827175169500,1.77416943359375,-0.7880985889047384,0.06486432103328406,0.2794098657723516
1782836827185098500,1.784098388671875,-0.7674351555824279,0.10238456193655729,0.2866617000641301
1782836827195028500,1.794028564453125,-0.8103431539386511,0.17669103038012982,0.3764389285577461
1782836827204957400,1.80395751953125,-0.6154536190450192,0.19857991384416818,0.4631801138237118
1782836827214886400,1.813886474609375,-0.37370588686466216,0.23306053132321683,0.5478136227533221
1782836827224815600,1.823815673828125,-0.11691723741889,0.33164120746478437,0.5650634117072448
1782836827234745600,1.83374560546875,0.11437456719875334,0.48874710127860305,0.63990453501679
1782836827244674600,1.843674560546875,0.22114508913457392,0.5399808102358132,0.563320951954089
1782836827254603500,1.853603515625,0.37651685263216494,0.39550110069587824,0.5001864503880963
1782836827264532500,1.863532470703125,0.5295838463187217,0.22245617173314094,0.49176126146800814
1782836827274461400,1.87346142578125,0.7614175027281046,0.1379193281110376,0.4448437352094799
1782836827284391700,1.8833916015625,1.0538239935219287,0.21300774071253836,0.3554654063729569
1782836827294320600,1.893320556640625,1.127149926495552,0.3281120834905654,0.29044361148932946
1782836827304249600,1.90324951171875,0.9812824889242648,0.2930175353642553,0.1956593684886582
1782836827314178600,1.913178466796875,0.727307727855444,0.11390424627326429,0.13525865753442048
1782836827324108500,1.923108642578125,0.4840677112907171,-0.02293722347319126,0.07809031609753146
1782836827334037500,1.93303759765625,0.3219815448462963,0.08982742431089281,0.03966854151096195
1782836827343966500,1.942966552734375,0.09591361235678196,0.3247746826961636,0.013760576864983885
1782836827353895400,1.9528955078125,-0.13621698117256165,0.4839866088785231,-0.07810091055678203
1782836827363824600,1.96282470703125,-0.3341980523407459,0.4697634377367794,-0.2305048920236528
1782836827373754600,1.972754638671875,-0.5687286927491426,0.38331988371051845,-0.29251596078397707
1782836827383683300,1.982683349609375,-0.7410282101720571,0.25844335785023864,-0.27785682764407243
1782836827393612500,1.992612548828125,-0.692553225338459,0.10643062245696783,-0.22331465172599999
1782836827403541500,2.00254150390625,-0.5786831005305052,0.008972849398106336,-0.15597161082057281
1782836827413471500,2.012471435546875,-0.3717132517427206,-0.0629662323269993,-0.18071557318847625
1782836827423400700,2.022400634765625,-0.1044558152526617,-0.14863054560907185,-0.23242387738749384
1782836827433329700,2.03232958984375,0.19275310738682747,-0.23125468747764824,-0.2918371847395785
1782836827443258600,2.042258544921875,0.41594343861341476,-0.33731136205568907,-0.30464974016472696
1782836827453187600,2.0521875,0.574298601835966,-0.41180524283014236,-0.2422624402368441
1782836827463117600,2.06211767578125,0.7294663671940564,-0.44857802636697885,-0.22747235592734066
1782836827473046500,2.072046630859375,0.9201274707376956,-0.42799058089032765,-0.2720581513026729
1782836827482975500,2.0819755859375,0.9399725734144448,-0.4338113959982991,-0.29587160962112247
1782836827492904400,2.091904541015625,0.9644096800565719,-0.4723352609861642,-0.24389785941895095
1782836827502834400,2.10183447265625,1.043200308176875,-0.5146846025463193,-0.21208098125644026
1782836827512763400,2.111763427734375,0.9992828405171632,-0.5819840417720377,-0.20288159309346226
1782836827522692400,2.1216923828125,0.9229711697310209,-0.6637839347109198,-0.21628657972011714
1782836827532621600,2.13162158203125,0.7745131311446428,-0.6886254574354738,-0.2381680470626801
1782836827542550500,2.141550537109375,0.6260217748105525,-0.6955390362162143,-0.3457087131207809
1782836827552480500,2.15148046875,0.5025561386615037,-0.6780086402226239,-0.43373277780413627
1782836827562409700,2.16140966796875,0.23554595493078231,-0.6265874458692967,-0.4332459441352635
1782836827572338700,2.171338623046875,0.15509470012187956,-0.5655339883610606,-0.3701676662685349
1782836827582267600,2.181267578125,0.05575169783830643,-0.5001600373052061,-0.3304642726399004
1782836827592197400,2.191197265625,-0.18093407477736473,-0.4831226124603301,-0.33967505897972733
1782836827602126600,2.201126708984375,-0.20601123288869858,-0.4936040397904813,-0.39937052600774914
1782836827612055600,2.2110556640625,-0.18972060782313346,-0.4509638255249709,-0.44696993358321485
1782836827621984500,2.220984619140625,-0.21516543020308015,-0.42986543485149736,-0.43867301068529485
1782836827631913500,2.23091357421875,-0.2164092927843332,-0.4786960281897336,-0.4261640961155295
1782836827641843500,2.240843505859375,-0.14680384163856505,-0.5599117645651102,-0.4481740486759692
1782836827651772400,2.2507724609375,-0.03108662765920162,-0.6145638305984437,-0.49155887076370414
1782836827661701400,2.260701416015625,-0.01722936722040176,-0.6237744342751801,-0.4038205276865512
1782836827671630600,2.270630615234375,-0.09518120642900467,-0.6656884531579911,-0.3887976575344801
1782836827681560600,2.280560546875,-0.355233241584897,-0.736652040914446,-0.34434476782381535
1782836827691489500,2.290489501953125,-0.6131354052305221,-0.8864071335740387,-0.36362215361520644
1782836827701418500,2.30041845703125,-0.8274971178352832,-0.9322707668654621,-0.5328817918855696
1782836827711347500,2.310347412109375,-1.0719891802877186,-0.7712006455957889,-0.5572924489121884
1782836827721276200,2.320276123046875,-1.3114239593505859,-0.6388574371166527,-0.47515214503780007
1782836827731206400,2.330206298828125,-1.4258429502129555,-0.6457404015634208,-0.4578615491494536
1782836827741135400,2.34013525390625,-1.5024422057688236,-0.7060907523036003,-0.4056909977335483
1782836827751064300,2.350064208984375,-1.5827373932331799,-0.7104198675490916,-0.3163360132399946
1782836827760993500,2.35999365234375,-1.580866923186183,-0.6667026717018336,-0.2167027958381921
1782836827770923300,2.36992333984375,-1.6352052470952272,-0.559434794703126,-0.10712401154860854
1782836827780852200,2.379852294921875,-1.6524556571036577,-0.44946562285646796,-0.006322846345975994
1782836827790781400,2.389781494140625,-1.638193322995305,-0.3272025674302131,0.1345491940908134
1782836827800710400,2.39971044921875,-1.5976643287301062,-0.15769830674901603,0.29109650417380034
1782836827810639400,2.409639404296875,-1.5206781196832655,0.02559855163693428,0.4777233107000589
1782836827820569600,2.419569580078125,-1.4409972647249698,0.1940017192084342,0.5951230344062671
1782836827830498600,2.42949853515625,-1.4674012875258922,0.27837138957008717,0.6559587940432131
1782836827840427500,2.439427490234375,-1.4377929157257079,0.31480310458429156,0.6932163654223084
1782836827850356200,2.449356201171875,-1.1686737770169973,0.36489202742055055,0.649649757026881
1782836827860286500,2.459286376953125,-0.8191887236952781,0.5181510365478694,0.6504487253848463
1782836827870215400,2.46921533203125,-0.4759451951116323,0.7190875965207815,0.6769875535465777
1782836827880144400,2.479144287109375,-0.27213585618138314,0.8236661613702774,0.6454200105026364
1782836827890073300,2.4890732421875,-0.1601870548248291,0.7436517636086791,0.5519395801095291
1782836827900003300,2.49900341796875,-0.06352583897113799,0.6602659166526049,0.45543059567548333
1782836827909932300,2.508932373046875,0.07065116080641747,0.718018944375962,0.41528274621497835
1782836827919861200,2.518861328125,0.31220307815372944,0.7996905347600579,0.42903691160548474
1782836827929790500,2.52879052734375,0.6168962190687656,0.8777777638513594,0.4509082228802144
1782836827939719400,2.538719482421875,0.9316349531799555,0.9628918228395282,0.5003508471695706
1782836827949649400,2.5486494140625,1.1471043347656726,1.0127958175629377,0.5240065576430409
1782836827959578600,2.55857861328125,1.3634101671755312,0.9473024779111147,0.5449595484964549
1782836827969507300,2.56850732421875,1.5322358710080384,0.9135426855199038,0.5532547908939421
1782836827979436300,2.578436279296875,1.7221943792402743,0.8913394754096865,0.5465302684118971
1782836827989366300,2.5883662109375,1.9284487732350826,0.8366188741847872,0.5293462381705641
1782836827999295500,2.59829541015625,1.9148592238217592,0.6997004667446017,0.6457890630107372
1782836828009224400,2.608224365234375,1.805353723964095,0.49261868201494213,0.7917601801522076
1782836828019153400,2.6181533203125,1.7562457019239663,0.31439328167438507,0.8906449903395026
1782836828029082400,2.628082275390625,1.4617834476441145,0.2614962426148355,0.89631258764714
1782836828039012400,2.638012451171875,1.0538070423871277,0.31554625110179185,0.8220159830104559
1782836828048941300,2.64794140625,0.7410773100107908,0.3900580328591168,0.7353424926858395
1782836828058870300,2.657870361328125,0.2992342909872532,0.4469736599102616,0.6804605634193867
1782836828068799500,2.667799560546875,-0.07907996645569801,0.39061245187148447,0.6015001316901296
1782836828078729500,2.6777294921875,-0.33679859022796155,0.34241350750029087,0.5032165022663772
1782836828088658400,2.687658447265625,-0.6133493402421474,0.3731590666368603,0.4456895018512383
1782836828098587400,2.69758740234375,-0.6960819839864969,0.4094654747709632,0.3873261602098122
1782836828108516400,2.707516357421875,-0.6708510966181754,0.4387830469310283,0.3445698818165809
1782836828118446300,2.7174462890625,-0.6360796429663896,0.4679540502272546,0.38115941774100065
1782836828128375300,2.727375244140625,-0.47010465238988397,0.4331775550741702,0.4265292396334931
1782836828138304500,2.737304443359375,-0.18013561787605284,0.3666536302655935,0.4333064786834642
1782836828148233500,2.7472333984375,0.07795943799316883,0.3486760750263929,0.40993638021834194
1782836828158162400,2.757162353515625,0.2870142763614654,0.38346908292286097,0.4250408277066424
1782836828168092400,2.767092529296875,0.5643827724993229,0.39930063910931346,0.3555067247640341
1782836828178021400,2.777021484375,0.7564432214468717,0.3666502692647278,0.29293771159369497
1782836828187950300,2.786950439453125,0.8894295501351356,0.2505640027772635,0.2882039610700682
1782836828197879300,2.79687939453125,1.0995493873864413,0.12351174031309783,0.25400504660923034
1782836828207809500,2.8068095703125,1.2472329344689845,0.05358261017091572,0.27436449201628565
1782836828217738500,2.816738525390625,1.208148878315091,0.017853052076697348,0.3156344773745164
1782836828227667500,2.82666748046875,1.198849719572067,-0.0718936351481825,0.2354607973979786
1782836828237596400,2.836596435546875,1.1403098523199557,-0.15714133045338094,0.2853695778943598
1782836828247525400,2.846525390625,0.9987304673314094,-0.21041597065366804,0.3522242324946448
1782836828257455400,2.856455322265625,0.9117956957221031,-0.2569818339303136,0.3671518986439332
1782836828267384300,2.86638427734375,0.6901414880216121,-0.3102709410473704,0.32429215987622734
1782836828277313500,2.8763134765625,0.39168753375709053,-0.39971170412823553,0.3258580940186977
1782836828287242500,2.886242431640625,0.25644787318408485,-0.5463694883596152,0.27947430931068956
1782836828297172200,2.896172119140625,0.14157529333531857,-0.6587193447977304,0.29660277343988417
1782836828307101400,2.906101318359375,0.016267244189977645,-0.6888637962359935,0.3062282415278256
1782836828317030400,2.916030517578125,-0.22414427095055578,-0.7218013855241239,0.24179084066972134
1782836828326959400,2.92595947265625,-0.5108949279397725,-0.771999175562337,0.09511683595590292
1782836828336889600,2.9358896484375,-0.6775573162585496,-0.8310130900669842,0.07820194151215255
1782836828346818600,2.945818603515625,-0.9302408684730529,-0.8594317406259476,0.1062543160419911
1782836828356747300,2.955747314453125,-1.1812369059920311,-0.8400050094917416,0.1303602179683745
1782836828366676200,2.96567626953125,-1.3795622605532407,-0.7597654246721416,0.1327783850260079
1782836828376605400,2.97560546875,-1.6022779600054025,-0.6081600279707461,0.08878953263051807
1782836828386535400,2.985535400390625,-1.7018524329572915,-0.47906654200255866,0.05859864823464304
1782836828396464400,2.99546435546875,-1.6650076801627873,-0.36655681882761415,0.07535857131239027
1782836828406393300,3.005393310546875,-1.542132411122322,-0.2693088160619139,0.22149715397525577
1782836828416322600,3.015322509765625,-1.3520651818186045,-0.25561792516596615,0.3500793294204399
1782836828426252300,3.025252197265625,-1.2233984698951244,-0.2815231315992772,0.4059013160159811
1782836828436181200,3.03518115234375,-1.1782172659099102,-0.2424453590556979,0.34509270011428744
1782836828446110500,3.0451103515625,-1.1594564513385295,-0.13847630440667272,0.26000026843603696
1782836828456039400,3.055039306640625,-1.4717331792503594,-0.0763389971844852,0.19836082773339003
1782836828465969400,3.064969482421875,-2.0219933183729646,-0.010250687314197421,0.3437261975340545
1782836828475898600,3.074898681640625,-2.368716505765915,-0.09026661944575608,0.4270659768586978
1782836828485827300,3.084827392578125,-2.535926591095328,-0.09810169698558747,0.3698245153866708
1782836828495756300,3.09475634765625,-2.423196868494153,0.1246983928143978,-0.00778734767427668
1782836828505685200,3.104685302734375,-2.0885002189815043,0.49648178718388075,-0.2580094964776188
1782836828515615500,3.114615478515625,-1.475702667403221,0.716460097561404,-0.2640337069368921
1782836828525544400,3.12454443359375,-0.7044348017901182,0.7100554181508719,-0.19054416263308374
1782836828535473400,3.134473388671875,-0.06177987208664417,0.7194243541944771,-0.047769978369399904
1782836828545402400,3.14440234375,0.21373802774846554,0.7884974520292133,0.09716178578697145
1782836828555332400,3.154332275390625,0.37441549643874167,0.6565870089441538,0.059709678216464813
1782836828565261300,3.16426123046875,0.5897878473907708,0.4054578465647995,-0.060393349631689484
1782836828575190300,3.174190185546875,0.8272276532441377,0.3142160984765738,-0.04932498925905674
1782836828585119500,3.184119384765625,1.0271271252542733,0.34933117793425916,0.0883489492561668
1782836828595049500,3.194049560546875,1.2668413057804107,0.436394690489769,0.18079671213328838
1782836828604978400,3.203978515625,1.2840607361286878,0.5331210805341601,0.17808591880463062
1782836828614907400,3.213907470703125,1.2331488795369863,0.5580832339636981,0.08709189839977771
1782836828624836400,3.22383642578125,1.1516297032356262,0.5471441990591586,-0.030232129721716045
1782836828634765300,3.233765380859375,1.1251777496397495,0.5856657990247011,-0.21009335110317914
1782836828644695600,3.243695556640625,1.0868009649723767,0.626592706566304,-0.3109557815063745
1782836828654624500,3.25362451171875,0.9741016375094652,0.5677130859658122,-0.30970936164185403
1782836828664553500,3.263553466796875,0.7926151895463466,0.4079283283315599,-0.23909619475826618
1782836828674482400,3.273482421875,0.5896423014402389,0.3173945093169808,-0.32065270739533
1782836828684412400,3.283412353515625,0.3571235853761434,0.33395109184235333,-0.5379386003511026
1782836828694341400,3.29334130859375,0.20049626885950564,0.4292559246510267,-0.6458541641362011
1782836828704270600,3.3032705078125,-0.06078267774283885,0.513784804162383,-0.60389926525373
1782836828714199600,3.313199462890625,-0.307347454816103,0.4984997028775513,-0.5846524572636932
1782836828724129500,3.323129638671875,-0.36364158896803855,0.45995179942697284,-0.6315019597873092
1782836828734058500,3.33305859375,-0.4944020583003759,0.5220107807159423,-0.6527034455090761
1782836828743987500,3.342987548828125,-0.61423956708014,0.5758915701158345,-0.6639633829310536
1782836828753916400,3.35291650390625,-0.47257250380814075,0.42523192983195185,-0.5306196921724826
1782836828763846700,3.3628466796875,-0.26365444356203077,0.2503620504643768,-0.358992155726999
1782836828773775600,3.372775634765625,0.039302082818746566,0.15639811087064445,-0.19415910172723233
1782836828783704600,3.38270458984375,0.40242812348008156,0.16133359451144932,-0.1280678692474961
1782836828793633500,3.392633544921875,0.7284668347626924,0.17360490093305705,-0.19405666426606474
1782836828803562800,3.402562744140625,0.8829425262033939,0.09477766712941228,-0.12972199313007293
1782836828813492500,3.412492431640625,0.9838175603598356,-0.09783530113436281,-0.08718085532486439
1782836828823421400,3.42242138671875,1.0711802019923924,-0.2386520311873406,-0.03956584832146764
1782836828833350400,3.432350341796875,1.1702730289071797,-0.2721145941976458,0.02495075525268912
1782836828843279600,3.442279541015625,1.082438093587756,-0.2118172888189554,-0.05660371155776083
1782836828853209600,3.452209716796875,0.818187437698245,-0.20930976297743617,-0.09505509583130478
1782836828863138600,3.462138671875,0.6408955188155174,-0.32364399816580114,-0.05481733959764242
1782836828873067500,3.472067626953125,0.43021278698444365,-0.4420543236866593,-0.03591759147960692
1782836828882996500,3.48199658203125,0.28058219748735425,-0.43651612491235137,-0.08208612600173801
1782836828892926500,3.491926513671875,0.252958277502656,-0.38371889296546574,-0.15072791974712163
1782836828902855700,3.501855712890625,0.17269173161089418,-0.3679876553483307,-0.1861746423119679
1782836828912784600,3.51178466796875,0.029745149922370907,-0.4755290155261755,-0.14870236873626708
1782836828922713600,3.521713623046875,-0.08745207348167895,-0.6164927528344094,-0.15604107759390026
1782836828932642600,3.531642578125,-0.19088848255872726,-0.7130925938896835,-0.18427330220267177
1782836828942572500,3.541572509765625,-0.2939052049189806,-0.6542475331459194,-0.16019304617419838
1782836828952501500,3.55150146484375,-0.18768647164702415,-0.5456375938884913,-0.17720705361086875
1782836828962430500,3.561430419921875,-0.23475158968269824,-0.4388206024624407,-0.21458931081555782
1782836828972359400,3.571359375,-0.3557698326796293,-0.4397326758060604,-0.20912344662509857
1782836828982289700,3.58128955078125,-0.30365503003895283,-0.5130301864027976,-0.29239819788951427
1782836828992218400,3.59121826171875,-0.25583529424369333,-0.5487807872850448,-0.39567481329496945
1782836829002147300,3.601147216796875,-0.20809388438165186,-0.625349574637413,-0.38063988737892357
1782836829012076500,3.61107666015625,-0.08759761943221092,-0.7375638219971209,-0.39456144522558895
1782836829022006500,3.621006591796875,0.0300461786955595,-0.8461495766613631,-0.4190404547806829
1782836829031935500,3.630935546875,0.13312193776667117,-0.8918594806957989,-0.4577931966209784
1782836829041864700,3.64086474609375,0.1582306600600481,-0.8980487637899816,-0.5449510729290544
1782836829051793700,3.650793701171875,0.21736557059586048,-0.9005710488092153,-0.6198035578828305
1782836829061722600,3.66072265625,0.3499620231837034,-0.907059095654264,-0.6928793154876679
1782836829071652400,3.67065234375,0.4592231928914785,-0.8658178614664822,-0.6943260802298784
1782836829081581600,3.68058154296875,0.5357318475544453,-0.8523203742507844,-0.6930070335205644
1782836829091510500,3.690510498046875,0.5626274532645941,-0.8009341050803661,-0.769902422478795
1782836829101439500,3.700439453125,0.366158540225029,-0.7203233488608152,-0.7923431676719337
1782836829111369700,3.71036962890625,0.2192372096866369,-0.6554021100085228,-0.8128961994223296
1782836829121298400,3.72029833984375,-0.010911270114779471,-0.5424284956488759,-0.9059043726611882
1782836829131227400,3.730227294921875,-0.4564163187772035,-0.4161207679416984,-0.9465835159868001
1782836829141156400,3.74015625,-0.819822929945588,-0.418040630088374,-0.9020265813797712
1782836829151086600,3.750086669921875,-1.162995146858692,-0.48041707982867954,-0.9550455663185566
1782836829161015600,3.760015625,-1.1932353868216274,-0.45624951084293425,-1.0300796914495527
1782836829170944500,3.769944580078125,-1.1558797618955372,-0.26616299231685697,-1.0590128674019128
1782836829180873700,3.779873779296875,-1.0290221452206372,-0.13630195604227482,-0.9945147493325174
1782836829190803500,3.789803466796875,-1.0927923143416642,-0.24385128033086656,-0.9225729641936719
1782836829200732400,3.799732421875,-1.2493939118951558,-0.48901707732640204,-0.8276170909531414
1782836829210661400,3.809661376953125,-1.4426882865518331,-0.6218181856408714,-0.7480179229289293
1782836829220590600,3.819590576171875,-1.7118091788262129,-0.5814595064412802,-0.7992116652019321
1782836829230520600,3.8295205078125,-1.9043191251069307,-0.43366585004776714,-0.8472418288774788
1782836829240449500,3.839449462890625,-2.2009581389039754,-0.2900524019483477,-0.8143784008041024
1782836829250378500,3.84937841796875,-2.36935947984457,-0.2507508305862546,-0.7843242579977959
1782836829260307500,3.859307373046875,-2.308013907521963,-0.11963541033640503,-0.7912440473236143
1782836829270236400,3.869236328125,-2.2271295219928025,0.12474106291234492,-0.7328744220718741
1782836829280166700,3.879166748046875,-1.9146920505613088,0.3268440363161266,-0.6640824792660772
1782836829290095600,3.889095703125,-1.4813000490188597,0.4236548897735774,-0.6104044824292882
1782836829300024600,3.899024658203125,-1.027957730859518,0.45945385984219606,-0.5682863192765042
1782836829309953500,3.90895361328125,-0.5221791230201721,0.434548185840249,-0.555945199021697
1782836829319883500,3.918883544921875,-0.0021440262913703916,0.399124405759573,-0.5171543536607176
1782836829329812500,3.9288125,0.4101847289562225,0.42410277967154975,-0.4270623601295054
1782836829339741400,3.938741455078125,0.8274433418214321,0.4557529594976455,-0.37439452671594914
1782836829349670400,3.94867041015625,1.1642506998777389,0.5555163791503757,-0.2765945891559124
1782836829359600600,3.9586005859375,1.3225661156117916,0.7159043633747846,-0.2271525128558278
1782836829369529600,3.968529541015625,1.5087638100057839,0.8421493280440568,-0.27007643943354487
1782836829379458300,3.978458251953125,1.5992928067147731,0.9551922082476317,-0.27970453786998983
1782836829389387500,3.988387451171875,1.4840046318024396,0.9948417162645607,-0.23533282363675534
1782836829399316500,3.99831640625,1.4645248553067445,0.9580085808426141,-0.21962883935272692
1782836829409246500,4.00824658203125,1.3665975650399922,0.9571354512698947,-0.20996998045183718
1782836829419175700,4.01817578125,1.1940455341607332,0.9638761577017605,-0.1256468526456505
1782836829429104600,4.028104736328125,1.0464145940482616,1.0230832566909491,-0.06037007835395634
1782836829439033600,4.03803369140625,0.706162063974142,1.0668927339315413,-0.11136793272867798
1782836829448963600,4.047963623046875,0.3941425256937742,1.0780223229721189,-0.17330270311608909
1782836829458892500,4.057892578125,0.05502162999808788,1.089464485093206,-0.2550227357517928
1782836829468821500,4.067821533203125,-0.2500368370980024,1.0957118550501763,-0.29462124423384667
1782836829478750500,4.07775048828125,-0.5031833306491375,1.1041636762488634,-0.21718371122293173
1782836829488680700,4.0876806640625,-0.7067810726553201,1.0215304012257604,-0.20305260227881372
1782836829498609700,4.097609619140625,-0.7195090368032455,0.8907654749140143,-0.20447189449220896
1782836829508538400,4.107538330078125,-0.6027800154328345,0.8263866723753511,-0.2301822359405458
1782836829518467300,4.11746728515625,-0.37548224888741966,0.8182043888330459,-0.20795396445430814
1782836829528397600,4.1273974609375,-0.309687880462408,0.8024982125919312,-0.06373144454583525
1782836829538326500,4.137326416015625,-0.2542863112360239,0.672171020110324,-0.00961063584499061
1782836829548255500,4.14725537109375,-0.0330003523260355,0.492250214028731,-0.04301796153672039
1782836829558184700,4.157184814453125,0.14862053567171096,0.40430633844211694,0.024873963689431546
1782836829568114400,4.167114501953125,0.5256441687822342,0.363704132810235,0.13364223531372843
1782836829578043400,4.17704345703125,0.8624871826738119,0.29357231970280406,0.17267573032416403
1782836829587972600,4.18697265625,0.9978642058908939,0.1979892544746399,0.298560848705098
1782836829597901600,4.196901611328125,1.0581325043708085,0.10086582793667911,0.40615357374399896
1782836829607830500,4.20683056640625,1.2030997782319783,0.09955671809948981,0.3604898469388485
1782836829617760500,4.216760498046875,1.1761240930229424,0.11436740680560468,0.30192550283260644
1782836829627689500,4.226689453125,0.9922481195747852,0.04840082361884415,0.3190159730389714
1782836829637618400,4.236618408203125,0.8712257849246263,-0.1692568617913872,0.36815117534697056
1782836829647547400,4.24654736328125,0.6477870318949223,-0.4159492838323116,0.3569289395868778
1782836829657477600,4.2564775390625,0.3594605038911104,-0.6263611628327518,0.2979700432050973
1782836829667406600,4.266406494140625,0.18742343679666518,-0.7162216856956481,0.23538440769352018
1782836829677335600,4.27633544921875,-0.01219663375020027,-0.7191683336067944,0.21581885261051356
1782836829687264000,4.286263916015625,-0.24642332277595996,-0.7737355709008872,0.11125709276534616
1782836829697194000,4.296194091796875,-0.4350421068370342,-0.8998307518359273,-0.03495784306935966
1782836829707122700,4.306122802734375,-0.5017126735746861,-0.9438540910229086,-0.09434132153876125
1782836829717052000,4.316052001953125,-0.43135728084444996,-0.9445107283007353,-0.13790924510844052
1782836829726980900,4.32598095703125,-0.5959755961149931,-1.010477749878913,-0.1594430315244943
1782836829736910800,4.335910888671875,-0.7575099738955497,-1.142533519718796,-0.13846052231565117
1782836829746840000,4.345840087890625,-0.7601993591099977,-1.2358847342416643,-0.1653954371228814
1782836829756769000,4.35576904296875,-0.7779653174251318,-1.1837414361588656,-0.12837795810997485
1782836829766698000,4.365697998046875,-0.7176438274532556,-1.0587756245799362,-0.0976057301621884
1782836829776628000,4.3756279296875,-0.537093783557415,-0.8678815159980208,-0.018932006419822574
1782836829786557000,4.385556884765625,-0.4494803820341825,-0.7619250869240611,0.022375461404584348
1782836829796486000,4.39548583984375,-0.41107261770665643,-0.6768051096517592,0.08254654658772051
1782836829806414800,4.405414794921875,-0.4165367283314466,-0.592834594675526,0.201495910888724
1782836829816343800,4.41534375,-0.4049930055320263,-0.5192720764670521,0.32669564082138236
1782836829826273800,4.425273681640625,-0.2959352494418621,-0.3695592155139893,0.3723405898608267
1782836829836202800,4.43520263671875,-0.18920272142887115,-0.17556991739571093,0.441936031069234
1782836829846131700,4.445131591796875,-0.2071557267487049,-0.03129530197381973,0.5150741133205592
1782836829856061000,4.45506103515625,-0.2929237926661968,0.04558912719897926,0.4593653047759086
1782836829865991000,4.464990966796875,-0.3205038735091686,0.09057853493914007,0.5186768870528787
1782836829875920000,4.474919921875,-0.18174305307269095,0.09311053763478994,0.5432688919957727
1782836829885849000,4.48484912109375,0.01864507923722267,0.11011427940577267,0.5040067758612334
1782836829895778000,4.494778076171875,0.10491583397984504,0.11740640917532146,0.4535214010532945
1782836829905707800,4.504707763671875,0.06846154180765152,0.01487659354917705,0.3554922578472644
1782836829915637000,4.514636962890625,-0.07886427787840367,-0.1305628278683871,0.3442560666270554
1782836829925566000,4.52456591796875,-0.485375286757946,-0.27096388979256153,0.2764157985229045
1782836829935495000,4.534494873046875,-1.012392497459054,-0.45248182887248695,0.19580957234799862
1782836829945425000,4.5444248046875,-1.729462908938527,-0.5444534986704588,0.07313252929337322
1782836829955353900,4.554353759765625,-2.3293892885059115,-0.5506198392804712,-0.12546773321907967
1782836829965282800,4.56428271484375,-2.540494629663229,-0.5263173918686807,-0.23531952576376497
1782836829975211800,4.574211669921875,-2.5443261706501246,-0.3706858814563602,-0.22907613786216824
1782836829985142000,4.58414208984375,-2.140600408574939,-0.09146353761274367,-0.16649744354803114
1782836829995071000,4.594071044921875,-1.600445483881235,0.12916213075760752,-0.1269557432871312
1782836830005000000,4.604,-0.875970933625102,0.22792722355537115,-0.10820574237070978
1782836830014929000,4.613928955078125,-0.1358832191735506,0.3054642714180052,-0.12066661654766649
1782836830024858000,4.623858154296875,0.15756138249635696,0.4094789918396622,-0.09970072968006133
1782836830034787800,4.633787841796875,0.29676527052521706,0.37962362300846725,-0.046620662203803655
1782836830044716800,4.643716796875,0.3603501462072134,0.12458777204677463,-0.01737023699581623
1782836830054646000,4.65364599609375,0.5788596261411905,-0.017252528900280593,-0.0781854287687689
1782836830064575000,4.663574951171875,0.8228525068998336,0.17679120281897484,-0.11401070232242345
1782836830074505000,4.6735048828125,0.7724386629581451,0.44277379706762726,-0.1705761276964098
1782836830084434000,4.683433837890625,0.6646481503248214,0.46954373057149346,-0.22083953031674025
1782836830094363000,4.69336279296875,0.610560001784563,0.3714911334246397,-0.26394926179014144
1782836830104291800,4.703291748046875,0.5805640919715166,0.38607751185558736,-0.37295565301924943
1782836830114221800,4.713221923828125,0.4701280332654714,0.5556869864769279,-0.5129688116043806
1782836830124151000,4.723151123046875,0.4203589169681072,0.6448034129742533,-0.5700848565984517
1782836830134080000,4.733080078125,0.31048516831994055,0.6120362848822027,-0.586072626259923
1782836830144009000,4.743009033203125,0.16695172665417193,0.5202377796940505,-0.6639389791421592
1782836830153939000,4.75293896484375,0.09759060565829276,0.43908641379177565,-0.7344559921748935
1782836830163868000,4.762867919921875,0.09835632933378219,0.4516310572620481,-0.7311103350088
1782836830173796900,4.772796875,-0.03229775701463222,0.5398953239094466,-0.6678623631309718
1782836830183725800,4.782725830078125,-0.24075521401166913,0.5077266731671989,-0.6216251472868025
1782836830193656000,4.792656005859375,-0.40996962490081784,0.3534752920016646,-0.6950609703756868
1782836830203585000,4.8025849609375,-0.4625543831408024,0.27558168578632175,-0.7174656213421374
1782836830213513700,4.812513671875,-0.5441150604963302,0.29640841991156336,-0.5876304501611739
1782836830223442700,4.822442626953125,-0.5235521649390459,0.28584932423532006,-0.5532421506080776
1782836830233372000,4.832371826171875,-0.409652229514718,0.2019048935484141,-0.5431243689585477
1782836830243302000,4.842302001953125,-0.31301205644905566,0.1261187810063362,-0.5158771002665162
1782836830253230800,4.85223095703125,-0.1442401286303997,0.06190335233584046,-0.45352761159837246
1782836830263160000,4.86216015625,0.1317348673224449,-0.03313544994778931,-0.41211766978017983
1782836830273089000,4.872089111328125,0.3525181374073028,-0.10896752052344381,-0.38409503280147905
1782836830283018800,4.882018798828125,0.5206342316657304,-0.1601674733415246,-0.35510523129105565
1782836830292948000,4.891947998046875,0.6674100162535905,-0.22052169653922318,-0.32637291167303917
1782836830302877000,4.901876953125,0.8703671222686767,-0.2920881455596536,-0.3218926244538277
1782836830312806000,4.911805908203125,1.018802364501357,-0.3079282503787428,-0.36286819344274696
1782836830322735900,4.92173583984375,1.0556254899859427,-0.30427447711154815,-0.4089502917904407
1782836830332665000,4.9316650390625,0.991800960329175,-0.3820837660443038,-0.471669782814756
1782836830342593800,4.94159375,0.9935282225131988,-0.533004249221459,-0.6056130469016731
1782836830352522800,4.951522705078125,1.0230290422856807,-0.637463644670695,-0.6771925745993852
1782836830362453000,4.961452880859375,1.0276999567061662,-0.6525936284590512,-0.6647799600109457
1782836830372382000,4.9713818359375,1.0210136108100414,-0.6165276780173182,-0.7073611375655978
1782836830382311000,4.981310791015625,0.9189894066184758,-0.5836586969859898,-0.7941706753600388
1782836830392239900,4.991239990234375,0.677245181569457,-0.6003105565793811,-0.8566764505684376
1782836830402169900,5.001169921875,0.48026247378885745,-0.6985217783540487,-0.85977704693228
1782836830412098800,5.011098876953125,0.4145382479906082,-0.8050106338042765,-0.7904247668299823
1782836830422027800,5.02102783203125,0.3775345052421093,-0.8230171228770166,-0.7621009549476205
1782836830431957000,5.03095703125,0.3042114948779344,-0.7901749567873776,-0.7601684525150805
1782836830441887000,5.040886962890625,0.1700380022317171,-0.8110754868011921,-0.7617918159332125
1782836830451816000,5.05081591796875,0.17072539997398853,-0.9449950046863407,-0.8225731785017997
1782836830461745000,5.060744873046875,0.1758972496539354,-1.0826410688139498,-0.8382114040732384
1782836830471673900,5.070673828125,0.08534078041613101,-1.1780466585833578,-0.817824595735222
1782836830481602800,5.080602783203125,0.05005670106709003,-1.3057611112833023,-0.756641885824129
1782836830491532800,5.09053271484375,0.10833177990317344,-1.3962345784127712,-0.7118848986003548
1782836830501462000,5.1004619140625,0.035350130322575564,-1.3840920129373668,-0.710907285739854
1782836830511391000,5.110390869140625,-0.07086041964292526,-1.3777658786557614,-0.7096701451603323
1782836830521320000,5.12031982421875,-0.20634207227826118,-1.3780655922546983,-0.6505247862957417
1782836830531250000,5.13025,-0.3903951558589935,-1.3780489333808421,-0.7185651800818741
1782836830541179000,5.140178955078125,-0.5489326899111271,-1.3096335688024758,-0.7290791214421392
1782836830551107800,5.15010791015625,-0.7553104180246591,-1.167993393537402,-0.6394497039213776
1782836830561036800,5.160036865234375,-1.0187959347605704,-1.0066138409923762,-0.6409274483237415
1782836830570967000,5.169967041015625,-1.304443014422059,-0.8476575700715183,-0.6415701301414519
1782836830580896000,5.17989599609375,-1.623853247475624,-0.7385754101924598,-0.5325157350521534
1782836830590825000,5.189824951171875,-1.746744298607111,-0.6320777138486504,-0.38441549692749977
1782836830600753700,5.199753662109375,-1.851650780236721,-0.4037173595730215,-0.1443921043217182
1782836830610684000,5.209683837890625,-1.9411562791168688,-0.1537603827781975,-0.06254990661107003
1782836830620612900,5.21961279296875,-2.019383428135514,0.09275617123916745,0.1142986524183303
1782836830630541800,5.229541748046875,-2.1196973212778567,0.3032399464320391,0.29300935205779965
1782836830640471000,5.239470947265625,-2.1951935840278862,0.45744595408588645,0.3649605626121163
1782836830650400800,5.24940087890625,-2.17000945841074,0.5810698495365679,0.4478627177044749
1782836830660329700,5.259329833984375,-1.9838065033197403,0.6759175131622701,0.5393843787126242
1782836830670259000,5.269259033203125,-1.5594383507102727,0.8532255794622003,0.724133847059682
1782836830680188000,5.27918798828125,-1.116291847872734,1.1093899595297871,0.8230129581585526
1782836830690122200,5.289122314453125,-0.6993886243164539,1.3003610058054327,0.8633788708165288
1782836830700051200,5.29905126953125,-0.36977088550329207,1.3322628953702746,0.8401059125829488
1782836830709980200,5.308980224609375,-0.13934534232616425,1.2494336593836546,0.8008147895496338
1782836830719909000,5.3189091796875,-0.0034913492470979688,1.1718848480179904,0.6741261727660894
1782836830729835300,5.328835205078125,0.037628596648573875,1.1128105816282332,0.5618023275520653
1782836830739764200,5.33876416015625,0.1856049891978502,1.021283148466423,0.5392752923149615
1782836830749693400,5.348693359375,0.3646025429546833,0.944875908351317,0.5201940136175602
1782836830759623200,5.358623046875,0.4664782785862684,0.9929233154226094,0.513806285341829
1782836830769552100,5.36855224609375,0.5799994438260794,1.0915347154960036,0.5207312257668003
1782836830779481000,5.378481201171875,0.6903986776530743,1.1370170943848787,0.394251977417618
1782836830789410300,5.388410400390625,0.6900152312934398,1.1368876958515495,0.24471878388039767
1782836830799340300,5.39834033203125,0.7098743624955415,1.024495826902613,0.22450258286893365
1782836830809269200,5.408269287109375,0.9389870695084332,0.8181471056878566,0.2634304255478084
1782836830819198500,5.418198486328125,1.2376958753168583,0.6726098499190062,0.30320626335814593
1782836830829127400,5.42812744140625,1.4190648343801497,0.6778563722703606,0.3682022479470819
1782836830839057200,5.43805712890625,1.3934703743964434,0.6870504632037132,0.4447143366761505
1782836830848986400,5.447986328125,1.5057085140883921,0.548461346072331,0.465160839312151
1782836830858915300,5.457915283203125,1.5458634143441914,0.46014184210635717,0.5295628035306931
1782836830868844300,5.46784423828125,1.375471776369214,0.4962341690983623,0.6215729056429118
1782836830878774300,5.477774169921875,1.1476228056818245,0.4921563982654363,0.6952094389356672
1782836830888703200,5.487703125,0.8500216688543558,0.3980602105941623,0.7244692895591258
1782836830898632200,5.497632080078125,0.39956981143951414,0.34787155371047557,0.6737491561472415
1782836830908561200,5.50756103515625,-0.013127777120471,0.3560351325523108,0.606743219975382
1782836830918491400,5.517491455078125,-0.28288229112327096,0.3169257227614522,0.5342142095331103
1782836830928420400,5.52742041015625,-0.6446838051825762,0.25420425897575916,0.5539318864379078
1782836830938349300,5.537349365234375,-0.9693892220348119,0.14417773091867564,0.5431098289765417
1782836830948278300,5.5472783203125,-1.0971364810258148,0.0043278000712394715,0.5159108564056456
1782836830958208300,5.557208251953125,-1.1794488535314798,-0.0677924103744328,0.5861396270815282
1782836830968137200,5.56713720703125,-1.248778410345316,-0.07278758831322192,0.5783249347425997
1782836830978066200,5.577066162109375,-1.1081593948215245,-0.05124291517697274,0.44850846826210616
1782836830987995400,5.586995361328125,-0.8601438344180583,0.030698212863504885,0.33457046584971245
1782836830997925400,5.59692529296875,-0.5612140793353319,0.08590411338731646,0.2958436256356537
1782836831007854300,5.606854248046875,-0.15772855575680733,0.01701974305771291,0.32130817562937736
1782836831017783000,5.616782958984375,0.1955652421981096,-0.16647322242222726,0.4008578054234385
1782836831027712300,5.626712158203125,0.5070996273100375,-0.3201790254689753,0.536181271822378
1782836831037641200,5.63664111328125,0.9140051884651184,-0.41202860325723883,0.515534278178215
1782836831047571200,5.6465712890625,1.0832342124015093,-0.39221827963292594,0.48425775397010146
1782836831057500400,5.65650048828125,1.1829700133949517,-0.39309710829406974,0.47617410849668085
1782836831067429400,5.666429443359375,1.2148176885545252,-0.5162218220509588,0.49566418719068167
1782836831077358300,5.6763583984375,1.1198872420161963,-0.676874667756632,0.5497399877060204
1782836831087288300,5.686288330078125,1.0982038179963827,-0.7419397720590233,0.5271961474645882
1782836831097217300,5.69621728515625,1.0430950942367314,-0.6790658941905945,0.4433219324696809
1782836831107146200,5.706146240234375,1.0520429553240538,-0.6166613143343478,0.44715566541366275
1782836831117075200,5.7160751953125,1.0472896233171225,-0.6309965675484389,0.4398273683521896
1782836831127005400,5.72600537109375,0.9481827678769826,-0.7479525295425206,0.461656995909661
1782836831136934400,5.735934326171875,0.7222095279335975,-0.9027045537065714,0.5474461046151816
1782836831146863000,5.745863037109375,0.5245043510973453,-1.0112559677097945,0.5177676632534712
1782836831156792000,5.7557919921875,0.4053922339826822,-1.0465450154948979,0.3776197723727673
1782836831166722300,5.765722412109375,0.3121434569209814,-1.017344713038951,0.3297391732357442
1782836831176651300,5.7756513671875,0.26571196061372754,-0.9786243756309151,0.3699516488976776
1782836831186580200,5.785580322265625,0.2540858202278614,-0.9948879665590822,0.3722890788692981
1782836831196509400,5.795509521484375,0.15967384460568426,-1.0070259289246053,0.42302777085117993
1782836831206439200,5.805439208984375,-0.0610726006001234,-1.0510087169054896,0.46786396079100667
1782836831216368000,5.8153681640625,-0.1731447360754013,-1.1169339451685547,0.3982680811911821
1782836831226297300,5.82529736328125,-0.32000995251238346,-1.0872677057012914,0.34505481578931213
1782836831236226300,5.835226318359375,-0.5065437469929457,-0.9857374955717474,0.3926153161264956
1782836831246156300,5.84515625,-0.5946171672433614,-0.8868245552685111,0.4614893111925572
1782836831256085500,5.85508544921875,-0.7361544666558504,-0.8012150409135967,0.5046344062402844
1782836831266014500,5.865014404296875,-0.9279887056320905,-0.7082082559142261,0.5824103043600917
1782836831275943200,5.874943115234375,-1.081261451023817,-0.6376259225603192,0.6037638388384133
1782836831285873200,5.884873046875,-1.2161340318500995,-0.5596359432984143,0.559624764317274
1782836831295802400,5.89480224609375,-1.3413801216751335,-0.48781551951691504,0.5669277808070182
1782836831305731300,5.9047314453125,-1.3106658344596624,-0.4984141434859484,0.5710758403971791
1782836831315660300,5.914660400390625,-1.178807048496604,-0.5451780866179615,0.5554577077656984
1782836831325589200,5.92458935546875,-1.0855822368323802,-0.5927897326204925,0.5770720851372927
1782836831335519200,5.934519287109375,-1.0645143143624067,-0.6178570269249379,0.5608564980693161
1782836831345448200,5.9444482421875,-1.1957839022606611,-0.6352279945731163,0.5213377768252044
1782836831355377200,5.954377197265625,-1.5102379742115735,-0.6913623350534588,0.39767091901563106
1782836831365306400,5.964306396484375,-1.803432985034585,-0.7489264160759747,0.26316052256524564
1782836831375236400,5.974236328125,-1.971046390467882,-0.7669686340492218,0.23858086564727127
1782836831385165300,5.984165283203125,-1.9827537793964147,-0.6671375559877604,0.2966070112235844
1782836831395094300,5.99409423828125,-1.8416788367986678,-0.48755555340647694,0.3133338357493281
1782836831405023200,6.004023193359375,-1.4611077403396366,-0.27158194862566887,0.38317799102179706
1782836831414953200,6.013953125,-0.9443483042806387,-0.0782704767037183,0.4751812980670482
1782836831424882200,6.023882080078125,-0.35225510255694387,0.08234956271089613,0.5372642447534949
1782836831434811400,6.033811279296875,-0.006624971097707748,0.2829951769132167,0.3973732512433082
1782836831444740400,6.043740234375,0.30981589075624943,0.4381288938712328,0.23108305723778902
1782836831454670000,6.053670166015625,0.6054769994318485,0.45119960704222317,0.3249308231059462
1782836831464599300,6.063599365234375,0.7748673514097929,0.41060558471679687,0.6299823490045965
1782836831474528300,6.0735283203125,0.6771364604979753,0.3225567874509841,0.8514742788154631
1782836831484457200,6.083457275390625,0.45528293083310123,0.24065650287754833,0.8240592523410916
1782836831494387500,6.093387451171875,0.41733284714519975,0.3001918839730322,0.6405164563700556
1782836831504316400,6.10331640625,0.5225666610330343,0.5602827898345887,0.5038881909828633
1782836831514245400,6.113245361328125,0.7168664133399725,0.7686023727308958,0.5118742943659425
1782836831524174300,6.12317431640625,0.9983990434199571,0.7251719579357654,0.597830430201441
1782836831534104300,6.133104248046875,1.2000748774528502,0.5230983567569405,0.656717065064609
1782836831544033300,6.143033203125,1.2423504231244324,0.34019707355983553,0.6136315181843937
1782836831553962200,6.152962158203125,1.2219710674405098,0.26735899716839195,0.4619965300623327
1782836831563891200,6.16289111328125,1.1263806956887243,0.266944863409549,0.4255987173177302
1782836831573821200,6.1728212890625,0.9522042784780264,0.2672845436926931,0.4593733419518918
1782836831583750100,6.182750244140625,0.7542179466128349,0.3122966747213155,0.5141104559201747
1782836831593679000,6.19267919921875,0.3805179049670696,0.4408236859131604,0.5369020603775978
1782836831603608300,6.2026083984375,-0.02657061153948307,0.5523896254319697,0.44463425717726346
1782836831613538300,6.212538330078125,-0.355399245801568,0.6197484666947275,0.2941532613959163
1782836831623467300,6.22246728515625,-0.718165220978856,0.6827250742852687,0.1967830204900354
1782836831633396500,6.232396484375,-0.9234791192531585,0.7156956159949303,0.14575491710752247
1782836831643325400,6.242325439453125,-0.9606342531710863,0.6837992793880403,0.1308597649883479
1782836831653255200,6.252255126953125,-0.982557915687561,0.6383228918485343,0.12450937304832041
1782836831663184100,6.26218408203125,-0.8916811284542083,0.6115742933936417,0.1443777104701847
1782836831673113300,6.27211328125,-0.8084288447499275,0.5775059465099126,0.185176899978891
1782836831683042300,6.282042236328125,-0.7128712062239646,0.5390985475085676,0.1761548776768148
1782836831692967400,6.291967529296875,-0.5785831472873687,0.48873190370947117,0.1447647370263934
1782836831702897700,6.301897705078125,-0.3522188621997833,0.47491190654113885,0.04188698474541306
1782836831712826400,6.311826416015625,-0.1508838044285774,0.5075521203178912,-0.008262728367373347
1782836831722755300,6.32175537109375,0.10878303080201149,0.38556919700726866,-0.11583273011781274
1782836831732684500,6.3316845703125,0.3404787400454283,0.25085589839592576,-0.19540106461234388
1782836831742614500,6.341614501953125,0.4899292968004942,0.15043978698812424,-0.11931209666617214
1782836831752543500,6.35154345703125,0.6210872410178184,-0.030969357955083248,-0.05912848079502582
1782836831762472700,6.36147265625,0.7261293317258357,-0.23846279222555458,-0.22114377396032212
1782836831772401700,6.371401611328125,0.7611316715240478,-0.3414890861317515,-0.45498884325735267
1782836831782331400,6.381331298828125,0.7685217817753552,-0.38196415825262664,-0.5493599754124879
1782836831792260400,6.39126025390625,0.837333452194929,-0.44841582154259085,-0.56595243296884
1782836831802189600,6.401189453125,0.96523385592103,-0.4593282607011497,-0.5226560928821563
1782836831812118500,6.411118408203125,0.9787544317513703,-0.3693430885452777,-0.575599601431936
1782836831822048500,6.421048583984375,0.8674532806485891,-0.28416619345396754,-0.6843782483197748
1782836831831977700,6.430977783203125,0.8451467562943696,-0.2913040094446391,-0.7631596702203154
1782836831841906400,6.440906494140625,0.7815928602725267,-0.39534254913330075,-0.7463453866068274
1782836831851835400,6.45083544921875,0.7319435709625483,-0.5033299725782125,-0.7077233219414949
1782836831861765600,6.460765625,0.6150146431058645,-0.5463664926849305,-0.650963616104424
1782836831871694600,6.470694580078125,0.5328735355138778,-0.585312966999039,-0.6038478638600557
1782836831881623600,6.48062353515625,0.5771592519640922,-0.6462983277071267,-0.6689085111830383
1782836831891552500,6.490552490234375,0.5558785635262727,-0.6714038351301104,-0.8569435770720243
1782836831901482500,6.500482421875,0.43112171852290626,-0.6348716554161161,-0.672041037055105
1782836831911411500,6.510411376953125,0.3470627946108579,-0.6793545749388635,-0.5667668180916458
1782836831921340400,6.52034033203125,0.32567572318911553,-0.7062612865649164,-0.5402275515384972
1782836831931269600,6.53026953125,0.10446399855911731,-0.6661561437349766,-0.5283409335855395
1782836831941199600,6.54019970703125,0.1541910292804241,-0.6568217675480991,-0.4973507520381361
1782836831951128600,6.550128662109375,0.1865893240600824,-0.6198577722880989,-0.4468831320825964
1782836831961057500,6.5600576171875,-0.01869534811973572,-0.5848151004794985,-0.3567865354415029
1782836831970986500,6.569986572265625,-0.21086977883577346,-0.6331790992192924,-0.2918721647214144
1782836831980916500,6.57991650390625,-0.37176761227846145,-0.6236163941692561,-0.19512487801946699
1782836831990845400,6.589845458984375,-0.579988922432065,-0.469166494756937,-0.036539267041906714
1782836832000774700,6.599774658203125,-0.7302712538361549,-0.29773659977540373,0.09924743295460939
1782836832010703600,6.60970361328125,-0.969793711182475,-0.11681421543583273,0.1803149199657142
1782836832020633300,6.61963330078125,-1.160621403464675,0.019570669649541378,0.2572422384321689
1782836832030562600,6.6295625,-1.2801467775553463,-0.006397080625966191,0.3380935254093259
1782836832040491500,6.639491455078125,-1.3845967475891112,0.03469042430482805,0.2895679794322699
1782836832050420500,6.64942041015625,-1.5500298863738775,0.16552198611199856,0.27774733938761054
1782836832060350500,6.6593505859375,-1.7416946140021086,0.25898206783682104,0.22350246591567993
1782836832070279700,6.66927978515625,-1.9470459216773508,0.21607078154496848,0.271229189665243
1782836832080208600,6.679208740234375,-1.928630559542775,0.17554704797677695,0.2615119516406208
1782836832090137600,6.6891376953125,-2.0740812330067158,0.20960458120554684,0.2768169997349381
1782836832100066300,6.69906640625,-2.0380606560766696,0.2076743437953293,0.3536638003110885
1782836832109996500,6.70899658203125,-1.8260662571251391,0.1939693513087928,0.37867081579566
1782836832119925500,6.718925537109375,-1.693121429491043,0.18860081001296639,0.4018118912778795
1782836832129854500,6.7288544921875,-1.4159329660952091,0.18878829540908335,0.4682864239867776
1782836832139783700,6.73878369140625,-0.9233674755722284,0.18773980926945805,0.5068417435588315
1782836832149713400,6.74871337890625,-0.49184185242354866,0.2465728142492473,0.7169761573247612
1782836832159642400,6.758642333984375,-0.1478431215584278,0.26610753580257296,0.6306834830112755
1782836832169571600,6.768571533203125,0.08695873700678348,0.36553996993526816,0.6233524094708264
1782836832179500500,6.77850048828125,0.23712825568616389,0.4127330982647836,0.5263508557468652
1782836832189430500,6.788430419921875,0.4024854066252708,0.41709173186570403,0.3776379290839657
1782836832199359500,6.798359375,0.3998918830007314,0.4921327981941402,0.29411636345162984
1782836832209288700,6.808288818359375,0.4469821354776621,0.5796953463129699,0.3040912660317495
1782836832219217700,6.8182177734375,0.5394347937256098,0.5240576302431523,0.43457277229223396
1782836832229147400,6.8281474609375,0.7830559185624122,0.4309222504280507,0.613079218063876
1782836832239076600,6.83807666015625,1.0403051712572573,0.4054273052960634,0.7493259367875754
1782836832249005600,6.848005615234375,1.2817191414386033,0.4579093338139355,0.7528413244973867
1782836832258934500,6.8579345703125,1.3493904096513987,0.6049503452092408,0.7536354705497622
1782836832268864500,6.867864501953125,1.3287877666056156,0.7593544327184557,0.6890228592552244
1782836832278793500,6.87779345703125,1.253393795186281,0.7722692977406084,0.6518346267852931
1782836832288722400,6.887722412109375,0.9967173739433288,0.6623875119164586,0.6881447612464427
1782836832298651400,6.8976513671875,0.8558405842661857,0.5486551881439984,0.7927610277578234
1782836832308581600,6.90758154296875,0.7886170598208904,0.46428661376088853,0.9438568675018847
1782836832318510600,6.917510498046875,0.6054103639364242,0.4535657516516745,1.1128713719047605
1782836832328439600,6.927439453125,0.41708910151720047,0.5269068821944296,1.1549597244411707
1782836832338368500,6.937368408203125,0.15082418319582938,0.6370391356483102,1.024823670617491
1782836832348298500,6.947298583984375,-0.03644844695329666,0.6893268106378615,0.9007875411041081
1782836832358227500,6.9572275390625,-0.08913725008964538,0.6195959795467555,0.8579806650348007
1782836832368156400,6.967156494140625,-0.10891688631474972,0.47903497782051563,0.9450347521748393
1782836832378085600,6.977085693359375,-0.08287818969488144,0.34586598604172464,1.0715693474404513
1782836832388015600,6.987015625,-0.016219313395023346,0.2688013049311936,1.108669682431221
1782836832397944600,6.996944580078125,0.05999298866987228,0.28033932864218947,1.0117968696534634
1782836832407873500,7.00687353515625,0.15596563773751257,0.3298072700358927,0.923763854478672
1782836832417802500,7.016802490234375,0.2628571557044983,0.2914635108552873,0.850497250476852
1782836832427732500,7.026732421875,0.30914544414877887,0.11679770269244909,0.849453367447108
1782836832437661400,7.036661376953125,0.4932376906961202,-0.07399133807979524,0.9074635117366909
1782836832447590700,7.046590576171875,0.6623766982614994,-0.2209389721032232,0.9617353462807834
1782836832457519600,7.05651953125,0.6754594671964645,-0.23682949193529784,0.9602293256320059
1782836832467449300,7.066449462890625,0.6192617791563272,-0.21791429051980374,0.9385079076893628
1782836832477378600,7.076378662109375,0.6546154166102409,-0.26115393198318776,0.9259729088302702
1782836832487307500,7.0863076171875,0.5976619417667388,-0.330072496843338,0.8869460627563297
1782836832497236500,7.096236572265625,0.5480149905443191,-0.3996981870595366,0.8575155317410826
1782836832507165400,7.10616552734375,0.6292372297257185,-0.48955103807263073,0.8890084751788526
1782836832517095700,7.116095703125,0.5260661935865879,-0.5936047753304243,0.8200836267083883
1782836832527024400,7.1260244140625,0.4214601562082767,-0.6707317810874432,0.6664177903458476
1782836832536953300,7.135953369140625,0.36712592395246024,-0.6331207200955599,0.6937935807883739
1782836832546882600,7.145882568359375,0.3689361882448196,-0.5611508779060095,0.7975432935982942
1782836832556812500,7.1558125,0.501917840757966,-0.5398272271092981,0.7663825047243386
1782836832566741500,7.165741455078125,0.3359650620132685,-0.5647378695473074,0.6827233937848359
1782836832576670500,7.17567041015625,0.14270809675753116,-0.690880689016357,0.5617947287674993
1782836832586599700,7.185599609375,0.0853723445981741,-0.8405156624276191,0.6490940228402614
1782836832596529400,7.195529296875,-0.016050386568903924,-0.9326733563169837,0.6613738048292697
1782836832606458400,7.205458251953125,0.02991641483604908,-0.91047971775271,0.61898617708534
1782836832616387600,7.2153876953125,-0.08610416600406169,-0.914630261560902,0.5183528427302837
1782836832626316500,7.225316650390625,-0.292930806928873,-1.0047022352173924,0.4170395632870495
1782836832636246500,7.23524658203125,-0.27001988694071766,-1.056859342629835,0.37220037767253816
1782836832646175700,7.24517578125,-0.3092722853988409,-0.9800007785506546,0.2785842286031693
1782836832656104400,7.2551044921875,-0.5143786784023047,-0.8904859273202717,0.3647280690304935
1782836832666033400,7.265033447265625,-0.6022276422470808,-0.8576769328478723,0.3224118260223418
1782836832675963600,7.274963623046875,-0.7608949401587247,-0.7720907263033091,0.33054880911819634
1782836832685892600,7.284892578125,-0.9133370799452066,-0.6891466317653656,0.29493242907486855
1782836832695825700,7.29482568359375,-1.1306330924361943,-0.6684202162094414,0.2534294752109796
1782836832705754600,7.304754638671875,-1.3251391809701918,-0.6758369952719658,0.14420600716508924
1782836832715684400,7.314684326171875,-1.3458026142925024,-0.6755467801537365,0.06371328783463687
1782836832725613600,7.324613525390625,-1.2544821749448776,-0.688256404927373,0.18915574048198758
1782836832735542500,7.33454248046875,-1.179090541613102,-0.6712767746843398,0.3446843750417232
1782836832745471500,7.344471435546875,-1.2279174086242914,-0.6158535781480372,0.29474081549290565
1782836832755401700,7.354401611328125,-1.3409160112947225,-0.49492834719680245,0.36895755982641126
1782836832765330400,7.364330322265625,-1.6149492255300282,-0.4543552945941686,0.23616536547075956
1782836832775259400,7.37425927734375,-1.8609540306329726,-0.45072278331071136,0.047644854152388866
1782836832785188400,7.384188232421875,-2.077959535744786,-0.4331577543951571,-0.006237067758664489
1782836832795118600,7.39411865234375,-2.1733348034411666,-0.3620711978461593,0.09013663639053701
1782836832805047600,7.404047607421875,-1.9906191059440372,-0.2573782859019935,0.16852949736490844
1782836832814976500,7.4139765625,-1.7938479950875044,-0.10284458066374062,0.24197397868428377
1782836832824905700,7.42390576171875,-1.4835650713413953,-0.0159685535043478,0.26568507260680196
1782836832834835500,7.43383544921875,-0.9634498951137065,0.01275054130591452,0.33193522197529673
1782836832844764400,7.443764404296875,-0.5257119733214378,0.07876841628849506,0.5022426522655412
1782836832854693400,7.453693359375,-0.17956453998982905,0.14044322056546807,0.6267199131425469
1782836832864622600,7.46362255859375,0.14392974750697612,0.17002689631581305,0.6130632167771458
1782836832874552600,7.473552490234375,0.3919125746846199,0.15394216908589003,0.6583536532904952
1782836832884481500,7.4834814453125,0.5574129334867001,0.11833704108893871,0.6859023891471326
1782836832894410500,7.493410400390625,0.6232599088817834,0.1554161871612072,0.6991147758111357
1782836832904339500,7.50333935546875,0.7107301025420427,0.2469231620568782,0.6861999838542193
1782836832914268400,7.513268310546875,0.7781324906855821,0.30948643960617483,0.6307018223855644
1782836832924198700,7.52319873046875,0.7337883220463991,0.3069836630050093,0.5917120934516191
1782836832934127600,7.533127685546875,0.8138356722295284,0.3188951231382787,0.5451406041517853
1782836832944056600,7.543056640625,0.9221768044829368,0.41534181945845483,0.5210046724133193
1782836832953985500,7.552985595703125,0.9565157119363545,0.5404603373810649,0.5162082319170236
1782836832963915500,7.56291552734375,0.945660555922985,0.5500628629848361,0.5137793242696672
1782836832973844500,7.572844482421875,0.7662579284965991,0.4688777409434318,0.3715006319053471
1782836832983773400,7.5827734375,0.5244301168173551,0.4406978675764054,0.31909985193014145
1782836832993703700,7.59270361328125,0.4953834705531597,0.44166561663001774,0.2468495122987777
1782836833003632600,7.602632568359375,0.3548550559222698,0.480960319859907,-0.02394208966679871
1782836833013561600,7.6125615234375,0.169663323700428,0.6177803814921528,-0.3382699779547751
1782836833023490300,7.622490234375,0.02941957122981548,0.6839645529523491,-0.5800600879721343
1782836833033419500,7.63241943359375,-0.08069792304635047,0.5239890950515866,-0.8179965913012623
1782836833043349500,7.642349609375,-0.11431085431277752,0.3471590215269476,-1.01948895852603
1782836833053278500,7.652278564453125,-0.2798211499869823,0.28409583163149654,-1.165125509950891
1782836833063207700,7.662207763671875,-0.4145060992866754,0.18840214563570915,-1.266061261318624
1782836833073136600,7.67213671875,-0.26717618794739245,0.07940211108215153,-1.3147509118162095
1782836833083066400,7.68206640625,-0.08242518523037433,0.09425970766991376,-1.231927813309431
1782836833092995600,7.69199560546875,0.15810674141943454,0.16735029751770197,-1.1131668477199972
1782836833102924500,7.701924560546875,0.37875674051344393,0.19532449224479495,-0.9953208780836313
1782836833112853500,7.711853515625,0.5086731602370739,0.1409532159142196,-0.9145754626337438
1782836833122783500,7.721783447265625,0.7135533432692289,0.06032010173238814,-0.8282657641202211
1782836833132712700,7.731712646484375,0.9365782548010348,0.029980346917733547,-0.6799984988655895
1782836833142641700,7.7416416015625,1.0816747079998255,0.00550217761285603,-0.45936391653642056
1782836833152570400,7.7515703125,1.1747650796294211,0.0015816431682556867,-0.34327940361462533
1782836833162500600,7.76150048828125,1.2032248659163713,0.05165354180447757,-0.3036860096991062
1782836833172429600,7.7714296875,1.1703700595408677,0.10249145637713372,-0.3015411066249013
1782836833182358500,7.781358642578125,1.089939262998104,0.05268135048225522,-0.2629132698059082
1782836833192287500,7.79128759765625,0.9081617231339215,-0.05594568604044616,-0.20477102356925606
1782836833202217500,7.801217529296875,0.6732195793151855,-0.20188312010802328,-0.0934350203488022
1782836833212146400,7.811146484375,0.6149228731691837,-0.2932012213680893,-0.06256481191925704
1782836833222075400,7.821075439453125,0.4802607202231884,-0.21396920615583656,-0.06559555791728199
1782836833232004600,7.831004638671875,0.3331301308482885,-0.16920666597411035,-0.08753595237284899
1782836833241934600,7.8409345703125,0.2193289796233177,-0.2919320782151073,-0.11924107725657522
1782836833251863600,7.850863525390625,0.19485037192702293,-0.4327827105376869,-0.05990954817011952
1782836833261792500,7.86079248046875,0.20288345625698564,-0.5595127553101629,0.06090498894825577
1782836833271721700,7.8707216796875,0.2349444819062948,-0.6594894523873924,0.12765614664144814
1782836833281651500,7.8806513671875,0.22520751626789567,-0.6986001773525029,0.13656155682653187
1782836833291580400,7.890580322265625,0.1301058048158884,-0.6824547329112887,0.04749028464518487
1782836833301509600,7.900509521484375,0.0836859989464283,-0.6884471051938832,-0.06662687372639775
1782836833311438600,7.9104384765625,0.05529635528624057,-0.7759840804800391,-0.10526830067932605
1782836833321368600,7.92036865234375,-0.01766249794065952,-0.9049355276290327,-0.10841712009906768
1782836833331297500,7.930297607421875,-0.1398953774243593,-1.052738901698962,-0.19229338092058895
1782836833341226500,7.9402265625,-0.24047230541706083,-1.2091137778244911,-0.2848551255661994
1782836833351155500,7.950155517578125,-0.2758054846048355,-1.3549907138764858,-0.3184258981913328
1782836833361085400,7.96008544921875,-0.5189537312328815,-1.4459822135306895,-0.29652145183198153
1782836833371014700,7.9700146484375,-0.7569336353123187,-1.4636676539555191,-0.24357867393456398
1782836833380943600,7.979943603515625,-0.8948433918774128,-1.324683838418126,-0.2401974339984357
1782836833390872600,7.98987255859375,-1.1434171706855296,-1.0431574919484554,-0.32501594410613177
1782836833400802600,7.999802490234375,-1.4841706360191107,-0.8233791611224412,-0.3450637297481298
1782836833410731500,8.0097314453125,-1.8200714006245136,-0.7684375375580043,-0.30007110713757573
1782836833420660500,8.019660400390626,-2.024150788667798,-0.741577149291709,-0.22889183080382644
1782836833430589400,8.02958935546875,-2.005561823531985,-0.6574773819126188,-0.16238295743390918
1782836833440519700,8.039519775390625,-1.9253011228591204,-0.5305562715474516,-0.05619345025643706
1782836833450448600,8.04944873046875,-1.8070821551918983,-0.3614116379588842,0.008944207825511693
1782836833460377300,8.05937744140625,-1.7803414477825164,-0.20041421659924089,-0.0070980685021728275
1782836833470306600,8.069306640625,-2.028516582661867,-0.1248711190328002,-0.044773134640976785
1782836833480236500,8.079236572265625,-2.1398229944616554,-0.11678396642804145,0.0008116086438298225
1782836833490165500,8.08916552734375,-2.0910458118110893,-0.015563991291448472,0.08192972986362874
1782836833500094500,8.099094482421876,-1.9707699116140602,0.2463015960924327,0.15790789437908678
1782836833510023700,8.109023681640625,-1.8007336629480122,0.5167539561662823,0.21130594176333398
1782836833519952600,8.11895263671875,-1.6029975064516067,0.6633814913898706,0.2776129358856007
1782836833529882400,8.12888232421875,-1.264794894644618,0.7152776828438043,0.3282967558750883
1782836833539811600,8.1388115234375,-0.763404877153039,0.8348300910718739,0.29541360018793494
1782836833549740500,8.148740478515625,-0.2874205190747976,1.0127927488230168,0.26243783431388434
1782836833559669500,8.15866943359375,0.2191197207868099,1.0977234871335326,0.24202622032817453
1782836833569599700,8.168599853515625,0.5067261178225279,0.9980690077479928,0.286306420353055
1782836833579528400,8.178528564453124,0.6691787794917822,0.7977775407455862,0.11088694427870213
1782836833589457400,8.18845751953125,0.8495926297873259,0.6992654363282025,-0.08158098949119448
1782836833599386400,8.198386474609375,0.9565180500239133,0.7165081014215946,-0.028418723624199626
1782836833609316600,8.208316650390625,1.1015274094611405,0.7186734627619386,-0.22407164410576222
1782836833619245600,8.21824560546875,1.2570686843067407,0.8438979252770542,-0.18062997726425528
1782836833629174500,8.228174560546876,1.2757529265105723,0.9150647805206477,-0.1036949869479984
1782836833639103500,8.238103515625,1.3095277703404427,0.9089657329931855,0.03393989819847047
1782836833649033500,8.248033447265625,1.3721400015980005,0.8765855583921074,0.06105952192284166
1782836833658962400,8.25796240234375,1.2892834392130375,0.8315335337445139,0.1996264272224158
1782836833668891400,8.267891357421876,1.2212345698595046,0.6912409736961126,0.2525764385782182
1782836833678820600,8.277820556640625,1.3919967947125433,0.6247961785383522,0.3271934342756867
1782836833688746000,8.28774609375,1.4330541967660189,0.6913876886904239,0.28374446091055866
1782836833698675000,8.297675048828125,1.43765847569108,0.716657592894882,0.30214835180304944
1782836833708604000,8.30760400390625,1.5653221480518578,0.6071009473718703,0.3960976052843034
1782836833718532900,8.317532958984375,1.4613731132775545,0.49034372282028194,0.4877705113314092
1782836833728462800,8.327462890625,1.2140770993202925,0.42686961403638124,0.5922703118562698
1782836833738391800,8.337391845703126,0.8747726637512445,0.4314458359107375,0.6398246016483754
1782836833748320800,8.34732080078125,0.5216928008079529,0.5250040442477911,0.5939506661586463
1782836833758250000,8.35725,0.25424188757240773,0.6477705922167748,0.5318309676583856
1782836833768180000,8.367179931640624,-0.08561024500727653,0.6934056043840945,0.35868710836581885
1782836833778109000,8.37710888671875,-0.5249596936494112,0.580787744659558,0.20965243893526495
1782836833788038000,8.387037841796875,-0.672254533675313,0.39193332521170376,0.031636370496451856
1782836833797966800,8.396966796875,-0.6136299107491969,0.21518837268725036,0.036285803737491365
1782836833807896800,8.406896728515624,-0.4687397937774658,0.09858239317461848,0.1638466733109206
1782836833817825800,8.41682568359375,-0.33934242949187754,0.036627602912485596,0.28979667362160977
1782836833827755000,8.426755126953125,-0.0317804551422596,-0.03746222710572183,0.25629648201465605
1782836833837684000,8.43668408203125,0.2029430774897337,-0.0640807694401592,0.31902444860637186
1782836833847613700,8.44661376953125,0.3638613691985607,-0.1247915509905666,0.4673222551297396
1782836833857543000,8.45654296875,0.5523714321881532,-0.24031243868023155,0.5613713157236576
1782836833867472000,8.466471923828125,0.601608049044013,-0.35278109919242556,0.6464159627374261
1782836833877400800,8.47640087890625,0.5410626871883869,-0.48763176044784484,0.629489377855882
1782836833887331000,8.4863310546875,0.5891670851439237,-0.5632941004797816,0.579970217731595
1782836833897260000,8.496260009765624,0.5307879614114761,-0.4918908791970461,0.5764209277521819
1782836833907189000,8.50618896484375,0.4651315401524305,-0.43843934805989265,0.6120560124959796
1782836833917118000,8.516117919921875,0.40115678837001323,-0.4357409027561545,0.6284639803308993
1782836833927048000,8.5260478515625,0.3371206617891788,-0.46733745269887145,0.6312905820589512
1782836833936977000,8.535976806640624,0.37335575825273987,-0.5100999781697988,0.6803440974328666
1782836833946905900,8.54590576171875,0.31794892832934857,-0.5333708905767649,0.7063098749469965
1782836833956834800,8.555834716796875,0.22247779904305934,-0.5578415341623127,0.7225425592802465
1782836833966764800,8.565764892578125,0.16333178259134293,-0.605958572403714,0.6763899529796094
1782836833976693800,8.57569384765625,0.044617140361666675,-0.5892121663946658,0.5956514787271618
1782836833986622700,8.585622802734376,-0.09790040225982666,-0.5636299813706428,0.6312105756253004
1782836833996552000,8.595552001953125,-0.2064192291676998,-0.5757713778022676,0.6843021874088794
1782836834006482000,8.60548193359375,-0.32342472939193245,-0.5707626097295433,0.6670214553274214
1782836834016411000,8.615410888671875,-0.4878343703478574,-0.5077570683054625,0.6635675885464996
1782836834026340000,8.625340087890624,-0.6752770963668823,-0.42016733991876243,0.5911891655560583
1782836834036269000,8.63526904296875,-0.8417804947316646,-0.33363756891377266,0.4206727321576327
1782836834046198000,8.645197998046875,-1.0488526348501443,-0.28212738110274077,0.2741398894801736
1782836834056127700,8.655127685546875,-1.2439099275261163,-0.2738707902152091,0.3205873140089214
1782836834066057000,8.665056884765624,-1.3027742044270039,-0.30214477160647507,0.3222249251481145
1782836834075986000,8.67498583984375,-1.2807780611962079,-0.2583963769033551,0.21976722491011022
1782836834085916000,8.684916015625,-1.3957348121970892,-0.16581965388432143,0.18621164985410868
1782836834095844900,8.694844970703125,-1.461373697799444,-0.19472550343833864,0.0661216276179999
1782836834105773800,8.70477392578125,-1.3786147505700588,-0.224317289429903,-0.043949104906991124
1782836834115702800,8.714702880859376,-1.2058639822483062,-0.22524996717013418,-0.047746889754757285
1782836834125631700,8.7246318359375,-0.9536310964107513,-0.3102968792062253,0.05518843793235719
1782836834135562000,8.73456201171875,-0.7862427319049835,-0.47899186933115123,0.10032653342820703
1782836834145491000,8.744490966796874,-0.8251444172292948,-0.6366423914156853,0.04089629320763051
1782836834155420000,8.754419921875,-0.9649322426259517,-0.6911956001844257,-0.022762013036757706
1782836834165349000,8.76434912109375,-1.155570549815893,-0.6604186960615217,-0.19058993800356983
1782836834175278800,8.77427880859375,-1.3857488402336835,-0.5463803750798106,-0.40431346230264753
1782836834185207800,8.784207763671875,-1.6460621566742657,-0.3495913632404059,-0.42932431371212004
1782836834195136800,8.79413671875,-1.985043351638317,-0.23442498807683584,-0.347078065245226
1782836834205066000,8.80406591796875,-1.9174819735407829,-0.14319098490364848,-0.2908666409406811
1782836834214996000,8.813995849609375,-1.8029618603914974,0.04849288581646979,-0.09585282208025454
1782836834224925000,8.823925048828125,-1.4112942003786564,0.3477395978938788,0.06365268022119999
1782836834234854000,8.83385400390625,-0.8691998320549726,0.6860648131672292,0.16034670236594975
1782836834244782800,8.843782958984375,-0.14354104045033453,0.9800164145112037,0.19947576670534908
1782836834254712800,8.853712890625,0.4595166228801012,1.1459203126128763,0.284988761883229
1782836834264642000,8.86364208984375,0.904033829548955,1.2275392229616642,0.34736656333040444
1782836834274571000,8.873571044921874,1.1894944467276334,1.1219400828927755,0.2556397716715932
1782836834284500000,8.8835,1.5023410834819078,1.0358950266648084,0.4073146899452433
1782836834294430000,8.893429931640625,1.5339625486701727,0.9657889325205236,0.5386481003273278
1782836834304359000,8.90335888671875,1.5304583399415015,0.8675264920152723,0.5120611587075516
1782836834314287900,8.913287841796874,1.6271628104150295,0.791814029231295,0.44628626216799017
1782836834324216800,8.923216796875,1.6534955215454101,0.7926927117619663,0.3588503361035138
1782836834334147000,8.93314697265625,1.622148781645298,0.8104740137767046,0.2814912751562893
1782836834344076000,8.943075927734375,1.5414467669457197,0.7505147812459617,0.19918533239141106
1782836834354004700,8.953004638671874,1.322315355721116,0.640173488151282,0.08425656537599861
1782836834363933700,8.96293359375,0.9598287820070981,0.5592021549910307,-0.09205898275524377
1782836834373864000,8.972864013671876,0.4841197337388992,0.4540012935247272,-0.20535846806839106
1782836834383793000,8.98279296875,0.11919862635433673,0.34229616473093627,-0.3976735493641346
1782836834393721900,8.992721923828125,-0.3056383128106594,0.31577194961644706,-0.6607520927343518
1782836834403651000,9.002651123046874,-0.7220867783367634,0.2839782696664333,-0.9060253686923533
1782836834413580800,9.012580810546876,-1.0002630837261677,0.1641107310745865,-1.0809450054857879
1782836834423509800,9.022509765625,-1.3508505453318356,-0.0741989894811064,-1.3316687288694082
1782836834433439000,9.03243896484375,-1.7114964596152304,-0.3255623990077525,-1.5559898176915943
1782836834443368000,9.042367919921874,-1.5150029966562986,-0.3195465727843344,-1.493705649344623
1782836834453298000,9.0522978515625,-1.1004407832682133,-0.17854389170520008,-1.2544231382340192
1782836834463227000,9.062226806640625,-0.709330757138133,-0.1398413091495633,-1.2402677716314792
1782836834473156000,9.072156005859375,-0.17203648257255552,-0.03089687724076211,-1.0103649371542036
1782836834483084800,9.082084716796874,0.3623269992381334,0.0999110844951123,-0.7739262711673974
1782836834493014800,9.092014892578124,0.6829916162669658,0.15895290991999209,-0.5886763790175319
1782836834502944000,9.101944091796875,0.9846078339546919,0.10784187749437987,-0.4703635955870151
1782836834512873000,9.111873046875,1.1593535754859448,0.05254508381672203,-0.29976686349399384
1782836834522802000,9.121802001953125,1.1385440116912127,-0.0026543869663029906,-0.12674626525491475
1782836834532732000,9.13173193359375,1.2642869451224803,-0.04574475615210831,-0.05296842379532754
1782836834542660900,9.141660888671876,1.447451555430889,0.012558379734680056,0.0452693937253207
1782836834552589800,9.15158984375,1.333909931924939,0.053946328916773194,-0.002081555514410138
1782836834562518800,9.161518798828125,1.2202929050952196,-0.03205408445186913,-0.059340150784328576
1782836834572449000,9.171448974609374,1.1214981843441725,-0.17978337037228045,-0.07267214524000883
1782836834582378000,9.1813779296875,0.8526321436136961,-0.34105186375826596,-0.036162250423058866
1782836834592307000,9.191306884765625,0.5899333933413028,-0.4581842052325606,-0.13644918249323965
1782836834602236000,9.20123583984375,0.4225625644922256,-0.4886779084999114,-0.2287545412249863
1782836834612166000,9.211165771484374,0.3556687103927135,-0.4388812466084957,-0.19682649430558083
1782836834622094800,9.2210947265625,0.31017595624029637,-0.44065052130334076,-0.1646980294432491
1782836834632023800,9.23102392578125,0.3557587267637253,-0.5377240442849696,-0.14392908991985023
1782836834641953000,9.240953125,0.30438568240106106,-0.6607032120913267,-0.11511501030251384
1782836834651883000,9.250883056640625,0.23448563222289084,-0.7905494891881942,-0.13207856619358063
1782836834661811700,9.260811767578126,0.2411369068056345,-0.8386709113437681,-0.23196100911609827
1782836834671741000,9.270740966796875,0.22753683599829672,-0.8631927736598998,-0.3089731563217938
1782836834681670000,9.280669921875,0.21787761177122592,-0.9041192428100854,-0.3242502934958786
1782836834691601000,9.290600830078125,0.10585516065657138,-0.9370804321695119,-0.3201308024130761
1782836834701529900,9.30052978515625,-0.029879589956998822,-0.9216044844876974,-0.3776431532483548
1782836834711458600,9.31045849609375,-0.2310802076935768,-0.8715246217407285,-0.44309090019278224
1782836834721387800,9.3203876953125,-0.38842005639374255,-0.8166464188013225,-0.5001107182707637
1782836834731316700,9.330316650390625,-0.4852379241138696,-0.7078690870877354,-0.5995118804823607
1782836834741246700,9.340246826171875,-0.6930962461739778,-0.5345435876179486,-0.663338967422396
1782836834751176000,9.350176025390626,-0.8339975857704878,-0.4350346541829407,-0.6573716565158217
1782836834761105000,9.36010498046875,-0.9922463660091161,-0.40703094110041854,-0.621493264535442
1782836834771034600,9.37003466796875,-1.184170621356368,-0.36437691750526424,-0.5831128266062587
1782836834780963600,9.379963623046875,-1.2473106758803127,-0.28227599579319357,-0.6536583350811154
1782836834790892800,9.389892822265624,-1.3152198445022105,-0.19551606929413973,-0.7333972038369625
1782836834800821800,9.39982177734375,-1.300662326839566,-0.16372940360680222,-0.793373972024396
1782836834810750700,9.409750732421875,-1.2842828544467686,-0.2494419399447739,-0.8036318927969783
1782836834820681000,9.419680908203125,-1.449589151981473,-0.3717160282216966,-0.705343806393817
1782836834830610000,9.42960986328125,-1.289873221799731,-0.40004342030063267,-0.6842400819581002
1782836834840538600,9.43953857421875,-1.1962333995938301,-0.2771525152996182,-0.6665086834996938
1782836834850467600,9.449467529296875,-1.3481348566323519,-0.21109511202424763,-0.5868246136710047
1782836834860397800,9.459397705078125,-1.4609271230757235,-0.28831717565357684,-0.4823096886422485
1782836834870326800,9.469326904296874,-1.676427484321594,-0.385077175706625,-0.37360936768762765
1782836834880255700,9.479255859375,-1.8537053746789693,-0.36112617208100856,-0.3723504536677152
1782836834890185000,9.48918505859375,-1.8663982675135136,-0.20256364971809088,-0.36625440181493757
1782836834900114700,9.49911474609375,-1.9641466940820216,-0.016802666240930558,-0.3121712947759777
1782836834910043600,9.509043701171874,-1.9299445647507905,0.056369318279996514,-0.24638284463509916
1782836834919972600,9.51897265625,-1.6860756026327608,0.08733750719130039,-0.09635361120924353
1782836834929901800,9.52890185546875,-1.3260948742598295,0.22128961217179893,0.07608085770495235
1782836834939831800,9.538831787109375,-0.8713724999189376,0.44411695530489087,0.19916918497420846
1782836834949760800,9.5487607421875,-0.46800095810890197,0.648078781383112,0.24685250797346234
1782836834959689700,9.558689697265624,-0.11624679081141948,0.7614078581169247,0.2640301450066268
1782836834969618700,9.56861865234375,0.18346505455970763,0.8032575795918703,0.36556488518081603
1782836834979548700,9.578548583984375,0.4421434632748365,0.8262775129124522,0.4422245656870305
1782836834989478000,9.588477783203125,0.6943950538128614,0.928919410610944,0.5292800410665571
1782836834999406800,9.59840673828125,0.9792185421317815,1.0748463232845067,0.6208574508499354
1782836835009335800,9.608335693359376,1.2187860076636075,1.1791916639000177,0.627489290079847
1782836835019265800,9.618265869140625,1.3638281003266572,1.2233651521474123,0.6034899903330951
1782836835029194800,9.62819482421875,1.481146904283762,1.2140407128326594,0.6999922892980277
1782836835039123700,9.638123779296874,1.4817635748773812,1.1476064390689134,0.7255830229546875
1782836835049052700,9.648052734375,1.4117249930113553,1.0567995022013783,0.6991854298945516
1782836835058983000,9.65798291015625,1.325614397266507,0.9679356622256338,0.7270922584738582
1782836835068911900,9.667911865234375,1.2601637277126312,0.8850603951402009,0.7672287462901324
1782836835078840800,9.6778408203125,1.1105950975358485,0.8610822843119501,0.7948381262928247
1782836835088769800,9.687769775390626,0.8971300415098666,0.8789430813036858,0.7723271654076874
1782836835098699800,9.69769970703125,0.6704366705983876,0.9207289437621832,0.6898082374792546
1782836835108628700,9.707628662109375,0.4152057719886303,0.9676343411915004,0.6065493779037148
1782836835118557700,9.7175576171875,0.08462006492614746,0.9304283538691699,0.5867226876664906
1782836835128487000,9.72748681640625,-0.011852350357174872,0.8263396183632313,0.5077455970633775
1782836835138416600,9.737416748046876,-0.17835867133140562,0.7094326100774109,0.44930232205353676
1782836835148345600,9.747345703125,-0.37142099079787727,0.584381750563532,0.40617965803332623
1782836835158274800,9.75727490234375,-0.40631402500271796,0.49879181769192216,0.2940281737115234
1782836835168203800,9.767203857421874,-0.3415840709388256,0.47865050854757424,0.24406448469012973
1782836835178133800,9.7771337890625,-0.16187807665169238,0.46255891318544745,0.23648601225987076
1782836835188062700,9.787062744140625,0.07674538602828979,0.393752211201936,0.26228447038307784
1782836835197992000,9.796991943359375,0.3152741561621427,0.28615371400937434,0.28421675459742546
1782836835207921000,9.8069208984375,0.5170528660476208,0.17388634822294116,0.2117388898205012
1782836835217850600,9.8168505859375,0.5656260505586862,0.08233341529369353,0.13703370438292622
1782836835227779800,9.82677978515625,0.690628394755721,-0.03630027065426111,0.005022212076187134
1782836835237708800,9.836708740234375,0.805939950543642,-0.196684455486387,-0.013907017864659428
1782836835247637800,9.8466376953125,0.8011573924422264,-0.2620769651122391,0.09921616103351115
1782836835257568000,9.856568115234374,0.8600918119698763,-0.2357026067972183,0.4716759933598339
1782836835267496700,9.86649658203125,1.113749762174487,-0.25092501810938117,0.5014649824239313
1782836835277425700,9.87642578125,1.173251167935133,-0.2165193290300667,0.5348053072940558
1782836835287354600,9.886354736328125,0.4021276792287826,-0.27728753985613586,0.32565292683541774
1782836835297284900,9.896284912109374,0.2602548642516136,-0.3509032495565712,-0.042844358535483476
1782836835307213800,9.9062138671875,0.3980933091461658,-0.15251023658663035,-0.030994492396339772
1782836835317142800,9.916142822265625,0.4205436258852482,-0.03195654236152768,0.11031805834956467
1782836835327071700,9.92607177734375,0.5921516539126634,-0.28410058087185025,0.06156885968446731
1782836835337001700,9.936001708984374,0.46026247281134125,-0.4870018650464713,0.3386708869058639
1782836835346931700,9.945931640625,-0.3973609032183885,-0.755131554326415,0.33226153132021424
1782836835356861000,9.95586083984375,-0.6507184091717004,-0.7998322813183069,-0.08814078639820218
1782836835366790000,9.965789794921875,-0.957428735128045,-0.4854010057210922,-0.1848318859335035
1782836835376719600,9.9757197265625,-0.9861468800902367,-0.23937092004641888,0.10348419374153017
1782836835386648800,9.98564892578125,-0.6888502791672945,-0.32308906769678,0.20517448980361222
1782836835396577800,9.995577880859376,-0.2877390835046768,-0.4225171179153025,0.07493585238829255
1782836835406506800,10.0055068359375,0.10161036269366741,-0.29547157745286823,0.29664164414554833
1782836835416436700,10.015436767578125,-0.034766777476668356,-0.06970474680177867,0.5146391559693962
1782836835426366000,10.025365966796874,-0.1346539696395397,-0.120404787273705,0.40591954579241574
