time,seconds_elapsed,z,y,x
1782836825477274000,0.076274169921875,-0.05194549635052681,-0.13513986766338348,0.24963970482349396
1782836825487203000,0.086203125,-0.06173181161284447,-0.13283251225948334,0.17455027997493744
1782836825497132000,0.096132080078125,-0.0566772036254406,-0.13393662869930267,0.0739123672246933
1782836825507061200,0.106061279296875,-0.04182768613100052,-0.1341928243637085,-0.03926345705986023
1782836825516991200,0.1159912109375,-0.03480888158082962,-0.11497707664966583,-0.12152569741010666
1782836825526920200,0.125920166015625,-0.041082222014665604,-0.0558738112449646,-0.12839452922344208
1782836825536849200,0.13584912109375,-0.06748852878808975,0.04446597769856453,-0.05314469337463379
1782836825546778000,0.145778076171875,-0.10225210338830948,0.13374926149845123,0.07201269268989563
1782836825556707000,0.15570703125,-0.1232488751411438,0.17904773354530334,0.19184058904647827
1782836825566637000,0.165636962890625,-0.1302865445613861,0.19438807666301727,0.25685474276542664
1782836825576566300,0.175566162109375,-0.12898476421833038,0.10687119513750076,0.24573056399822235
1782836825586495200,0.1854951171875,-0.10371562838554382,0.00036206096410751343,0.19290171563625336
1782836825596424200,0.195424072265625,-0.08325158804655075,-0.07969982922077179,0.12190418690443039
1782836825606353200,0.205353271484375,-0.09109459817409515,-0.15401187539100647,0.035897672176361084
1782836825616283100,0.215283203125,-0.11694009602069855,-0.1778397560119629,-0.0613429993391037
1782836825626212000,0.225212158203125,-0.1443522721529007,-0.1373775601387024,-0.16096600890159607
1782836825636141000,0.23514111328125,-0.1472349762916565,-0.037332430481910706,-0.23243547976016998
1782836825646070300,0.2450703125,-0.1432303786277771,0.09924831986427307,-0.26477426290512085
1782836825656000300,0.255000244140625,-0.15589089691638947,0.21874359250068665,-0.27751752734184265
1782836825665929000,0.264928955078125,-0.17140407860279083,0.26471349596977234,-0.269205242395401
1782836825675858200,0.274858154296875,-0.16719502210617065,0.27731963992118835,-0.23205803334712982
1782836825685787600,0.28478759765625,-0.1436217874288559,0.255680114030838,-0.18347452580928802
1782836825695716600,0.294716552734375,-0.11018428206443787,0.2144458144903183,-0.1395334154367447
1782836825705646800,0.304646728515625,-0.05713330954313278,0.1728549599647522,-0.08640149235725403
1782836825715575800,0.314575927734375,-0.00119039136916399,0.13882175087928772,-0.027576496824622154
1782836825725504500,0.32450439453125,0.034136705100536346,0.10531120002269745,0.02029275894165039
1782836825735433500,0.33443359375,0.05340654402971268,0.07823744416236877,0.04809952899813652
1782836825745362700,0.34436279296875,0.050392910838127136,0.0624355711042881,0.03160684183239937
1782836825755292700,0.354292724609375,0.04571789503097534,0.0700724795460701,-0.020280685275793076
1782836825765221600,0.3642216796875,0.0633821114897728,0.09053913503885269,-0.087612584233284
1782836825775150600,0.374150634765625,0.10052911937236786,0.11494636535644531,-0.15340439975261688
1782836825785079800,0.384079833984375,0.1399066299200058,0.14850805699825287,-0.19154991209506989
1782836825795008800,0.3940087890625,0.16233813762664795,0.15547029674053192,-0.20118862390518188
1782836825804938500,0.4039384765625,0.1638348400592804,0.14668159186840057,-0.1937139332294464
1782836825814867700,0.41386767578125,0.16062508523464203,0.11637824773788452,-0.17354440689086914
1782836825824796700,0.423796630859375,0.15039774775505066,0.09007180482149124,-0.13351309299468994
1782836825834725600,0.4337255859375,0.15593183040618896,0.07433365285396576,-0.09126211702823639
1782836825844655900,0.44365576171875,0.17542482912540436,0.06976313889026642,-0.0649130642414093
1782836825854584600,0.45358447265625,0.2115641087293625,0.062451381236314774,-0.0513865202665329
1782836825864513500,0.463513427734375,0.2460847944021225,0.033942509442567825,-0.05716850981116295
1782836825874442500,0.4734423828125,0.2602907121181488,0.015087444335222244,-0.06373153626918793
1782836825884371700,0.483371826171875,0.25432896614074707,-0.010065313428640366,-0.07868865132331848
1782836825894301700,0.4933017578125,0.246479332447052,0.00346546433866024,-0.092784084379673
1782836825904230700,0.503230712890625,0.24890254437923431,0.03163744509220123,-0.10660295933485031
1782836825914159600,0.51315966796875,0.25422096252441406,0.054829299449920654,-0.12283360958099365
1782836825924088800,0.5230888671875,0.261696457862854,0.05281727761030197,-0.1259513795375824
1782836825934017500,0.533017578125,0.2484743744134903,0.02773423120379448,-0.11276376247406006
1782836825943947500,0.542947509765625,0.2033042311668396,0.013271668925881386,-0.08970078825950623
1782836825953876700,0.552876708984375,0.14811789989471436,-0.00630841264501214,-0.0867316722869873
1782836825963805700,0.5628056640625,0.11666382849216461,-0.010518071241676807,-0.10838077962398529
1782836825973734700,0.572734619140625,0.1151401624083519,-0.013247592374682426,-0.14869782328605652
1782836825983663600,0.58266357421875,0.1349886953830719,-0.001673760823905468,-0.18264274299144745
1782836825993593600,0.592593505859375,0.14160902798175812,0.04368121176958084,-0.19087104499340057
1782836826003522600,0.6025224609375,0.13732241094112396,0.10129018127918243,-0.16805334389209747
1782836826013451500,0.612451416015625,0.12292734533548355,0.12409606575965881,-0.10656580328941345
1782836826023380700,0.622380615234375,0.11970917880535126,0.14102017879486084,-0.03717740997672081
1782836826033310700,0.632310791015625,0.13202956318855286,0.13669393956661224,0.02451176941394806
1782836826043239700,0.64223974609375,0.1478295624256134,0.11618892848491669,0.08101871609687805
1782836826053168600,0.652168701171875,0.16722728312015533,0.10326963663101196,0.13303838670253754
1782836826063097600,0.66209765625,0.18271596729755402,0.10013243556022644,0.1859348863363266
1782836826073026600,0.672026611328125,0.18447135388851166,0.09814982861280441,0.22195325791835785
1782836826082956500,0.68195654296875,0.17168684303760529,0.09692583978176117,0.20265386998653412
1782836826092885800,0.6918857421875,0.16331210732460022,0.11991734802722931,0.14442555606365204
1782836826102814700,0.701814697265625,0.15693889558315277,0.15625351667404175,0.07110312581062317
1782836826112743700,0.71174365234375,0.14382988214492798,0.1828654557466507,-0.00836936105042696
1782836826122672600,0.721672607421875,0.12984803318977356,0.2123623639345169,-0.0672939270734787
1782836826132602600,0.7316025390625,0.12255290150642395,0.23262372612953186,-0.07403458654880524
1782836826142531600,0.741531494140625,0.11045815795660019,0.2139938473701477,-0.05798930302262306
1782836826152460500,0.75146044921875,0.10568797588348389,0.18810905516147614,-0.012270567938685417
1782836826162389800,0.7613896484375,0.11043159663677216,0.1725764274597168,0.060073669999837875
1782836826172318700,0.771318603515625,0.12798626720905304,0.13864418864250183,0.15727104246616364
1782836826182248700,0.781248779296875,0.16364039480686188,0.10220601409673691,0.2583116590976715
1782836826192177400,0.791177490234375,0.20700189471244812,0.05984373390674591,0.34656399488449097
1782836826202106600,0.801106689453125,0.2526625692844391,0.013037346303462982,0.39408332109451294
1782836826212035600,0.81103564453125,0.304756224155426,-0.008083067834377289,0.4173169732093811
1782836826221965600,0.820965576171875,0.3358560800552368,-0.038202088326215744,0.42055457830429077
1782836826231894800,0.830894775390625,0.33013466000556946,-0.0865570679306984,0.40405189990997314
1782836826241823700,0.84082373046875,0.2969796359539032,-0.15645359456539154,0.3728489875793457
1782836826251752700,0.850752685546875,0.2637488543987274,-0.22313198447227478,0.3457610309123993
1782836826261681700,0.860681640625,0.2561284899711609,-0.2653771936893463,0.3254041075706482
1782836826271611600,0.870611572265625,0.2604818344116211,-0.27999597787857056,0.2954433262348175
1782836826281540600,0.88054052734375,0.26724866032600403,-0.2746448814868927,0.26774725317955017
1782836826291469600,0.890469482421875,0.26855453848838806,-0.21858224272727966,0.23220092058181763
1782836826301398800,0.900398681640625,0.27742740511894226,-0.1393854320049286,0.17342787981033325
1782836826311327700,0.91032763671875,0.28085336089134216,-0.032925255596637726,0.07583840191364288
1782836826321257500,0.920257568359375,0.26405441761016846,0.0683334469795227,-0.047034524381160736
1782836826331186400,0.9301865234375,0.24195276200771332,0.10855326056480408,-0.17362940311431885
1782836826341115600,0.94011572265625,0.23087507486343384,0.09624573588371277,-0.26908615231513977
1782836826351044600,0.950044677734375,0.227534219622612,0.05874580517411232,-0.3033243715763092
1782836826360974600,0.959974609375,0.21571777760982513,0.018448451533913612,-0.29749390482902527
1782836826370903800,0.96990380859375,0.19948872923851013,0.027284424751996994,-0.2684345543384552
1782836826380832800,0.979832763671875,0.1983635425567627,0.07473821938037872,-0.21583741903305054
1782836826390761700,0.98976171875,0.21450087428092957,0.1195673793554306,-0.1552899181842804
1782836826400690400,0.9996904296875,0.2463245838880539,0.17039087414741516,-0.08924219757318497
1782836826410620700,1.00962060546875,0.2767956852912903,0.22696247696876526,-0.037377018481492996
1782836826420549600,1.019549560546875,0.2972671389579773,0.23463264107704163,0.0038124946877360344
1782836826430478600,1.029478515625,0.3072671890258789,0.20292334258556366,0.018789837136864662
1782836826440407800,1.03940771484375,0.31559810042381287,0.13750572502613068,0.026758549734950066
1782836826450336800,1.049336669921875,0.3148554563522339,0.06942211091518402,0.027202505618333817
1782836826460266500,1.0592666015625,0.30962127447128296,0.012421142309904099,0.01232688594609499
1782836826470195700,1.06919580078125,0.2906576693058014,-0.02115825191140175,-0.005740022286772728
1782836826480124700,1.079124755859375,0.27768489718437195,-0.018916934728622437,-0.0010757618583738804
1782836826490053600,1.0890537109375,0.266932874917984,0.017591286450624466,0.012182739563286304
1782836826499983600,1.098983642578125,0.261069118976593,0.03851760923862457,0.03402279317378998
1782836826509912800,1.108912841796875,0.2629883587360382,0.030732078477740288,0.050680674612522125
1782836826519841800,1.118841796875,0.27384287118911743,-0.014364559203386307,0.06757231056690216
1782836826529770500,1.1287705078125,0.2908891439437866,-0.07533080875873566,0.09076177328824997
1782836826539699500,1.138699462890625,0.29510173201560974,-0.1222543865442276,0.11810126155614853
1782836826549629700,1.148629638671875,0.2738027572631836,-0.16946715116500854,0.11322122812271118
1782836826559558700,1.15855859375,0.24223020672798157,-0.18719501793384552,0.08672570437192917
1782836826569487600,1.168487548828125,0.21073168516159058,-0.2085965871810913,0.02626531571149826
1782836826579416800,1.178416748046875,0.1840374916791916,-0.252217561006546,-0.05878433212637901
1782836826589345800,1.188345703125,0.1688002198934555,-0.2885870337486267,-0.1484692096710205
1782836826599275500,1.198275634765625,0.14445599913597107,-0.3134614825248718,-0.20341873168945312
1782836826609204700,1.208204833984375,0.09854631870985031,-0.3179897964000702,-0.2004799246788025
1782836826619133700,1.2181337890625,0.047250114381313324,-0.3219754695892334,-0.16218100488185883
1782836826629062700,1.228062744140625,-0.013024921528995037,-0.30371132493019104,-0.1337183564901352
1782836826638992600,1.23799267578125,-0.044336237013339996,-0.2524801194667816,-0.1240239217877388
1782836826648921900,1.247921875,-0.0484057180583477,-0.1603669673204422,-0.1323070526123047
1782836826658850600,1.2578505859375,-0.04831437021493912,-0.061012689024209976,-0.13998547196388245
1782836826668779500,1.267779541015625,-0.04217815771698952,0.0532379113137722,-0.12751270830631256
1782836826678708500,1.27770849609375,-0.03184402734041214,0.16145946085453033,-0.0917147696018219
1782836826688638500,1.287638427734375,-0.020703906193375587,0.2269233912229538,-0.048389632254838943
1782836826698567700,1.297567626953125,-0.006320439279079437,0.22771380841732025,-0.0048325685784220695
1782836826708496600,1.30749658203125,0.017347894608974457,0.18856818974018097,0.04800546169281006
1782836826718425600,1.317425537109375,0.03169727325439453,0.15873493254184723,0.1012609601020813
1782836826728354600,1.3273544921875,0.024710763245821,0.09572354704141617,0.13632087409496307
1782836826738284500,1.337284423828125,0.027431713417172432,0.049169354140758514,0.1534641683101654
1782836826748213500,1.347213623046875,0.03132140636444092,0.020347392186522484,0.14822658896446228
1782836826758142500,1.357142578125,0.03710392862558365,-0.00472360709682107,0.10480454564094543
1782836826768071400,1.367071533203125,0.04344607889652252,-0.0041700201109051704,0.03304967284202576
1782836826778001700,1.377001708984375,0.0442945621907711,0.012543446384370327,-0.05188758671283722
1782836826787930400,1.386930419921875,0.03544233366847038,0.027634482830762863,-0.13339999318122864
1782836826797859300,1.396859375,0.018612487241625786,0.04128877446055412,-0.19865089654922485
1782836826807788500,1.40678857421875,-0.0011449484154582024,0.04837324097752571,-0.236237034201622
1782836826817717500,1.416717529296875,-0.018750041723251343,0.059882353991270065,-0.24560363590717316
1782836826827647500,1.4266474609375,-0.03703799098730087,0.0821198970079422,-0.2270270586013794
1782836826837576700,1.43657666015625,-0.048482391983270645,0.07091356813907623,-0.1820491999387741
1782836826847505700,1.446505615234375,-0.05002869665622711,0.031416650861501694,-0.1152968630194664
1782836826857434600,1.4564345703125,-0.04395110160112381,-0.008765656501054764,-0.03617701306939125
1782836826867364600,1.466364501953125,-0.039943184703588486,-0.043712083250284195,0.026721376925706863
1782836826877293600,1.47629345703125,-0.03128870949149132,-0.06135952100157738,0.06440377235412598
1782836826887222500,1.486222412109375,-0.03112564980983734,-0.058903224766254425,0.07375997304916382
1782836826897151500,1.4961513671875,-0.04704895615577698,-0.04063127934932709,0.06411613523960114
1782836826907080400,1.50608056640625,-0.07033389806747437,-0.034775570034980774,0.0412834957242012
1782836826917010400,1.516010498046875,-0.0945177972316742,-0.058133888989686966,0.013297400437295437
1782836826926939400,1.525939453125,-0.12214931100606918,-0.08038188517093658,-0.020187294110655785
1782836826936868400,1.535868408203125,-0.14354780316352844,-0.09642823040485382,-0.03831223398447037
1782836826946797600,1.545797607421875,-0.17157723009586334,-0.10004369914531708,-0.0457913801074028
1782836826956726500,1.5557265625,-0.20320838689804077,-0.08372464776039124,-0.0317181721329689
1782836826966656500,1.565656494140625,-0.24268993735313416,-0.038708265870809555,-0.005469692405313253
1782836826976585700,1.575585693359375,-0.2757924795150757,-0.0242459699511528,0.017115511000156403
1782836826986514700,1.5855146484375,-0.2980618178844452,-0.07743848860263824,0.03084605559706688
1782836826996443400,1.595443359375,-0.31234249472618103,-0.18144769966602325,0.03362959250807762
1782836827006373600,1.60537353515625,-0.3272897005081177,-0.29172879457473755,0.02804943174123764
1782836827016302600,1.615302490234375,-0.34600481390953064,-0.3523674011230469,0.006176358088850975
1782836827026231600,1.6252314453125,-0.38193121552467346,-0.3519826829433441,-0.03540891036391258
1782836827036160500,1.635160400390625,-0.4106438159942627,-0.2782386839389801,-0.053607091307640076
1782836827046089500,1.64508935546875,-0.4322003126144409,-0.12485185265541077,-0.02804114669561386
1782836827056019500,1.65501953125,-0.44162842631340027,0.02123558521270752,0.02336079254746437
1782836827065948400,1.664948486328125,-0.44744840264320374,0.08486194908618927,0.07699162513017654
1782836827075877400,1.67487744140625,-0.43412354588508606,0.05242731049656868,0.11707858741283417
1782836827085806600,1.684806640625,-0.4247893691062927,-0.0038324417546391487,0.14699307084083557
1782836827095735600,1.694735595703125,-0.4233182370662689,-0.10473082214593887,0.1462460458278656
1782836827105665500,1.70466552734375,-0.43617549538612366,-0.2915011942386627,0.101896733045578
1782836827115594800,1.7145947265625,-0.45200932025909424,-0.477981835603714,0.05782807245850563
1782836827125523500,1.7245234375,-0.4745047688484192,-0.569304883480072,0.012167445383965969
1782836827135452400,1.734452392578125,-0.49765777587890625,-0.5722783207893372,-0.034821100533008575
1782836827145382700,1.744382568359375,-0.5250202417373657,-0.507820188999176,-0.10707344114780426
1782836827155311600,1.7543115234375,-0.5437984466552734,-0.38573157787323,-0.20235469937324524
1782836827165240600,1.764240478515625,-0.5398575067520142,-0.25034645199775696,-0.30332714319229126
1782836827175169500,1.77416943359375,-0.5193455815315247,-0.14254088699817657,-0.37889060378074646
1782836827185098500,1.784098388671875,-0.49571171402931213,-0.1327102780342102,-0.3969872295856476
1782836827195028500,1.794028564453125,-0.4563656151294708,-0.18336839973926544,-0.34066563844680786
1782836827204957400,1.80395751953125,-0.4009957015514374,-0.21570640802383423,-0.2030128687620163
1782836827214886400,1.813886474609375,-0.3315905034542084,-0.18626515567302704,-0.02521250769495964
1782836827224815600,1.823815673828125,-0.28088080883026123,-0.04710204899311066,0.16386127471923828
1782836827234745600,1.83374560546875,-0.2560654878616333,0.136933833360672,0.290457546710968
1782836827244674600,1.843674560546875,-0.23604463040828705,0.29910728335380554,0.34370559453964233
1782836827254603500,1.853603515625,-0.2061072438955307,0.4023338258266449,0.33137649297714233
1782836827264532500,1.863532470703125,-0.17333553731441498,0.4331170618534088,0.28554338216781616
1782836827274461400,1.87346142578125,-0.13506858050823212,0.41612687706947327,0.24190963804721832
1782836827284391700,1.8833916015625,-0.13154348731040955,0.3540664613246918,0.20608289539813995
1782836827294320600,1.893320556640625,-0.1545039266347885,0.2457951158285141,0.15811696648597717
1782836827304249600,1.90324951171875,-0.18549352884292603,0.10476508736610413,0.08723568916320801
1782836827314178600,1.913178466796875,-0.19083529710769653,-0.05428101867437363,0.02462770603597164
1782836827324108500,1.923108642578125,-0.18382933735847473,-0.16970154643058777,-0.014426866546273232
1782836827334037500,1.93303759765625,-0.17763003706932068,-0.22180496156215668,-0.026797249913215637
1782836827343966500,1.942966552734375,-0.17857928574085236,-0.20398685336112976,-0.03763649985194206
1782836827353895400,1.9528955078125,-0.1752314269542694,-0.1302364617586136,-0.03557654470205307
1782836827363824600,1.96282470703125,-0.1660703420639038,-0.011026069521903992,-0.05724075436592102
1782836827373754600,1.972754638671875,-0.13731859624385834,0.07895389199256897,-0.10611934959888458
1782836827383683300,1.982683349609375,-0.09156384319067001,0.1356142908334732,-0.1570412516593933
1782836827393612500,1.992612548828125,-0.033789489418268204,0.164803609251976,-0.18926922976970673
1782836827403541500,2.00254150390625,0.024919677525758743,0.18468202650547028,-0.1866120547056198
1782836827413471500,2.012471435546875,0.07907532155513763,0.20704299211502075,-0.14332769811153412
1782836827423400700,2.022400634765625,0.11687390506267548,0.2422831952571869,-0.08873619139194489
1782836827433329700,2.03232958984375,0.13976351916790009,0.27507680654525757,-0.02144796773791313
1782836827443258600,2.042258544921875,0.14754897356033325,0.28833410143852234,0.03315577283501625
1782836827453187600,2.0521875,0.15001745522022247,0.30939438939094543,0.08212678134441376
1782836827463117600,2.06211767578125,0.15492482483386993,0.36044931411743164,0.11571105569601059
1782836827473046500,2.072046630859375,0.1794258952140808,0.3841320276260376,0.12155908346176147
1782836827482975500,2.0819755859375,0.2177833616733551,0.3505465090274811,0.1031058207154274
1782836827492904400,2.091904541015625,0.259003221988678,0.3004748225212097,0.07107385247945786
1782836827502834400,2.10183447265625,0.2824554443359375,0.23399648070335388,0.014563608914613724
1782836827512763400,2.111763427734375,0.2967430353164673,0.16087007522583008,-0.04853839427232742
1782836827522692400,2.1216923828125,0.290921151638031,0.0876055657863617,-0.12193722277879715
1782836827532621600,2.13162158203125,0.28016409277915955,0.019451551139354706,-0.1954529881477356
1782836827542550500,2.141550537109375,0.2771301865577698,-0.013471356593072414,-0.2519151568412781
1782836827552480500,2.15148046875,0.27012738585472107,-0.025481414049863815,-0.27809959650039673
1782836827562409700,2.16140966796875,0.24957002699375153,-0.01656285859644413,-0.24791765213012695
1782836827572338700,2.171338623046875,0.22887299954891205,0.050153058022260666,-0.1608669012784958
1782836827582267600,2.181267578125,0.20447002351284027,0.10525070130825043,-0.06624940037727356
1782836827592197400,2.191197265625,0.21300092339515686,0.17289845645427704,0.024225104600191116
1782836827602126600,2.201126708984375,0.2489025890827179,0.251138836145401,0.07973624020814896
1782836827612055600,2.2110556640625,0.29487407207489014,0.3081621527671814,0.09785319864749908
1782836827621984500,2.220984619140625,0.34114015102386475,0.3253457844257355,0.08897870779037476
1782836827631913500,2.23091357421875,0.38959822058677673,0.31614431738853455,0.07266738265752792
1782836827641843500,2.240843505859375,0.432121217250824,0.3306080102920532,0.08170821517705917
1782836827651772400,2.2507724609375,0.46598199009895325,0.3137800097465515,0.1165974885225296
1782836827661701400,2.260701416015625,0.4756949841976166,0.2640589773654938,0.15817415714263916
1782836827671630600,2.270630615234375,0.45850878953933716,0.19835318624973297,0.17374539375305176
1782836827681560600,2.280560546875,0.41245603561401367,0.11172297596931458,0.16907288134098053
1782836827691489500,2.290489501953125,0.39169323444366455,0.0254562646150589,0.1623513251543045
1782836827701418500,2.30041845703125,0.3914695382118225,-0.060031816363334656,0.16369901597499847
1782836827711347500,2.310347412109375,0.4035720229148865,-0.14128725230693817,0.16791000962257385
1782836827721276200,2.320276123046875,0.43567419052124023,-0.20436905324459076,0.18158167600631714
1782836827731206400,2.330206298828125,0.4858960807323456,-0.20866261422634125,0.21706430613994598
1782836827741135400,2.34013525390625,0.5194087028503418,-0.1532372236251831,0.2362929880619049
1782836827751064300,2.350064208984375,0.5223414301872253,-0.06265246123075485,0.2444545179605484
1782836827760993500,2.35999365234375,0.4846355617046356,0.023637153208255768,0.22543714940547943
1782836827770923300,2.36992333984375,0.4204760193824768,0.05460439249873161,0.17298725247383118
1782836827780852200,2.379852294921875,0.3607010841369629,0.04809729754924774,0.10946036130189896
1782836827790781400,2.389781494140625,0.32078588008880615,0.0010203365236520767,0.03740028664469719
1782836827800710400,2.39971044921875,0.3019840121269226,-0.05294111371040344,-0.03055359050631523
1782836827810639400,2.409639404296875,0.30226096510887146,-0.0820811539888382,-0.08579394221305847
1782836827820569600,2.419569580078125,0.33010485768318176,-0.11182400584220886,-0.1215764656662941
1782836827830498600,2.42949853515625,0.38940438628196716,-0.17078931629657745,-0.12722130119800568
1782836827840427500,2.439427490234375,0.4844134747982025,-0.22113578021526337,-0.07309181988239288
1782836827850356200,2.449356201171875,0.590511679649353,-0.23207977414131165,0.044420160353183746
1782836827860286500,2.459286376953125,0.6787405014038086,-0.20725582540035248,0.18684574961662292
1782836827870215400,2.46921533203125,0.7173957228660583,-0.15334786474704742,0.30864274501800537
1782836827880144400,2.479144287109375,0.7181211113929749,-0.10114069283008575,0.3730587661266327
1782836827890073300,2.4890732421875,0.7100508809089661,-0.058780182152986526,0.383046954870224
1782836827900003300,2.49900341796875,0.7127785682678223,-0.027233507484197617,0.3434089422225952
1782836827909932300,2.508932373046875,0.715553879737854,0.0028418367728590965,0.294180691242218
1782836827919861200,2.518861328125,0.7108309864997864,0.06323559582233429,0.25816017389297485
1782836827929790500,2.52879052734375,0.6990448832511902,0.18024957180023193,0.24173855781555176
1782836827939719400,2.538719482421875,0.6824042797088623,0.3243144750595093,0.2191150039434433
1782836827949649400,2.5486494140625,0.6665159463882446,0.44370532035827637,0.18307417631149292
1782836827959578600,2.55857861328125,0.6615444421768188,0.5169836282730103,0.15080179274082184
1782836827969507300,2.56850732421875,0.6627883911132812,0.5104197263717651,0.1311492621898651
1782836827979436300,2.578436279296875,0.6682082414627075,0.460144579410553,0.1333405077457428
1782836827989366300,2.5883662109375,0.6665652990341187,0.36141374707221985,0.14054861664772034
1782836827999295500,2.59829541015625,0.6447783708572388,0.18022754788398743,0.14104577898979187
1782836828009224400,2.608224365234375,0.618086576461792,-0.008995105512440205,0.13555008172988892
1782836828019153400,2.6181533203125,0.5981233716011047,-0.16680438816547394,0.10569953173398972
1782836828029082400,2.628082275390625,0.5858563184738159,-0.2893737256526947,0.04777418076992035
1782836828039012400,2.638012451171875,0.5779772400856018,-0.36075079441070557,-0.02999071404337883
1782836828048941300,2.64794140625,0.5664385557174683,-0.38073673844337463,-0.1263907551765442
1782836828058870300,2.657870361328125,0.5567222237586975,-0.3882068693637848,-0.22694823145866394
1782836828068799500,2.667799560546875,0.539202094078064,-0.38301345705986023,-0.3014043867588043
1782836828078729500,2.6777294921875,0.5024445652961731,-0.35303521156311035,-0.3403036594390869
1782836828088658400,2.687658447265625,0.43564316630363464,-0.2778336703777313,-0.33976036310195923
1782836828098587400,2.69758740234375,0.3614683747291565,-0.15164238214492798,-0.2906504273414612
1782836828108516400,2.707516357421875,0.2961095869541168,-0.014641130343079567,-0.22353768348693848
1782836828118446300,2.7174462890625,0.2498224377632141,0.09663677215576172,-0.15861152112483978
1782836828128375300,2.727375244140625,0.23850533366203308,0.20241911709308624,-0.1038002073764801
1782836828138304500,2.737304443359375,0.2508021593093872,0.2908570170402527,-0.07969431579113007
1782836828148233500,2.7472333984375,0.26416802406311035,0.3478721082210541,-0.08160834014415741
1782836828158162400,2.757162353515625,0.27811339497566223,0.37536099553108215,-0.10144488513469696
1782836828168092400,2.767092529296875,0.29407238960266113,0.36378157138824463,-0.1249571442604065
1782836828178021400,2.777021484375,0.3094366192817688,0.30717378854751587,-0.14787986874580383
1782836828187950300,2.786950439453125,0.32378092408180237,0.21610167622566223,-0.13797158002853394
1782836828197879300,2.79687939453125,0.31934046745300293,0.13268791139125824,-0.09474517405033112
1782836828207809500,2.8068095703125,0.27164220809936523,0.06977659463882446,-0.043544039130210876
1782836828217738500,2.816738525390625,0.21491950750350952,0.028158780187368393,0.0024872785434126854
1782836828227667500,2.82666748046875,0.16704705357551575,0.013706072233617306,0.03261561691761017
1782836828237596400,2.836596435546875,0.13539904356002808,-0.020659949630498886,0.025059452280402184
1782836828247525400,2.846525390625,0.11591456085443497,-0.04925324767827988,-0.0187186561524868
1782836828257455400,2.856455322265625,0.10897455364465714,-0.08075942099094391,-0.09461517632007599
1782836828267384300,2.86638427734375,0.09656422585248947,-0.12898926436901093,-0.19130630791187286
1782836828277313500,2.8763134765625,0.07733068615198135,-0.16590529680252075,-0.2716822028160095
1782836828287242500,2.886242431640625,0.0401737317442894,-0.1750846803188324,-0.31991419196128845
1782836828297172200,2.896172119140625,-0.01099549699574709,-0.17741771042346954,-0.32392433285713196
1782836828307101400,2.906101318359375,-0.08679891377687454,-0.16989028453826904,-0.2977433204650879
1782836828317030400,2.916030517578125,-0.17213799059391022,-0.16979271173477173,-0.2492525279521942
1782836828326959400,2.92595947265625,-0.2627757787704468,-0.15362384915351868,-0.17826996743679047
1782836828336889600,2.9358896484375,-0.366842657327652,-0.1365606039762497,-0.10148771107196808
1782836828346818600,2.945818603515625,-0.4686526358127594,-0.1562940925359726,-0.027365021407604218
1782836828356747300,2.955747314453125,-0.5504878163337708,-0.18643836677074432,0.03566893935203552
1782836828366676200,2.96567626953125,-0.6063950061798096,-0.1968771517276764,0.08392862230539322
1782836828376605400,2.97560546875,-0.6428483128547668,-0.16720736026763916,0.11952786892652512
1782836828386535400,2.985535400390625,-0.6515643000602722,-0.08319900929927826,0.13976310193538666
1782836828396464400,2.99546435546875,-0.6560021638870239,0.02326238714158535,0.15762551128864288
1782836828406393300,3.005393310546875,-0.6536953449249268,0.10583822429180145,0.16993410885334015
1782836828416322600,3.015322509765625,-0.6423782110214233,0.152609720826149,0.19344162940979004
1782836828426252300,3.025252197265625,-0.634253740310669,0.1429770588874817,0.2208423614501953
1782836828436181200,3.03518115234375,-0.6390411853790283,0.08092258125543594,0.2629520297050476
1782836828446110500,3.0451103515625,-0.6741347312927246,-0.01771850697696209,0.27640098333358765
1782836828456039400,3.055039306640625,-0.7506439685821533,-0.21594193577766418,0.2179700881242752
1782836828465969400,3.064969482421875,-0.8605361580848694,-0.40917930006980896,0.091124527156353
1782836828475898600,3.074898681640625,-0.9642303586006165,-0.5015769600868225,-0.0699549987912178
1782836828485827300,3.084827392578125,-1.0136271715164185,-0.43094536662101746,-0.22202841937541962
1782836828495756300,3.09475634765625,-0.9929715991020203,-0.2680056393146515,-0.29891061782836914
1782836828505685200,3.104685302734375,-0.9342970252037048,-0.059398103505373,-0.27348700165748596
1782836828515615500,3.114615478515625,-0.8424750566482544,0.14783918857574463,-0.14194272458553314
1782836828525544400,3.12454443359375,-0.7539150714874268,0.28845542669296265,0.06352388858795166
1782836828535473400,3.134473388671875,-0.7133232951164246,0.3534643352031708,0.237030491232872
1782836828545402400,3.14440234375,-0.7001677751541138,0.35754430294036865,0.32227668166160583
1782836828555332400,3.154332275390625,-0.6701247692108154,0.3346422016620636,0.339522123336792
1782836828565261300,3.16426123046875,-0.6330671906471252,0.29693931341171265,0.321502149105072
1782836828575190300,3.174190185546875,-0.6140434145927429,0.22825464606285095,0.30761614441871643
1782836828585119500,3.184119384765625,-0.6139861345291138,0.15466856956481934,0.309061199426651
1782836828595049500,3.194049560546875,-0.6191309094429016,0.10498286038637161,0.31082192063331604
1782836828604978400,3.203978515625,-0.6066753268241882,0.08070974797010422,0.2981868088245392
1782836828614907400,3.213907470703125,-0.5734918713569641,0.07578186690807343,0.26858147978782654
1782836828624836400,3.22383642578125,-0.5169207453727722,0.09171316027641296,0.24384579062461853
1782836828634765300,3.233765380859375,-0.4634985029697418,0.10070383548736572,0.22109995782375336
1782836828644695600,3.243695556640625,-0.4356127977371216,0.0759715884923935,0.20488236844539642
1782836828654624500,3.25362451171875,-0.4448566734790802,0.002250787802040577,0.1890065222978592
1782836828664553500,3.263553466796875,-0.46945813298225403,-0.09276547282934189,0.15448343753814697
1782836828674482400,3.273482421875,-0.49458393454551697,-0.18997879326343536,0.10371813178062439
1782836828684412400,3.283412353515625,-0.5145307779312134,-0.25273245573043823,0.03546024486422539
1782836828694341400,3.29334130859375,-0.5423712730407715,-0.27817410230636597,-0.05462706834077835
1782836828704270600,3.3032705078125,-0.5664185881614685,-0.2762678265571594,-0.16002991795539856
1782836828714199600,3.313199462890625,-0.5670205950737,-0.21713759005069733,-0.25889158248901367
1782836828724129500,3.323129638671875,-0.5448811650276184,-0.10551971197128296,-0.342703640460968
1782836828734058500,3.33305859375,-0.5131736397743225,-0.008703801780939102,-0.40778860449790955
1782836828743987500,3.342987548828125,-0.4528735876083374,0.10183282941579819,-0.4368719160556793
1782836828753916400,3.35291650390625,-0.3738035559654236,0.20108401775360107,-0.3982444107532501
1782836828763846700,3.3628466796875,-0.29469114542007446,0.28449633717536926,-0.3083621859550476
1782836828773775600,3.372775634765625,-0.23433198034763336,0.33807817101478577,-0.18964506685733795
1782836828783704600,3.38270458984375,-0.17995131015777588,0.35036519169807434,-0.07257544249296188
1782836828793633500,3.392633544921875,-0.13612397015094757,0.2704823613166809,-0.001646457239985466
1782836828803562800,3.402562744140625,-0.09829217195510864,0.13824014365673065,0.020211968570947647
1782836828813492500,3.412492431640625,-0.045548610389232635,-0.026428556069731712,0.013175827451050282
1782836828823421400,3.42242138671875,-0.00009057950228452682,-0.15402007102966309,0.005699003115296364
1782836828833350400,3.432350341796875,0.022712349891662598,-0.23953227698802948,-0.0004129852168262005
1782836828843279600,3.442279541015625,0.03577249124646187,-0.2868049740791321,-0.029813483357429504
1782836828853209600,3.452209716796875,0.03902439773082733,-0.2817375361919403,-0.07118283957242966
1782836828863138600,3.462138671875,0.05335034057497978,-0.2371215969324112,-0.11056513339281082
1782836828873067500,3.472067626953125,0.0754709467291832,-0.1686546504497528,-0.152645081281662
1782836828882996500,3.48199658203125,0.09640339761972427,-0.0871288925409317,-0.18228739500045776
1782836828892926500,3.491926513671875,0.09766585379838943,-0.022469449788331985,-0.19823534786701202
1782836828902855700,3.501855712890625,0.06304183602333069,-0.007891306653618813,-0.2151525467634201
1782836828912784600,3.51178466796875,0.01810430735349655,-0.034249767661094666,-0.23557424545288086
1782836828922713600,3.521713623046875,-0.014143910259008408,-0.06438503414392471,-0.2588050067424774
1782836828932642600,3.531642578125,-0.03961466997861862,-0.10194425284862518,-0.26703259348869324
1782836828942572500,3.541572509765625,-0.04291193187236786,-0.08967933058738708,-0.24810604751110077
1782836828952501500,3.55150146484375,-0.022383708506822586,-0.03515937924385071,-0.20427623391151428
1782836828962430500,3.561430419921875,0.021021824330091476,0.00042152032256126404,-0.15633641183376312
1782836828972359400,3.571359375,0.07567925751209259,0.04498797282576561,-0.10512234270572662
1782836828982289700,3.58128955078125,0.13424482941627502,0.09676995128393173,-0.044474441558122635
1782836828992218400,3.59121826171875,0.1737954318523407,0.1357511729001999,0.006447593681514263
1782836829002147300,3.601147216796875,0.19145245850086212,0.14095498621463776,0.051562074571847916
1782836829012076500,3.61107666015625,0.1899717152118683,0.12634111940860748,0.0824722871184349
1782836829022006500,3.621006591796875,0.17456001043319702,0.11173474043607712,0.10386119782924652
1782836829031935500,3.630935546875,0.16177324950695038,0.10908584296703339,0.1016104444861412
1782836829041864700,3.64086474609375,0.1566154956817627,0.10876893252134323,0.07336682081222534
1782836829051793700,3.650793701171875,0.16706646978855133,0.11783760786056519,0.042305149137973785
1782836829061722600,3.66072265625,0.1678832620382309,0.12758983671665192,0.01767144352197647
1782836829071652400,3.67065234375,0.14102254807949066,0.10632225126028061,0.011388176120817661
1782836829081581600,3.68058154296875,0.0959986224770546,0.06498599797487259,0.026724521070718765
1782836829091510500,3.690510498046875,0.0455971360206604,-0.02341880276799202,0.04966817796230316
1782836829101439500,3.700439453125,0.018342874944210052,-0.13756908476352692,0.0773855596780777
1782836829111369700,3.71036962890625,0.010552645660936832,-0.1991112232208252,0.1003381535410881
1782836829121298400,3.72029833984375,0.0012347772717475891,-0.23318636417388916,0.10270436853170395
1782836829131227400,3.730227294921875,-0.0174657441675663,-0.220988467335701,0.0799349769949913
1782836829141156400,3.74015625,-0.03162470832467079,-0.1472063958644867,0.04262249544262886
1782836829151086600,3.750086669921875,-0.0207098126411438,-0.028167735785245895,0.02125801146030426
1782836829161015600,3.760015625,0.00951440166682005,0.10469523817300797,0.03261586278676987
1782836829170944500,3.769944580078125,0.03975081816315651,0.20665830373764038,0.0405825711786747
1782836829180873700,3.779873779296875,0.049287598580121994,0.23344305157661438,0.031232744455337524
1782836829190803500,3.789803466796875,0.04690949246287346,0.14384129643440247,0.005817318335175514
1782836829200732400,3.799732421875,0.01887945458292961,-0.005990803241729736,-0.02230672910809517
1782836829210661400,3.809661376953125,-0.032118964940309525,-0.18817952275276184,-0.05138946324586868
1782836829220590600,3.819590576171875,-0.10349620878696442,-0.3245756924152374,-0.0839569941163063
1782836829230520600,3.8295205078125,-0.18741439282894135,-0.4142248034477234,-0.12728764116764069
1782836829240449500,3.839449462890625,-0.2612451910972595,-0.4422591030597687,-0.1803649663925171
1782836829250378500,3.84937841796875,-0.3222166895866394,-0.3472905158996582,-0.2101186066865921
1782836829260307500,3.859307373046875,-0.36302828788757324,-0.16096937656402588,-0.21556663513183594
1782836829270236400,3.869236328125,-0.38355743885040283,0.05596010386943817,-0.17779900133609772
1782836829280166700,3.879166748046875,-0.386905312538147,0.2847554683685303,-0.09284976124763489
1782836829290095600,3.889095703125,-0.3743182122707367,0.4527378976345062,0.03343025594949722
1782836829300024600,3.899024658203125,-0.3473145365715027,0.5293464064598083,0.17325367033481598
1782836829309953500,3.90895361328125,-0.31387045979499817,0.513787031173706,0.31455257534980774
1782836829319883500,3.918883544921875,-0.30362263321876526,0.44554826617240906,0.4332885444164276
1782836829329812500,3.9288125,-0.3107376992702484,0.34673985838890076,0.5340552926063538
1782836829339741400,3.938741455078125,-0.33933019638061523,0.28379765152931213,0.6193842887878418
1782836829349670400,3.94867041015625,-0.3901691436767578,0.26450663805007935,0.6510500907897949
1782836829359600600,3.9586005859375,-0.4463014006614685,0.3177115321159363,0.6158665418624878
1782836829369529600,3.968529541015625,-0.4790436923503876,0.40985918045043945,0.5292399525642395
1782836829379458300,3.978458251953125,-0.5104950666427612,0.48394644260406494,0.39344167709350586
1782836829389387500,3.988387451171875,-0.5304607152938843,0.5102795362472534,0.24814476072788239
1782836829399316500,3.99831640625,-0.548631489276886,0.47342827916145325,0.13280218839645386
1782836829409246500,4.00824658203125,-0.5750447511672974,0.34208136796951294,0.05633969232439995
1782836829419175700,4.01817578125,-0.6107731461524963,0.17248275876045227,0.021241895854473114
1782836829429104600,4.028104736328125,-0.6291623115539551,-0.03257523477077484,-0.010849090293049812
1782836829439033600,4.03803369140625,-0.6087342500686646,-0.2508803904056549,-0.03470941632986069
1782836829448963600,4.047963623046875,-0.5618565082550049,-0.4353378415107727,-0.0703335851430893
1782836829458892500,4.057892578125,-0.4969371259212494,-0.5527499318122864,-0.11548801511526108
1782836829468821500,4.067821533203125,-0.44614139199256897,-0.5957518815994263,-0.1457013338804245
1782836829478750500,4.07775048828125,-0.42401158809661865,-0.5829753875732422,-0.14505259692668915
1782836829488680700,4.0876806640625,-0.41223859786987305,-0.5153412222862244,-0.10234790295362473
1782836829498609700,4.097609619140625,-0.42456451058387756,-0.37974080443382263,-0.04385849088430405
1782836829508538400,4.107538330078125,-0.45054203271865845,-0.20233575999736786,0.007515221834182739
1782836829518467300,4.11746728515625,-0.48495781421661377,-0.05204346403479576,0.031016554683446884
1782836829528397600,4.1273974609375,-0.510216236114502,0.0366278812289238,0.008126131258904934
1782836829538326500,4.137326416015625,-0.49052533507347107,0.09266265481710434,-0.03553692623972893
1782836829548255500,4.14725537109375,-0.4504256844520569,0.09806887805461884,-0.08090530335903168
1782836829558184700,4.157184814453125,-0.4256739914417267,0.08019240945577621,-0.10291233658790588
1782836829568114400,4.167114501953125,-0.42116135358810425,0.06981270015239716,-0.08991948515176773
1782836829578043400,4.17704345703125,-0.43818140029907227,0.06230844557285309,-0.05608908832073212
1782836829587972600,4.18697265625,-0.45461976528167725,0.030637018382549286,-0.01249221432954073
1782836829597901600,4.196901611328125,-0.4487821161746979,0.0328381210565567,0.031114649027585983
1782836829607830500,4.20683056640625,-0.42084985971450806,0.03840658813714981,0.052651941776275635
1782836829617760500,4.216760498046875,-0.39297616481781006,-0.00831670593470335,0.03519758582115173
1782836829627689500,4.226689453125,-0.36349546909332275,-0.07536385953426361,-0.028716009110212326
1782836829637618400,4.236618408203125,-0.3380175530910492,-0.1516794115304947,-0.11204099655151367
1782836829647547400,4.24654736328125,-0.32447516918182373,-0.2590532898902893,-0.21074260771274567
1782836829657477600,4.2564775390625,-0.3107236921787262,-0.36142122745513916,-0.28404825925827026
1782836829667406600,4.266406494140625,-0.31062984466552734,-0.4149213135242462,-0.3388349711894989
1782836829677335600,4.27633544921875,-0.3188400864601135,-0.4186931550502777,-0.37839275598526
1782836829687264000,4.286263916015625,-0.31871503591537476,-0.372586727142334,-0.39370009303092957
1782836829697194000,4.296194091796875,-0.3070796728134155,-0.2978522777557373,-0.36106279492378235
1782836829707122700,4.306122802734375,-0.29735812544822693,-0.17947950959205627,-0.2866467535495758
1782836829717052000,4.316052001953125,-0.2988037168979645,-0.09524291753768921,-0.1943269670009613
1782836829726980900,4.32598095703125,-0.31478723883628845,-0.10501464456319809,-0.11339789628982544
1782836829736910800,4.335910888671875,-0.33755114674568176,-0.15144312381744385,-0.04352560266852379
1782836829746840000,4.345840087890625,-0.35869336128234863,-0.193226620554924,0.023823978379368782
1782836829756769000,4.35576904296875,-0.3935176432132721,-0.21554258465766907,0.08047686517238617
1782836829766698000,4.365697998046875,-0.4338781237602234,-0.16891302168369293,0.12650461494922638
1782836829776628000,4.3756279296875,-0.4869599938392639,-0.09868599474430084,0.1474413126707077
1782836829786557000,4.385556884765625,-0.5349982976913452,-0.04532737657427788,0.141774520277977
1782836829796486000,4.39548583984375,-0.570648729801178,-0.003902970813214779,0.098375104367733
1782836829806414800,4.405414794921875,-0.5925091505050659,0.005860279314219952,0.03610535338521004
1782836829816343800,4.41534375,-0.6042312979698181,0.006684794090688229,-0.012366574257612228
1782836829826273800,4.425273681640625,-0.6125515699386597,0.004445686936378479,-0.02673417702317238
1782836829836202800,4.43520263671875,-0.6285721063613892,-0.0042953407391905785,-0.020462697371840477
1782836829846131700,4.445131591796875,-0.631765604019165,-0.00533894682303071,-0.007145722862333059
1782836829856061000,4.45506103515625,-0.6144933700561523,0.005364031530916691,0.015397136099636555
1782836829865991000,4.464990966796875,-0.5780776143074036,0.040643516927957535,0.045923180878162384
1782836829875920000,4.474919921875,-0.5317023992538452,0.10927557945251465,0.0924651175737381
1782836829885849000,4.48484912109375,-0.4808391332626343,0.1594531387090683,0.13861814141273499
1782836829895778000,4.494778076171875,-0.4423913359642029,0.1727609485387802,0.16173410415649414
1782836829905707800,4.504707763671875,-0.43184828758239746,0.14861594140529633,0.14099539816379547
1782836829915637000,4.514636962890625,-0.4546060562133789,0.035749584436416626,0.040662139654159546
1782836829925566000,4.52456591796875,-0.4998755156993866,-0.15258322656154633,-0.11871799826622009
1782836829935495000,4.534494873046875,-0.5455718636512756,-0.4008801281452179,-0.32003989815711975
1782836829945425000,4.5444248046875,-0.5840263962745667,-0.634304940700531,-0.516654372215271
1782836829955353900,4.554353759765625,-0.601856529712677,-0.7183023691177368,-0.6420956254005432
1782836829965282800,4.56428271484375,-0.6208086609840393,-0.6228768825531006,-0.6613662242889404
1782836829975211800,4.574211669921875,-0.6477353572845459,-0.37125611305236816,-0.5365768671035767
1782836829985142000,4.58414208984375,-0.6722332239151001,-0.015117586590349674,-0.2885810434818268
1782836829995071000,4.594071044921875,-0.6700422763824463,0.30248168110847473,0.014644607901573181
1782836830005000000,4.604,-0.6440417766571045,0.5479460954666138,0.30058807134628296
1782836830014929000,4.613928955078125,-0.6230270266532898,0.6208146810531616,0.4814598560333252
1782836830024858000,4.623858154296875,-0.6171308159828186,0.5177968740463257,0.5350069999694824
1782836830034787800,4.633787841796875,-0.6107634902000427,0.3421502113342285,0.4646252691745758
1782836830044716800,4.643716796875,-0.5786523818969727,0.13622279465198517,0.36038100719451904
1782836830054646000,4.65364599609375,-0.5380458235740662,-0.003359067253768444,0.2779364585876465
1782836830064575000,4.663574951171875,-0.5282504558563232,-0.05815392732620239,0.22055643796920776
1782836830074505000,4.6735048828125,-0.5488537549972534,-0.03177318722009659,0.19153356552124023
1782836830084434000,4.683433837890625,-0.5938735604286194,0.11545083671808243,0.1755131334066391
1782836830094363000,4.69336279296875,-0.6343069672584534,0.3225550353527069,0.1831713169813156
1782836830104291800,4.703291748046875,-0.6601111888885498,0.48620736598968506,0.19655738770961761
1782836830114221800,4.713221923828125,-0.6694424152374268,0.5600131154060364,0.20583637058734894
1782836830124151000,4.723151123046875,-0.6705144643783569,0.5527817010879517,0.19864538311958313
1782836830134080000,4.733080078125,-0.6445252299308777,0.4675898253917694,0.17738056182861328
1782836830144009000,4.743009033203125,-0.591765284538269,0.3107309639453888,0.14134778082370758
1782836830153939000,4.75293896484375,-0.5246459245681763,0.12140633165836334,0.11075417697429657
1782836830163868000,4.762867919921875,-0.47167012095451355,-0.06897585839033127,0.08173096179962158
1782836830173796900,4.772796875,-0.4433000087738037,-0.2156936675310135,0.0424080528318882
1782836830183725800,4.782725830078125,-0.4242970943450928,-0.2739813029766083,0.00048556551337242126
1782836830193656000,4.792656005859375,-0.39982718229293823,-0.23649945855140686,-0.027281615883111954
1782836830203585000,4.8025849609375,-0.37553671002388,-0.15575702488422394,-0.03679191693663597
1782836830213513700,4.812513671875,-0.3590453565120697,-0.0589391365647316,-0.03714558482170105
1782836830223442700,4.822442626953125,-0.32159557938575745,0.0437525175511837,-0.03222540393471718
1782836830233372000,4.832371826171875,-0.2596283257007599,0.10919889807701111,-0.018796149641275406
1782836830243302000,4.842302001953125,-0.19968926906585693,0.10972992330789566,0.010966368950903416
1782836830253230800,4.85223095703125,-0.1416289061307907,0.08633378893136978,0.05584782734513283
1782836830263160000,4.86216015625,-0.0818912535905838,0.04174189269542694,0.11512413620948792
1782836830273089000,4.872089111328125,-0.02969808503985405,-0.007178776897490025,0.16276487708091736
1782836830283018800,4.882018798828125,0.0175994373857975,-0.056376103311777115,0.19956830143928528
1782836830292948000,4.891947998046875,0.062026288360357285,-0.07033532857894897,0.2256222814321518
1782836830302877000,4.901876953125,0.10157562047243118,-0.054716046899557114,0.23759128153324127
1782836830312806000,4.911805908203125,0.12938781082630157,-0.03315722569823265,0.21286596357822418
1782836830322735900,4.92173583984375,0.13794754445552826,-0.023425646126270294,0.1432531327009201
1782836830332665000,4.9316650390625,0.1366681605577469,-0.01583084464073181,0.04848349094390869
1782836830342593800,4.94159375,0.13338421285152435,-0.00337172020226717,-0.04452652111649513
1782836830352522800,4.951522705078125,0.12236592173576355,-0.001957048662006855,-0.12102396041154861
1782836830362453000,4.961452880859375,0.09728117287158966,-0.019162092357873917,-0.16525913774967194
1782836830372382000,4.9713818359375,0.06524121761322021,-0.018608687445521355,-0.1806924194097519
1782836830382311000,4.981310791015625,0.034488361328840256,-0.02778087928891182,-0.19041456282138824
1782836830392239900,4.991239990234375,0.0009248098358511925,-0.016733288764953613,-0.2071530669927597
1782836830402169900,5.001169921875,-0.016344385221600533,0.008929642848670483,-0.20379120111465454
1782836830412098800,5.011098876953125,-0.013546733185648918,0.04042338579893112,-0.18764285743236542
1782836830422027800,5.02102783203125,0.01558754500001669,0.055054839700460434,-0.15568393468856812
1782836830431957000,5.03095703125,0.05255302041769028,0.05127634480595589,-0.1368473917245865
1782836830441887000,5.040886962890625,0.10020772367715836,0.05609602853655815,-0.12687748670578003
1782836830451816000,5.05081591796875,0.15468667447566986,0.10198070108890533,-0.10897865146398544
1782836830461745000,5.060744873046875,0.20511779189109802,0.11296021938323975,-0.09514681994915009
1782836830471673900,5.070673828125,0.24538850784301758,0.06667634099721909,-0.06842067092657089
1782836830481602800,5.080602783203125,0.27685922384262085,0.0245363786816597,-0.016789201647043228
1782836830491532800,5.09053271484375,0.3015826940536499,-0.017059268429875374,0.028898924589157104
1782836830501462000,5.1004619140625,0.33300209045410156,-0.04594736546278,0.04917006194591522
1782836830511391000,5.110390869140625,0.3406616151332855,-0.025246616452932358,0.03861595690250397
1782836830521320000,5.12031982421875,0.33931612968444824,0.027050014585256577,0.012591254897415638
1782836830531250000,5.13025,0.33854037523269653,0.06035870313644409,-0.008638933300971985
1782836830541179000,5.140178955078125,0.33385828137397766,0.04881909117102623,-0.01528456062078476
1782836830551107800,5.15010791015625,0.3497256636619568,-0.046885065734386444,0.004561048932373524
1782836830561036800,5.160036865234375,0.3829575181007385,-0.1651846468448639,0.029174458235502243
1782836830570967000,5.169967041015625,0.4004880487918854,-0.27398887276649475,0.06220138818025589
1782836830580896000,5.17989599609375,0.41484731435775757,-0.3181048631668091,0.12156561017036438
1782836830590825000,5.189824951171875,0.40126121044158936,-0.307390958070755,0.19840392470359802
1782836830600753700,5.199753662109375,0.3636664152145386,-0.2581508159637451,0.26816311478614807
1782836830610684000,5.209683837890625,0.31924089789390564,-0.19864913821220398,0.30206382274627686
1782836830620612900,5.21961279296875,0.26397356390953064,-0.13046292960643768,0.27295979857444763
1782836830630541800,5.229541748046875,0.20067207515239716,-0.05913521721959114,0.16847015917301178
1782836830640471000,5.239470947265625,0.14494560658931732,0.003464203327894211,0.01884985715150833
1782836830650400800,5.24940087890625,0.13527140021324158,0.026217186823487282,-0.12020869553089142
1782836830660329700,5.259329833984375,0.17513059079647064,0.03606543317437172,-0.20063436031341553
1782836830670259000,5.269259033203125,0.24824048578739166,0.04400352016091347,-0.20478197932243347
1782836830680188000,5.27918798828125,0.33639848232269287,0.030504655092954636,-0.14679883420467377
1782836830690122200,5.289122314453125,0.4338025450706482,0.0026839422062039375,-0.061286602169275284
1782836830700051200,5.29905126953125,0.5312646627426147,-0.025845307856798172,0.02484750747680664
1782836830709980200,5.308980224609375,0.6222688555717468,-0.07876285165548325,0.10308025777339935
1782836830719909000,5.3189091796875,0.6898664236068726,-0.18606342375278473,0.16657952964305878
1782836830729835300,5.328835205078125,0.7390057444572449,-0.30945488810539246,0.22728867828845978
1782836830739764200,5.33876416015625,0.7702284455299377,-0.38145095109939575,0.2888069152832031
1782836830749693400,5.348693359375,0.7768309116363525,-0.36188817024230957,0.3281596601009369
1782836830759623200,5.358623046875,0.7423461079597473,-0.23428083956241608,0.33035150170326233
1782836830769552100,5.36855224609375,0.6954156160354614,-0.01462171133607626,0.28937211632728577
1782836830779481000,5.378481201171875,0.6495302319526672,0.24050964415073395,0.1989927589893341
1782836830789410300,5.388410400390625,0.6091569662094116,0.44401055574417114,0.07408037781715393
1782836830799340300,5.39834033203125,0.5823653340339661,0.5744079351425171,-0.045432161539793015
1782836830809269200,5.408269287109375,0.5664523839950562,0.6257818937301636,-0.10039554536342621
1782836830819198500,5.418198486328125,0.552551805973053,0.599724531173706,-0.0950247049331665
1782836830829127400,5.42812744140625,0.5232887268066406,0.494266539812088,-0.06226729229092598
1782836830839057200,5.43805712890625,0.490703821182251,0.380165159702301,-0.0033430620096623898
1782836830848986400,5.447986328125,0.4747954308986664,0.2815437614917755,0.07591420412063599
1782836830858915300,5.457915283203125,0.4664076864719391,0.17087098956108093,0.1329798549413681
1782836830868844300,5.46784423828125,0.45919957756996155,0.03244439885020256,0.13579295575618744
1782836830878774300,5.477774169921875,0.45604076981544495,-0.08822274208068848,0.07539521902799606
1782836830888703200,5.487703125,0.4601753354072571,-0.18459509313106537,-0.02861320599913597
1782836830898632200,5.497632080078125,0.45636698603630066,-0.26471003890037537,-0.16641104221343994
1782836830908561200,5.50756103515625,0.4548415243625641,-0.3011484742164612,-0.3002186417579651
1782836830918491400,5.517491455078125,0.4505082368850708,-0.31202012300491333,-0.4185123145580292
1782836830928420400,5.52742041015625,0.4137400984764099,-0.326458215713501,-0.5109516978263855
1782836830938349300,5.537349365234375,0.35606318712234497,-0.30273565649986267,-0.5701819658279419
1782836830948278300,5.5472783203125,0.2893829345703125,-0.21821440756320953,-0.5750587582588196
1782836830958208300,5.557208251953125,0.22569748759269714,-0.09233658015727997,-0.5386446714401245
1782836830968137200,5.56713720703125,0.19321198761463165,0.07605430483818054,-0.449390709400177
1782836830978066200,5.577066162109375,0.19977769255638123,0.2692168056964874,-0.3213290274143219
1782836830987995400,5.586995361328125,0.23044000566005707,0.43834590911865234,-0.1744873821735382
1782836830997925400,5.59692529296875,0.2777617573738098,0.5600277185440063,-0.04398367553949356
1782836831007854300,5.606854248046875,0.31913208961486816,0.6166385412216187,0.04220447316765785
1782836831017783000,5.616782958984375,0.3385763168334961,0.5886070132255554,0.08483446389436722
1782836831027712300,5.626712158203125,0.34823426604270935,0.5397515892982483,0.09947811812162399
1782836831037641200,5.63664111328125,0.3448541760444641,0.47980767488479614,0.08596939593553543
1782836831047571200,5.6465712890625,0.3228532671928406,0.4060426354408264,0.042714063078165054
1782836831057500400,5.65650048828125,0.29345831274986267,0.3434332311153412,-0.01875482127070427
1782836831067429400,5.666429443359375,0.26762858033180237,0.283480703830719,-0.08794427663087845
1782836831077358300,5.6763583984375,0.262698769569397,0.2371511608362198,-0.14310815930366516
1782836831087288300,5.686288330078125,0.28318753838539124,0.18819959461688995,-0.17245273292064667
1782836831097217300,5.69621728515625,0.31573420763015747,0.15079474449157715,-0.1681719571352005
1782836831107146200,5.706146240234375,0.3401210308074951,0.12745825946331024,-0.1418125182390213
1782836831117075200,5.7160751953125,0.36110055446624756,0.0889468789100647,-0.11157366633415222
1782836831127005400,5.72600537109375,0.3827618956565857,0.006821917369961739,-0.09911486506462097
1782836831136934400,5.735934326171875,0.3934531509876251,-0.08087192475795746,-0.09653016924858093
1782836831146863000,5.745863037109375,0.4034695625305176,-0.12702929973602295,-0.07959859073162079
1782836831156792000,5.7557919921875,0.40679293870925903,-0.12003422528505325,-0.05894913151860237
1782836831166722300,5.765722412109375,0.3835488557815552,-0.08536865562200546,-0.024489160627126694
1782836831176651300,5.7756513671875,0.3434579074382782,-0.038164734840393066,0.018878351897001266
1782836831186580200,5.785580322265625,0.2861988842487335,-0.006275243125855923,0.06006600335240364
1782836831196509400,5.795509521484375,0.2121082842350006,-0.011278429068624973,0.06616177409887314
1782836831206439200,5.805439208984375,0.14399100840091705,-0.028295760974287987,0.03704063966870308
1782836831216368000,5.8153681640625,0.09401290863752365,-0.023309141397476196,-0.006828430574387312
1782836831226297300,5.82529736328125,0.05861230939626694,-0.0328373983502388,-0.05304013565182686
1782836831236226300,5.835226318359375,0.033916112035512924,-0.04459020495414734,-0.07969854772090912
1782836831246156300,5.84515625,0.023021917790174484,-0.06483422219753265,-0.09229423105716705
1782836831256085500,5.85508544921875,0.02855156734585762,-0.08563189208507538,-0.0927409902215004
1782836831266014500,5.865014404296875,0.03467470407485962,-0.09227381646633148,-0.08983415365219116
1782836831275943200,5.874943115234375,0.06273311376571655,-0.08879143744707108,-0.07857353985309601
1782836831285873200,5.884873046875,0.09486069530248642,-0.08817624300718307,-0.05837079510092735
1782836831295802400,5.89480224609375,0.12479392439126968,-0.07827179878950119,-0.02551022171974182
1782836831305731300,5.9047314453125,0.15677128732204437,-0.06176339089870453,0.041617415845394135
1782836831315660300,5.914660400390625,0.18855825066566467,-0.05848994478583336,0.11124877631664276
1782836831325589200,5.92458935546875,0.20495747029781342,-0.07010877877473831,0.16577914357185364
1782836831335519200,5.934519287109375,0.21125975251197815,-0.1111966073513031,0.17290742695331573
1782836831345448200,5.9444482421875,0.22060051560401917,-0.20141944289207458,0.1325962245464325
1782836831355377200,5.954377197265625,0.2364979088306427,-0.3116382658481598,0.048373594880104065
1782836831365306400,5.964306396484375,0.2390657216310501,-0.3768886625766754,-0.0482349693775177
1782836831375236400,5.974236328125,0.2200121432542801,-0.3664810061454773,-0.10681039094924927
1782836831385165300,5.984165283203125,0.18831370770931244,-0.29062533378601074,-0.13116829097270966
1782836831395094300,5.99409423828125,0.17224285006523132,-0.1820267140865326,-0.107124462723732
1782836831405023200,6.004023193359375,0.1757887601852417,-0.08296823501586914,-0.046615585684776306
1782836831414953200,6.013953125,0.20801673829555511,0.004218864254653454,0.03513307496905327
1782836831424882200,6.023882080078125,0.2488134503364563,0.021660301834344864,0.11804529279470444
1782836831434811400,6.033811279296875,0.27382081747055054,-0.043379418551921844,0.1921280324459076
1782836831444740400,6.043740234375,0.26784229278564453,-0.15291737020015717,0.25352030992507935
1782836831454670000,6.053670166015625,0.21956555545330048,-0.24313993752002716,0.2839037775993347
1782836831464599300,6.063599365234375,0.15011602640151978,-0.2978885769844055,0.26785025000572205
1782836831474528300,6.0735283203125,0.1027895137667656,-0.2898663282394409,0.2009979784488678
1782836831484457200,6.083457275390625,0.12174222618341446,-0.19312059879302979,0.12419921904802322
1782836831494387500,6.093387451171875,0.17333084344863892,-0.014854984357953072,0.08019048720598221
1782836831504316400,6.10331640625,0.22324615716934204,0.19787485897541046,0.07110586017370224
1782836831514245400,6.113245361328125,0.24907535314559937,0.39561644196510315,0.10864285379648209
1782836831524174300,6.12317431640625,0.24140730500221252,0.5413106679916382,0.15724720060825348
1782836831534104300,6.133104248046875,0.20784801244735718,0.5872899293899536,0.18856199085712433
1782836831544033300,6.143033203125,0.16931618750095367,0.5351969599723816,0.19765856862068176
1782836831553962200,6.152962158203125,0.13922353088855743,0.3916376531124115,0.1753639280796051
1782836831563891200,6.16289111328125,0.11448854953050613,0.17695963382720947,0.15069161355495453
1782836831573821200,6.1728212890625,0.09681262075901031,-0.05459288880228996,0.14106960594654083
1782836831583750100,6.182750244140625,0.07511008530855179,-0.22091050446033478,0.13528291881084442
1782836831593679000,6.19267919921875,0.05157679691910744,-0.28438374400138855,0.10780470073223114
1782836831603608300,6.2026083984375,0.0507238432765007,-0.25167566537857056,0.061254650354385376
1782836831613538300,6.212538330078125,0.06068646162748337,-0.16230662167072296,-0.005942231044173241
1782836831623467300,6.22246728515625,0.0779128447175026,-0.05723097547888756,-0.09483562409877777
1782836831633396500,6.232396484375,0.08873486518859863,0.051632922142744064,-0.17239832878112793
1782836831643325400,6.242325439453125,0.0934441089630127,0.11231578886508942,-0.22364777326583862
1782836831653255200,6.252255126953125,0.09980160742998123,0.14233040809631348,-0.23962780833244324
1782836831663184100,6.26218408203125,0.11231251060962677,0.1599445790052414,-0.21601924300193787
1782836831673113300,6.27211328125,0.15760169923305511,0.15409600734710693,-0.17869770526885986
1782836831683042300,6.282042236328125,0.23699861764907837,0.13963136076927185,-0.12328433245420456
1782836831692967400,6.291967529296875,0.3413867950439453,0.1122969388961792,-0.04914485663175583
1782836831702897700,6.301897705078125,0.43112292885780334,0.11494576930999756,0.03202182054519653
1782836831712826400,6.311826416015625,0.5026013255119324,0.14399924874305725,0.11027906835079193
1782836831722755300,6.32175537109375,0.5869124531745911,0.19479940831661224,0.16207818686962128
1782836831732684500,6.3316845703125,0.644077479839325,0.22263476252555847,0.1646318882703781
1782836831742614500,6.341614501953125,0.652887225151062,0.24470676481723785,0.12150348722934723
1782836831752543500,6.35154345703125,0.6378792524337769,0.2682291269302368,0.04400737211108208
1782836831762472700,6.36147265625,0.6304847002029419,0.27563637495040894,-0.04175231605768204
1782836831772401700,6.371401611328125,0.6272338032722473,0.2576885223388672,-0.11942420899868011
1782836831782331400,6.381331298828125,0.6223717927932739,0.21033801138401031,-0.15557867288589478
1782836831792260400,6.39126025390625,0.6228751540184021,0.14965549111366272,-0.1409749686717987
1782836831802189600,6.401189453125,0.6293069124221802,0.10266485810279846,-0.08926595002412796
1782836831812118500,6.411118408203125,0.6466552019119263,0.07229816168546677,-0.03389349952340126
1782836831822048500,6.421048583984375,0.6686323285102844,0.09441599249839783,0.012725572101771832
1782836831831977700,6.430977783203125,0.6940482258796692,0.1455763876438141,0.028466984629631042
1782836831841906400,6.440906494140625,0.7175197601318359,0.18214185535907745,0.02520114928483963
1782836831851835400,6.45083544921875,0.7232058644294739,0.1625780165195465,0.0077260201796889305
1782836831861765600,6.460765625,0.7159825563430786,0.10498722642660141,-0.015478216111660004
1782836831871694600,6.470694580078125,0.6738097667694092,0.03194257244467735,-0.030666224658489227
1782836831881623600,6.48062353515625,0.6599692702293396,0.03639157861471176,-0.05724663659930229
1782836831891552500,6.490552490234375,0.6307650804519653,0.04364736005663872,-0.09366776049137115
1782836831901482500,6.500482421875,0.6055284738540649,0.03824741765856743,-0.12665779888629913
1782836831911411500,6.510411376953125,0.5932545065879822,0.045994821935892105,-0.14275528490543365
1782836831921340400,6.52034033203125,0.6118360161781311,0.04691179469227791,-0.1404954344034195
1782836831931269600,6.53026953125,0.6198906898498535,0.058278437703847885,-0.10401973128318787
1782836831941199600,6.54019970703125,0.6349308490753174,0.08884712308645248,-0.0416707806289196
1782836831951128600,6.550128662109375,0.6327230930328369,0.0975378155708313,0.006079697050154209
1782836831961057500,6.5600576171875,0.6355434656143188,0.05381300672888756,0.028138093650341034
1782836831970986500,6.569986572265625,0.6594634652137756,0.002662469632923603,0.027550067752599716
1782836831980916500,6.57991650390625,0.6882666349411011,-0.03974355757236481,0.00693811010569334
1782836831990845400,6.589845458984375,0.7134997844696045,-0.0704796314239502,-0.020192842930555344
1782836832000774700,6.599774658203125,0.7332532405853271,-0.090911366045475,-0.03857559710741043
1782836832010703600,6.60970361328125,0.7403702735900879,-0.1075286865234375,-0.05086235702037811
1782836832020633300,6.61963330078125,0.7313295006752014,-0.0780915915966034,-0.045708756893873215
1782836832030562600,6.6295625,0.7472104430198669,-0.04436399042606354,-0.012472506612539291
1782836832040491500,6.639491455078125,0.7838786840438843,-0.04357806220650673,0.03185613825917244
1782836832050420500,6.64942041015625,0.8383911848068237,-0.07276071608066559,0.06558933854103088
1782836832060350500,6.6593505859375,0.905900776386261,-0.16504164040088654,0.07944363355636597
1782836832070279700,6.66927978515625,0.9437234997749329,-0.23848870396614075,0.08511856198310852
1782836832080208600,6.679208740234375,0.9732555150985718,-0.28075891733169556,0.07947469502687454
1782836832090137600,6.6891376953125,0.9769287705421448,-0.2933761477470398,0.06451146304607391
1782836832100066300,6.69906640625,0.9615229964256287,-0.26921069622039795,0.053142987191677094
1782836832109996500,6.70899658203125,0.9414262771606445,-0.25882115960121155,0.04710160568356514
1782836832119925500,6.718925537109375,0.9295818209648132,-0.29051047563552856,0.057771287858486176
1782836832129854500,6.7288544921875,0.9293282628059387,-0.3217903673648834,0.09059102088212967
1782836832139783700,6.73878369140625,0.9154808521270752,-0.3487078845500946,0.1457270085811615
1782836832149713400,6.74871337890625,0.8692334890365601,-0.31748417019844055,0.18004129827022552
1782836832159642400,6.758642333984375,0.8238399028778076,-0.18206822872161865,0.15760819613933563
1782836832169571600,6.768571533203125,0.7729516625404358,-0.021308641880750656,0.09156633168458939
1782836832179500500,6.77850048828125,0.7500295042991638,0.11410745233297348,-0.006304173264652491
1782836832189430500,6.788430419921875,0.759198009967804,0.17732183635234833,-0.10191511362791061
1782836832199359500,6.798359375,0.792841911315918,0.15024910867214203,-0.18445523083209991
1782836832209288700,6.808288818359375,0.8167698979377747,0.07675891369581223,-0.22113175690174103
1782836832219217700,6.8182177734375,0.8173572421073914,0.03811827301979065,-0.19139805436134338
1782836832229147400,6.8281474609375,0.8009988069534302,0.06271550059318542,-0.11374188214540482
1782836832239076600,6.83807666015625,0.782332718372345,0.11435743421316147,-0.003342529758810997
1782836832249005600,6.848005615234375,0.7545543313026428,0.17096957564353943,0.11009534448385239
1782836832258934500,6.8579345703125,0.7371070981025696,0.17631976306438446,0.19742602109909058
1782836832268864500,6.867864501953125,0.737970769405365,0.1580616682767868,0.23840834200382233
1782836832278793500,6.87779345703125,0.75677490234375,0.10517378896474838,0.21609021723270416
1782836832288722400,6.887722412109375,0.7634460926055908,-0.010445486754179,0.13424648344516754
1782836832298651400,6.8976513671875,0.7477928400039673,-0.118585504591465,0.02386513724923134
1782836832308581600,6.90758154296875,0.7164736986160278,-0.22830773890018463,-0.09190274029970169
1782836832318510600,6.917510498046875,0.6752904057502747,-0.30995821952819824,-0.1909881979227066
1782836832328439600,6.927439453125,0.6383829712867737,-0.3431696891784668,-0.2696036398410797
1782836832338368500,6.937368408203125,0.6244829893112183,-0.31824740767478943,-0.3245481550693512
1782836832348298500,6.947298583984375,0.6290364265441895,-0.2668294906616211,-0.3404270112514496
1782836832358227500,6.9572275390625,0.6233187913894653,-0.20151442289352417,-0.3209075629711151
1782836832368156400,6.967156494140625,0.595182478427887,-0.11896921694278717,-0.2752458155155182
1782836832378085600,6.977085693359375,0.5523979663848877,-0.01768898032605648,-0.21248939633369446
1782836832388015600,6.987015625,0.5245183706283569,0.08376386761665344,-0.1511288285255432
1782836832397944600,6.996944580078125,0.5213442444801331,0.16963422298431396,-0.10741687566041946
1782836832407873500,7.00687353515625,0.5367522239685059,0.24288074672222137,-0.09095374494791031
1782836832417802500,7.016802490234375,0.5419281721115112,0.2628146708011627,-0.10368776321411133
1782836832427732500,7.026732421875,0.52394038438797,0.25216999650001526,-0.1260886788368225
1782836832437661400,7.036661376953125,0.47716468572616577,0.2746420204639435,-0.13803189992904663
1782836832447590700,7.046590576171875,0.4234505891799927,0.29436972737312317,-0.15481199324131012
1782836832457519600,7.05651953125,0.3804890513420105,0.2903793454170227,-0.18847274780273438
1782836832467449300,7.066449462890625,0.35121503472328186,0.30356892943382263,-0.2474665492773056
1782836832477378600,7.076378662109375,0.3412078619003296,0.31915083527565,-0.3232159912586212
1782836832487307500,7.0863076171875,0.33173686265945435,0.3144724667072296,-0.38994309306144714
1782836832497236500,7.096236572265625,0.30748251080513,0.33820077776908875,-0.41990652680397034
1782836832507165400,7.10616552734375,0.2850387394428253,0.361677348613739,-0.42661982774734497
1782836832517095700,7.116095703125,0.2967643141746521,0.3397206962108612,-0.40998753905296326
1782836832527024400,7.1260244140625,0.341861754655838,0.26824623346328735,-0.37548521161079407
1782836832536953300,7.135953369140625,0.39173105359077454,0.14392513036727905,-0.2936086356639862
1782836832546882600,7.145882568359375,0.42362508177757263,0.0743846744298935,-0.17636455595493317
1782836832556812500,7.1558125,0.43085694313049316,0.05948694422841072,-0.07625842094421387
1782836832566741500,7.165741455078125,0.4367489218711853,0.05003218725323677,-0.04193054139614105
1782836832576670500,7.17567041015625,0.4462352395057678,0.056426212191581726,-0.048939213156700134
1782836832586599700,7.185599609375,0.4382566809654236,0.04788518697023392,-0.08398961275815964
1782836832596529400,7.195529296875,0.41089561581611633,0.065815769135952,-0.09553644806146622
1782836832606458400,7.205458251953125,0.37139081954956055,0.11627281457185745,-0.10470997542142868
1782836832616387600,7.2153876953125,0.32600516080856323,0.1388411968946457,-0.09968046844005585
1782836832626316500,7.225316650390625,0.2701253890991211,0.11250732839107513,-0.07224192470312119
1782836832636246500,7.23524658203125,0.22015532851219177,0.11367383599281311,-0.030599433928728104
1782836832646175700,7.24517578125,0.1711108237504959,0.06867919117212296,0.005212623625993729
1782836832656104400,7.2551044921875,0.13543462753295898,-0.0003458438441157341,0.042346637696027756
1782836832666033400,7.265033447265625,0.11740051209926605,-0.06254024058580399,0.07909426838159561
1782836832675963600,7.274963623046875,0.09920813888311386,-0.11400183290243149,0.10214414447546005
1782836832685892600,7.284892578125,0.08456208556890488,-0.14620530605316162,0.10258516669273376
1782836832695825700,7.29482568359375,0.07679962366819382,-0.171574667096138,0.08390755951404572
1782836832705754600,7.304754638671875,0.07602837681770325,-0.15035220980644226,0.05844401195645332
1782836832715684400,7.314684326171875,0.061028383672237396,-0.1057717502117157,0.04483463615179062
1782836832725613600,7.324613525390625,0.02307460643351078,-0.070119209587574,0.05465025082230568
1782836832735542500,7.33454248046875,-0.026599157601594925,-0.046578943729400635,0.047260645776987076
1782836832745471500,7.344471435546875,-0.07137274742126465,-0.04413203150033951,0.007039191201329231
1782836832755401700,7.354401611328125,-0.1251305639743805,-0.08976375311613083,-0.06861895322799683
1782836832765330400,7.364330322265625,-0.15617530047893524,-0.17297261953353882,-0.17642638087272644
1782836832775259400,7.37425927734375,-0.1725694090127945,-0.27719131112098694,-0.280899316072464
1782836832785188400,7.384188232421875,-0.18256105482578278,-0.3834221363067627,-0.35493332147598267
1782836832795118600,7.39411865234375,-0.1884310245513916,-0.41113030910491943,-0.35623985528945923
1782836832805047600,7.404047607421875,-0.18869547545909882,-0.3601270616054535,-0.30518653988838196
1782836832814976500,7.4139765625,-0.18291349709033966,-0.2653862237930298,-0.21138796210289001
1782836832824905700,7.42390576171875,-0.15966729819774628,-0.11897388100624084,-0.07379601150751114
1782836832834835500,7.43383544921875,-0.15838280320167542,0.0630100816488266,0.06368368864059448
1782836832844764400,7.443764404296875,-0.18048010766506195,0.19064821302890778,0.16030743718147278
1782836832854693400,7.453693359375,-0.2086937427520752,0.2514694333076477,0.20519083738327026
1782836832864622600,7.46362255859375,-0.2444155216217041,0.26893576979637146,0.19219326972961426
1782836832874552600,7.473552490234375,-0.26915889978408813,0.25167083740234375,0.16605022549629211
1782836832884481500,7.4834814453125,-0.2937031090259552,0.204624742269516,0.14062076807022095
1782836832894410500,7.493410400390625,-0.31748780608177185,0.1737011820077896,0.12476857006549835
1782836832904339500,7.50333935546875,-0.3306957483291626,0.20293229818344116,0.1094260960817337
1782836832914268400,7.513268310546875,-0.3132134974002838,0.2523786127567291,0.09784439951181412
1782836832924198700,7.52319873046875,-0.27012354135513306,0.2798304855823517,0.11116740107536316
1782836832934127600,7.533127685546875,-0.2291877418756485,0.2826831042766571,0.152067169547081
1782836832944056600,7.543056640625,-0.21466578543186188,0.24422520399093628,0.21501123905181885
1782836832953985500,7.552985595703125,-0.2244744449853897,0.20294201374053955,0.2713857889175415
1782836832963915500,7.56291552734375,-0.22886599600315094,0.18725547194480896,0.2938900291919708
1782836832973844500,7.572844482421875,-0.22127306461334229,0.14579351246356964,0.2657438814640045
1782836832983773400,7.5827734375,-0.1992977261543274,0.11585532128810883,0.21761761605739594
1782836832993703700,7.59270361328125,-0.1506546437740326,0.09799644351005554,0.1589755266904831
1782836833003632600,7.602632568359375,-0.07341897487640381,0.05923546105623245,0.09824425727128983
1782836833013561600,7.6125615234375,0.01200568675994873,0.022413259372115135,0.038611069321632385
1782836833023490300,7.622490234375,0.07997674494981766,-0.012543659657239914,-0.010513865388929844
1782836833033419500,7.63241943359375,0.13166174292564392,-0.03850274160504341,-0.045308977365493774
1782836833043349500,7.642349609375,0.1569197028875351,-0.04840943217277527,-0.05985543131828308
1782836833053278500,7.652278564453125,0.15074104070663452,-0.05760696530342102,-0.07131178677082062
1782836833063207700,7.662207763671875,0.13936613500118256,-0.0049962191842496395,-0.05406515300273895
1782836833073136600,7.67213671875,0.11744902282953262,0.08197011798620224,-0.016520533710718155
1782836833083066400,7.68206640625,0.09256204962730408,0.1651800572872162,0.028446141630411148
1782836833092995600,7.69199560546875,0.07492877542972565,0.2198094129562378,0.06804543733596802
1782836833102924500,7.701924560546875,0.08815322816371918,0.2045295238494873,0.07780566066503525
1782836833112853500,7.711853515625,0.1286751627922058,0.15722030401229858,0.06213613599538803
1782836833122783500,7.721783447265625,0.16545554995536804,0.08834350109100342,0.041354693472385406
1782836833132712700,7.731712646484375,0.1833263337612152,0.009999330155551434,0.021148748695850372
1782836833142641700,7.7416416015625,0.1950482428073883,-0.07158048450946808,0.010492906905710697
1782836833152570400,7.7515703125,0.2106049358844757,-0.13831007480621338,0.0006498061120510101
1782836833162500600,7.76150048828125,0.2216956615447998,-0.1672266721725464,-0.016813073307275772
1782836833172429600,7.7714296875,0.22740159928798676,-0.16161935031414032,-0.05508757382631302
1782836833182358500,7.781358642578125,0.21849945187568665,-0.13496723771095276,-0.11005201935768127
1782836833192287500,7.79128759765625,0.19181793928146362,-0.11678123474121094,-0.17268824577331543
1782836833202217500,7.801217529296875,0.1692734807729721,-0.09755533933639526,-0.21574357151985168
1782836833212146400,7.811146484375,0.160922572016716,-0.07170867174863815,-0.23664774000644684
1782836833222075400,7.821075439453125,0.17097119987010956,-0.03655387833714485,-0.264337956905365
1782836833232004600,7.831004638671875,0.2081199437379837,-0.004490167833864689,-0.28917577862739563
1782836833241934600,7.8409345703125,0.2557218372821808,0.008465311489999294,-0.3000055253505707
1782836833251863600,7.850863525390625,0.2795356810092926,0.016940996050834656,-0.2820468246936798
1782836833261792500,7.86079248046875,0.27469536662101746,0.02965652383863926,-0.2372671216726303
1782836833271721700,7.8707216796875,0.2658987045288086,0.055296238511800766,-0.16671356558799744
1782836833281651500,7.8806513671875,0.271923303604126,0.0796753466129303,-0.09350913017988205
1782836833291580400,7.890580322265625,0.30114760994911194,0.11222866922616959,-0.04844823107123375
1782836833301509600,7.900509521484375,0.3595118522644043,0.1477043777704239,-0.016895100474357605
1782836833311438600,7.9104384765625,0.4254301190376282,0.16935420036315918,-0.004755061119794846
1782836833321368600,7.92036865234375,0.4794592261314392,0.15886907279491425,-0.0036485171876847744
1782836833331297500,7.930297607421875,0.5225942134857178,0.13538436591625214,-0.0017790161073207855
1782836833341226500,7.9402265625,0.5412787199020386,0.11623038351535797,0.00568475853651762
1782836833351155500,7.950155517578125,0.5472652316093445,0.05770311504602432,0.022108178585767746
1782836833361085400,7.96008544921875,0.5288689136505127,-0.06080808490514755,0.04884791374206543
1782836833371014700,7.9700146484375,0.5011228322982788,-0.15175791084766388,0.08574832230806351
1782836833380943600,7.979943603515625,0.4618108570575714,-0.19953769445419312,0.12219767272472382
1782836833390872600,7.98987255859375,0.4280998408794403,-0.20193617045879364,0.13341650366783142
1782836833400802600,7.999802490234375,0.42508113384246826,-0.17472133040428162,0.12456361204385757
1782836833410731500,8.0097314453125,0.45917096734046936,-0.10589992254972458,0.11057700961828232
1782836833420660500,8.019660400390626,0.5251696705818176,0.012160669080913067,0.12116840481758118
1782836833430589400,8.02958935546875,0.5931212902069092,0.12254562973976135,0.1754121631383896
1782836833440519700,8.039519775390625,0.6399939656257629,0.16413329541683197,0.2591148018836975
1782836833450448600,8.04944873046875,0.6519463062286377,0.15516570210456848,0.33575838804244995
1782836833460377300,8.05937744140625,0.6276995539665222,0.0639742836356163,0.35874679684638977
1782836833470306600,8.069306640625,0.5799760818481445,-0.06878375262022018,0.32210448384284973
1782836833480236500,8.079236572265625,0.5313345193862915,-0.1570291966199875,0.25749778747558594
1782836833490165500,8.08916552734375,0.48633497953414917,-0.18274588882923126,0.18114697933197021
1782836833500094500,8.099094482421876,0.45305559039115906,-0.1545661836862564,0.1120896190404892
1782836833510023700,8.109023681640625,0.4465923309326172,-0.09107575565576553,0.05709318816661835
1782836833519952600,8.11895263671875,0.4647497832775116,-0.001398337073624134,0.033620622009038925
1782836833529882400,8.12888232421875,0.5139357447624207,0.10474900156259537,0.049090415239334106
1782836833539811600,8.1388115234375,0.5609820485115051,0.20707377791404724,0.0962560623884201
1782836833549740500,8.148740478515625,0.599952220916748,0.3106284439563751,0.14983026683330536
1782836833559669500,8.15866943359375,0.6017769575119019,0.3926311731338501,0.17702274024486542
1782836833569599700,8.168599853515625,0.5947014689445496,0.42083901166915894,0.1706426739692688
1782836833579528400,8.178528564453124,0.590103268623352,0.3858434855937958,0.13926850259304047
1782836833589457400,8.18845751953125,0.5679818391799927,0.274821400642395,0.11000191420316696
1782836833599386400,8.198386474609375,0.548753023147583,0.15130560100078583,0.09752021729946136
1782836833609316600,8.208316650390625,0.5447879433631897,0.07249385863542557,0.11223289370536804
1782836833619245600,8.21824560546875,0.5167728066444397,0.07667183130979538,0.12964516878128052
1782836833629174500,8.228174560546876,0.45490261912345886,0.1894291788339615,0.149387925863266
1782836833639103500,8.238103515625,0.3759273886680603,0.4656658172607422,0.13926444947719574
1782836833649033500,8.248033447265625,0.2859329581260681,0.7455391883850098,0.09536979347467422
1782836833658962400,8.25796240234375,0.21922315657138824,0.9239792227745056,0.01697751320898533
1782836833668891400,8.267891357421876,0.17885786294937134,1.0027215480804443,-0.05894559249281883
1782836833678820600,8.277820556640625,0.162407785654068,0.9835893511772156,-0.1259896159172058
1782836833688746000,8.28774609375,0.1506846696138382,0.8221331834793091,-0.1847316324710846
1782836833698675000,8.297675048828125,0.13336212933063507,0.5874634385108948,-0.22280818223953247
1782836833708604000,8.30760400390625,0.1168714389204979,0.3020830452442169,-0.2587698698043823
1782836833718532900,8.317532958984375,0.11520349979400635,-0.011820564046502113,-0.2922130525112152
1782836833728462800,8.327462890625,0.14847180247306824,-0.2860300838947296,-0.33105552196502686
1782836833738391800,8.337391845703126,0.21390752494335175,-0.4615486264228821,-0.3705909550189972
1782836833748320800,8.34732080078125,0.270260751247406,-0.4990750849246979,-0.3949858248233795
1782836833758250000,8.35725,0.30697402358055115,-0.4367006719112396,-0.3915942907333374
1782836833768180000,8.367179931640624,0.32268834114074707,-0.33160093426704407,-0.39007312059402466
1782836833778109000,8.37710888671875,0.32714036107063293,-0.22338683903217316,-0.37402889132499695
1782836833788038000,8.387037841796875,0.31674209237098694,-0.11992542445659637,-0.337801069021225
1782836833797966800,8.396966796875,0.28440624475479126,-0.04721340164542198,-0.2866300344467163
1782836833807896800,8.406896728515624,0.2355673611164093,-0.020039763301610947,-0.2281596064567566
1782836833817825800,8.41682568359375,0.1923927217721939,0.029978662729263306,-0.17028938233852386
1782836833827755000,8.426755126953125,0.1814936250448227,0.11256138235330582,-0.1209222823381424
1782836833837684000,8.43668408203125,0.17890770733356476,0.15615145862102509,-0.09909581393003464
1782836833847613700,8.44661376953125,0.18210390210151672,0.1541144996881485,-0.09365171194076538
1782836833857543000,8.45654296875,0.17642231285572052,0.11614209413528442,-0.10772252827882767
1782836833867472000,8.466471923828125,0.17009614408016205,0.023958275094628334,-0.1557670384645462
1782836833877400800,8.47640087890625,0.16434425115585327,-0.05427554249763489,-0.21090830862522125
1782836833887331000,8.4863310546875,0.16665118932724,-0.10374089330434799,-0.2560500502586365
1782836833897260000,8.496260009765624,0.17291894555091858,-0.13950155675411224,-0.273953914642334
1782836833907189000,8.50618896484375,0.17684388160705566,-0.15066944062709808,-0.26583459973335266
1782836833917118000,8.516117919921875,0.18365518748760223,-0.144377201795578,-0.22817404568195343
1782836833927048000,8.5260478515625,0.1743530035018921,-0.10697918385267258,-0.16536785662174225
1782836833936977000,8.535976806640624,0.14268934726715088,-0.050534024834632874,-0.10706034302711487
1782836833946905900,8.54590576171875,0.10522838681936264,-0.015816183760762215,-0.07320309430360794
1782836833956834800,8.555834716796875,0.07664387673139572,-0.009750301949679852,-0.06015360355377197
1782836833966764800,8.565764892578125,0.06300294399261475,-0.053518615663051605,-0.05390693619847298
1782836833976693800,8.57569384765625,0.0394267775118351,-0.13464675843715668,-0.05417538434267044
1782836833986622700,8.585622802734376,0.006695899646729231,-0.20920757949352264,-0.04697198420763016
1782836833996552000,8.595552001953125,-0.03319745510816574,-0.2314191460609436,-0.038477033376693726
1782836834006482000,8.60548193359375,-0.06804513931274414,-0.21789182722568512,-0.02587934210896492
1782836834016411000,8.615410888671875,-0.09116668999195099,-0.20424845814704895,-0.0158834345638752
1782836834026340000,8.625340087890624,-0.10182484239339828,-0.17940166592597961,0.004727487452328205
1782836834036269000,8.63526904296875,-0.10914560407400131,-0.1512022614479065,0.03278495371341705
1782836834046198000,8.645197998046875,-0.14738696813583374,-0.13602140545845032,0.06837581098079681
1782836834056127700,8.655127685546875,-0.19318482279777527,-0.15517885982990265,0.10382461547851562
1782836834066057000,8.665056884765624,-0.22165144979953766,-0.1772463321685791,0.14082595705986023
1782836834075986000,8.67498583984375,-0.24098385870456696,-0.20513442158699036,0.16273178160190582
1782836834085916000,8.684916015625,-0.2367277294397354,-0.23895221948623657,0.16746242344379425
1782836834095844900,8.694844970703125,-0.20465527474880219,-0.2225910872220993,0.1774311661720276
1782836834105773800,8.70477392578125,-0.16450653970241547,-0.16140927374362946,0.20005115866661072
1782836834115702800,8.714702880859376,-0.1452806442975998,-0.07127991318702698,0.23847737908363342
1782836834125631700,8.7246318359375,-0.16015782952308655,0.022145289927721024,0.2593393623828888
1782836834135562000,8.73456201171875,-0.20875200629234314,0.006091753952205181,0.2539624273777008
1782836834145491000,8.744490966796874,-0.2622826099395752,-0.1450841873884201,0.2059384435415268
1782836834155420000,8.754419921875,-0.2937428057193756,-0.3541282117366791,0.1371958702802658
1782836834165349000,8.76434912109375,-0.300812691450119,-0.5364386439323425,0.049885738641023636
1782836834175278800,8.77427880859375,-0.30418503284454346,-0.6146013140678406,-0.046520691365003586
1782836834185207800,8.784207763671875,-0.3240258991718292,-0.6508792042732239,-0.1329999715089798
1782836834195136800,8.79413671875,-0.35677504539489746,-0.6269360780715942,-0.18088147044181824
1782836834205066000,8.80406591796875,-0.42239606380462646,-0.4941153824329376,-0.17124305665493011
1782836834214996000,8.813995849609375,-0.5140380859375,-0.31138870120048523,-0.10397931933403015
1782836834224925000,8.823925048828125,-0.5999699234962463,-0.08490511775016785,0.021846793591976166
1782836834234854000,8.83385400390625,-0.6485918164253235,0.1431237906217575,0.17241020500659943
1782836834244782800,8.843782958984375,-0.6501477956771851,0.2979113459587097,0.320107102394104
1782836834254712800,8.853712890625,-0.6478052735328674,0.31287726759910583,0.43188875913619995
1782836834264642000,8.86364208984375,-0.6058796048164368,0.2400754690170288,0.496748149394989
1782836834274571000,8.873571044921874,-0.5550563931465149,0.18731904029846191,0.5041698217391968
1782836834284500000,8.8835,-0.5256319642066956,0.14465031027793884,0.459398090839386
1782836834294430000,8.893429931640625,-0.501765251159668,0.10791546106338501,0.37529146671295166
1782836834304359000,8.90335888671875,-0.47444045543670654,0.12175796180963516,0.2835525870323181
1782836834314287900,8.913287841796874,-0.46289482712745667,0.1958761215209961,0.2141527533531189
1782836834324216800,8.923216796875,-0.47250908613204956,0.2625299394130707,0.17441222071647644
1782836834334147000,8.93314697265625,-0.5008701682090759,0.2821531593799591,0.16475851833820343
1782836834344076000,8.943075927734375,-0.5425732135772705,0.24343809485435486,0.15589375793933868
1782836834354004700,8.953004638671874,-0.5824719071388245,0.16991566121578217,0.11275908350944519
1782836834363933700,8.96293359375,-0.6071102619171143,0.06421361863613129,0.026733219623565674
1782836834373864000,8.972864013671876,-0.5924509167671204,-0.06377176940441132,-0.07557158172130585
1782836834383793000,8.98279296875,-0.5238643288612366,-0.202527716755867,-0.17697258293628693
1782836834393721900,8.992721923828125,-0.42735591530799866,-0.34983035922050476,-0.25595712661743164
1782836834403651000,9.002651123046874,-0.319662868976593,-0.46090245246887207,-0.30297037959098816
1782836834413580800,9.012580810546876,-0.24031370878219604,-0.48823902010917664,-0.3063259720802307
1782836834423509800,9.022509765625,-0.15335042774677277,-0.4903557598590851,-0.28894728422164917
1782836834433439000,9.03243896484375,-0.12481757998466492,-0.3978748321533203,-0.22192241251468658
1782836834443368000,9.042367919921874,-0.2050260603427887,-0.22338995337486267,-0.10044802725315094
1782836834453298000,9.0522978515625,-0.3067047595977783,0.02609417960047722,0.040101900696754456
1782836834463227000,9.062226806640625,-0.3898402750492096,0.25279754400253296,0.17527617514133453
1782836834473156000,9.072156005859375,-0.41916805505752563,0.4112151563167572,0.2635232210159302
1782836834483084800,9.082084716796874,-0.4179685115814209,0.43177586793899536,0.2854915261268616
1782836834493014800,9.092014892578124,-0.3823727071285248,0.36613425612449646,0.25350242853164673
1782836834502944000,9.101944091796875,-0.3129001557826996,0.2814977169036865,0.18300463259220123
1782836834512873000,9.111873046875,-0.2219015508890152,0.14190176129341125,0.09466464817523956
1782836834522802000,9.121802001953125,-0.12258032709360123,-0.021982572972774506,0.0269714817404747
1782836834532732000,9.13173193359375,-0.03453169763088226,-0.10767271369695663,0.003590526059269905
1782836834542660900,9.141660888671876,0.01838361844420433,-0.13280846178531647,0.011322295293211937
1782836834552589800,9.15158984375,0.040189847350120544,-0.14568696916103363,0.018708573654294014
1782836834562518800,9.161518798828125,0.029840946197509766,-0.11978184431791306,0.015270133502781391
1782836834572449000,9.171448974609374,-0.005487482994794846,-0.10376106202602386,-0.018725117668509483
1782836834582378000,9.1813779296875,-0.04261550307273865,-0.11242005228996277,-0.07988018542528152
1782836834592307000,9.191306884765625,-0.04984678328037262,-0.11323684453964233,-0.14947204291820526
1782836834602236000,9.20123583984375,-0.05679383873939514,-0.07096675783395767,-0.18848222494125366
1782836834612166000,9.211165771484374,-0.06210365146398544,0.0024238312616944313,-0.2084798961877823
1782836834622094800,9.2210947265625,-0.06390208005905151,0.09707310795783997,-0.2092367708683014
1782836834632023800,9.23102392578125,-0.05177271366119385,0.1712876856327057,-0.20218658447265625
1782836834641953000,9.240953125,-0.017681390047073364,0.17863121628761292,-0.1881999969482422
1782836834651883000,9.250883056640625,0.04023197665810585,0.130952388048172,-0.15685006976127625
1782836834661811700,9.260811767578126,0.0950787290930748,0.0668177381157875,-0.10325392335653305
1782836834671741000,9.270740966796875,0.12686783075332642,0.025956595316529274,-0.018556345254182816
1782836834681670000,9.280669921875,0.12348318099975586,0.01829710602760315,0.06596632301807404
1782836834691601000,9.290600830078125,0.11724846065044403,0.04075101390480995,0.12431912124156952
1782836834701529900,9.30052978515625,0.11436084657907486,0.051698897033929825,0.1365651786327362
1782836834711458600,9.31045849609375,0.1291555017232895,0.05002136901021004,0.09891953319311142
1782836834721387800,9.3203876953125,0.15741220116615295,0.04262318089604378,0.05558477342128754
1782836834731316700,9.330316650390625,0.17999747395515442,0.019837679341435432,0.020207863301038742
1782836834741246700,9.340246826171875,0.18849961459636688,0.004906665533781052,-0.000626846682280302
1782836834751176000,9.350176025390626,0.18351277709007263,0.025707315653562546,0.0029830830171704292
1782836834761105000,9.36010498046875,0.1766601949930191,0.05731983855366707,0.01417954545468092
1782836834771034600,9.37003466796875,0.1876177042722702,0.10439001768827438,0.04226064309477806
1782836834780963600,9.379963623046875,0.2147286832332611,0.13872560858726501,0.07583644241094589
1782836834790892800,9.389892822265624,0.25109368562698364,0.16799227893352509,0.10915521532297134
1782836834800821800,9.39982177734375,0.2911129891872406,0.20186208188533783,0.13444086909294128
1782836834810750700,9.409750732421875,0.31403934955596924,0.19177116453647614,0.15347068011760712
1782836834820681000,9.419680908203125,0.3214879333972931,0.15120643377304077,0.17514188587665558
1782836834830610000,9.42960986328125,0.33476340770721436,0.13526666164398193,0.2036413997411728
1782836834840538600,9.43953857421875,0.3374191224575043,0.07609708607196808,0.20307841897010803
1782836834850467600,9.449467529296875,0.3306402564048767,0.0034368671476840973,0.15632708370685577
1782836834860397800,9.459397705078125,0.3190557658672333,-0.05800492316484451,0.07163030654191971
1782836834870326800,9.469326904296874,0.3095827102661133,-0.122867152094841,-0.022211162373423576
1782836834880255700,9.479255859375,0.30525586009025574,-0.14919781684875488,-0.08205319195985794
1782836834890185000,9.48918505859375,0.29349973797798157,-0.1483646184206009,-0.11011843383312225
1782836834900114700,9.49911474609375,0.27919429540634155,-0.1140226200222969,-0.10198567807674408
1782836834910043600,9.509043701171874,0.2649715840816498,-0.04745876044034958,-0.06447860598564148
1782836834919972600,9.51897265625,0.2586534917354584,0.041201867163181305,-0.0010730060748755932
1782836834929901800,9.52890185546875,0.2638360559940338,0.13038919866085052,0.09198339283466339
1782836834939831800,9.538831787109375,0.2778882086277008,0.22016462683677673,0.1797073781490326
1782836834949760800,9.5487607421875,0.29675406217575073,0.2787392735481262,0.24609678983688354
1782836834959689700,9.558689697265624,0.30573928356170654,0.29803919792175293,0.28040868043899536
1782836834969618700,9.56861865234375,0.3138105571269989,0.27665138244628906,0.2925245761871338
1782836834979548700,9.578548583984375,0.32707682251930237,0.24561385810375214,0.2953917384147644
1782836834989478000,9.588477783203125,0.340986967086792,0.22524046897888184,0.3049546480178833
1782836834999406800,9.59840673828125,0.35918331146240234,0.2431853860616684,0.3112602233886719
1782836835009335800,9.608335693359376,0.38727623224258423,0.27779722213745117,0.30350130796432495
1782836835019265800,9.618265869140625,0.41399624943733215,0.3109266757965088,0.2797453701496124
1782836835029194800,9.62819482421875,0.4349220395088196,0.3116195797920227,0.23961438238620758
1782836835039123700,9.638123779296874,0.44839149713516235,0.2772107422351837,0.18013374507427216
1782836835049052700,9.648052734375,0.43748679757118225,0.19916509091854095,0.10440076887607574
1782836835058983000,9.65798291015625,0.39890480041503906,0.09609809517860413,0.03209728002548218
1782836835068911900,9.667911865234375,0.36411580443382263,-0.02116364985704422,-0.033232469111680984
1782836835078840800,9.6778408203125,0.3327363133430481,-0.13724790513515472,-0.09366226196289062
1782836835088769800,9.687769775390626,0.3264525234699249,-0.22493426501750946,-0.14888545870780945
1782836835098699800,9.69769970703125,0.33792275190353394,-0.2705132067203522,-0.20787687599658966
1782836835108628700,9.707628662109375,0.35646238923072815,-0.29041609168052673,-0.2573085427284241
1782836835118557700,9.7175576171875,0.36807671189308167,-0.26249709725379944,-0.27185288071632385
1782836835128487000,9.72748681640625,0.37395599484443665,-0.1859893500804901,-0.2508592903614044
1782836835138416600,9.737416748046876,0.3587575852870941,-0.12104125320911407,-0.1964636892080307
1782836835148345600,9.747345703125,0.3203628659248352,-0.059290170669555664,-0.1269996464252472
1782836835158274800,9.75727490234375,0.28156036138534546,-0.002004244364798069,-0.05068890005350113
1782836835168203800,9.767203857421874,0.24644023180007935,0.05654473975300789,0.0062884800136089325
1782836835178133800,9.7771337890625,0.21949303150177002,0.12307582795619965,0.04244621470570564
1782836835188062700,9.787062744140625,0.20009037852287292,0.1898619532585144,0.04611355438828468
1782836835197992000,9.796991943359375,0.19729192554950714,0.24447114765644073,0.029464803636074066
1782836835207921000,9.8069208984375,0.2014903724193573,0.28859201073646545,0.018177054822444916
1782836835217850600,9.8168505859375,0.19049310684204102,0.3665611147880554,0.01299507450312376
1782836835227779800,9.82677978515625,0.17194879055023193,0.43197599053382874,0.01697612926363945
1782836835237708800,9.836708740234375,0.16546346247196198,0.42646777629852295,0.009290247224271297
1782836835247637800,9.8466376953125,0.11338145285844803,0.29435425996780396,-0.005181185435503721
1782836835257568000,9.856568115234374,0.05431040748953819,0.14242145419120789,-0.03381149843335152
1782836835267496700,9.86649658203125,0.01485655177384615,0.02020172029733658,-0.03365447744727135
1782836835277425700,9.87642578125,-0.0012233490124344826,-0.16260723769664764,-0.08952199667692184
1782836835287354600,9.886354736328125,0.07382482290267944,-0.2930199205875397,-0.17556223273277283
1782836835297284900,9.896284912109374,0.15555857121944427,-0.2564515173435211,-0.21323318779468536
1782836835307213800,9.9062138671875,0.14780469238758087,-0.1496674120426178,-0.15512333810329437
1782836835317142800,9.916142822265625,0.07086890935897827,0.028827231377363205,0.003414904698729515
1782836835327071700,9.92607177734375,-0.03859659656882286,0.0958842933177948,0.19878067076206207
1782836835337001700,9.936001708984374,-0.1534518152475357,-0.12307069450616837,0.3359971344470978
1782836835346931700,9.945931640625,-0.1790514588356018,-0.2839309573173523,0.2693147659301758
1782836835356861000,9.95586083984375,-0.1518087387084961,-0.2166507989168167,0.055191006511449814
1782836835366790000,9.965789794921875,-0.14780308306217194,-0.03445303812623024,-0.2375101000070572
1782836835376719600,9.9757197265625,-0.21743185818195343,0.2953736484050751,-0.5130903720855713
1782836835386648800,9.98564892578125,-0.283263623714447,0.5942455530166626,-0.7198009490966797
1782836835396577800,9.995577880859376,-0.33480340242385864,0.7451896071434021,-0.738471508026123
1782836835406506800,10.0055068359375,-0.38728684186935425,0.6298009753227234,-0.6191573739051819
1782836835416436700,10.015436767578125,-0.36647123098373413,0.3011922836303711,-0.42830222845077515
1782836835426366000,10.025365966796874,-0.26576194167137146,-0.047085799276828766,-0.20283609628677368
