time,seconds_elapsed,z,y,x
1782829349191911200,0.0869111328125,-0.11959259410798549,-0.07488616802766919,-0.12013923167269676
1782829349201840400,0.09684033203125,-0.1353606566041708,-0.016679332122206687,-0.07014386887140572
1782829349211769300,0.106769287109375,-0.08244564349651336,0.046493894018977876,-0.10836275956332683
1782829349221697300,0.116697265625,-0.04281973555088043,0.08712737157195806,-0.16029614122249186
1782829349231626200,0.126626220703125,-0.019997662889957427,0.07184139350429176,-0.12355265684537589
1782829349241555200,0.13655517578125,-0.010704349365830422,0.03014364772066474,-0.09897844328749925
1782829349251484400,0.146484375,0.009425999993085861,0.022232582335174084,-0.14783954136185348
1782829349261413400,0.156413330078125,0.034442367827892305,0.008376929331570863,-0.16643139257449655
1782829349271341300,0.16634130859375,0.051178398573398586,-0.011476502782106398,-0.14626626416314392
1782829349281270300,0.176270263671875,0.000571077886223793,0.004783873275667429,-0.1690671844381839
1782829349291199200,0.18619921875,0.007585340562462807,0.02326236377432942,-0.12555424245875327
1782829349301128400,0.19612841796875,-0.007898059773445128,0.046846068457514045,-0.10599332701824604
1782829349311056400,0.206056396484375,-0.09686462947130203,0.05369169656857848,-0.09372107074856757
1782829349320985300,0.2159853515625,-0.2272550964474678,0.04023322618901729,-0.04188245470076799
1782829349330914300,0.225914306640625,-0.2601210087388754,0.05101356340050697,-0.09753730456847697
1782829349340843500,0.235843505859375,-0.24832652604877947,0.08467208737432956,-0.19655111143030224
1782829349350771500,0.245771484375,-0.22877777597010135,0.11164426545202731,-0.2243253266058862
1782829349360700400,0.255700439453125,-0.16820844871699808,0.0910579890191555,-0.1882478318568319
1782829349370629400,0.26562939453125,-0.14262977082431316,0.06329816769510507,-0.1354721906872466
1782829349380558300,0.275558349609375,-0.1289899525284767,0.029806816981732844,-0.08793002972435206
1782829349390486300,0.285486328125,-0.034141923576593396,0.020777707351744175,-0.14964797902330756
1782829349400415500,0.29541552734375,0.01903729342520237,0.0545053510390222,-0.20565474760122596
1782829349410344400,0.305344482421875,-0.009911737683415413,0.04340703391954302,-0.1664512297861278
1782829349420273400,0.3152734375,-0.22516016999483107,-0.00955021089464426,-0.03916271088067442
1782829349430201300,0.325201416015625,-0.2350356673210859,-0.09406184701025486,-0.03180811033416539
1782829349440130300,0.33513037109375,-0.15925532693266867,-0.04629793305546045,-0.13852386987544596
1782829349450059500,0.3450595703125,-0.22255144880115985,0.02243818790987134,-0.23986685033719984
1782829349459988500,0.354988525390625,-0.2946095537960529,-0.010505319662392138,-0.22746563392560928
1782829349469916400,0.36491650390625,-0.30438217526972294,-0.0663031947299838,-0.1438635869355872
1782829349479845400,0.374845458984375,-0.23745617246627806,-0.08498729080334305,-0.10159589577689766
1782829349489774300,0.3847744140625,-0.10321721336841583,-0.0641010085105896,-0.15726305713690816
1782829349499703300,0.394703369140625,-0.07769757218658924,-0.04763210426867008,-0.2693782645689323
1782829349509632300,0.40463232421875,-0.14771978743970393,-0.09154095023050904,-0.34323220347203315
1782829349519560400,0.414560546875,-0.18636077600121498,-0.18500249326005577,-0.366358885102719
1782829349529489200,0.4244892578125,-0.09731938750147819,-0.1299459380790591,-0.27372480587325987
1782829349539418000,0.434418212890625,-0.07358078451752663,-0.07444967630654573,-0.23665187034606933
1782829349549347300,0.444347412109375,-0.05230652582049369,-0.1097539216607809,-0.20656309461779893
1782829349559275300,0.454275146484375,-0.010125088173151015,-0.11435001727938651,-0.20973956922944634
1782829349569204200,0.464204345703125,0.04070435083210468,-0.07257102295309305,-0.17853998271506277
1782829349579133200,0.47413330078125,0.038139468780159946,-0.1037003207102418,-0.17158574313037098
1782829349589062100,0.484062255859375,-0.013262217155098914,-0.16626315986812112,-0.15808025527130812
1782829349598990300,0.493990234375,-0.04739420385956764,-0.1676521300084889,-0.1801591083494946
1782829349608919300,0.503919189453125,-0.022225275811553,-0.10741378827542065,-0.21075901193767785
1782829349618848300,0.51384814453125,0.03990355584323406,-0.06901303821057081,-0.23338662147242575
1782829349628777200,0.523777099609375,0.05569675278067589,-0.04287409608662128,-0.2024653404427692
1782829349638705200,0.533705078125,0.06985679555833339,-0.01873991791382432,-0.13991707779951393
1782829349648634400,0.54363427734375,0.09915244814753532,0.004805062194168567,-0.1280697689436376
1782829349658563300,0.553563232421875,0.09969546898305416,0.03113090519234538,-0.10913005414139479
1782829349668492300,0.5634921875,0.12395897262394427,0.035953356912732125,-0.08283873446732759
1782829349678420200,0.573420166015625,0.06572247223258018,-0.004647387414425611,-0.010969503108039498
1782829349688349200,0.58334912109375,0.028937340670824048,-0.04971475576162338,0.03518102083336562
1782829349698278400,0.5932783203125,0.018229484173655507,-0.007699468461424112,0.02433094285391271
1782829349708207400,0.603207275390625,-0.06451017383337021,0.03683335461765527,-0.009780585584416985
1782829349718135300,0.61313525390625,-0.052145782300829883,0.09803615746870636,-0.057410936287418
1782829349728064300,0.623064208984375,-0.03961304846405983,0.1341306764177978,-0.09187533328402787
1782829349737993200,0.6329931640625,-0.026376550272107124,0.11513751439526676,-0.09311992651764303
1782829349747922400,0.64292236328125,0.039430093112587924,0.07787935849428176,-0.035709209425933655
1782829349757850400,0.652850341796875,0.11087971082031726,0.025147008477151393,0.03940199952926487
1782829349767779300,0.662779296875,0.13672609973847866,0.012009440615028143,0.13365757901333272
1782829349777708300,0.672708251953125,0.1281283672630787,-0.0036839492097496982,0.14067333952691405
1782829349787637200,0.68263720703125,0.1269037939041853,-0.016495207726955414,0.05745842869095504
1782829349797565200,0.692565185546875,0.07582593309581279,0.029954116497933864,-0.0005111643925309181
1782829349807494400,0.702494384765625,0.07493921338915824,0.09292772841379046,-0.02694908946305513
1782829349817423400,0.71242333984375,-0.03870879310071468,0.04513736484348774,-0.0439226552914828
1782829349827352300,0.722352294921875,-0.08945347643196583,-0.046032706248015164,-0.09863401376400142
1782829349837281300,0.73228125,-0.03501812188923359,-0.07290741530060768,-0.09433244411256164
1782829349847209200,0.742209228515625,0.0034749826341867445,-0.07424392460137605,-0.018957908046059308
1782829349857138400,0.752138427734375,-0.015140870508551597,-0.04738397472649812,0.04475358969029039
1782829349867067400,0.7620673828125,0.028330606949329373,-0.08267141507640481,0.1288203681152314
1782829349876996400,0.771996337890625,0.03415829018950462,-0.12470350738093257,0.1529116204617545
1782829349886924300,0.78192431640625,0.046515667459368706,-0.09552402851730585,0.13300591017156838
1782829349896853200,0.791853271484375,0.04573416169285774,-0.054623132199794054,0.10225191200021654
1782829349906782500,0.801782470703125,0.019438275441527365,-0.0645418841458857,0.10779109715521334
1782829349916711400,0.81171142578125,0.09279284998774529,-0.1318766138806939,0.1578891166133806
1782829349926639400,0.821639404296875,0.06890870105326176,-0.16920388949513435,0.1894433617843315
1782829349936568300,0.831568359375,0.03967208517491817,-0.19159940730705857,0.20422204791698603
1782829349946497500,0.84149755859375,0.053846740999817844,-0.21060177554935217,0.20026070653796194
1782829349956426500,0.851426513671875,0.01717851381599903,-0.20767448992580173,0.23017737710233777
1782829349966355000,0.86135498046875,-0.0859603736191988,-0.20934446896463632,0.30738237999901175
1782829349976284000,0.871283935546875,-0.10869885964989662,-0.2468281041845679,0.3445250562941655
1782829349986212900,0.881212890625,-0.08258943588137627,-0.23157062155902383,0.35205994531102475
1782829349996141800,0.891141845703125,-0.1307762514233589,-0.21826631882786748,0.3685744057277217
1782829350006070000,0.901070068359375,-0.17969255028367043,-0.2521832014769316,0.4060546799467876
1782829350015998700,0.910998779296875,-0.2013122614175081,-0.2636575123019516,0.3930678091343492
1782829350025928000,0.920927978515625,-0.15017770198583602,-0.28679084286913276,0.34231830349750814
1782829350035857000,0.93085693359375,-0.11002689338326453,-0.3446032726295292,0.3342239174343645
1782829350045784800,0.940784912109375,-0.08549100254178046,-0.45316506189629435,0.39872247389517723
1782829350055713800,0.9507138671875,-0.06424596993923187,-0.5402881956845521,0.47029750808086246
1782829350065642800,0.960642822265625,-0.05810849009752273,-0.5600567259937524,0.4847244946990162
1782829350075572000,0.970572021484375,-0.1400701494693756,-0.5640998639047146,0.4877436963897198
1782829350085500000,0.9805,-0.2447182724237442,-0.5966540798984468,0.4690838579747826
1782829350095428900,0.990428955078125,-0.2569762809723615,-0.5808054995119571,0.3181511729031801
1782829350105357800,1.00035791015625,-0.1531809754550457,-0.5215552920334041,0.24638974929992108
1782829350115287000,1.010287109375,-0.11192132882773875,-0.49941214154735203,0.2838674297031015
1782829350125215000,1.020215087890625,0.003159340813755989,-0.5650578952819109,0.346574499637261
1782829350135144000,1.03014404296875,0.1841466070830822,-0.6130147014603018,0.31711328122280535
1782829350145073000,1.040072998046875,0.31170038932859895,-0.6074607205949724,0.2736407077863812
1782829350155001900,1.050001953125,0.3805699274152517,-0.6363267495952546,0.354605245879665
1782829350164931000,1.05993115234375,0.4722732286006212,-0.700213823094219,0.45685248170476406
1782829350174859000,1.06985888671875,0.4992249484121799,-0.7044136128716171,0.48578006816655395
1782829350184788000,1.0797880859375,0.535920648124814,-0.633223669013381,0.4095812466377392
1782829350194717000,1.089717041015625,0.542785857719183,-0.5930266831815243,0.3799002845253795
1782829350204646000,1.09964599609375,0.5117097514539957,-0.6264134044766426,0.4033804923014715
1782829350214573800,1.10957373046875,0.480983189278841,-0.6659425740495324,0.4094143656382337
1782829350224503000,1.1195029296875,0.39260581764578817,-0.6946266706116497,0.40763460608199237
1782829350234432000,1.129431884765625,0.2829378207027912,-0.7543173153340816,0.3790053084470331
1782829350244361000,1.13936083984375,0.2965115880250931,-0.7399598502881825,0.34850696553718297
1782829350254289000,1.149288818359375,0.27545944764614105,-0.6883021437652409,0.35724786934293806
1782829350264217900,1.1592177734375,0.23729133729338645,-0.709368166539073,0.37205516051556914
1782829350274147000,1.16914697265625,0.1318956108421087,-0.7507866569899022,0.4052165851548314
1782829350284076000,1.179075927734375,0.06921732861101627,-0.8485743926554917,0.39685207691341634
1782829350294004000,1.18900390625,-0.042760698840022086,-0.890111394919455,0.3940872883751988
1782829350303933000,1.198932861328125,-0.13242284958660602,-0.8404616672180593,0.40209399615488944
1782829350313862000,1.20886181640625,-0.177654906976223,-0.8098860578209162,0.3925893049024045
1782829350323791000,1.218791015625,-0.23315058422684667,-0.7762887625150382,0.33739801742583514
1782829350333719000,1.228718994140625,-0.34281390499472614,-0.7835418023832141,0.2586511371157132
1782829350343648000,1.23864794921875,-0.3936275619089603,-0.8300088083952665,0.21220334726078435
1782829350353577000,1.248576904296875,-0.3753998313009739,-0.8207498355321585,0.26616898366622627
1782829350363506000,1.258505859375,-0.34518063412606714,-0.7913220809958875,0.3447800174359232
1782829350373435100,1.26843505859375,-0.312464943960309,-0.8183034652933477,0.34729985476974395
1782829350383363000,1.278363037109375,-0.323175723066926,-0.8582005913957953,0.2845381137725897
1782829350393292000,1.2882919921875,-0.2876724480092525,-0.8534269472531973,0.22907652145465834
1782829350403221000,1.298220947265625,-0.24476854130625722,-0.814343621751666,0.25227802188722415
1782829350413150000,1.30814990234375,-0.2353583234041929,-0.7657135924868286,0.3515369443502277
1782829350423078100,1.318078125,-0.33246319137215613,-0.7562382003940642,0.3745291128810495
1782829350433007000,1.328007080078125,-0.38042555050849913,-0.7499955066122114,0.3587137041117996
1782829350442936000,1.33793603515625,-0.3685632632791996,-0.687706077568233,0.3343249666560441
1782829350452864800,1.34786474609375,-0.4693722464621067,-0.6423083082228899,0.34449221347048875
1782829350462793000,1.35779296875,-0.5896703584909438,-0.6964863270036876,0.38394119394663717
1782829350472722200,1.36772216796875,-0.6089753629416227,-0.6557157790675759,0.42197066301368175
1782829350482651000,1.37765087890625,-0.7204448563486338,-0.5400492723621427,0.4221601211711764
1782829350492579800,1.387579833984375,-0.843103852289915,-0.5251166377767921,0.35899639351069923
1782829350502508000,1.397508056640625,-0.9929232423573732,-0.49668490854054687,0.32676103420779107
1782829350512437000,1.40743701171875,-1.1616986773073672,-0.46242608058601614,0.29594085719874125
1782829350522366000,1.417365966796875,-1.1821423303991556,-0.39392610646411774,0.2887786556854844
1782829350532295000,1.427294921875,-1.2446779892891644,-0.2832626687429845,0.3408815486926585
1782829350542223000,1.43722314453125,-1.303215518453717,-0.2654699685513973,0.41655364293362945
1782829350552151800,1.44715185546875,-1.243056525567174,-0.21819383811354637,0.4324653516842052
1782829350562080800,1.457080810546875,-1.130359536191821,-0.09619695934280753,0.37713341362792996
1782829350572010000,1.467010009765625,-0.9163771782934665,0.014473492641001938,0.2928282233372331
1782829350581938000,1.47693798828125,-0.6636854427725076,0.08817527318969369,0.2655400015803054
1782829350591867000,1.486866943359375,-0.42304596409499645,0.12605974429547787,0.32007399419192223
1782829350601795800,1.4967958984375,-0.20097616133093832,0.12130012867823242,0.3535033490523696
1782829350611724800,1.506724853515625,-0.023888240587711333,0.10818594169169664,0.353305597990565
1782829350621654000,1.516654052734375,0.11082593480646609,0.10593640919923782,0.31487788685355333
1782829350631582000,1.52658203125,0.25895488756895063,0.07968246239349246,0.3850080559931695
1782829350641511000,1.536510986328125,0.31963352041542525,0.04906052963659167,0.40736868515480307
1782829350651439900,1.54643994140625,0.4279524408370256,0.09575506079420447,0.30097726219706233
1782829350661368800,1.556368896484375,0.5620891086041927,0.20752280649542806,0.20549447900559753
1782829350671296800,1.566296875,0.6591308482080698,0.24947379638776182,0.10485221242541447
1782829350681226000,1.57622607421875,0.7068827794641256,0.2507666126772761,0.07211474881926551
1782829350691155000,1.586155029296875,0.6479857693374157,0.24445582209527492,0.1465348519714549
1782829350701084000,1.596083984375,0.6047241352379321,0.14174202820435167,0.16226725863236932
1782829350711011800,1.60601171875,0.6838514479666948,0.08207198787853122,0.07541410089191049
1782829350720941000,1.615941162109375,0.6455570808857679,0.17261267502531408,0.04909853269257582
1782829350730870000,1.6258701171875,0.5538718998789787,0.15715236330404878,0.01637445372438524
1782829350740799000,1.635799072265625,0.5034942962944507,0.11226108217611908,-0.003361484922887757
1782829350750727000,1.645726806640625,0.39512686055600643,0.1705902292869985,0.028407348280237055
1782829350760656000,1.65565576171875,0.3710650169670582,0.24778861977979538,-0.00016620971264783292
1782829350770585000,1.665585205078125,0.2597936764806509,0.3290627352789044,-0.04153785164733417
1782829350780514000,1.67551416015625,0.05284779309034347,0.36961525655016303,-0.04361892767113167
1782829350790442000,1.68544189453125,-0.09543547345101833,0.3615989772245288,-0.1384672260510735
1782829350800371000,1.695370849609375,-0.22475684989094732,0.41153307482525703,-0.19359481890797614
1782829350810300000,1.7052998046875,-0.2817395508289337,0.47518531665503977,-0.23834221631949767
1782829350820229000,1.71522900390625,-0.2726198403060436,0.5118056130439043,-0.3230536675898358
1782829350830158000,1.725157958984375,-0.2860176665395498,0.542207473309338,-0.3715629200192168
1782829350840086000,1.7350859375,-0.3320323987394571,0.49046924889609217,-0.4024367451779544
1782829350850015000,1.745014892578125,-0.3378583284139633,0.41288741204366086,-0.4182033829020336
1782829350859944000,1.75494384765625,-0.2925906151890755,0.3904625220067799,-0.4706583407498896
1782829350869873200,1.764873046875,-0.3200146286875009,0.42122678584381934,-0.508529733178392
1782829350879801000,1.774801025390625,-0.41677462874054905,0.3736582483306527,-0.5279830965911969
1782829350889730000,1.78472998046875,-0.42678690418899057,0.3332577027507126,-0.6240357155598699
1782829350899659000,1.794658935546875,-0.4838531917572021,0.42743499283418057,-0.6566561286576091
1782829350909588000,1.804587890625,-0.4476251095563173,0.4573970003776252,-0.6986481812126935
1782829350919516000,1.814515869140625,-0.388726930385828,0.46533597668334836,-0.7294924514833837
1782829350929445000,1.824445068359375,-0.31732933512628075,0.3883956526048481,-0.7150721503343432
1782829350939374000,1.8343740234375,-0.14101356779932975,0.2931720683388412,-0.6754789025492965
1782829350949302800,1.844302734375,-0.042076223707199094,0.2290732517853379,-0.6482663398444652
1782829350959231000,1.85423095703125,0.08444470835924148,0.17416238868534564,-0.641235345229134
1782829350969159400,1.864159423828125,0.24094752171337602,0.1779972906731069,-0.6010004020070657
1782829350979088400,1.87408837890625,0.36056057408750053,0.17780059905722737,-0.5613409205853939
1782829350989017300,1.884017333984375,0.4761906943053007,0.1455417127482593,-0.5531822736470029
1782829350998945500,1.893945556640625,0.5738181248426437,0.0758509214065969,-0.5750770753951743
1782829351008874500,1.90387451171875,0.551181930142641,0.023333529314398763,-0.568563528782688
1782829351018803500,1.913803466796875,0.5639677619576454,-0.08348170854598283,-0.5611244648231193
1782829351028732400,1.923732421875,0.6362585066646337,-0.17754326329529285,-0.5704990268899127
1782829351038661400,1.933661376953125,0.6616840398222208,-0.18837460004165768,-0.5852726349886507
1782829351048589600,1.943589599609375,0.6909025355219841,-0.18204758897721765,-0.636928880206868
1782829351058518500,1.9535185546875,0.6448141535639762,-0.28200974607244134,-0.7255340692464262
1782829351068447200,1.963447265625,0.6237105752587319,-0.3445323993504047,-0.757340243351832
1782829351078376200,1.973376220703125,0.6019079087734222,-0.35191140368580814,-0.7193050386637448
1782829351088304400,1.983304443359375,0.5873848779022693,-0.3594432604953646,-0.6558660742584616
1782829351098233300,1.9932333984375,0.5624065039902925,-0.40065716828480363,-0.6734053842108696
1782829351108162300,2.003162353515625,0.4538508522033691,-0.4102813211984932,-0.7092147295430302
1782829351118091300,2.01309130859375,0.34090251841545105,-0.45961306899189946,-0.6691561292685568
1782829351128019500,2.02301953125,0.35581074921190736,-0.5179775796771049,-0.6503633851889521
1782829351137948200,2.0329482421875,0.32170389694869517,-0.4903673959568143,-0.6607370412956923
1782829351147877400,2.04287744140625,0.31219431032538414,-0.5141838864825665,-0.6532654633060098
1782829351157806300,2.052806396484375,0.3110164987176657,-0.5887627421267331,-0.6460378501400351
1782829351167734300,2.062734375,0.36017420511841775,-0.6064426295936107,-0.6154663323961198
1782829351177663200,2.072663330078125,0.33684184484779833,-0.6289484759122133,-0.5584230238446966
1782829351187592200,2.08259228515625,0.36680443691313264,-0.672617083377391,-0.5521923858268186
1782829351197521400,2.092521484375,0.38155835393071175,-0.7225288230158389,-0.5736704234676435
1782829351207450400,2.102450439453125,0.3706447457283735,-0.7111028813771904,-0.5843918700987473
1782829351217378300,2.11237841796875,0.36938685462176796,-0.6705600047171115,-0.5184620021931827
1782829351227307300,2.122307373046875,0.3103045510560274,-0.6743989983581006,-0.4822369156669825
1782829351237236200,2.132236328125,0.25675650074183937,-0.7007552364945411,-0.5115427973892539
1782829351247165400,2.14216552734375,0.2016185508877039,-0.71567749581635,-0.5550775493416935
1782829351257093400,2.15209326171875,0.15898527781963348,-0.7362113114096224,-0.5508420671964064
1782829351267022300,2.162022216796875,0.1210299334347248,-0.7570501012988388,-0.5161995736865327
1782829351276951300,2.171951416015625,0.1146995613694191,-0.7455896728686988,-0.4998870655827224
1782829351286880300,2.18188037109375,0.10216156683564186,-0.7154016014844179,-0.5234222914816812
1782829351296808400,2.191808349609375,0.046992637321352955,-0.7093880402833223,-0.5180571111867204
1782829351306737400,2.2017373046875,0.004001636856794357,-0.7113583174429834,-0.47938832130283116
1782829351316666400,2.211666259765625,-0.08952303453683852,-0.723570002631843,-0.46436680285762993
1782829351326595300,2.22159521484375,-0.12158464470803737,-0.8143556044504046,-0.473822686532326
1782829351336523300,2.231523193359375,-0.14957096826434135,-0.7873851799383759,-0.42110600900836287
1782829351346452500,2.241452392578125,-0.23871523261666297,-0.7241749827876687,-0.36097379453089085
1782829351356381400,2.25138134765625,-0.33056349523067474,-0.7387932907268404,-0.37041360385362054
1782829351366310400,2.261310302734375,-0.4987152453243732,-0.7550982365787029,-0.36485487374793735
1782829351376239400,2.2712392578125,-0.6672942809194325,-0.7822766047529875,-0.4029173317691311
1782829351386167300,2.281167236328125,-0.8536345986545085,-0.799568954207003,-0.4736512754881754
1782829351396096500,2.291096435546875,-1.0300064800828694,-0.7340938808642328,-0.5104258491232991
1782829351406025500,2.301025390625,-1.1543559133291244,-0.6461506628647447,-0.435951440234296
1782829351415954400,2.310954345703125,-1.30459031393826,-0.5438968877010047,-0.28741872897651044
1782829351425882400,2.32088232421875,-1.434484521830082,-0.4283689126834273,-0.15099015087988227
1782829351435811300,2.330811279296875,-1.5601736792474985,-0.3016736469633877,-0.07650697416253388
1782829351445740500,2.340740478515625,-1.627424676221609,-0.17096709977537392,-0.036767376709356904
1782829351455669500,2.35066943359375,-1.6335680012822151,-0.017330051115900278,-0.003346460883691907
1782829351465597400,2.360597412109375,-1.620005924397707,0.09428235789313912,0.09068678108658641
1782829351475526400,2.3705263671875,-1.4911574261665343,0.17972089959532023,0.14620576614756137
1782829351485455400,2.380455322265625,-1.3664941046655177,0.2573150114074349,0.13899349668119101
1782829351495384600,2.390384521484375,-1.2920844681084156,0.25814576314315196,0.1036125693615526
1782829351505312500,2.4003125,-1.134555818837881,0.22759704175293444,0.11110690717231482
1782829351515241500,2.410241455078125,-0.9071931703627109,0.260710060673207,0.15905863531678915
1782829351525170400,2.42017041015625,-0.6178197636544704,0.3195512489594519,0.21658103262204675
1782829351535099400,2.430099365234375,-0.42979368478953833,0.39697935655489563,0.27677053024470805
1782829351545028400,2.4400283203125,-0.23460429016649723,0.4106817186929285,0.26687238269522784
1782829351554956500,2.44995654296875,-0.050528994753956794,0.3400865258574486,0.20155140393562615
1782829351564885500,2.459885498046875,0.16519816098511217,0.36719197492599487,0.2115647753626108
1782829351574814200,2.469814208984375,0.39391397763490676,0.3715831956222653,0.22151918314397334
1782829351584743200,2.4797431640625,0.6044143386363983,0.3704655897691846,0.26924006167463954
1782829351594671400,2.48967138671875,0.7338906133770943,0.3922232480689883,0.28064890604801473
1782829351604600300,2.499600341796875,0.9090203857898712,0.42207595001906156,0.14206811835356056
1782829351614529300,2.509529296875,1.0147229862332343,0.5114230434671044,0.06837101397998631
1782829351624458200,2.519458251953125,0.9830629426002502,0.581317686817795,0.07613339160978794
1782829351634386200,2.52938623046875,0.9229501269429922,0.611661387155205,0.10786766952276229
1782829351644315400,2.5393154296875,0.8430401394039392,0.6595921821095049,0.13614406206682322
1782829351654244400,2.549244384765625,0.6918237420201301,0.7175016425035894,0.1939962393157184
1782829351664173300,2.55917333984375,0.5741776058048009,0.7442579858735203,0.1755482170205563
1782829351674101200,2.569101318359375,0.44879649142324923,0.8023087544344365,0.1132522121053189
1782829351684030200,2.5790302734375,0.3896317702710628,0.8497643330924213,0.08040595436245203
1782829351693959400,2.58895947265625,0.29131811103522776,0.8309474044196307,0.1256266135752201
1782829351703888400,2.598888427734375,0.2341127072572708,0.7641314378619194,0.22647651329040527
1782829351713817300,2.6088173828125,0.19727672229111193,0.7167844341449439,0.28978892870657147
1782829351723745300,2.618745361328125,0.1432154617577791,0.6786531486712396,0.3116079618047923
1782829351733674200,2.62867431640625,0.03280103036165237,0.6646611559368669,0.30601072631962595
1782829351743603500,2.638603515625,-0.1544651700466871,0.6509326364442706,0.3565773496702313
1782829351753532400,2.648532470703125,-0.300431976339221,0.6012738486535847,0.37788412239737806
1782829351763460400,2.65846044921875,-0.46580315580368037,0.5746240343980491,0.34392391206324097
1782829351773389300,2.668389404296875,-0.6134931326270103,0.588574526078254,0.3338441974017769
1782829351783318300,2.678318359375,-0.6164116504222155,0.5886074054345488,0.3517809091739356
1782829351793247500,2.68824755859375,-0.5961334170252084,0.6102282856121659,0.3559200182726607
1782829351803175400,2.698175537109375,-0.5817822355896234,0.5975837619639933,0.35580479439515617
1782829351813104400,2.7081044921875,-0.4518652313441038,0.5881918103709817,0.3394759927436709
1782829351823033300,2.718033447265625,-0.39774727218747136,0.6145519940301776,0.36012850281316783
1782829351832962300,2.72796240234375,-0.3309410963714123,0.6215291395664214,0.4115343169342726
1782829351842891500,2.7378916015625,-0.18994272614121435,0.6382045261658728,0.4052628354493528
1782829351852819500,2.7478193359375,-0.0861339766204357,0.6519942743264139,0.3771878106962889
1782829351862748400,2.75774853515625,0.03390986838638782,0.5900580426342785,0.37992278861813245
1782829351872677400,2.767677490234375,0.1643827529489994,0.4990108672700822,0.45969607110023497
1782829351882606300,2.7776064453125,0.35176235060393807,0.45699821031838656,0.44872656799219546
1782829351892534300,2.7875341796875,0.5162497329711914,0.44345673783048983,0.40366899038664994
1782829351902463500,2.79746337890625,0.691878102555871,0.42188773397058243,0.3963249842993915
1782829351912392400,2.807392333984375,0.7210451603293418,0.38324031566828487,0.4200344342540949
1782829351922321400,2.8173212890625,0.7961088768810033,0.3393777930662036,0.38692660296559334
1782829351932249300,2.827249267578125,0.768796507063508,0.3426506772570312,0.3959516940075904
1782829351942178300,2.83717822265625,0.6564098988115787,0.30767946324944495,0.4474808787800371
1782829351952107500,2.847107421875,0.5370271480619907,0.2108255013026297,0.48071617237310854
1782829351962036500,2.857036376953125,0.38909576369822024,0.1473908477462828,0.4826183892652392
1782829351971965400,2.86696533203125,0.26458383336663244,0.1480361599124968,0.4846649099988863
1782829351981893600,2.8768935546875,0.16846446930468081,0.10626929441541433,0.45081469937786456
1782829351991822600,2.886822509765625,0.03809504511654377,0.08811740552261471,0.3745790164373815
1782829352001751600,2.89675146484375,0.0072737903952598566,0.11616481161639093,0.3577050385259092
1782829352011680500,2.906680419921875,-0.04859714990854263,0.10316884418204426,0.3990213107112795
1782829352021608700,2.916608642578125,-0.09930383931696414,0.0520297547057271,0.4271785338550806
1782829352031537400,2.926537353515625,-0.11884615965485572,-0.013172639175504446,0.46150867348015306
1782829352041466600,2.936466552734375,-0.1324234341084957,-0.06232683844491839,0.4951170016366988
1782829352051395600,2.9463955078125,-0.08948387157022952,-0.12804697258993983,0.4844308089820668
1782829352061323500,2.956323486328125,-0.05615560246407986,-0.1491439750239253,0.49952827874030914
1782829352071252500,2.96625244140625,-0.0461105937898159,-0.17147198055759072,0.5272670572763308
1782829352081181400,2.976181396484375,-0.0241729027479887,-0.228589121530205,0.5204797717563807
1782829352091110700,2.986110595703125,-0.02694996624588966,-0.22653803421929478,0.5063028143765405
1782829352101039600,2.99603955078125,-0.061951721522212025,-0.23434753892645238,0.4915165659919381
1782829352110967600,3.005967529296875,-0.06495674855709076,-0.2696405322343111,0.43172574883066117
1782829352120896500,3.015896484375,-0.0633510669261217,-0.22453180896341798,0.36268922014664856
1782829352130825500,3.025825439453125,-0.06702537152469158,-0.2484657883889973,0.3737859298309311
1782829352140754700,3.035754638671875,-0.040157238343358034,-0.2933700751289725,0.3965175477294251
1782829352150682600,3.0456826171875,-0.019890695384144782,-0.3147901720374822,0.3950533203957602
1782829352160611600,3.055611572265625,-0.001315174251794815,-0.3273432180099189,0.37274274092093107
1782829352170540500,3.06554052734375,0.010296353086829186,-0.3774037184692919,0.3628699835410341
1782829352180469500,3.075469482421875,0.022412322816252706,-0.4439795926608145,0.38542945974301546
1782829352190397400,3.0853974609375,0.060091188347339626,-0.4365687318824231,0.4080485206451267
1782829352200326700,3.09532666015625,0.058850832897424696,-0.4725587675437331,0.38196762885134666
1782829352210255600,3.105255615234375,0.062494157835841176,-0.5351465950123966,0.34780020550731566
1782829352220184600,3.1151845703125,0.06541852084994315,-0.5401297902524471,0.3355741264669224
1782829352230113500,3.125113525390625,0.030192309167981147,-0.5609944452352822,0.3335399172255769
1782829352240041700,3.135041748046875,-0.024818214914202687,-0.5914456976003944,0.33501053776741024
1782829352249970700,3.144970703125,-0.08212064932584762,-0.6067112174019217,0.32463512809500095
1782829352259899600,3.154899658203125,-0.16056348692178726,-0.635619185847789,0.31955113936159757
1782829352269828600,3.16482861328125,-0.19885376234948635,-0.6741941234357655,0.2680041997367516
1782829352279756500,3.174756591796875,-0.2948714196026325,-0.6566499911777675,0.2429611996233463
1782829352289685800,3.184685791015625,-0.4379436734974384,-0.6688827191546559,0.20421254943627862
1782829352299614700,3.19461474609375,-0.5046411282420158,-0.7121409922532737,0.16231959160780532
1782829352309543700,3.204543701171875,-0.6010685353398323,-0.7629428125992417,0.2458440433169715
1782829352319472600,3.21447265625,-0.6413625518053769,-0.8223791902996599,0.3087322237053886
1782829352329400600,3.224400634765625,-0.7379366738975047,-0.8902453965626657,0.28752569648232307
1782829352339329800,3.234329833984375,-0.8988912059634924,-0.9451811018429696,0.21679854783024638
1782829352349258800,3.2442587890625,-1.0405120920062065,-0.95177304745391,0.1509242825694382
1782829352359187700,3.254187744140625,-1.2128344057828186,-0.9197109988912939,0.08064174501285888
1782829352369115600,3.26411572265625,-1.2893892376750706,-0.874582255745679,0.10333381635225378
1782829352379044600,3.274044677734375,-1.5024065499335526,-0.8195940896257757,0.032028379188454706
1782829352388973800,3.283973876953125,-1.5717401984006165,-0.8393883388981223,-0.04309534675502218
1782829352398902500,3.293902587890625,-1.62975399595201,-0.8155246482297778,-0.18134535899199544
1782829352408830700,3.303830810546875,-1.5869775150209664,-0.7398625273935496,-0.14350107376612722
1782829352418759700,3.313759765625,-1.5343436569422482,-0.7063720534630119,-0.17702618061862885
1782829352428688600,3.323688720703125,-1.3463017959862946,-0.7160052664659917,-0.12271036080233752
1782829352438617600,3.33361767578125,-0.9996353072166442,-0.6404965826258063,-0.045827402067417276
1782829352448546600,3.343546630859375,-0.6451333025157451,-0.4758988717518747,0.02356087179686874
1782829352458474800,3.353474853515625,-0.30642157214283944,-0.31922888513728975,0.06689826541314832
1782829352468403500,3.363403564453125,0.021878654330968854,-0.1931193103507161,0.10908336545545608
1782829352478332400,3.37333251953125,0.2850070281922817,-0.08743936013057828,0.1014992122030817
1782829352488261600,3.38326171875,0.5906015018612146,0.04263093498051166,0.19511691390872002
1782829352498189600,3.393189453125,0.7522130365312099,0.1424234345972538,0.367833195438981
1782829352508118500,3.403118408203125,1.0086416204929352,0.154554894156754,0.4488113601988181
1782829352518047500,3.413047607421875,1.27213882766664,0.22443536285161972,0.5168281904462725
1782829352527976400,3.4229765625,1.4242664946764707,0.33202932999953627,0.569826790184155
1782829352537904400,3.432904296875,1.5618816522091625,0.4340057495266199,0.529723254789412
1782829352547833600,3.44283349609375,1.5537743335992098,0.4905345692172646,0.533082246361114
1782829352557762600,3.452762451171875,1.4498545249193906,0.4701695343196392,0.5578416802927851
1782829352567691500,3.46269140625,1.3109043193906544,0.4594935342654586,0.5549140293430537
1782829352577620500,3.472620361328125,1.1365467003941536,0.4917455524422228,0.5267440928481519
1782829352587548700,3.482548583984375,0.9865642287194728,0.5254321334667503,0.45208413479179144
1782829352597477600,3.4924775390625,0.7853887454241514,0.5244803856998682,0.34188853377811607
1782829352607406600,3.502406494140625,0.5800871221095323,0.5499184860780835,0.42884190049003806
1782829352617335600,3.51233544921875,0.36034313194453715,0.5284336533702909,0.516355677563697
1782829352627264500,3.522264404296875,0.16525018343329428,0.5570094672523439,0.37528161174878477
1782829352637192700,3.532192626953125,-0.10473872384727001,0.6204641406834125,0.30129929722566157
1782829352647121700,3.54212158203125,-0.3205892137050628,0.6128238550633192,0.16070707837725057
1782829352657050600,3.552050537109375,-0.45690322551131246,0.6907844621002673,0.08616498368005268
1782829352666979600,3.5619794921875,-0.6963344974428415,0.8137209598086774,0.08268482254724949
1782829352676907500,3.571907470703125,-0.8923451453208923,0.8082258695237338,0.06787212911371607
1782829352686836700,3.581836669921875,-1.0222831923544407,0.793228060747683,0.012119253098475747
1782829352696765700,3.591765625,-1.1373322978138922,0.8282596266403793,-0.033372226978885006
1782829352706694700,3.601694580078125,-1.1729366951584814,0.8254638584420084,-0.052570665782550347
1782829352716622600,3.61162255859375,-1.012545057672262,0.7759950402654707,-0.11906544669503345
1782829352726551600,3.621551513671875,-0.8372621405243873,0.7983214383639394,-0.15965455538332463
1782829352736480800,3.631480712890625,-0.5708844094783068,0.7211788697116076,-0.19957471530148757
1782829352746409700,3.64140966796875,-0.21477847671210765,0.5545639737963676,-0.19640750170852989
1782829352756338700,3.651338623046875,0.08928396508395671,0.45525268182531,-0.1790501424605958
1782829352766266600,3.6612666015625,0.36998949669003484,0.3412013552315533,-0.16551533717550337
1782829352776195600,3.671195556640625,0.5686363382905721,0.1671459340520203,-0.16257468061372637
1782829352786124800,3.681124755859375,0.7239274377673864,-0.04422156517282128,-0.2590307658167556
1782829352796053800,3.6910537109375,0.8719061684042215,-0.18088117554634808,-0.33647078304570166
1782829352805981700,3.700981689453125,0.9630810618013143,-0.236260825201869,-0.3630371568014845
1782829352815910700,3.71091064453125,1.0603624553799629,-0.31437823023572564,-0.4169164848966524
1782829352825839600,3.720839599609375,1.0744874268442393,-0.402409564910084,-0.447934138972871
1782829352835768600,3.7307685546875,0.9707289462059736,-0.47332799835056066,-0.4383641273992136
1782829352845697500,3.740697509765625,0.8405717034637927,-0.5202938937954604,-0.44033670611381526
1782829352855625700,3.750625732421875,0.661982145985961,-0.537161003574729,-0.4750694351904094
1782829352865554700,3.7605546875,0.45838908015489577,-0.5468398092851042,-0.49105917761325835
1782829352875483400,3.7704833984375,0.2902174563169479,-0.55911944514364,-0.4960315226657316
1782829352885412600,3.78041259765625,0.11227321100533008,-0.5342562220439314,-0.503428574114479
1782829352895340800,3.7903408203125,-0.08183306455612183,-0.5272124410122633,-0.47799978955388067
1782829352905269500,3.80026953125,-0.19256021516323088,-0.5512964964330196,-0.5145118032626808
1782829352915198500,3.810198486328125,-0.25149463469088074,-0.481631277924031,-0.5466059639966115
1782829352925127400,3.82012744140625,-0.29780045879185196,-0.383354735828191,-0.498703043429926
1782829352935056600,3.830056640625,-0.29699907928109165,-0.4174200870372355,-0.46564182776212687
1782829352944984600,3.839984619140625,-0.2280120522946119,-0.39040830760151146,-0.4409984214255586
1782829352954913500,3.84991357421875,-0.16621347550749777,-0.37272038295865056,-0.3972782664362341
1782829352964846000,3.85984619140625,-0.07925590754449367,-0.41667949780300256,-0.3621931437253952
1782829352974775300,3.869775390625,-0.024441782817244528,-0.42899245140925046,-0.35432339673098173
1782829352984703200,3.879703125,-0.015123919373750686,-0.432174150185287,-0.3495827050099149
1782829352994632200,3.889632080078125,0.10184475597143172,-0.43578897968158126,-0.374996474664472
1782829353004561200,3.89956103515625,0.18570260435342786,-0.39947394984960555,-0.39960985118895764
1782829353014490000,3.909489990234375,0.2546568981140852,-0.42397929942235346,-0.3828732359215617
1782829353024419300,3.91941943359375,0.26429741764068604,-0.45469300211593505,-0.3534001444062218
1782829353034347300,3.92934716796875,0.17914660683870315,-0.5307558127075434,-0.3441394545100629
1782829353044276200,3.939276123046875,0.1809691460907459,-0.6187045836649835,-0.38943398267664014
1782829353054205200,3.949205078125,0.16860767716765404,-0.6004252690002322,-0.4489644684012979
1782829353064134100,3.959134033203125,0.194441791126132,-0.6205279996998607,-0.5068827696889638
1782829353074062300,3.969062255859375,0.22607260866463183,-0.6527123594678939,-0.5383571545567363
1782829353083991300,3.9789912109375,0.16023147848844527,-0.6618303164251148,-0.5127445378618315
1782829353093920300,3.988920166015625,0.1476601662069559,-0.6803824566818774,-0.5213658338759094
1782829353103849200,3.99884912109375,0.047507016584277154,-0.6392739089630544,-0.5507610013168305
1782829353113778400,4.0087783203125,-0.06478431459963321,-0.6073072835989296,-0.5775020740523934
1782829353123706400,4.018706298828125,-0.12397709280252456,-0.5398024579942227,-0.5922037494260818
1782829353133635300,4.02863525390625,-0.18258534911572932,-0.4561779799766838,-0.6100371104216202
1782829353143564300,4.038564208984375,-0.2239344275921583,-0.4345505239278078,-0.6741816292803734
1782829353153493200,4.0484931640625,-0.24276713835597036,-0.43468452557101844,-0.7554598364327102
1782829353163421200,4.058421142578125,-0.2243792487502098,-0.4761084228493273,-0.7902958797533065
1782829353173350400,4.068350341796875,-0.1141150394797325,-0.5833857252635062,-0.8410149171866476
1782829353183279400,4.078279296875,0.08968903875350952,-0.7149167405769229,-0.8813334835715592
1782829353193208300,4.088208251953125,0.08795067065358161,-0.8190038686476647,-0.8794798185288906
1782829353203137300,4.09813720703125,-0.0895242035806179,-0.9008397096827626,-0.9206451379362494
1782829353213065200,4.108065185546875,-0.27066636815071105,-1.0086216006182134,-0.9660689915709197
1782829353222994400,4.117994384765625,-0.6131652158468961,-1.0652594336412846,-0.9281795520290732
1782829353232923400,4.12792333984375,-0.9623469023078679,-1.0264430885128677,-0.7657194377057254
1782829353242852000,4.13785205078125,-1.475385856539011,-0.9355613328434527,-0.6100802554436028
1782829353252780300,4.1477802734375,-1.9925474436581134,-0.9115431822657585,-0.5192429965030402
1782829353262709200,4.157709228515625,-2.465921911498904,-0.7327931735292077,-0.53162108776737
1782829353272638200,4.16763818359375,-2.7261341056525707,-0.4319023475065827,-0.3503071102943271
1782829353282567200,4.177567138671875,-2.895069699600339,-0.16284516811817884,-0.2544569185625762
1782829353292496100,4.18749609375,-2.9500691177666187,0.13281331020891665,-0.08487917252006008
1782829353302424300,4.19742431640625,-2.8348908329695464,0.21326953345388172,-0.005883687743730843
1782829353312353000,4.20735302734375,-2.421230536857247,0.27837738091945646,0.07787097425842657
1782829353322282200,4.2172822265625,-1.8889333399266004,0.4390884596183896,0.12028616586271673
1782829353332211200,4.227211181640625,-1.2588970687776804,0.5118735637135804,0.15144951201993972
1782829353342139100,4.23713916015625,-0.6742617818444967,0.4661540150679648,0.21448022441789508
1782829353352068000,4.247068115234375,-0.19765140082240104,0.35025253056287764,0.3208516640335321
1782829353361997000,4.2569970703125,0.2120698022753,0.23471476480364797,0.393518986967951
1782829353371926300,4.26692626953125,0.6533329755842685,0.23753917457461357,0.3790542986879125
1782829353381855200,4.276855224609375,1.0477671777009963,0.4156535157561302,0.38068186335712667
1782829353391783200,4.286783203125,1.196349134927988,0.618000527048856,0.3819922883685678
1782829353401712000,4.296712158203125,1.2214607798308132,0.7376319918625056,0.3343082347169518
1782829353411641000,4.30664111328125,1.1989204467207193,0.8468611589968204,0.27457046291716397
1782829353421570300,4.3165703125,1.162545649525523,0.8826517265632748,0.16646913076899944
1782829353431499300,4.326499267578125,1.180226267644763,1.0152620615459977,0.15520948560796677
1782829353441427200,4.33642724609375,1.1778379112035036,1.1104909065090118,0.2674606309119612
1782829353451356200,4.346356201171875,1.1488070470303295,1.0783769816286861,0.3235457984883338
1782829353461285400,4.356285400390625,1.0140583848446607,1.0558804876603185,0.4149547198370099
1782829353471214300,4.36621435546875,0.8404144670754671,1.0179504238471389,0.34938904560133816
1782829353481142300,4.376142333984375,0.8038648978352546,1.0614343223951757,0.2860124058425426
1782829353491071200,4.3860712890625,0.5573498051226139,1.0967236624412238,0.2753338485050946
1782829353501000200,4.396000244140625,0.4273462916374206,1.0386506820484995,0.4188021890453994
1782829353510929400,4.405929443359375,0.16307225487232208,1.0737759175740182,0.5805865960642695
1782829353520858400,4.4158583984375,-0.1767693563133478,1.1263966239102183,0.5886044828251004
1782829353530786300,4.425786376953125,-0.4737988307327032,1.1387936025381087,0.48236353772133583
1782829353540715300,4.43571533203125,-0.7579623938381671,1.1874549037240445,0.43390345819592474
1782829353550644200,4.445644287109375,-0.8811047893822193,1.1949870527945459,0.40824090141206976
1782829353560573400,4.455573486328125,-0.9627876318126917,1.2019517772406338,0.406976690162532
1782829353570501400,4.46550146484375,-1.0232418082535266,1.1909231643565,0.4061706344766542
1782829353580430300,4.475430419921875,-1.0035042576044797,1.1490274117827415,0.40169378132354466
1782829353590359300,4.485359375,-0.9808400058537721,1.1132931044481693,0.360136539989151
1782829353600288300,4.495288330078125,-0.8227209894746541,1.1041880069725214,0.30046606127191333
1782829353610217200,4.50521728515625,-0.6190127728313207,1.1417286330766976,0.22921938225775956
1782829353620145400,4.5151455078125,-0.4722796583414077,1.1218481668256222,0.17001469442136585
1782829353630074400,4.525074462890625,-0.2465349664568901,1.0320986300565302,0.13867584556676446
1782829353640003300,4.53500341796875,-0.0577829114049673,0.9621443654730916,0.1942750562570989
1782829353649932000,4.54493212890625,0.14978314971029758,0.8285439965397119,0.24771818489208816
1782829353659861200,4.554861328125,0.32201895424723626,0.7030776880927383,0.2794563352625817
1782829353669789400,4.56478955078125,0.4792056582123041,0.6120620769105851,0.27430304415263235
1782829353679718100,4.57471826171875,0.5992950959265232,0.5711391148917376,0.2522279904667288
1782829353689647000,4.584647216796875,0.6246569161981343,0.5640555863715708,0.22428923237919807
1782829353699576000,4.594576171875,0.6667331399053334,0.5720499461263417,0.1528853535093367
1782829353709504000,4.60450390625,0.6861679082155228,0.6166340610012412,0.12893361923135815
1782829353719433200,4.61443310546875,0.6790121912419795,0.5811486138612032,0.15057890319786965
1782829353729362200,4.624362060546875,0.6083318043410778,0.49415188293159007,0.16702786063030362
1782829353739291100,4.634291015625,0.5630249281495809,0.4084143582828343,0.18580759909786282
1782829353749220000,4.64422021484375,0.541711506485939,0.31354879367426036,0.21358371396958828
1782829353759148000,4.65414794921875,0.4979477680832147,0.2293324872434139,0.21384945223368704
1782829353769077200,4.6640771484375,0.4256394877195358,0.125200643248111,0.2313307483885437
1782829353779006200,4.674006103515625,0.3545896829843521,0.06948021733090282,0.2102982625581324
1782829353788935200,4.68393505859375,0.214113875323534,-0.014384353052824735,0.18653540191575885
1782829353798863000,4.693863037109375,0.1424146667689085,-0.10126271829977632,0.2222203171506524
1782829353808792300,4.703792236328125,0.0420107572555542,-0.12647183222770692,0.2617052091903984
1782829353818721300,4.71372119140625,0.07711012768745422,-0.15122414229884742,0.2724139790030196
1782829353828650200,4.723650146484375,0.049369303324818606,-0.1363375388123095,0.27461930702757087
1782829353838579200,4.7335791015625,-0.03263561066687107,-0.11042933670431375,0.2990969283431768
1782829353848507100,4.743507080078125,-0.13239128540456294,-0.13367621064856647,0.2854968940684572
1782829353858436400,4.753436279296875,-0.10496668738424778,-0.14158756829500196,0.2972105300746858
1782829353868365300,4.763365234375,-0.09308978710770606,-0.14339578676074743,0.32745025858096777
1782829353878294300,4.773294189453125,-0.08725333603918552,-0.20340777239203453,0.3695587405899539
1782829353888222200,4.78322216796875,-0.03440203581750393,-0.26790742483139035,0.4053707162706181
1782829353898151200,4.793151123046875,-0.013828034344315529,-0.26881474893465634,0.3613980843575671
1782829353908080400,4.803080322265625,0.0835813695281744,-0.31556466354131696,0.3405761725379154
1782829353918009300,4.81300927734375,0.1280623162895441,-0.3215845083527267,0.3923501623842865
1782829353927938300,4.822938232421875,0.12082301268577575,-0.343466085293144,0.4079263190375641
1782829353937866200,4.8328662109375,0.10155015693902969,-0.3277791252091527,0.4758808611711487
1782829353947795200,4.842795166015625,0.07441255916655064,-0.26967794163525105,0.45426615500599143
1782829353957724400,4.852724365234375,0.1059065985828638,-0.23560294581502675,0.3649751756593585
1782829353967649500,4.8626494140625,0.03845160346925258,-0.2365126080058515,0.33046485716179014
1782829353977578500,4.87257861328125,0.057940147793293,-0.29405908030644057,0.36717290489934384
1782829353987506400,4.88250634765625,0.13389876735806464,-0.32321254794597626,0.448636295892857
1782829353997435400,4.892435302734375,0.12084113286435604,-0.349325917237252,0.5013237473223358
1782829354007364600,4.902364501953125,0.14189619585275648,-0.3847130185693502,0.5261329386798664
1782829354017293600,4.91229345703125,0.08267302251160144,-0.41328006462305783,0.5030712120441719
1782829354027221500,4.922221435546875,0.015063713619112967,-0.4232419250585139,0.47643060400839893
1782829354037150500,4.932150390625,-0.04063771533668041,-0.4216233839459717,0.5021658241696656
1782829354047079700,4.94207958984375,-0.14520458974838257,-0.3927797129079699,0.5295459254611283
1782829354057008400,4.95200830078125,-0.26679274158775806,-0.41867081775069237,0.5070241143884137
1782829354066937300,4.961937255859375,-0.33921383467614646,-0.3853754280008375,0.4413897953633219
1782829354076865500,4.971865478515625,-0.42040860132873054,-0.3228846311658621,0.43138563015609976
1782829354086794500,4.98179443359375,-0.42532735303044317,-0.32581469326838847,0.42592688982617105
1782829354096723500,4.991723388671875,-0.5770014310538768,-0.3277843859061599,0.5240681516371667
1782829354106652400,5.00165234375,-0.7477437821626662,-0.3940709217622876,0.6227417302265763
1782829354116581400,5.011581298828125,-0.8978186082959174,-0.46434477368891236,0.5593806533630937
1782829354126509300,5.02150927734375,-1.089846324017644,-0.43882089472338554,0.4769644916893914
1782829354136438300,5.031438232421875,-1.3203928632259367,-0.4575096669718623,0.4611459776476025
1782829354146367500,5.041367431640625,-1.6202075844496489,-0.5765928502529859,0.44202100593894716
1782829354156296400,5.05129638671875,-1.89948980525434,-0.7124309151105582,0.3692022187698632
1782829354166224400,5.061224365234375,-2.039606131953001,-0.7373107970841228,0.2591619544483721
1782829354176153300,5.0711533203125,-2.1104700587272642,-0.6789667446650565,0.07408882537120953
1782829354186082300,5.081082275390625,-2.181725615167618,-0.6173201435692608,-0.06412110145054757
1782829354196011500,5.091011474609375,-2.103806509184837,-0.6242462895706296,-0.16817699413280934
1782829354205940500,5.1009404296875,-1.899090576803684,-0.605013473573327,-0.23932370163751765
1782829354215868400,5.110868408203125,-1.4240315168768167,-0.5561221630237996,-0.2303520943484269
1782829354225797400,5.12079736328125,-0.8582909000277519,-0.397095238019526,-0.0789630986103788
1782829354235726300,5.130726318359375,-0.3238110983610153,-0.19898922529742122,0.13443793400237336
1782829354245655600,5.140655517578125,0.12165361829102038,-0.057428545009344814,0.31280612208079545
1782829354255584500,5.15058447265625,0.4260223495572805,0.026329057868570087,0.45794389367066324
1782829354265512400,5.160512451171875,0.6889689371109008,0.1458003636844456,0.5808676780279726
1782829354275441400,5.17044140625,0.942189664942026,0.2747450157664716,0.6548524402365088
1782829354285370400,5.180370361328125,1.202472001722455,0.4232363721005618,0.655122124023363
1782829354295299600,5.190299560546875,1.511417539384961,0.6048271572209895,0.5824651032872498
1782829354305227500,5.2002275390625,1.738493187612295,0.7317844348780811,0.5407329437773675
1782829354315156500,5.210156494140625,1.8676666800141333,0.7232150517143309,0.5449267056727781
1782829354325085400,5.22008544921875,1.9162223288685083,0.6737135003119706,0.5646724396282806
1782829354335014400,5.230014404296875,1.8315145856589077,0.5901813767530024,0.513086117841117
1782829354344943600,5.239943603515625,1.7329922521084546,0.5393517916172742,0.5041936767354608
1782829354354871600,5.24987158203125,1.491644917422533,0.45290480352491136,0.47385041478946804
1782829354364800500,5.259800537109375,1.1671475903630255,0.3482137182116508,0.3575242385989055
1782829354374729500,5.2697294921875,0.8487123398214578,0.35897622750550506,0.18956983770821242
1782829354384658400,5.279658447265625,0.48218204367458817,0.39828240197747944,0.005135846784804016
1782829354394587400,5.28958740234375,0.06078033965528011,0.32184345154985783,-0.1771281979546882
1782829354404515600,5.299515625,-0.2466442720502615,0.26438246557563544,-0.2680436366979964
1782829354414444500,5.309444580078125,-0.541752423018217,0.24580168374627828,-0.3082124741476029
1782829354424373500,5.31937353515625,-0.7206435937911272,0.2588945356838405,-0.34588268144819884
1782829354434300400,5.329300537109375,-0.9362819022029638,0.2968587940275669,-0.4229452436668798
1782829354444228400,5.339228271484375,-1.1704285117298363,0.2886585364371538,-0.5233882430816069
1782829354454157300,5.3491572265625,-1.3787176264226435,0.22504238883405922,-0.6638228784818202
1782829354464086500,5.35908642578125,-1.3642612310469149,0.2112413886271417,-0.7613269018352031
1782829354474015500,5.369015380859375,-1.2670511491388081,0.36573461572453375,-0.7504621012106537
1782829354483943400,5.378943359375,-1.1970675123304129,0.4657071480832994,-0.6674431878708302
1782829354493872400,5.388872314453125,-1.17403968796432,0.44097164301648734,-0.6493759085215628
1782829354503801300,5.39880126953125,-0.991127591112256,0.45479017888009543,-0.7703462207235395
1782829354513730600,5.40873046875,-0.6797358293414115,0.5373254003562032,-0.8924183566875755
1782829354523659500,5.418659423828125,-0.34570261217355724,0.5605101688496769,-0.9236068372860551
1782829354533587500,5.42858740234375,-0.02247662022411823,0.4355325207024812,-0.7936611184027046
1782829354543516400,5.438516357421875,0.30303602135777474,0.29858064938411116,-0.6372466409191488
1782829354553445400,5.4484453125,0.5626040723890066,0.23552198953330516,-0.5426277810806408
1782829354563374600,5.45837451171875,0.72619596722126,0.1351413147650659,-0.5000531428646297
1782829354573303600,5.468303466796875,0.8606278185427189,0.0559141949236393,-0.5462394322391599
1782829354583231500,5.4782314453125,0.8895727579981089,0.052411885891109705,-0.4923235715258866
1782829354593160400,5.488160400390625,0.8527204064190387,0.07738280714899301,-0.4961245712440461
1782829354603089400,5.49808935546875,0.8304343403309583,0.11035510242432356,-0.5363857083532959
1782829354613018600,5.5080185546875,0.7639969978272915,0.1596525095567107,-0.6003789456404746
1782829354622946600,5.517946533203125,0.6974678853869438,0.13072744384557008,-0.6112856857106089
1782829354632875500,5.52787548828125,0.5767483330756425,0.11827917342185973,-0.6238445769019425
1782829354642804500,5.537804443359375,0.481070867562294,0.02657075766995549,-0.5899659804366528
1782829354652733400,5.5477333984375,0.4349626118600368,0.0034675299800932405,-0.5669535363027826
1782829354662662400,5.557662353515625,0.2542944945424795,0.027213001096248624,-0.5592601687885821
1782829354672590600,5.567590576171875,0.2274117483139038,-0.06147139065936207,-0.5577639388814568
1782829354682519600,5.57751953125,0.15080021779835223,-0.04750424010530114,-0.5708513839915395
1782829354692448300,5.5874482421875,0.11312310583293438,-0.08480945001840591,-0.5519222271159291
1782829354702377500,5.59737744140625,0.16394260796606538,-0.11341843551769852,-0.5127432592201978
1782829354712306400,5.607306396484375,0.12346738971471785,-0.12640198186188936,-0.47770201218370345
1782829354722234400,5.617234375,0.09140110336840153,-0.18661460463181137,-0.4506252046877518
1782829354732163300,5.627163330078125,0.06172141989767551,-0.2303114152781665,-0.483362741359137
1782829354742092300,5.63709228515625,0.06880816328823566,-0.2881767442695796,-0.5214780255461111
1782829354752021500,5.647021484375,0.10798457390069961,-0.3362621452637017,-0.516998870838061
1782829354761950500,5.656950439453125,0.11850538339316845,-0.3824012344956398,-0.5192670349657535
1782829354771878400,5.66687841796875,0.11642390094399452,-0.4782072948247194,-0.5329445549234748
1782829354781807400,5.676807373046875,0.057604632228612895,-0.6074981299959122,-0.5077644478943198
1782829354791736300,5.686736328125,0.03447685461938381,-0.7046484445407987,-0.4913280942151323
1782829354801665500,5.69666552734375,0.07428688696026801,-0.7403609784349798,-0.5335010562950745
1782829354811593500,5.706593505859375,0.08378770575523375,-0.7666730851687491,-0.5961564325746148
1782829354821522400,5.7165224609375,0.07205109073221683,-0.8003576203666627,-0.5872478075191379
1782829354831451400,5.726451416015625,0.013682488393783568,-0.8635521815568208,-0.5920034045483916
1782829354841380400,5.73638037109375,0.02986439238786697,-0.915201412512362,-0.6278012786384671
1782829354851309600,5.7463095703125,0.015025135174393653,-0.9035961687840521,-0.5948302254721523
1782829354861237500,5.756237548828125,0.015555881050229071,-0.8925636103771627,-0.560373317662254
1782829354871166500,5.76616650390625,-0.021149171012639998,-0.897518310175091,-0.5203045978525653
1782829354881095400,5.776095458984375,-0.14863865585029123,-0.9265528276100754,-0.5047957342818379
1782829354891024400,5.7860244140625,-0.16034955191016195,-0.8644539527021348,-0.5039140560764819
1782829354900953600,5.79595361328125,-0.15333996540904044,-0.7231976621881127,-0.5426352702673525
1782829354910881500,5.805881591796875,-0.13920096541941165,-0.6493886218726634,-0.5759865914555267
1782829354920810500,5.815810546875,-0.08795885396003722,-0.6445970036819577,-0.5510376263011246
1782829354930739500,5.825739501953125,-0.07783435030877589,-0.614708792027086,-0.4818105069484561
1782829354940668400,5.83566845703125,-0.009183423408865929,-0.6649691989727318,-0.43481786962710317
1782829354950596400,5.845596435546875,0.03869242648780346,-0.6943260802298784,-0.4234695963345468
1782829354960525600,5.855525634765625,0.027011341044306754,-0.6710771604590118,-0.44077593778129665
1782829354970455300,5.865455322265625,0.04218143764734268,-0.6656890376798809,-0.4244990855127573
1782829354980384300,5.87538427734375,0.03531096735596657,-0.6146358729213476,-0.4162012127667665
1782829354990313200,5.885313232421875,-0.005724807387590408,-0.5844092230923473,-0.45923773287348446
1782829355000241200,5.8952412109375,0.016693360647559163,-0.5966305528923869,-0.5006518394101411
1782829355010170000,5.905170166015625,0.07800152356922627,-0.6162368783771991,-0.5484047570468857
1782829355020099000,5.91509912109375,0.10230360565483569,-0.6796615950614213,-0.5420713162416592
1782829355030028300,5.9250283203125,0.06787175922095776,-0.6950954571671784,-0.5073624794973061
1782829355039957200,5.934957275390625,-0.013996961170434951,-0.6727227357089519,-0.4923552818384021
1782829355049885200,5.94488525390625,-0.11573533415794372,-0.6727127988368272,-0.49134153821859505
1782829355059814100,5.954814208984375,-0.2665250305622816,-0.6572061637558042,-0.46196043583564456
1782829355069743000,5.9647431640625,-0.47137364941239357,-0.6568091272622346,-0.3865437045952305
1782829355079672300,5.97467236328125,-0.6611807664752006,-0.5852427513070404,-0.3156802892776206
1782829355089601300,5.984601318359375,-0.8553858262360096,-0.43715266925022006,-0.30928627739157527
1782829355099529200,5.994529296875,-1.0300883131474257,-0.26441651397570964,-0.33434765341188755
1782829355109458200,6.004458251953125,-1.2142933724194764,-0.12243380888327955,-0.3568850273799151
1782829355119387100,6.01438720703125,-1.3518535848945379,-0.10071823615953325,-0.3218474336052313
1782829355129316400,6.02431640625,-1.3930407508075235,-0.08690510712340474,-0.2318018730316311
1782829355139245300,6.034245361328125,-1.3382716342657803,-0.025220804365724325,-0.1150324465855956
1782829355149173200,6.04417333984375,-1.2558096241563559,0.0634279315546155,-0.06890957783609629
1782829355159102200,6.054102294921875,-1.11961894646883,0.1399906544923782,-0.05408164573423564
1782829355169031200,6.06403125,-0.8316624208211898,0.25783245941028,-0.14545235396437345
1782829355178960400,6.07396044921875,-0.49510991430878637,0.38380978611931205,-0.220945146115683
1782829355188889300,6.083889404296875,-0.2548480367720127,0.44913113020509476,-0.2224753878902644
1782829355198817300,6.0938173828125,-0.10850187577307224,0.34550796638429165,-0.19022285825684665
1782829355208746200,6.103746337890625,0.05612579184770584,0.23842165649756789,-0.15260799787268042
1782829355218675200,6.11367529296875,0.1541740781456232,0.21546602058485148,-0.15154913646951318
1782829355228604400,6.1236044921875,0.302505860003829,0.27762524737790223,-0.154437405256927
1782829355238532400,6.133532470703125,0.3584218084931373,0.361235843000561,-0.1908240390203893
1782829355248461300,6.14346142578125,0.337390710902214,0.4237079351350665,-0.26238793075755235
1782829355258390300,6.153390380859375,0.2631827343970537,0.45682533796951175,-0.37476577118113635
1782829355268319200,6.1633193359375,0.3028554040938616,0.5176300814136863,-0.38637992886826394
1782829355278248200,6.173248291015625,0.3068395052939653,0.6026024669088423,-0.4074932248499244
1782829355288176400,6.18317626953125,0.3810615103244781,0.6571954962313175,-0.381958386098966
1782829355298105300,6.193105224609375,0.3649637774825096,0.7788127280347049,-0.39928982545435426
1782829355308034300,6.203034423828125,0.33053076200485226,0.8342872163668275,-0.4721059092096984
1782829355317963000,6.212962890625,0.3019453035116195,0.8799610261745751,-0.4468324248086661
1782829355327892200,6.222892333984375,0.1362795250147581,0.8812064961910248,-0.4763499765202403
1782829355337820400,6.2328203125,0.0630120442301035,0.881036400321126,-0.3578215045124292
1782829355347749000,6.2427490234375,-0.06572773292958736,0.854882406758517,-0.25056919040903447
1782829355357678000,6.252677978515625,-0.11691197672188282,0.957891384203732,-0.2515545481845736
1782829355367607300,6.262607177734375,-0.17801497246026993,1.0029578757680953,-0.3263810219142586
1782829355377536300,6.272536376953125,-0.3278694338411093,0.9659186233147978,-0.3632916795518249
1782829355387464200,6.282464111328125,-0.3270738995492458,0.9109336720652877,-0.3651294163729995
1782829355397393200,6.29239306640625,-0.2694517316639423,0.9359097078897058,-0.30398608862422405
1782829355407322000,6.302322021484375,-0.2671253345429897,0.9582000117614865,-0.20978344490379094
1782829355417251300,6.312251220703125,-0.3034516164213419,0.9187323631174862,-0.22701522327698767
1782829355427180300,6.32218017578125,-0.3756529292792082,0.8968117693409323,-0.16327888336032628
1782829355437108200,6.332108154296875,-0.47716333872973915,0.8253750111147761,-0.09867788943834602
1782829355447037200,6.342037109375,-0.49890287685096263,0.8300679912365972,-0.060380745878443116
1782829355456966100,6.351966064453125,-0.6898305223762988,0.8539356274276971,-0.08692330036722123
1782829355466895400,6.361895263671875,-0.8298626779228448,0.7916856536112725,-0.15014394584670662
1782829355476824300,6.37182421875,-0.9078852442800999,0.7453554257214069,-0.202488830916211
1782829355486752300,6.381752197265625,-1.0018898081451655,0.7758335660934448,-0.2010071409910917
1782829355496681200,6.39168115234375,-0.8808037606090307,0.7505934725053608,-0.20840653052739797
1782829355506610200,6.401610107421875,-0.6764630912810564,0.7979096426926553,-0.20575265501774848
1782829355516539400,6.411539306640625,-0.5370481908500194,0.837769067133218,-0.18670951637364921
1782829355526467300,6.42146728515625,-0.27654841192662716,0.7417107856087386,-0.1561062152519822
1782829355536396300,6.431396240234375,-0.0005839373677968978,0.7184333703957497,-0.1482723798211664
1782829355546325200,6.4413251953125,0.29158289945125576,0.6552233193755149,-0.13179580372944474
1782829355556254200,6.451254150390625,0.5732979003608226,0.5875887299112975,-0.1055089045021683
1782829355566183400,6.461183349609375,0.7302268301725388,0.5517049311034381,-0.030155045897513628
1782829355576111400,6.471111328125,0.8302724277675151,0.4917673258826136,0.006443988507613539
1782829355586040300,6.481040283203125,0.8293722640573978,0.4238268853396177,-0.022872560739144683
1782829355595969300,6.49096923828125,0.8088274886786937,0.40447833400815725,-0.07369717743881046
1782829355605898200,6.500898193359375,0.7465531110733747,0.37328956114873285,-0.037148558046668764
1782829355615827200,6.5108271484375,0.6787953336209058,0.2948918778687715,0.023903438156843183
1782829355625755400,6.52075537109375,0.4866156422078609,0.219596982909739,0.040548356552794575
1782829355635684400,6.530684326171875,0.3379851696640253,0.10095219104588031,-0.018699951229617
1782829355645613300,6.54061328125,0.3165174342215061,0.06266688405424356,-0.051723538300767535
1782829355655542000,6.5505419921875,0.31855566205084324,0.06834551421254872,-0.02986417319215834
1782829355665471200,6.56047119140625,0.3096475484520197,0.002418459318578243,-0.007798983313143253
1782829355675399400,6.5703994140625,0.2967103254675865,-0.08046382202953099,-0.006363032225891948
1782829355685328100,6.580328125,0.30305238797068595,-0.11633666105195879,-0.000517009611427784
1782829355695257000,6.590257080078125,0.368614701205492,-0.14543021519780158,0.03197926564998924
1782829355705186000,6.60018603515625,0.35964638185203074,-0.15785422796308993,0.10775792553797364
1782829355715115300,6.610115234375,0.2733592604964971,-0.16965893978625535,0.13803371173832565
1782829355725043200,6.620043212890625,0.1835322745770216,-0.20480521809980273,0.10285196025259792
1782829355734972200,6.62997216796875,0.09126783237755298,-0.22093641481995582,0.08309354947861283
1782829355744901000,6.639901123046875,0.018809914410114287,-0.21663491823375225,0.07831471770424395
1782829355754830000,6.649830078125,-0.011882160973548888,-0.2647619664125144,0.07966810507457703
1782829355764759300,6.65975927734375,-0.020782675787806508,-0.2941059881880879,0.11772829807344823
1782829355774687200,6.669687255859375,-0.043350481426715846,-0.30449323442876336,0.14576898216549306
1782829355784616200,6.6796162109375,-0.0031429742008447646,-0.3068763301730156,0.10372753751073031
1782829355794545200,6.689545166015625,-0.019399112474918365,-0.261708862452209,0.09731094846669584
1782829355804474400,6.699474365234375,-0.06309446181654929,-0.2547556823134422,0.09232355197556316
1782829355814403300,6.7094033203125,-0.03614215748310089,-0.29623832404166456,0.0758387560447678
1782829355824331300,6.719331298828125,-0.09481529572606086,-0.2953999735213816,0.09317677127141505
1782829355834260200,6.72926025390625,-0.0870493378996849,-0.3325160906031728,0.08847619236502796
1782829355844189200,6.739189208984375,-0.1173392622232437,-0.36131110019385815,0.09728311061169952
1782829355854118400,6.749118408203125,-0.17969898002445697,-0.3859612650647759,0.1331415557825938
1782829355864047400,6.75904736328125,-0.22153204262554643,-0.43310397838130593,0.11275025393255055
1782829355873975300,6.768975341796875,-0.17936404898166655,-0.39614027538225055,0.0981390333212912
1782829355883904300,6.778904296875,-0.17335691752135754,-0.35435163644477724,0.10715601412206888
1782829355893833200,6.788833251953125,-0.19491174672544,-0.3828828805327415,0.1325138888709247
1782829355903762400,6.798762451171875,-0.26881109567284583,-0.43318069687932725,0.1622589657280594
1782829355913691400,6.80869140625,-0.20341478665471074,-0.4507422186635434,0.164389548015967
1782829355923619300,6.818619384765625,-0.1279658701777458,-0.38375074940845366,0.17866043075695634
1782829355933548300,6.82854833984375,-0.018449264404177664,-0.3429853160388768,0.1664005590448156
1782829355943477200,6.838477294921875,0.036649522483348844,-0.37898718826845285,0.18912326298449186
1782829355953406200,6.84840625,-0.01591360844671726,-0.4290189010247588,0.23945216858908533
1782829355963334400,6.85833447265625,-0.17500176211893556,-0.4512621508844197,0.33400932483561335
1782829355973262800,6.868262939453125,-0.4454746535241604,-0.44100686046034093,0.3268848432505503
1782829355983191800,6.87819189453125,-0.6992799032449721,-0.46001931170523164,0.18513134380411356
1782829355993121000,6.88812109375,-0.9416443060189486,-0.43118762336596844,0.09479032568158581
1782829356003049700,6.8980498046875,-1.2284352950185538,-0.3575887186698615,-0.11972129852157086
1782829356012978000,6.90797802734375,-1.4716665437549352,-0.3163620975293219,-0.05921082531623542
1782829356022907000,6.917906982421875,-1.6843974402874706,-0.42808921895921226,0.031126155951991676
1782829356032835800,6.9278359375,-1.6650246312975883,-0.40835415252819657,-0.037103650325862686
1782829356042764800,6.937764892578125,-1.6542057156413792,-0.2705048939786851,0.0877990785547532
1782829356052693800,6.94769384765625,-1.5029314505904912,-0.32776465829238294,0.08079957505622878
1782829356062622000,6.9576220703125,-1.2293132468968628,-0.23394743369296192,0.06725412964611314
1782829356072550700,6.967550537109375,-0.9578267945349216,-0.03832666191533208,0.0857387393583078
1782829356082479600,6.977479736328125,-0.604045505324006,0.014733312620967626,0.13390934355100617
1782829356092408800,6.987408935546875,-0.3704273035854101,0.0123467097453773,0.21630751291029154
1782829356102337800,6.997337890625,-0.020003508108854293,0.00445376453846693,0.3145258585454896
1782829356112265700,7.007265625,0.25758827539086343,0.04935702836513519,0.3631435032527894
1782829356122194700,7.017194580078125,0.39450551378726956,0.10084463901817799,0.3393597824854776
1782829356132123600,7.02712353515625,0.5060147546827792,0.13398513046726584,0.42613793876096606
1782829356142052900,7.037052978515625,0.599399725344777,0.12799845727309583,0.38236345976851877
1782829356151981800,7.04698193359375,0.7625146503150463,0.19708032293617725,0.23952948987530542
1782829356161909800,7.05690966796875,0.8077151435226202,0.2871592377901077,0.20646779928347095
1782829356171838700,7.066838623046875,0.7203507483243942,0.26589959214031694,0.22836360567864028
1782829356181768000,7.076767822265625,0.6264905613660812,0.1518653628118336,0.24953447706643492
1782829356191697000,7.08669677734375,0.459617745167017,0.12782704622894525,0.20396774436235426
1782829356201625900,7.0966259765625,0.2396773556470871,0.10867401746958494,0.12101396868061273
1782829356211553800,7.1065537109375,0.11881517999470233,0.17501096833869814,0.07259333524960093
1782829356221482800,7.116482666015625,-0.08417524376809596,0.2794862189441919,0.0011268303391523658
1782829356231412000,7.126411865234375,-0.1852016690939665,0.34812077923119067,-0.03908409268651157
1782829356241341000,7.1363408203125,-0.414318467760086,0.441412372521311,-0.00024197379602119325
1782829356251270000,7.146269775390625,-0.5360264465868473,0.4617765306361019,-0.1282564323558472
1782829356261197800,7.15619775390625,-0.5267606055915356,0.5260341910131275,-0.2518334564574994
1782829356271126800,7.166126708984375,-0.5691647460788488,0.5906288282595574,-0.3277246185429394
1782829356281056000,7.176055908203125,-0.43832127463817594,0.5462202160820364,-0.33375535007454454
1782829356290985000,7.18598486328125,-0.32646716582775115,0.5351797666296363,-0.2910044602424837
1782829356300914000,7.195913818359375,-0.21443010166585444,0.5335040885023773,-0.2804661150933243
1782829356310841900,7.205841796875,-0.13976736713051796,0.5213505632415414,-0.35685024832747875
1782829356320770800,7.215770751953125,-0.11803835040330886,0.48727483676895494,-0.531203483409807
1782829356330700000,7.225699951171875,-0.07276829909086227,0.48199689636602994,-0.693853932673484
1782829356340628700,7.235628662109375,-0.006031681379675865,0.4694244150407612,-0.7603316802527755
1782829356350557700,7.2455576171875,-0.01870879212319851,0.4115286909110844,-0.8330896040800958
1782829356360486000,7.25548583984375,-0.0872235254228115,0.3185089002996683,-0.9490143963955342
1782829356370414800,7.265414794921875,-0.10025427190959453,0.21329466789513826,-1.1015717600595205
1782829356380343800,7.27534375,-0.08021043179035187,0.17458222153261302,-1.2106867262296377
1782829356390272800,7.285272705078125,-0.13558978918492792,0.1227466742247343,-1.296991383241862
1782829356400201700,7.29520166015625,-0.05089432093501091,-0.07064020102098584,-1.3853402594327926
1782829356410129700,7.305129638671875,0.11122048708200453,-0.19353285958766936,-1.360132899070531
1782829356420058600,7.31505859375,0.20871698471605776,-0.27708032684624195,-1.2718988814309238
1782829356429987800,7.32498779296875,0.34414076968431473,-0.42410146449729796,-1.2129215726096183
1782829356439916800,7.334916748046875,0.4289548958778381,-0.541034337876737,-1.1433692398905753
1782829356449845800,7.344845703125,0.4845119479268789,-0.6516888616390526,-1.0877250940799712
1782829356459773700,7.354773681640625,0.6421230147838592,-0.6833784236274659,-1.0396167506016791
1782829356469702700,7.36470263671875,0.7484960618346929,-0.6231507494188845,-0.9497519168898463
1782829356479632000,7.3746318359375,0.7658820809215307,-0.5835945457085967,-0.867410975876823
1782829356489560800,7.384560791015625,0.6992044999212026,-0.5981226911462844,-0.8051591754294931
1782829356499489800,7.39448974609375,0.6572434270262718,-0.6370274452105165,-0.7839382543548941
1782829356509417700,7.404417724609375,0.7001689610391855,-0.6269685541413724,-0.7242033320993184
1782829356519346700,7.4143466796875,0.70129825733006,-0.5725098187230527,-0.6123647131189703
1782829356529276000,7.42427587890625,0.710308077737689,-0.60431307021901,-0.5315353091800585
1782829356539204900,7.434204833984375,0.6496469805479049,-0.6482604946255683,-0.5042565859038383
1782829356549133800,7.4441337890625,0.5479325729578733,-0.6058563541382551,-0.49219530550371854
1782829356559061800,7.454061767578125,0.5176140070617199,-0.5398724544905126,-0.501681840045005
1782829356568990700,7.46399072265625,0.40165597006380555,-0.43133053896799683,-0.5059256881598383
1782829356578920000,7.473919921875,0.2484381697297096,-0.41327042001187797,-0.42507611821573227
1782829356588849000,7.483848876953125,0.130436644205451,-0.4157812337890267,-0.3831326905753463
1782829356598777900,7.49377783203125,0.0630377631932497,-0.3618213878035545,-0.38172059528771785
1782829356608705800,7.503705810546875,-0.0016495207726955413,-0.3396102866478264,-0.3865513399124145
1782829356618635000,7.513635009765625,-0.03252805863916874,-0.39644305772110816,-0.37388000132255256
1782829356628564000,7.52356396484375,0.018964228188991544,-0.4469429725110531,-0.3619489597059786
1782829356638493000,7.533492919921875,0.10567220530509948,-0.44304026598408813,-0.3679865959024057
1782829356648422000,7.543421875,0.1441401753872633,-0.499946540684998,-0.38482057059705255
1782829356658349800,7.553349853515625,0.1930307552844286,-0.6203780698351562,-0.437654846618697
1782829356668279000,7.563279052734375,0.25926702225804327,-0.6750872728832066,-0.44893315994758154
1782829356678208000,7.5732080078125,0.3281190246880054,-0.7110116959623992,-0.44176830981951204
1782829356688136700,7.58313671875,0.36875264837145805,-0.7288175478965043,-0.4535543169422075
1782829356698065700,7.593065673828125,0.359556365481019,-0.7477849909558891,-0.493367564153485
1782829356707995000,7.602994873046875,0.3639490474820137,-0.7943735775209962,-0.5756739087771624
1782829356717922800,7.6129228515625,0.3375029391050339,-0.7741495585292577,-0.6669713325753808
1782829356727851800,7.622851806640625,0.31559973485469817,-0.8159317677259444,-0.7175811374805867
1782829356737780700,7.63278076171875,0.29180092611610886,-0.8813044036075472,-0.7672807687383144
1782829356747709700,7.642709716796875,0.21452596325576304,-0.928260946702212,-0.8038425398729742
1782829356757639000,7.652638916015625,0.09295125541985035,-1.0078763352088629,-0.8458348846890031
1782829356767566800,7.66256689453125,0.031045126605033873,-1.0833794660910963,-0.8747330623932182
1782829356777495800,7.672495849609375,-0.07320084528923035,-1.02066655093804,-0.8895473312959075
1782829356787424800,7.6824248046875,-0.30191490837335583,-1.0604941189356147,-1.0170031330596656
1782829356797353700,7.692353759765625,-0.40327392665445805,-1.1891720829054713,-1.0293380793020128
1782829356807283000,7.702282958984375,-0.5806681368678808,-1.1610662246227264,-1.037478058072552
1782829356817211000,7.7122109375,-0.8414958325713873,-1.0921997552759946,-1.0711693883374334
1782829356827139800,7.722139892578125,-1.157844339966774,-1.1151102368727326,-1.1241522059842943
1782829356837068800,7.73206884765625,-1.3092705807089804,-1.1118237625479697,-1.1932893820311874
1782829356846997800,7.741997802734375,-1.452537480393052,-0.9345746598936617,-1.1170089831661432
1782829356856927000,7.751927001953125,-1.6227560998886823,-0.7761272883430123,-0.9766416773810982
1782829356866855000,7.76185498046875,-1.7018839971393345,-0.5928088026471435,-0.7808063860699535
1782829356876783900,7.771783935546875,-1.8924486545711754,-0.38822804095298047,-0.5780962405532598
1782829356886712800,7.781712890625,-1.9503572381824255,-0.2428340661123395,-0.46879897661879655
1782829356896641800,7.791641845703125,-1.892240564778447,-0.00963452817723155,-0.3887645589824766
1782829356906571000,7.801571044921875,-1.800245587170124,0.12285174203440546,-0.24858663828969
1782829356916499000,7.8114990234375,-1.6373095258980987,0.18177943956032394,-0.13113244444988667
1782829356926428000,7.821427978515625,-1.5331687679439783,0.19736440057456492,0.030662703158706426
1782829356936356900,7.83135693359375,-1.4232295528441667,0.07517755218967795,0.15551935527473687
1782829356946285800,7.841285888671875,-1.2941992683053016,0.006926876653730869,0.21293971697762606
1782829356956214800,7.85121484375,-1.0713766013473272,0.024059943892806766,0.1955557437174022
1782829356966143000,7.86114306640625,-0.8036486247360706,0.07592237920761108,0.20006028859503566
1782829356976071400,7.871071533203125,-0.42600832103192804,0.14604703192189336,0.2782824691776186
1782829356986000400,7.88100048828125,-0.09741817170083522,0.3049989919938147,0.3103223789736628
1782829356995929600,7.8909296875,0.21411270627975462,0.439724565564841,0.3683001553636044
1782829357005858300,7.9008583984375,0.4448194044858217,0.5117096053235233,0.44620092197209593
1782829357015786500,7.910786376953125,0.6003332068026066,0.605029401794821,0.4145193971596658
1782829357025715500,7.920715576171875,0.6938444341927766,0.7046382154077291,0.35367724431455133
1782829357035644400,7.93064453125,0.8178390626519918,0.7372052908830344,0.3356459130614996
1782829357045573400,7.940573486328125,0.8094277926594019,0.7417807821050286,0.3374626801598817
1782829357055502300,7.95050244140625,0.7573872242987155,0.7224108957245946,0.36246567705646154
1782829357065430500,7.960430419921875,0.7614730323076248,0.7275665249221026,0.3243081611629575
1782829357075359200,7.970359130859375,0.7635422397971153,0.771719847164303,0.24864720937050877
1782829357085288200,7.9802880859375,0.7625713489383459,0.8255736024267971,0.19667517620138822
1782829357095217400,7.990217529296875,0.7214391280829906,0.854400322329998,0.238489972493425
1782829357105146400,8.000146484375,0.6962544179439544,0.8799687710896134,0.3719072399448603
1782829357115074300,8.01007421875,0.5940940201520919,0.9075451986707747,0.4928215111106634
1782829357125003300,8.020003173828124,0.5246235935628414,0.9460594921126961,0.5556967772185802
1782829357134932200,8.02993212890625,0.5020604640990496,1.0192131372593343,0.5255367628850043
1782829357144861400,8.039861328125,0.4365618637502193,1.0837295947030186,0.5430030076012015
1782829357154790400,8.049790283203125,0.3906844941943884,1.0421756413042544,0.6499528316266834
1782829357164718300,8.05971826171875,0.35723639810085295,1.0155817950196564,0.7268098613359034
1782829357174647300,8.069647216796875,0.3563286356061697,0.9755473062731325,0.7837127750359475
1782829357184576300,8.079576171875,0.38632279185354707,0.9391333461113274,0.8480904085308313
1782829357194505500,8.08950537109375,0.32153029394745825,0.8862195020474493,0.9345666227176785
1782829357204434400,8.099434326171876,0.3024567601650953,0.856170985264331,1.0175704846188425
1782829357214362400,8.1093623046875,0.21456454170048236,0.7978487062856554,1.0038209223382175
1782829357224291300,8.119291259765625,0.17948212240338324,0.6750213680401445,0.9745886903740465
1782829357234220300,8.12922021484375,0.17881050675213336,0.6364554905414581,0.9976717520587146
1782829357244149500,8.1391494140625,0.07059153957366943,0.5794580304257572,0.9874527019917965
1782829357254078500,8.149078369140625,0.06848667624890804,0.4526240868873894,0.9709917618606239
1782829357264007400,8.15900732421875,-0.0792243433624506,0.41169454899728297,0.8754640800815076
1782829357273935400,8.168935302734376,-0.18293781581521032,0.29320655513033267,0.750950176988542
1782829357283864300,8.1788642578125,-0.23282442101240156,0.2144143195748329,0.6820401607610285
1782829357293793500,8.18879345703125,-0.38277766659259793,0.1331855045221746,0.6765928551405668
1782829357303722500,8.198722412109374,-0.459403225633502,0.03146642075702548,0.6570203588601201
1782829357313651200,8.208651123046875,-0.5020516962707042,-0.006995557975769042,0.5960510725039988
1782829357323579400,8.218579345703125,-0.6581599573493003,-0.016537001042068004,0.5343744415961206
1782829357333508400,8.22850830078125,-0.7458481776744127,-0.06794423993527889,0.46248599407970903
1782829357343437300,8.238437255859376,-0.6792267107754946,-0.01811477175280452,0.45483884032741184
1782829357353366300,8.2483662109375,-0.7159475449293852,0.007485533449798822,0.4755865909323096
1782829357363295200,8.258295166015625,-0.5174357278853654,-0.014718407312780618,0.42238786551244556
1782829357373223400,8.268223388671874,-0.35410452981591223,-0.008839578407257794,0.28942170282937585
1782829357383152000,8.278152099609375,-0.1446843652665615,-0.09472864035591483,0.2695752119131386
1782829357393081300,8.288081298828125,0.08948971678912639,-0.23182021240592002,0.3573648467861116
1782829357403010300,8.29801025390625,0.2673456992954016,-0.2883437713995576,0.41684250634498893
1782829357412939300,8.307939208984376,0.4236404228568077,-0.31143092473745343,0.4457034207787364
1782829357422867200,8.3178671875,0.4605962348103523,-0.34769466277360916,0.4343427263960242
1782829357432796400,8.32779638671875,0.4425713332980871,-0.36945758177042004,0.3674785367824137
1782829357442725400,8.337725341796874,0.36547698770165443,-0.36039705408886075,0.3259214415784925
1782829357452654300,8.347654296875,0.28652503153979775,-0.37612975301072,0.349525896788761
1782829357462583300,8.357583251953125,0.22297931882441044,-0.3813577167920768,0.33864034563712775
1782829357472511200,8.36751123046875,0.1637333491295576,-0.3155203860081732,0.2671825446229428
1782829357482440400,8.3774404296875,0.10536474679112434,-0.30782515533044935,0.19730441401563584
1782829357492369400,8.387369384765625,0.09408288979828357,-0.3510205923259258,0.2005560362227261
1782829357502298400,8.39729833984375,0.05365501782000064,-0.34909488496035335,0.21921587463766334
1782829357512227300,8.407227294921874,0.06476502537727355,-0.3689493399873376,0.22520919676832854
1782829357522155300,8.4171552734375,0.09132570004463195,-0.3626462943203747,0.2073590673010796
1782829357532084500,8.42708447265625,0.06176584356129169,-0.3286534238256514,0.21473259174376724
1782829357542013400,8.437013427734374,-0.0002478372812271118,-0.34067703909650443,0.23096184201091527
1782829357551942400,8.4469423828125,0.020087094739079474,-0.32975364015251396,0.22615853338241576
1782829357561871400,8.456871337890625,-0.04527531200945377,-0.2475773151166737,0.23341434972956776
1782829357571800600,8.466800537109375,-0.011012976923584937,-0.2344474921695888,0.21257344094850122
1782829357581728500,8.476728515625,0.06224690507650375,-0.22373145236596464,0.17615787335149943
1782829357591657500,8.486657470703125,0.05537585026323795,-0.18881547567695378,0.15737360483929513
1782829357601586400,8.49658642578125,0.15312193874418734,-0.25508199165835976,0.1747568474471569
1782829357611515400,8.506515380859375,0.22729484393596647,-0.292579363142699,0.17811390279009937
1782829357621444400,8.5164443359375,0.2440074938058853,-0.29136516504734755,0.21257716727554796
1782829357631372500,8.52637255859375,0.28456629868745803,-0.31833632021173836,0.24546309944167732
1782829357641301500,8.536301513671875,0.30231062969267364,-0.30027444768995043,0.24218517374955117
1782829357651230200,8.546230224609374,0.3071276745855808,-0.3130547265470028,0.22741291735768318
1782829357661159200,8.5561591796875,0.3125947078198194,-0.29347163580730556,0.21996749672256408
1782829357671088400,8.56608837890625,0.31064123566448687,-0.27265593453273174,0.2065576877903193
1782829357681016300,8.576016357421874,0.3030588177114725,-0.290212634011358,0.23621318666785954
1782829357690945300,8.5859453125,0.25496669471561906,-0.29037162396535277,0.2255398169621825
1782829357700874200,8.595874267578125,0.27154081289768217,-0.2926500902913511,0.2037120891008526
1782829357710803200,8.60580322265625,0.2732511239469051,-0.3185398799598217,0.19552965942807493
1782829357720732400,8.615732421875,0.22088614593744277,-0.35720673361495137,0.2466877458658069
1782829357730660400,8.625660400390625,0.23273206655383108,-0.42951837497949596,0.30993082237280906
1782829357740589300,8.63558935546875,0.14110475321412086,-0.43527591559290885,0.3378683383513242
1782829357750518300,8.645518310546874,0.062192544540762895,-0.4302458124712109,0.36267208634875714
1782829357760447200,8.655447265625,-0.025544191101193426,-0.4105930174961686,0.34392983034737407
1782829357770376400,8.66537646484375,-0.10677987428605556,-0.37656624473184347,0.3088816055808216
1782829357780304400,8.675304443359375,-0.23355448885262012,-0.36461233369633556,0.3339860900904983
1782829357790233300,8.6852333984375,-0.41311026101410386,-0.4115327825643122,0.36264976491909473
1782829357800162300,8.695162353515625,-0.5073778597295284,-0.41169264930114147,0.36408045530933886
1782829357810091300,8.70509130859375,-0.5440075084686279,-0.35974180505052206,0.4104735558349639
1782829357820020500,8.7150205078125,-0.5905535710662603,-0.37804859224408865,0.4511342867210507
1782829357829949400,8.724949462890624,-0.6729080291479825,-0.3697805301144719,0.5277268568078056
1782829357839877400,8.73487744140625,-0.762798727953434,-0.33392420383542776,0.5795978042226284
1782829357849806300,8.744806396484375,-0.8198737833499908,-0.32812311634123326,0.5628727697951719
1782829357859735300,8.7547353515625,-0.9026432519733906,-0.2977991436176002,0.5258768450269475
1782829357869664500,8.76466455078125,-1.0324982968986034,-0.28206191465109587,0.49446873032841826
1782829357879593500,8.774593505859375,-1.1604781956017016,-0.36346944727152586,0.43026071777939795
1782829357889521400,8.784521484375,-1.2700398095607757,-0.4225555502295494,0.3827314162980765
1782829357899450400,8.794450439453126,-1.3940525581985712,-0.38539310978800057,0.362419061435759
1782829357909379600,8.804379638671875,-1.4035574686467647,-0.33762378900572654,0.2860259959764778
1782829357919308500,8.81430859375,-1.390490481802821,-0.24641981564462184,0.20321714519076048
1782829357929237200,8.8242373046875,-1.3933581461936235,-0.20334464402794836,0.1406332267122343
1782829357939165400,8.83416552734375,-1.3013982398986816,-0.21322584044262766,0.030172745950985697
1782829357949094400,8.844094482421875,-1.1231190635442734,-0.23224632886350152,0.020149547249730674
1782829357959023400,8.8540234375,-0.8241074753969907,-0.23076544265598056,0.1113417023088783
1782829357968952300,8.863952392578126,-0.40301206084787844,-0.20704934376478193,0.1818636107124388
1782829357978881300,8.87388134765625,-0.024449381601810455,-0.0844333101823926,0.2048183150433935
1782829357988809500,8.8838095703125,0.33148587077260017,0.029133301634341476,0.24001593995168805
1782829357998738400,8.893738525390624,0.6976882501393556,0.06958309318348765,0.25541264838483185
1782829358008667400,8.90366748046875,0.9858715702801942,0.15897285672947764,0.28369967192076145
1782829358018596400,8.913596435546875,1.2764818253070116,0.2006464909851551,0.36391865234375
1782829358028525300,8.923525390625,1.482521115246415,0.2550279233835637,0.4208342063296586
1782829358038454500,8.93345458984375,1.5485370174676178,0.3199631907612085,0.44633587346337733
1782829358048382500,8.943382568359375,1.570560633227229,0.37051527412980795,0.435169569141604
1782829358058311400,8.9533115234375,1.4837030185073614,0.41741906412392854,0.3870223914902657
1782829358068240400,8.963240478515624,1.4351023614674805,0.4677028519451618,0.3224345493108034
1782829358078169300,8.97316943359375,1.2618810530245304,0.46615459958985445,0.28140239129643885
1782829358088098600,8.9830986328125,1.0627461356461048,0.3788692609772086,0.3211650042990222
1782829358098026500,8.993026611328125,0.8050561534464359,0.2858535620190203,0.34487160470951345
1782829358107955500,9.00295556640625,0.5829010104864836,0.23114202088341115,0.25995284909773614
1782829358117884400,9.012884521484375,0.3345598713904619,0.28042832209989427,0.16352600825550034
1782829358127813400,9.0228134765625,0.05594166745245456,0.33495661562308665,0.04061762239672243
1782829358137742600,9.03274267578125,-0.2152209597826004,0.34843919753059743,-0.08308068999703973
1782829358147670500,9.04267041015625,-0.4759516248524189,0.3814328278549015,-0.13533115651505068
1782829358157599500,9.052599609375,-0.6673708532869815,0.39170492328330875,-0.1898865937734954
1782829358167528400,9.062528564453125,-0.8708779944002628,0.39073856246918437,-0.25778348743570967
1782829358177457400,9.07245751953125,-1.0253531013190746,0.32199908050298687,-0.2836268989454955
1782829358187386600,9.08238671875,-1.1905027469873428,0.2557391403928399,-0.4063123445022851
1782829358197315300,9.0923154296875,-1.3648907611221075,0.21089871266931295,-0.6443358685277402
1782829358207243500,9.102243408203124,-1.3663397908866404,0.23896277763694523,-0.7109846618250012
1782829358217172500,9.11217236328125,-1.3122440435618161,0.2925707414448261,-0.9089532388377934
1782829358227101400,9.122101318359375,-1.154748127517104,0.2963767095990479,-0.9666541710477322
1782829358237030400,9.132030517578125,-1.0168845481812954,0.3036765112183988,-0.969007675371319
1782829358246959400,9.14195947265625,-0.7996937496304511,0.2392528466247022,-0.896771437330544
1782829358256887600,9.151887451171875,-0.6928712052464485,0.13074936341643334,-0.8241396971661596
1782829358266816300,9.161816162109375,-0.4382347653985023,0.03889671688824892,-0.7587426574956625
1782829358276745500,9.171745361328124,-0.17378303397893904,0.027737317231297492,-0.7080673861388117
1782829358286674400,9.18167431640625,0.09212298790216446,0.028211802875250578,-0.6577993073433637
1782829358296603400,9.191603271484375,0.2978478050649166,-0.0428276265963912,-0.6171897221226245
1782829358306531300,9.20153125,0.522511131453514,-0.09744622875154017,-0.6078450072048232
1782829358316460300,9.211460205078126,0.6521358747541904,-0.07104045238494873,-0.5205064405675978
1782829358326389500,9.221389404296875,0.7881506113529205,-0.08771101667881011,-0.40669633885119105
1782829358336318500,9.231318359375,0.8908002539664507,-0.15795988029465077,-0.49848998520113524
1782829358346247400,9.241247314453124,0.9267571180105209,-0.14990794513374567,-0.5020417228659615
1782829358356176400,9.25117626953125,0.9069605306506157,-0.24737989284843204,-0.5224203844301403
1782829358366104300,9.261104248046875,0.9425707732141018,-0.3451717201672494,-0.508516179577075
1782829358376033500,9.271033447265625,0.8643839562058449,-0.42141923967599865,-0.4816551702562719
1782829358385962500,9.28096240234375,0.8775006274104118,-0.5017284556657076,-0.4789325768919661
1782829358395891500,9.290891357421875,0.8468214115083217,-0.41140769487991924,-0.3740639430547133
1782829358405820400,9.3008203125,0.6937286988586187,-0.3582400221854448,-0.3855155305912718
1782829358415748400,9.310748291015624,0.6545277383267879,-0.33228374315202236,-0.4166417961411178
1782829358425677600,9.320677490234376,0.43070027824044227,-0.278175866997987,-0.46654619272332637
1782829358435606500,9.3306064453125,0.3304670491188764,-0.2878912053264677,-0.4540434521660208
1782829358445535500,9.340535400390625,0.1538128436177969,-0.34658348666131494,-0.393421591008082
1782829358455464400,9.35046435546875,0.023952537995576857,-0.35873584287837146,-0.3682868209579959
1782829358465392400,9.360392333984375,-0.04589373616874218,-0.3732328625254333,-0.33671679369602353
1782829358475321600,9.370321533203125,-0.15063772071301937,-0.3733719787351787,-0.3217567961797118
1782829358485250600,9.38025048828125,-0.17412147215306759,-0.38995749509409067,-0.29172709369491784
1782829358495179500,9.390179443359376,-0.11706219884753226,-0.4448644126713276,-0.24739351951498537
1782829358505108500,9.4001083984375,-0.19094401213824747,-0.504884143217653,-0.3408874669767916
1782829358515037400,9.410037353515625,-0.21811434313654898,-0.5871824871979654,-0.3635795565824955
1782829358524965600,9.419965576171874,-0.1195177753061056,-0.6205075414337218,-0.2418107874792069
1782829358534894600,9.42989453125,-0.06964812124371528,-0.6167215931542217,-0.31982827580254525
1782829358544823300,9.4398232421875,0.1265372986793518,-0.6450345183163881,-0.2049313286975026
1782829358554752300,9.449752197265624,0.07807692689299583,-0.6287213891580701,-0.49194900259245183
1782829358564681500,9.459681396484376,0.13616028254926205,-0.5513622551456093,-0.45823385306056585
1782829358574609400,9.469609375,0.05481763185858726,-0.6582555266782641,-0.550944175864011
1782829358584538400,9.479538330078125,0.11406944677233695,-0.689504797553271,-0.5307868289003148
1782829358594467300,9.48946728515625,0.16645488304793835,-0.6931899158068001,-0.5089887655248865
1782829358604396300,9.499396240234375,0.1812701748639345,-0.7918662708751857,-0.4266944766651839
1782829358614325500,9.509325439453125,0.19586101027429104,-0.8677164616294205,-0.4236639863954857
1782829358624254500,9.51925439453125,0.23111410996317863,-0.9363375779129565,-0.426457818365097
1782829358634182400,9.529182373046876,0.1240536651700735,-1.0143319410890341,-0.45227417747117576
1782829358644111400,9.539111328125,0.19271277537643908,-1.0058360615529118,-0.3981132194230333
1782829358654040300,9.549040283203125,0.21240239523053167,-0.9209973854400217,-0.49187297821417447
1782829358663969500,9.558969482421874,0.1681944201916456,-0.8057089182667434,-0.45349948148243124
1782829358673898500,9.5688984375,-0.021769348737597463,-0.8012024006277322,-0.5351140079170466
1782829358683826400,9.578826416015625,-0.0812631557136774,-0.726362994351238,-0.634262364411354
1782829358693755400,9.58875537109375,-0.18022271163761613,-0.6881460764206946,-0.7052872539009899
1782829358703684400,9.598684326171876,-0.1784820054501295,-0.6789154528692364,-0.7711496460609137
1782829358713613600,9.608613525390625,-0.17565642663538455,-0.7669447417169809,-0.7193840221840888
1782829358723542500,9.61854248046875,-0.21382921316325662,-0.8789458577826619,-0.7307222124740481
1782829358733470500,9.628470458984374,-0.20234043542146682,-0.9037905223123729,-0.7429051099598407
1782829358743399400,9.6383994140625,-0.2563414902001619,-0.9274480228841304,-0.7433306418955326
1782829358753328600,9.64832861328125,-0.29606968947649,-0.981492916804552,-0.7475408069364726
1782829358763257600,9.658257568359375,-0.2408405542075634,-0.9802271346524357,-0.8216988068200647
1782829358773186600,9.6681865234375,-0.3448597316086292,-0.8995005700334906,-0.819568882119283
1782829358783115300,9.678115234375,-0.4321352794796228,-0.8737273924820125,-0.776203787645325
1782829358793043500,9.68804345703125,-0.5369231031656265,-0.8792074313282966,-0.7049285766564309
1782829358802972700,9.69797265625,-0.6721551649540662,-0.8244948672793805,-0.5671305368375033
1782829358812901400,9.7079013671875,-0.7637602664619684,-0.7524655499875545,-0.5383751286048442
1782829358822830300,9.717830322265625,-0.8298544946163893,-0.5504856184415519,-0.3300709624733776
1782829358832759300,9.72775927734375,-0.9471341356068849,-0.38500820212364195,-0.1918487058930099
1782829358842687500,9.7376875,-1.0440215614318846,-0.17188786788210272,-0.14722557418197393
1782829358852616400,9.747616455078125,-1.1648217777639627,0.006860971810668706,0.027363296287134287
1782829358862545400,9.75754541015625,-1.337910399737954,0.044427170747518535,0.04068908019773662
1782829358872474400,9.767474365234374,-1.2169213828355072,0.12076587567105888,0.09484678684286772
1782829358882403300,9.7774033203125,-1.1566887401908637,0.224375157096982,0.13327150230519472
1782829358892332500,9.78733251953125,-1.020976785930991,0.3017538725927472,0.19942900495417415
1782829358902260500,9.797260498046874,-0.8408581191897392,0.32357845864892004,0.31537140599153934
1782829358912189400,9.807189453125,-0.5455635057389736,0.41356706487089395,0.36089272865131494
1782829358922118400,9.817118408203125,-0.41726738069355485,0.5062333658695221,0.31332112239822746
1782829358932047400,9.82704736328125,-0.3634609717041254,0.44288288346529003,0.34322584679648277
1782829358941976600,9.8369765625,-0.3271487183511257,0.3523939265057444,0.36838776058182116
1782829358951904500,9.846904541015626,-0.29033377617299555,0.31822569944411516,0.41857115676850076
1782829358961833500,9.85683349609375,-0.1731400599002838,0.33304449839144945,0.4375330468699336
1782829358971763000,9.866762939453125,0.08896072447896003,0.4500885770604014,0.4180250671930611
1782829358981692000,9.87669189453125,0.17264613890349864,0.5323329988963902,0.4616718281526118
1782829358991621000,9.88662109375,0.30269992127120493,0.5776074341230094,0.4974103732708841
1782829359001550000,9.896550048828125,0.3139104665935039,0.6041250003010035,0.5199911114566028
1782829359011481000,9.906481201171875,0.323498379150033,0.6718037211678922,0.521136262903735
1782829359021409000,9.916408935546874,0.32779695312678814,0.7315763450853526,0.5216613827563822
1782829359031338000,9.926337890625,0.3349906640231609,0.7892217477157711,0.4907694008864462
1782829359041267000,9.936266845703125,0.41385552642345425,0.865613644131273,0.3868433816615492
1782829359051196000,9.94619580078125,0.4043769194602966,0.9515255024336278,0.37356669758968053
1782829359061125000,9.956125,0.32613574191629885,1.0214511254444718,0.39136633897870776
1782829359071053000,9.966052978515625,0.4244242667108774,1.0136674858309327,0.5393506956387311
1782829359080982000,9.97598193359375,0.420646501737833,0.9520872279696166,0.6232218418937177
1782829359090911000,9.985910888671874,0.46028877629637716,0.9105984487615525,0.5682711582399904
1782829359100840000,9.99583984375,0.4209872779995203,0.7951495303295553,0.5221079574801027
1782829359110769200,10.00576904296875,0.43228140995204445,0.7657686836749314,0.5803417544577271
1782829359120697900,10.01569775390625,0.4402414290457964,0.7757179768897593,0.7607900915447622
1782829359130626000,10.0256259765625,0.4929834236741066,0.8346104569718241,0.6268627556793391
1782829359140555000,10.035554931640625,0.5973673427343368,0.8895727579981089,0.5172167513724416
1782829359150484000,10.04548388671875,0.5424427433699369,0.8048384190425276,0.42469132014922795
1782829359160413000,10.055412841796874,0.5183569343835115,0.6805158738031983,0.4503679785236716
1782829359170342000,10.065341796875,0.3451648520350456,0.557409426355362,0.46497496135123073
1782829359180270000,10.07527001953125,0.21836334946155547,0.4126540416792035,0.390664620450139
1782829359190198800,10.08519873046875,0.16944412799179553,0.33804157602638,0.4518092633731663
1782829359200127700,10.095127685546874,0.041167292168736457,0.31407442498356103,0.6329587344668806
1782829359210057000,10.105056884765625,-0.0880950475603342,0.2604984637491405,0.663272478057444
1782829359219986000,10.11498583984375,-0.14604220961630343,0.2878257388748228,0.5216144748747349
1782829359229915000,10.124914794921875,-0.33539456864893435,0.41304041064828634,0.40479982104748485
1782829359239842800,10.1348427734375,-0.6337526613235474,0.39035774645805354,0.256788941706717
1782829359249771800,10.144771728515625,-0.7801163579791783,0.31016105093210933,0.13034231698550283
1782829359259701000,10.154700927734375,-0.8404945465743541,0.32122517352104185,0.13386837221980094
1782829359269630000,10.1646298828125,-0.9264145881831646,0.31464491834789515,0.17109627911299466
1782829359279559000,10.174558837890626,-0.9305851518660784,0.2414151392251253,0.12795607943609355
1782829359289486800,10.18448681640625,-0.8931091154307127,0.16684388236552475,0.08364869914334266
1782829359299416000,10.194416015625,-0.8328776418298482,0.11139832786694169,0.1133521653484553
1782829359309345000,10.204344970703126,-0.7023655943006276,0.058358080944418904,0.2639593813253566
1782829359319274000,10.21427392578125,-0.4866349314302206,0.10817644321098924,0.4214173765124753
1782829359329203000,10.224202880859375,-0.27059096482694145,0.22250907096415756,0.34130419455152006
1782829359339132000,10.2341318359375,-0.08550035489201545,0.25007687684744595,0.13259301852174102
1782829359349060000,10.24406005859375,0.14829028080403803,0.20782763466089962,0.10312792764976621
1782829359358989000,10.253989013671875,0.40050270837545393,0.13272592418640852,0.2517670218914747
1782829359368918000,10.26391796875,0.5955886426240206,0.032961920011788604,0.3396369919916615
1782829359378847000,10.273846923828126,0.7451964357674121,-0.04748378183916211,0.2946621607661247
1782829359388776000,10.28377587890625,0.7871224373489618,-0.07231324879974127,0.2511747916193679
1782829359398704000,10.2937041015625,0.6289204188615083,-0.1609261827543378,0.21491430498622358
1782829359408633000,10.303633056640624,0.41147184615731236,-0.24361571800932286,0.238350308294408
1782829359418562000,10.31356201171875,0.3160819654136896,-0.19591697824522852,0.2826644105888903
1782829359428490800,10.32349072265625,0.35226913108229635,-0.10846329732835293,0.22000172778572885
1782829359438420000,10.333419921875,0.2675830151826143,-0.09936652928963303,0.0924871815720573
1782829359448349000,10.343348876953126,0.08302607373297215,-0.20234686516225336,0.07305149994641542
1782829359458276900,10.35327685546875,0.0331570041924715,-0.29440935504883525,0.1774423236714676
1782829359468205800,10.363205810546875,0.06751403182446956,-0.3056168316312134,0.1947570676203817
1782829359478134800,10.373134765625,0.1153922198086977,-0.2721213892646134,0.15217373464126138
1782829359488064000,10.38306396484375,0.18506138384044168,-0.26240809676274657,0.12908274537846445
1782829359497993000,10.392992919921875,0.10726035127937793,-0.31919980517327784,0.12251695712208747
1782829359507921000,10.4029208984375,-0.05496726946234703,-0.40309433230385183,0.18191329507306217
1782829359517849900,10.412849853515626,-0.05934358485043049,-0.445421169771254,0.24157964560445397
1782829359527778800,10.42277880859375,0.0632464375078678,-0.37181276659443974,0.20658574484102427
1782829359537708000,10.4327080078125,0.13957272134125231,-0.33444866610094903,0.08858480383865534
1782829359547637000,10.442636962890624,0.15376140569150448,-0.4165330750696361,0.020326200724579392
1782829359557566000,10.45256591796875,0.09267945274114608,-0.4834745677031576,0.06675696637947112
1782829359567494000,10.462493896484375,0.16476853739619254,-0.599610737746954,0.011545037973672151
1782829359577422800,10.4724228515625,0.11161971553266048,-0.62392830966264,-0.02751081499904394
1782829359587352000,10.48235205078125,-0.12126315766870975,-0.6325406551852822,-0.15960008524972943
1782829359597281000,10.492281005859375,-0.10021043276786804,-0.6600203443937003,-0.4386760063599795
1782829359607210000,10.5022099609375,-0.04160802167356014,-0.5839565108887851,-0.23699750544596462
1782829359617139000,10.512138916015624,0.17667992446422576,-0.5441327422834933,-0.0408712318316102
1782829359627067000,10.52206689453125,1.7072744580060242,-0.47906449617594477,0.18685133599713444
1782829359636996000,10.53199609375,0.6242407366126775,-0.4122606584474444,0.9137306093074381
1782829359646925000,10.541925048828125,-0.8614870657205581,-1.2236987680159508,1.047922952784598
1782829359656854000,10.55185400390625,0.03105038730204105,-1.3716530948638914,0.24621307755876332
1782829359666783000,10.561782958984375,0.08063479468226432,-0.3696773620009422,-0.07021908953208476
1782829359676711000,10.5717109375,0.282031811773777,-0.30011574999690055,0.005299129321426153
1782829359686640000,10.58164013671875,0.08830021474361419,-0.603589432119578,0.040318091460876164
1782829359696569000,10.591569091796876,-0.15855682327449322,-0.5854132855683565,0.028739114684984086
1782829359706497800,10.601497802734375,0.09735212072730064,-0.5684112973630427,0.04706628707945346
1782829359716426800,10.6114267578125,0.06687105774581432,-0.5857746662266552,0.2919057381974533
1782829359726356000,10.62135595703125,-0.4775029459476471,-0.6939533013947308,0.6718602005954831
