time,seconds_elapsed,z,y,x
1782829349191911200,0.0869111328125,-0.018406786024570465,-0.11020424962043762,0.10882765054702759
1782829349201840400,0.09684033203125,-0.024513766169548035,-0.052292563021183014,0.09208061546087265
1782829349211769300,0.106769287109375,-0.020128339529037476,0.013361281715333462,0.06228702887892723
1782829349221697300,0.116697265625,-0.008431206457316875,0.050391290336847305,0.03226158022880554
1782829349231626200,0.126626220703125,0.003061131574213505,0.04989327862858772,0.005514920689165592
1782829349241555200,0.13655517578125,0.009750905446708202,0.028019364923238754,-0.008119620382785797
1782829349251484400,0.146484375,0.014601054601371288,0.005625375546514988,-0.00769830821081996
1782829349261413400,0.156413330078125,0.015219440683722496,-0.004381468519568443,0.0046206577681005
1782829349271341300,0.16634130859375,0.013003157451748848,-0.03475935012102127,0.0269539263099432
1782829349281270300,0.176270263671875,0.006353422533720732,-0.05596104636788368,0.052687868475914
1782829349291199200,0.18619921875,-0.0048140110448002815,-0.06208578124642372,0.0806659683585167
1782829349301128400,0.19612841796875,-0.015559867024421692,-0.06458539515733719,0.10598655045032501
1782829349311056400,0.206056396484375,-0.028213609009981155,-0.06757266074419022,0.1152932271361351
1782829349320985300,0.2159853515625,-0.03100229613482952,-0.04691790044307709,0.10358455032110214
1782829349330914300,0.225914306640625,-0.012795859947800636,-0.007014961447566748,0.07029983401298523
1782829349340843500,0.235843505859375,0.016486749053001404,0.027970388531684875,0.028748769313097
1782829349350771500,0.245771484375,0.05268017202615738,0.05220542475581169,-0.0028003682382404804
1782829349360700400,0.255700439453125,0.07534864544868469,0.054441940039396286,-0.013125360943377018
1782829349370629400,0.26562939453125,0.0879262238740921,0.03532177582383156,0.0013625016435980797
1782829349380558300,0.275558349609375,0.09697911143302917,0.022539319470524788,0.055769726634025574
1782829349390486300,0.285486328125,0.106408029794693,0.016161048784852028,0.125615656375885
1782829349400415500,0.29541552734375,0.10988070070743561,-0.007385247852653265,0.19713790714740753
1782829349410344400,0.305344482421875,0.09579604119062424,-0.061258867383003235,0.23181040585041046
1782829349420273400,0.3152734375,0.07669327408075333,-0.09409190714359283,0.22709865868091583
1782829349430201300,0.325201416015625,0.06494767218828201,-0.06804672628641129,0.18936006724834442
1782829349440130300,0.33513037109375,0.057320378720760345,-0.020787566900253296,0.11902469396591187
1782829349450059500,0.3450595703125,0.06120113283395767,0.01207264605909586,0.03987953066825867
1782829349459988500,0.354988525390625,0.06436346471309662,0.02722945064306259,-0.033761538565158844
1782829349469916400,0.36491650390625,0.05617663636803627,0.03421332314610481,-0.07927709072828293
1782829349479845400,0.374845458984375,0.036115847527980804,0.06888230890035629,-0.08364579826593399
1782829349489774300,0.3847744140625,0.022462621331214905,0.10810001939535141,-0.0792398601770401
1782829349499703300,0.394703369140625,0.017789479345083237,0.11255957186222076,-0.07339721918106079
1782829349509632300,0.40463232421875,0.03766997531056404,0.09126360714435577,-0.06314059346914291
1782829349519560400,0.414560546875,0.04463387280702591,0.08353140950202942,-0.03218716382980347
1782829349529489200,0.4244892578125,0.03921381011605263,0.08047810196876526,-0.003788813017308712
1782829349539418000,0.434418212890625,0.0323549285531044,0.07315032929182053,0.020938459783792496
1782829349549347300,0.444347412109375,0.03648682311177254,0.08277339488267899,0.036822885274887085
1782829349559275300,0.454275146484375,0.032430652529001236,0.08912849426269531,0.03785901889204979
1782829349569204200,0.464204345703125,0.027299541980028152,0.09478212147951126,0.020991357043385506
1782829349579133200,0.47413330078125,0.023882705718278885,0.09001105278730392,-0.01378421951085329
1782829349589062100,0.484062255859375,0.024547964334487915,0.07332341372966766,-0.03322955593466759
1782829349598990300,0.493990234375,0.029459452256560326,0.06613503396511078,-0.0434710718691349
1782829349608919300,0.503919189453125,0.0348329097032547,0.07808996737003326,-0.0414595864713192
1782829349618848300,0.51384814453125,0.046519216150045395,0.07611339539289474,-0.03051244281232357
1782829349628777200,0.523777099609375,0.056392088532447815,0.07606492936611176,-0.015152927488088608
1782829349638705200,0.533705078125,0.07594741880893707,0.06888324022293091,0.0029259994626045227
1782829349648634400,0.54363427734375,0.09819573163986206,0.04024679586291313,0.019777685403823853
1782829349658563300,0.553563232421875,0.11396093666553497,0.007322409190237522,0.03766658902168274
1782829349668492300,0.5634921875,0.10748624801635742,-0.041121289134025574,0.05002738535404205
1782829349678420200,0.573420166015625,0.10018155723810196,-0.07712146639823914,0.06240476295351982
1782829349688349200,0.58334912109375,0.08992864936590195,-0.07160685956478119,0.06668951362371445
1782829349698278400,0.5932783203125,0.08309657871723175,-0.03863419219851494,0.06841106712818146
1782829349708207400,0.603207275390625,0.09082028269767761,0.032927077263593674,0.059847671538591385
1782829349718135300,0.61313525390625,0.11286797374486923,0.10458037257194519,0.03999588266015053
1782829349728064300,0.623064208984375,0.136358380317688,0.14132027328014374,0.01630653440952301
1782829349737993200,0.6329931640625,0.1545940339565277,0.14149855077266693,0.004451419226825237
1782829349747922400,0.64292236328125,0.15710671246051788,0.10779011994600296,0.0037922868505120277
1782829349757850400,0.652850341796875,0.14708790183067322,0.052678417414426804,0.014106729999184608
1782829349767779300,0.662779296875,0.13475453853607178,-0.00004152115434408188,0.025113839656114578
1782829349777708300,0.672708251953125,0.13537682592868805,-0.024390023201704025,0.018277302384376526
1782829349787637200,0.68263720703125,0.15422002971172333,-0.03559447452425957,-0.00005856109783053398
1782829349797565200,0.692565185546875,0.17581480741500854,-0.01917981542646885,-0.02719217725098133
1782829349807494400,0.702494384765625,0.201650932431221,-0.0179920457303524,-0.059159696102142334
1782829349817423400,0.71242333984375,0.23245054483413696,-0.033700406551361084,-0.07558489590883255
1782829349827352300,0.722352294921875,0.2450859248638153,-0.050792042165994644,-0.059113238006830215
1782829349837281300,0.73228125,0.236852765083313,-0.036054693162441254,-0.025319112464785576
1782829349847209200,0.742209228515625,0.20435474812984467,-0.029067624360322952,0.008272934705018997
1782829349857138400,0.752138427734375,0.1658710092306137,-0.01376749761402607,0.039382919669151306
1782829349867067400,0.7620673828125,0.13585904240608215,0.007888528518378735,0.05942852795124054
1782829349876996400,0.771996337890625,0.12479093670845032,0.021865032613277435,0.05626332387328148
1782829349886924300,0.78192431640625,0.12705808877944946,0.025694657117128372,0.045231450349092484
1782829349896853200,0.791853271484375,0.13329637050628662,0.008866498246788979,0.013456486165523529
1782829349906782500,0.801782470703125,0.12890906631946564,0.0018703741952776909,-0.020974989980459213
1782829349916711400,0.81171142578125,0.11431362479925156,-0.014250804670155048,-0.04413143917918205
1782829349926639400,0.821639404296875,0.08303505927324295,-0.023752432316541672,-0.06599439680576324
1782829349936568300,0.831568359375,0.05651494860649109,-0.01770256645977497,-0.07612288743257523
1782829349946497500,0.84149755859375,0.041504308581352234,-0.0288966316729784,-0.08600054681301117
1782829349956426500,0.851426513671875,0.02667955309152603,-0.06793958693742752,-0.09759297221899033
1782829349966355000,0.86135498046875,0.016755815595388412,-0.09415601193904877,-0.09850563108921051
1782829349976284000,0.871283935546875,0.003741305321455002,-0.07300617545843124,-0.09268423169851303
1782829349986212900,0.881212890625,-0.007587782107293606,-0.03601113706827164,-0.08492324501276016
1782829349996141800,0.891141845703125,-0.009742546826601028,0.0048967571929097176,-0.08755458891391754
1782829350006070000,0.901070068359375,0.0023463405668735504,0.036321524530649185,-0.08694179356098175
1782829350015998700,0.910998779296875,0.02233567088842392,0.05717277154326439,-0.08923306316137314
1782829350025928000,0.920927978515625,0.044501692056655884,0.04322180151939392,-0.09125600010156631
1782829350035857000,0.93085693359375,0.0495249480009079,-0.004200306721031666,-0.08763383328914642
1782829350045784800,0.940784912109375,0.0364360436797142,-0.059109896421432495,-0.08175303786993027
1782829350055713800,0.9507138671875,0.010376304388046265,-0.09992130100727081,-0.08422274887561798
1782829350065642800,0.960642822265625,-0.02273983508348465,-0.12501919269561768,-0.10488994419574738
1782829350075572000,0.970572021484375,-0.05700815096497536,-0.11546128243207932,-0.13974200189113617
1782829350085500000,0.9805,-0.08024956285953522,-0.0628337562084198,-0.172573983669281
1782829350095428900,0.990428955078125,-0.08877228945493698,0.04515979811549187,-0.18140336871147156
1782829350105357800,1.00035791015625,-0.10075998306274414,0.12806667387485504,-0.1740354597568512
1782829350115287000,1.010287109375,-0.1054529994726181,0.17907465994358063,-0.14681243896484375
1782829350125215000,1.020215087890625,-0.11027172952890396,0.19318275153636932,-0.11265473812818527
1782829350135144000,1.03014404296875,-0.10786236822605133,0.16939330101013184,-0.0756644532084465
1782829350145073000,1.040072998046875,-0.10927490890026093,0.10364197939634323,-0.058538198471069336
1782829350155001900,1.050001953125,-0.10972338169813156,0.02233003079891205,-0.053673721849918365
1782829350164931000,1.05993115234375,-0.10079673677682877,-0.04648445174098015,-0.06437750160694122
1782829350174859000,1.06985888671875,-0.08424261212348938,-0.076130710542202,-0.08404800295829773
1782829350184788000,1.0797880859375,-0.06744606047868729,-0.07207099348306656,-0.09745355695486069
1782829350194717000,1.089717041015625,-0.06293155252933502,-0.05213514342904091,-0.10482540726661682
1782829350204646000,1.09964599609375,-0.06236909329891205,-0.029410921037197113,-0.1031406968832016
1782829350214573800,1.10957373046875,-0.07243034243583679,-0.016610324382781982,-0.10515569150447845
1782829350224503000,1.1195029296875,-0.07127586007118225,-0.04523584246635437,-0.10405021160840988
1782829350234432000,1.129431884765625,-0.05717264115810394,-0.08462171256542206,-0.08172550052404404
1782829350244361000,1.13936083984375,-0.04916398599743843,-0.10566920042037964,-0.05340757593512535
1782829350254289000,1.149288818359375,-0.0396052822470665,-0.12417987734079361,-0.029975660145282745
1782829350264217900,1.1592177734375,-0.04058372601866722,-0.15921854972839355,-0.03242656588554382
1782829350274147000,1.16914697265625,-0.044249922037124634,-0.1848514974117279,-0.07337500154972076
1782829350284076000,1.179075927734375,-0.05005055293440819,-0.2142844796180725,-0.12577269971370697
1782829350294004000,1.18900390625,-0.054527416825294495,-0.24393360316753387,-0.16945552825927734
1782829350303933000,1.198932861328125,-0.059595681726932526,-0.2545923888683319,-0.1689079850912094
1782829350313862000,1.20886181640625,-0.06813439726829529,-0.24421264231204987,-0.13891291618347168
1782829350323791000,1.218791015625,-0.0826861709356308,-0.2123686969280243,-0.09915405511856079
1782829350333719000,1.228718994140625,-0.08123856782913208,-0.15775172412395477,-0.06011274829506874
1782829350343648000,1.23864794921875,-0.08752202987670898,-0.09811795502901077,-0.030291734263300896
1782829350353577000,1.248576904296875,-0.10248198360204697,-0.07456129789352417,-0.0013699647970497608
1782829350363506000,1.258505859375,-0.11883432418107986,-0.07190452516078949,0.02043892815709114
1782829350373435100,1.26843505859375,-0.12380015105009079,-0.0995769202709198,0.030325444415211678
1782829350383363000,1.278363037109375,-0.11930819600820541,-0.12931324541568756,0.03377370536327362
1782829350393292000,1.2882919921875,-0.12285605818033218,-0.16989822685718536,0.044980816543102264
1782829350403221000,1.298220947265625,-0.13627545535564423,-0.21577729284763336,0.0662914365530014
1782829350413150000,1.30814990234375,-0.1575084924697876,-0.25845015048980713,0.08448290824890137
1782829350423078100,1.318078125,-0.17801642417907715,-0.2846679091453552,0.09999608993530273
1782829350433007000,1.328007080078125,-0.19313998520374298,-0.27550405263900757,0.10879480838775635
1782829350442936000,1.33793603515625,-0.2102411985397339,-0.23739849030971527,0.10520966351032257
1782829350452864800,1.34786474609375,-0.21970580518245697,-0.198248028755188,0.08348213136196136
1782829350462793000,1.35779296875,-0.2327747344970703,-0.1481694132089615,0.06147749722003937
1782829350472722200,1.36772216796875,-0.2544959485530853,-0.12647885084152222,0.020053446292877197
1782829350482651000,1.37765087890625,-0.26789402961730957,-0.1517336070537567,-0.03472138196229935
1782829350492579800,1.387579833984375,-0.2869844436645508,-0.19465172290802002,-0.09928317368030548
1782829350502508000,1.397508056640625,-0.30724790692329407,-0.24639640748500824,-0.15729454159736633
1782829350512437000,1.40743701171875,-0.34217357635498047,-0.27051132917404175,-0.18855242431163788
1782829350522366000,1.417365966796875,-0.3783973753452301,-0.2658925950527191,-0.20078566670417786
1782829350532295000,1.427294921875,-0.42262783646583557,-0.2536854147911072,-0.19242148101329803
1782829350542223000,1.43722314453125,-0.4515191614627838,-0.22204093635082245,-0.16288408637046814
1782829350552151800,1.44715185546875,-0.4555733799934387,-0.15651953220367432,-0.11764499545097351
1782829350562080800,1.457080810546875,-0.43265074491500854,-0.04481058567762375,-0.05615393444895744
1782829350572010000,1.467010009765625,-0.3914828300476074,0.07503588497638702,0.016678156331181526
1782829350581938000,1.47693798828125,-0.34771937131881714,0.1490427404642105,0.0816853865981102
1782829350591867000,1.486866943359375,-0.30667027831077576,0.16442130506038666,0.12764431536197662
1782829350601795800,1.4967958984375,-0.26847386360168457,0.1159224733710289,0.15989360213279724
1782829350611724800,1.506724853515625,-0.2257377803325653,0.04343327507376671,0.17376157641410828
1782829350621654000,1.516654052734375,-0.18852384388446808,-0.037208039313554764,0.175724059343338
1782829350631582000,1.52658203125,-0.17023155093193054,-0.12052614241838455,0.1797894984483719
1782829350641511000,1.536510986328125,-0.1607552319765091,-0.17337417602539062,0.19527605175971985
1782829350651439900,1.54643994140625,-0.16713634133338928,-0.16860920190811157,0.22301071882247925
1782829350661368800,1.556368896484375,-0.16875794529914856,-0.1235136166214943,0.250820517539978
1782829350671296800,1.566296875,-0.16409119963645935,-0.08320510387420654,0.2682071030139923
1782829350681226000,1.57622607421875,-0.17623388767242432,-0.06278558820486069,0.24864350259304047
1782829350691155000,1.586155029296875,-0.19694732129573822,-0.05004391819238663,0.19155623018741608
1782829350701084000,1.596083984375,-0.2124149650335312,-0.024649616330862045,0.1301562488079071
1782829350711011800,1.60601171875,-0.23382392525672913,-0.008406253531575203,0.07229243963956833
1782829350720941000,1.615941162109375,-0.25519049167633057,-0.02115640416741371,0.031155917793512344
1782829350730870000,1.6258701171875,-0.26538676023483276,-0.03665490821003914,0.01866927742958069
1782829350740799000,1.635799072265625,-0.2769227623939514,-0.06186306104063988,0.02914721891283989
1782829350750727000,1.645726806640625,-0.2957180142402649,-0.07740896195173264,0.05967400223016739
1782829350760656000,1.65565576171875,-0.31280753016471863,-0.06941468268632889,0.09320986270904541
1782829350770585000,1.665585205078125,-0.33184051513671875,-0.052717987447977066,0.12288724631071091
1782829350780514000,1.67551416015625,-0.33593326807022095,-0.00953802838921547,0.1499771773815155
1782829350790442000,1.68544189453125,-0.3204275369644165,0.03799929469823837,0.1751205027103424
1782829350800371000,1.695370849609375,-0.3008924722671509,0.08717136085033417,0.20517268776893616
1782829350810300000,1.7052998046875,-0.273118257522583,0.12476669996976852,0.23033976554870605
1782829350820229000,1.71522900390625,-0.24541260302066803,0.13229385018348694,0.23579604923725128
1782829350830158000,1.725157958984375,-0.22074514627456665,0.10357058048248291,0.21539868414402008
1782829350840086000,1.7350859375,-0.2065345197916031,0.06454381346702576,0.17815224826335907
1782829350850015000,1.745014892578125,-0.2046661376953125,0.029176320880651474,0.1375163197517395
1782829350859944000,1.75494384765625,-0.21588923037052155,0.0016312450170516968,0.09354300051927567
1782829350869873200,1.764873046875,-0.22380638122558594,-0.022790763527154922,0.05485372617840767
1782829350879801000,1.774801025390625,-0.22397388517856598,-0.011840377934277058,0.03658497706055641
1782829350889730000,1.78472998046875,-0.21897104382514954,0.026304051280021667,0.029239054769277573
1782829350899659000,1.794658935546875,-0.2082052081823349,0.08527681976556778,0.03783627226948738
1782829350909588000,1.804587890625,-0.1902877390384674,0.1591697335243225,0.048047956079244614
1782829350919516000,1.814515869140625,-0.17381128668785095,0.21874970197677612,0.05032495781779289
1782829350929445000,1.824445068359375,-0.16555282473564148,0.2616698443889618,0.04710263013839722
1782829350939374000,1.8343740234375,-0.16129735112190247,0.2592218518257141,0.037825245410203934
1782829350949302800,1.844302734375,-0.14380404353141785,0.22667792439460754,0.0298432856798172
1782829350959231000,1.85423095703125,-0.12775157392024994,0.1874796599149704,0.03252029791474342
1782829350969159400,1.864159423828125,-0.1045578271150589,0.14643527567386627,0.04164613038301468
1782829350979088400,1.87408837890625,-0.08347944170236588,0.12700405716896057,0.0455002561211586
1782829350989017300,1.884017333984375,-0.05747074633836746,0.1447151154279709,0.034112825989723206
1782829350998945500,1.893945556640625,-0.036474116146564484,0.1602964699268341,0.01049191877245903
1782829351008874500,1.90387451171875,-0.025685470551252365,0.17746537923812866,-0.02141980081796646
1782829351018803500,1.913803466796875,-0.017501577734947205,0.19248507916927338,-0.0352967344224453
1782829351028732400,1.923732421875,-0.01443894300609827,0.20906378328800201,-0.041283003985881805
1782829351038661400,1.933661376953125,-0.015469052828848362,0.21614566445350647,-0.045010633766651154
1782829351048589600,1.943589599609375,-0.0008629467338323593,0.2091250717639923,-0.05391938239336014
1782829351058518500,1.9535185546875,0.024420039728283882,0.18076428771018982,-0.06294909864664078
1782829351068447200,1.963447265625,0.048338595777750015,0.1318795084953308,-0.07409173995256424
1782829351078376200,1.973376220703125,0.06737007945775986,0.054637979716062546,-0.05952557548880577
1782829351088304400,1.983304443359375,0.09439166635274887,-0.016018835827708244,-0.040824372321367264
1782829351098233300,1.9932333984375,0.1273064762353897,-0.06305398792028427,-0.0243239589035511
1782829351108162300,2.003162353515625,0.1525697559118271,-0.08919978886842728,-0.017473449930548668
1782829351118091300,2.01309130859375,0.17347344756126404,-0.057880744338035583,-0.00304524227976799
1782829351128019500,2.02301953125,0.18280711770057678,-0.008034087717533112,0.006929812021553516
1782829351137948200,2.0329482421875,0.19115452468395233,0.0357339009642601,0.018766231834888458
1782829351147877400,2.04287744140625,0.1923178732395172,0.06961216032505035,0.030573440715670586
1782829351157806300,2.052806396484375,0.19404733180999756,0.07918009161949158,0.03683719411492348
1782829351167734300,2.062734375,0.1897379755973816,0.06763448566198349,0.03675658628344536
1782829351177663200,2.072663330078125,0.1811966896057129,0.04717608168721199,0.020675089210271835
1782829351187592200,2.08259228515625,0.18042543530464172,0.03348269313573837,-0.010288629680871964
1782829351197521400,2.092521484375,0.18751344084739685,0.017551928758621216,-0.038513608276844025
1782829351207450400,2.102450439453125,0.19394463300704956,0.011092746630311012,-0.060963116586208344
1782829351217378300,2.11237841796875,0.20002569258213043,0.0022324109449982643,-0.07787764817476273
1782829351227307300,2.122307373046875,0.20219802856445312,0.0036382032558321953,-0.08089830726385117
1782829351237236200,2.132236328125,0.20609529316425323,0.02270563691854477,-0.08094384521245956
1782829351247165400,2.14216552734375,0.20135247707366943,0.04822353273630142,-0.06791617721319199
1782829351257093400,2.15209326171875,0.196346253156662,0.06636898219585419,-0.05186823382973671
1782829351267022300,2.162022216796875,0.18655399978160858,0.09900150448083878,-0.015477634966373444
1782829351276951300,2.171951416015625,0.1806713342666626,0.13651666045188904,0.019615106284618378
1782829351286880300,2.18188037109375,0.18821881711483002,0.15277890861034393,0.04708492010831833
1782829351296808400,2.191808349609375,0.2012621909379959,0.1574607491493225,0.05641104653477669
1782829351306737400,2.2017373046875,0.20879830420017242,0.14991232752799988,0.041756585240364075
1782829351316666400,2.211666259765625,0.22301000356674194,0.1410224288702011,0.008735254406929016
1782829351326595300,2.22159521484375,0.2297198325395584,0.1343061923980713,-0.0167583879083395
1782829351336523300,2.231523193359375,0.226817786693573,0.10861387848854065,-0.03618215397000313
1782829351346452500,2.241452392578125,0.2269991636276245,0.10935962200164795,-0.04512578621506691
1782829351356381400,2.25138134765625,0.23301710188388824,0.11371894925832748,-0.05585433170199394
1782829351366310400,2.261310302734375,0.24734969437122345,0.13369017839431763,-0.06704770028591156
1782829351376239400,2.2712392578125,0.2712893784046173,0.16428111493587494,-0.058213457465171814
1782829351386167300,2.281167236328125,0.2972809672355652,0.1724262535572052,-0.035189125686883926
1782829351396096500,2.291096435546875,0.31208866834640503,0.15956531465053558,-0.005647213198244572
1782829351406025500,2.301025390625,0.2982191741466522,0.14122910797595978,0.024013664573431015
1782829351415954400,2.310954345703125,0.26693183183670044,0.13381913304328918,0.0291527658700943
1782829351425882400,2.32088232421875,0.22811724245548248,0.14238221943378448,0.006891978904604912
1782829351435811300,2.330811279296875,0.21057499945163727,0.15860088169574738,-0.04527934640645981
1782829351445740500,2.340740478515625,0.21142640709877014,0.16431628167629242,-0.10084700584411621
1782829351455669500,2.35066943359375,0.23442280292510986,0.13789533078670502,-0.14191694557666779
1782829351465597400,2.360597412109375,0.2634384036064148,0.12603789567947388,-0.14652886986732483
1782829351475526400,2.3705263671875,0.29219865798950195,0.12361148744821548,-0.133759543299675
1782829351485455400,2.380455322265625,0.33325067162513733,0.11921299248933792,-0.10124948620796204
1782829351495384600,2.390384521484375,0.37918248772621155,0.12105084210634232,-0.05493525043129921
1782829351505312500,2.4003125,0.4245157837867737,0.14906808733940125,0.013732041232287884
1782829351515241500,2.410241455078125,0.4601307511329651,0.2148958444595337,0.09459786117076874
1782829351525170400,2.42017041015625,0.4834012985229492,0.2876358926296234,0.15395811200141907
1782829351535099400,2.430099365234375,0.4951525032520294,0.37112119793891907,0.16923214495182037
1782829351545028400,2.4400283203125,0.510749101638794,0.4645150303840637,0.13336031138896942
1782829351554956500,2.44995654296875,0.5138341188430786,0.5279797315597534,0.07007694989442825
1782829351564885500,2.459885498046875,0.5105833411216736,0.5531091094017029,-0.004871208220720291
1782829351574814200,2.469814208984375,0.5100496411323547,0.5403775572776794,-0.06298884004354477
1782829351584743200,2.4797431640625,0.5111538171768188,0.48942336440086365,-0.08354735374450684
1782829351594671400,2.48967138671875,0.5236448049545288,0.4348549246788025,-0.05878155678510666
1782829351604600300,2.499600341796875,0.5413416624069214,0.3986895978450775,0.002556929364800453
1782829351614529300,2.509529296875,0.5622367858886719,0.3356645703315735,0.08053455501794815
1782829351624458200,2.519458251953125,0.5889813303947449,0.24761363863945007,0.15475139021873474
1782829351634386200,2.52938623046875,0.6149404644966125,0.14442148804664612,0.20880930125713348
1782829351644315400,2.5393154296875,0.6336170434951782,0.04631195217370987,0.2348913997411728
1782829351654244400,2.549244384765625,0.6530123353004456,-0.011705545708537102,0.22133192420005798
1782829351664173300,2.55917333984375,0.6799256801605225,-0.046757858246564865,0.19416043162345886
1782829351674101200,2.569101318359375,0.7031934857368469,-0.05266368389129639,0.16903777420520782
1782829351684030200,2.5790302734375,0.7181710004806519,-0.07847977429628372,0.1562694013118744
1782829351693959400,2.58895947265625,0.7071223258972168,-0.11247182637453079,0.15233883261680603
1782829351703888400,2.598888427734375,0.672375500202179,-0.14043404161930084,0.14735470712184906
1782829351713817300,2.6088173828125,0.6143641471862793,-0.16154678165912628,0.13510604202747345
1782829351723745300,2.618745361328125,0.5537291765213013,-0.16933183372020721,0.11019590497016907
1782829351733674200,2.62867431640625,0.4816776216030121,-0.18037302792072296,0.06340736150741577
1782829351743603500,2.638603515625,0.41039222478866577,-0.15718820691108704,0.013440730981528759
1782829351753532400,2.648532470703125,0.3460289537906647,-0.1284031718969345,-0.04345504194498062
1782829351763460400,2.65846044921875,0.2861127257347107,-0.11456672847270966,-0.0874180719256401
1782829351773389300,2.668389404296875,0.23746182024478912,-0.08883552998304367,-0.10448361188173294
1782829351783318300,2.678318359375,0.1983272135257721,-0.05936584249138832,-0.09596367925405502
1782829351793247500,2.68824755859375,0.16184508800506592,-0.036578767001628876,-0.07661554962396622
1782829351803175400,2.698175537109375,0.14105965197086334,0.002174501307308674,-0.03920797258615494
1782829351813104400,2.7081044921875,0.12917795777320862,0.024096310138702393,0.001172472257167101
1782829351823033300,2.718033447265625,0.12800545990467072,0.032319094985723495,0.028032498434185982
1782829351832962300,2.72796240234375,0.1308305412530899,0.05775095149874687,0.05081690847873688
1782829351842891500,2.7378916015625,0.13817697763442993,0.09372104704380035,0.051431868225336075
1782829351852819500,2.7478193359375,0.1447152942419052,0.11288967728614807,0.04690396040678024
1782829351862748400,2.75774853515625,0.13560834527015686,0.11722397804260254,0.03910649195313454
1782829351872677400,2.767677490234375,0.12330082058906555,0.12541238963603973,0.031984131783246994
1782829351882606300,2.7776064453125,0.11974257230758667,0.11691823601722717,0.03293541446328163
1782829351892534300,2.7875341796875,0.11250463128089905,0.08906291425228119,0.0394846610724926
1782829351902463500,2.79746337890625,0.1080869734287262,0.03763105720281601,0.03675215691328049
1782829351912392400,2.807392333984375,0.11209449172019958,-0.013066740706562996,0.028075313195586205
1782829351922321400,2.8173212890625,0.11890340596437454,-0.07946566492319107,0.004581784829497337
1782829351932249300,2.827249267578125,0.12265127152204514,-0.17029090225696564,-0.023877820000052452
1782829351942178300,2.83717822265625,0.12138094007968903,-0.25678667426109314,-0.061060093343257904
1782829351952107500,2.847107421875,0.11575394868850708,-0.3194705545902252,-0.10052734613418579
1782829351962036500,2.857036376953125,0.08956122398376465,-0.3499464988708496,-0.11824914067983627
1782829351971965400,2.86696533203125,0.05686559900641441,-0.33898600935935974,-0.11530102044343948
1782829351981893600,2.8768935546875,0.029542364180088043,-0.29415592551231384,-0.09567086398601532
1782829351991822600,2.886822509765625,0.002576526254415512,-0.21200993657112122,-0.07401137799024582
1782829352001751600,2.89675146484375,-0.023916512727737427,-0.129497230052948,-0.05727909877896309
1782829352011680500,2.906680419921875,-0.036892764270305634,-0.07196228951215744,-0.052918173372745514
1782829352021608700,2.916608642578125,-0.05011748895049095,-0.04150501638650894,-0.06967660784721375
1782829352031537400,2.926537353515625,-0.06721764802932739,-0.04125574231147766,-0.0924687385559082
1782829352041466600,2.936466552734375,-0.08925725519657135,-0.06177900359034538,-0.11873766779899597
1782829352051395600,2.9463955078125,-0.1135101243853569,-0.09313134104013443,-0.13870765268802643
1782829352061323500,2.956323486328125,-0.14256955683231354,-0.1200348436832428,-0.16052018105983734
1782829352071252500,2.96625244140625,-0.17115938663482666,-0.11820845305919647,-0.1706465780735016
1782829352081181400,2.976181396484375,-0.19858959317207336,-0.10268893837928772,-0.17296607792377472
1782829352091110700,2.986110595703125,-0.2265661060810089,-0.07899133861064911,-0.1683787852525711
1782829352101039600,2.99603955078125,-0.2455247938632965,-0.042493030428886414,-0.1539430022239685
1782829352110967600,3.005967529296875,-0.2546714246273041,-0.010143081657588482,-0.1355554759502411
1782829352120896500,3.015896484375,-0.2608770430088043,-0.005978707689791918,-0.11647162586450577
1782829352130825500,3.025825439453125,-0.2614213824272156,-0.016179412603378296,-0.10332945734262466
1782829352140754700,3.035754638671875,-0.2655087113380432,-0.04755483567714691,-0.0915985032916069
1782829352150682600,3.0456826171875,-0.2698829472064972,-0.07535610347986221,-0.09330905228853226
1782829352160611600,3.055611572265625,-0.28113168478012085,-0.09467650949954987,-0.1080215573310852
1782829352170540500,3.06554052734375,-0.29602888226509094,-0.09184929728507996,-0.12731750309467316
1782829352180469500,3.075469482421875,-0.3230365216732025,-0.07464306801557541,-0.13720306754112244
1782829352190397400,3.0853974609375,-0.351544588804245,-0.050909511744976044,-0.15040968358516693
1782829352200326700,3.09532666015625,-0.3714132308959961,-0.04603102430701256,-0.15993162989616394
1782829352210255600,3.105255615234375,-0.37792250514030457,-0.05237014591693878,-0.16450880467891693
1782829352220184600,3.1151845703125,-0.384849488735199,-0.07153737545013428,-0.15919670462608337
1782829352230113500,3.125113525390625,-0.3771609365940094,-0.10786981880664825,-0.135578453540802
1782829352240041700,3.135041748046875,-0.3745303452014923,-0.15123721957206726,-0.09176185727119446
1782829352249970700,3.144970703125,-0.3753785789012909,-0.19326642155647278,-0.035241857171058655
1782829352259899600,3.154899658203125,-0.3838825821876526,-0.21399208903312683,0.021120058372616768
1782829352269828600,3.16482861328125,-0.3874056935310364,-0.22754278779029846,0.058718033134937286
1782829352279756500,3.174756591796875,-0.3885340690612793,-0.24676917493343353,0.07054517418146133
1782829352289685800,3.184685791015625,-0.3875153958797455,-0.2365538328886032,0.06671395152807236
1782829352299614700,3.19461474609375,-0.38972023129463196,-0.23317499458789825,0.05962629243731499
1782829352309543700,3.204543701171875,-0.40387678146362305,-0.25814318656921387,0.07299348711967468
1782829352319472600,3.21447265625,-0.41525134444236755,-0.3160979151725769,0.09943024814128876
1782829352329400600,3.224400634765625,-0.41443029046058655,-0.4067588448524475,0.12166310846805573
1782829352339329800,3.234329833984375,-0.40872544050216675,-0.49723413586616516,0.1448346972465515
1782829352349258800,3.2442587890625,-0.3989681601524353,-0.5755515694618225,0.16050340235233307
1782829352359187700,3.254187744140625,-0.4027305841445923,-0.6216920018196106,0.17404381930828094
1782829352369115600,3.26411572265625,-0.416054904460907,-0.6627126336097717,0.1608675718307495
1782829352379044600,3.274044677734375,-0.43428564071655273,-0.6554518938064575,0.1328849047422409
1782829352388973800,3.283973876953125,-0.43377697467803955,-0.601102352142334,0.10499388724565506
1782829352398902500,3.293902587890625,-0.4548492431640625,-0.4989967942237854,0.07431159913539886
1782829352408830700,3.303830810546875,-0.48006299138069153,-0.38404253125190735,0.06660386919975281
1782829352418759700,3.313759765625,-0.508825421333313,-0.2527191638946533,0.08223794400691986
1782829352428688600,3.323688720703125,-0.5578611493110657,-0.10793772339820862,0.12908241152763367
1782829352438617600,3.33361767578125,-0.6114739775657654,0.03144889697432518,0.1895965039730072
1782829352448546600,3.343546630859375,-0.6582617163658142,0.15052442252635956,0.24129831790924072
1782829352458474800,3.353474853515625,-0.6889381408691406,0.25290608406066895,0.2631889581680298
1782829352468403500,3.363403564453125,-0.6964187026023865,0.3119744658470154,0.27133050560951233
1782829352478332400,3.37333251953125,-0.6927772760391235,0.3412076532840729,0.2698219418525696
1782829352488261600,3.38326171875,-0.6931112408638,0.3240763247013092,0.25190526247024536
1782829352498189600,3.393189453125,-0.6765322089195251,0.2719784677028656,0.24477608501911163
1782829352508118500,3.403118408203125,-0.6564655303955078,0.2239033430814743,0.24462242424488068
1782829352518047500,3.413047607421875,-0.6267150640487671,0.16779987514019012,0.24943628907203674
1782829352527976400,3.4229765625,-0.5883181095123291,0.11078345030546188,0.25564542412757874
1782829352537904400,3.432904296875,-0.5405133962631226,0.03525996208190918,0.2537651062011719
1782829352547833600,3.44283349609375,-0.48836493492126465,-0.06034086272120476,0.25051817297935486
1782829352557762600,3.452762451171875,-0.44349387288093567,-0.14934603869915009,0.24407686293125153
1782829352567691500,3.46269140625,-0.41489285230636597,-0.22478780150413513,0.2376873940229416
1782829352577620500,3.472620361328125,-0.4026411771774292,-0.26243647933006287,0.22831977903842926
1782829352587548700,3.482548583984375,-0.38268983364105225,-0.2670365571975708,0.21651612222194672
1782829352597477600,3.4924775390625,-0.3753725290298462,-0.2670535743236542,0.19916139543056488
1782829352607406600,3.502406494140625,-0.4015950858592987,-0.2758297622203827,0.18077385425567627
1782829352617335600,3.51233544921875,-0.42783352732658386,-0.2771936357021332,0.1461864560842514
1782829352627264500,3.522264404296875,-0.4576425552368164,-0.2762436866760254,0.08771783113479614
1782829352637192700,3.532192626953125,-0.4718288481235504,-0.25805073976516724,0.011928766965866089
1782829352647121700,3.54212158203125,-0.46491074562072754,-0.21945887804031372,-0.06322990357875824
1782829352657050600,3.552050537109375,-0.455974817276001,-0.19209668040275574,-0.1347423642873764
1782829352666979600,3.5619794921875,-0.4389984905719757,-0.17767566442489624,-0.19038884341716766
1782829352676907500,3.571907470703125,-0.41284844279289246,-0.1375376433134079,-0.22400085628032684
1782829352686836700,3.581836669921875,-0.37682491540908813,-0.07489664107561111,-0.24215322732925415
1782829352696765700,3.591765625,-0.33430925011634827,-0.010828123427927494,-0.250497043132782
1782829352706694700,3.601694580078125,-0.281207412481308,0.10110027343034744,-0.23280911147594452
1782829352716622600,3.61162255859375,-0.22423645853996277,0.22589461505413055,-0.20570306479930878
1782829352726551600,3.621551513671875,-0.1613408476114273,0.3529697358608246,-0.1785777062177658
1782829352736480800,3.631480712890625,-0.08624903112649918,0.46755626797676086,-0.16693249344825745
1782829352746409700,3.64140966796875,-0.01862284541130066,0.5567910671234131,-0.16929231584072113
1782829352756338700,3.651338623046875,0.038294143974781036,0.6014429926872253,-0.19864319264888763
1782829352766266600,3.6612666015625,0.09555689990520477,0.5921051502227783,-0.24644134938716888
1782829352776195600,3.671195556640625,0.1645740568637848,0.5322662591934204,-0.30872684717178345
1782829352786124800,3.681124755859375,0.23893271386623383,0.4425840675830841,-0.3526647388935089
1782829352796053800,3.6910537109375,0.2982487678527832,0.32360151410102844,-0.3611348569393158
1782829352805981700,3.700981689453125,0.34618619084358215,0.20946988463401794,-0.33225715160369873
1782829352815910700,3.71091064453125,0.3856127858161926,0.09003084897994995,-0.27324557304382324
1782829352825839600,3.720839599609375,0.4154127538204193,-0.03295525908470154,-0.21219074726104736
1782829352835768600,3.7307685546875,0.44010692834854126,-0.1426714062690735,-0.16397398710250854
1782829352845697500,3.740697509765625,0.4628761410713196,-0.22783423960208893,-0.1371740698814392
1782829352855625700,3.750625732421875,0.47840484976768494,-0.28653520345687866,-0.12836210429668427
1782829352865554700,3.7605546875,0.4882359206676483,-0.2953726351261139,-0.13333503901958466
1782829352875483400,3.7704833984375,0.4825780987739563,-0.27344873547554016,-0.1390410214662552
1782829352885412600,3.78041259765625,0.4644944369792938,-0.23405393958091736,-0.15158237516880035
1782829352895340800,3.7903408203125,0.45062533020973206,-0.1745431125164032,-0.17701101303100586
1782829352905269500,3.80026953125,0.4451006054878235,-0.11146960407495499,-0.19982099533081055
1782829352915198500,3.810198486328125,0.4307480454444885,-0.05087176710367203,-0.21335996687412262
1782829352925127400,3.82012744140625,0.42706194519996643,0.002155228517949581,-0.2232850342988968
1782829352935056600,3.830056640625,0.4218859374523163,0.05360938981175423,-0.21096184849739075
1782829352944984600,3.839984619140625,0.4085554778575897,0.0746409073472023,-0.18457046151161194
1782829352954913500,3.84991357421875,0.3965654671192169,0.09228076040744781,-0.1505301594734192
1782829352964846000,3.85984619140625,0.3867914080619812,0.0915428027510643,-0.12521867454051971
1782829352974775300,3.869775390625,0.3921017348766327,0.07318039238452911,-0.10367120802402496
1782829352984703200,3.879703125,0.40941816568374634,0.07526139169931412,-0.07327388226985931
1782829352994632200,3.889632080078125,0.43080058693885803,0.08841435611248016,-0.039393700659275055
1782829353004561200,3.89956103515625,0.44805094599723816,0.11545370519161224,-0.008325533010065556
1782829353014490000,3.909489990234375,0.452996164560318,0.14618918299674988,0.008151113986968994
1782829353024419300,3.91941943359375,0.4498882591724396,0.14944836497306824,-0.004179587587714195
1782829353034347300,3.92934716796875,0.4498756527900696,0.15292030572891235,-0.03241036459803581
1782829353044276200,3.939276123046875,0.44307661056518555,0.15916807949543,-0.06373846530914307
1782829353054205200,3.949205078125,0.42577627301216125,0.16776849329471588,-0.07370169460773468
1782829353064134100,3.959134033203125,0.4064558446407318,0.18350990116596222,-0.07463033497333527
1782829353074062300,3.969062255859375,0.38109561800956726,0.17459286749362946,-0.0739288479089737
1782829353083991300,3.9789912109375,0.3538956940174103,0.16431492567062378,-0.06629382073879242
1782829353093920300,3.988920166015625,0.33423376083374023,0.14891016483306885,-0.05270358920097351
1782829353103849200,3.99884912109375,0.3298374116420746,0.1453159749507904,-0.040213897824287415
1782829353113778400,4.0087783203125,0.33732664585113525,0.16312061250209808,-0.01798805594444275
1782829353123706400,4.018706298828125,0.34794679284095764,0.2016831934452057,0.016207199543714523
1782829353133635300,4.02863525390625,0.3817234933376312,0.25138476490974426,0.04833768308162689
1782829353143564300,4.038564208984375,0.42694157361984253,0.2963748574256897,0.07086215913295746
1782829353153493200,4.0484931640625,0.466340571641922,0.32272446155548096,0.07380503416061401
1782829353163421200,4.058421142578125,0.5087769627571106,0.34040331840515137,0.0763920396566391
1782829353173350400,4.068350341796875,0.5482109785079956,0.36982280015945435,0.08737517893314362
1782829353183279400,4.078279296875,0.5690931081771851,0.3523884415626526,0.08783456683158875
1782829353193208300,4.088208251953125,0.5798254013061523,0.2479221522808075,0.07009521126747131
1782829353203137300,4.09813720703125,0.5916487574577332,0.09193841367959976,0.041347723454236984
1782829353213065200,4.108065185546875,0.5731291770935059,-0.08413391560316086,-0.004524524323642254
1782829353222994400,4.117994384765625,0.502591609954834,-0.23873122036457062,-0.05250057205557823
1782829353232923400,4.12792333984375,0.38907355070114136,-0.37255892157554626,-0.1194017231464386
1782829353242852000,4.13785205078125,0.2623864710330963,-0.4851296842098236,-0.19841691851615906
1782829353252780300,4.1477802734375,0.16937068104743958,-0.5390152931213379,-0.2724572420120239
1782829353262709200,4.157709228515625,0.0896124541759491,-0.492788165807724,-0.32917165756225586
1782829353272638200,4.16763818359375,0.038168713450431824,-0.36654385924339294,-0.3431483805179596
1782829353282567200,4.177567138671875,0.014698011800646782,-0.18832352757453918,-0.32703331112861633
1782829353292496100,4.18749609375,0.02650149166584015,0.01380983181297779,-0.27352389693260193
1782829353302424300,4.19742431640625,0.07619048655033112,0.2571149170398712,-0.17056740820407867
1782829353312353000,4.20735302734375,0.12880265712738037,0.5069116353988647,-0.0398997887969017
1782829353322282200,4.2172822265625,0.17882667481899261,0.7139359712600708,0.09635685384273529
1782829353332211200,4.227211181640625,0.2151162326335907,0.8307070136070251,0.21360968053340912
1782829353342139100,4.23713916015625,0.23105739057064056,0.8380568027496338,0.29410320520401
1782829353352068000,4.247068115234375,0.22953903675079346,0.7480223178863525,0.3519248366355896
1782829353361997000,4.2569970703125,0.2338685393333435,0.6200169324874878,0.4150630533695221
1782829353371926300,4.26692626953125,0.22954559326171875,0.519366979598999,0.48909151554107666
1782829353381855200,4.276855224609375,0.22210286557674408,0.42206305265426636,0.5449017286300659
1782829353391783200,4.286783203125,0.22229914367198944,0.3588590919971466,0.5618964433670044
1782829353401712000,4.296712158203125,0.23740752041339874,0.33010149002075195,0.5357943177223206
1782829353411641000,4.30664111328125,0.2848167419433594,0.31903016567230225,0.48736053705215454
1782829353421570300,4.3165703125,0.3328295648097992,0.33566930890083313,0.4312583804130554
1782829353431499300,4.326499267578125,0.35084372758865356,0.34328949451446533,0.38647952675819397
1782829353441427200,4.33642724609375,0.3563215732574463,0.3273794949054718,0.35597166419029236
1782829353451356200,4.346356201171875,0.3451259136199951,0.2542048394680023,0.34269580245018005
1782829353461285400,4.356285400390625,0.3378615975379944,0.12690041959285736,0.34526440501213074
1782829353471214300,4.36621435546875,0.33888140320777893,0.025772154331207275,0.3708106279373169
1782829353481142300,4.376142333984375,0.329123854637146,-0.10058445483446121,0.3859850764274597
1782829353491071200,4.3860712890625,0.2976972162723541,-0.20725180208683014,0.37876972556114197
1782829353501000200,4.396000244140625,0.24109332263469696,-0.29799050092697144,0.3311404287815094
1782829353510929400,4.405929443359375,0.17377598583698273,-0.3568268418312073,0.22737319767475128
1782829353520858400,4.4158583984375,0.12927429378032684,-0.35089144110679626,0.09372192621231079
1782829353530786300,4.425786376953125,0.09441573917865753,-0.29926446080207825,-0.029851211234927177
1782829353540715300,4.43571533203125,0.058330707252025604,-0.21919411420822144,-0.12740279734134674
1782829353550644200,4.445644287109375,0.019703876227140427,-0.1391386091709137,-0.17331020534038544
1782829353560573400,4.455573486328125,-0.013639166951179504,-0.1004740446805954,-0.17377279698848724
1782829353570501400,4.46550146484375,-0.03797309845685959,-0.07120674848556519,-0.14041852951049805
1782829353580430300,4.475430419921875,-0.05213259533047676,-0.05898443982005119,-0.07827046513557434
1782829353590359300,4.485359375,-0.05448194965720177,-0.011767673306167126,0.0011105360463261604
1782829353600288300,4.495288330078125,-0.04643014818429947,0.062214940786361694,0.09114561975002289
1782829353610217200,4.50521728515625,-0.031642500311136246,0.13948282599449158,0.15907494723796844
1782829353620145400,4.5151455078125,-0.009694593027234077,0.20136190950870514,0.2052653431892395
1782829353630074400,4.525074462890625,-0.0013246312737464905,0.221489816904068,0.21734634041786194
1782829353640003300,4.53500341796875,-0.009271504357457161,0.20011022686958313,0.19203992187976837
1782829353649932000,4.54493212890625,-0.03323950245976448,0.1517997533082962,0.14046023786067963
1782829353659861200,4.554861328125,-0.06914477050304413,0.10202819854021072,0.07546765357255936
1782829353669789400,4.56478955078125,-0.1057528704404831,0.06095491722226143,0.010427256114780903
1782829353679718100,4.57471826171875,-0.13364307582378387,0.03135734796524048,-0.04340348392724991
1782829353689647000,4.584647216796875,-0.13413311541080475,0.005119314417243004,-0.07059652358293533
1782829353699576000,4.594576171875,-0.11558739095926285,-0.02126994915306568,-0.07517210394144058
1782829353709504000,4.60450390625,-0.0903441533446312,-0.04327068477869034,-0.05194321274757385
1782829353719433200,4.61443310546875,-0.05335577577352524,-0.07319982349872589,-0.017490167170763016
1782829353729362200,4.624362060546875,-0.023943912237882614,-0.12061949819326401,0.014773089438676834
1782829353739291100,4.634291015625,-0.01687321811914444,-0.1648855060338974,0.043124035000801086
1782829353749220000,4.64422021484375,-0.026449602097272873,-0.20265132188796997,0.054151751101017
1782829353759148000,4.65414794921875,-0.053192269057035446,-0.23374558985233307,0.04501178488135338
1782829353769077200,4.6640771484375,-0.09331127256155014,-0.24510285258293152,0.01111628022044897
1782829353779006200,4.674006103515625,-0.12721171975135803,-0.2589457035064697,-0.0454641729593277
1782829353788935200,4.68393505859375,-0.16317309439182281,-0.26086515188217163,-0.10083869099617004
1782829353798863000,4.693863037109375,-0.19961152970790863,-0.2666892111301422,-0.144961416721344
1782829353808792300,4.703792236328125,-0.23438504338264465,-0.2529400587081909,-0.15892980992794037
1782829353818721300,4.71372119140625,-0.26191627979278564,-0.23214291036128998,-0.14352156221866608
1782829353828650200,4.723650146484375,-0.2838546931743622,-0.22120770812034607,-0.11925262212753296
1782829353838579200,4.7335791015625,-0.2896723449230194,-0.22417233884334564,-0.09136240184307098
1782829353848507100,4.743507080078125,-0.28981155157089233,-0.20790298283100128,-0.05369729548692703
1782829353858436400,4.753436279296875,-0.3017968237400055,-0.1872565597295761,-0.023934604600071907
1782829353868365300,4.763365234375,-0.3199877440929413,-0.16984836757183075,-0.013888017274439335
1782829353878294300,4.773294189453125,-0.33873265981674194,-0.1624695509672165,-0.02322479337453842
1782829353888222200,4.78322216796875,-0.3675645887851715,-0.17252910137176514,-0.04630747810006142
1782829353898151200,4.793151123046875,-0.39825910329818726,-0.16770398616790771,-0.06348433345556259
1782829353908080400,4.803080322265625,-0.44787129759788513,-0.17466561496257782,-0.08087603747844696
1782829353918009300,4.81300927734375,-0.4911053478717804,-0.20475906133651733,-0.08616507053375244
1782829353927938300,4.822938232421875,-0.5206931829452515,-0.2433353066444397,-0.08740150183439255
1782829353937866200,4.8328662109375,-0.5436446666717529,-0.2654648423194885,-0.08512876182794571
1782829353947795200,4.842795166015625,-0.5394453406333923,-0.2447751760482788,-0.08515048027038574
1782829353957724400,4.852724365234375,-0.5328013300895691,-0.2236485779285431,-0.09774350374937057
1782829353967649500,4.8626494140625,-0.5222724080085754,-0.201753631234169,-0.10213512182235718
1782829353977578500,4.87257861328125,-0.5240034461021423,-0.18398715555667877,-0.08866804838180542
1782829353987506400,4.88250634765625,-0.5369254946708679,-0.18681859970092773,-0.06205442175269127
1782829353997435400,4.892435302734375,-0.5556557774543762,-0.21789023280143738,-0.01866912841796875
1782829354007364600,4.902364501953125,-0.5685873031616211,-0.2640349864959717,0.015454837121069431
1782829354017293600,4.91229345703125,-0.5695375204086304,-0.3198428750038147,0.03293449431657791
1782829354027221500,4.922221435546875,-0.5705146193504333,-0.3772925138473511,0.03980710729956627
1782829354037150500,4.932150390625,-0.5683476328849792,-0.44247737526893616,0.04115253686904907
1782829354047079700,4.94207958984375,-0.5700724720954895,-0.49677911400794983,0.04497964307665825
1782829354057008400,4.95200830078125,-0.5695278644561768,-0.4992119073867798,0.06112798675894737
1782829354066937300,4.961937255859375,-0.5823328495025635,-0.46406883001327515,0.08362069725990295
1782829354076865500,4.971865478515625,-0.5962462425231934,-0.4042281210422516,0.10285378247499466
1782829354086794500,4.98179443359375,-0.6260532140731812,-0.3588126003742218,0.09459152817726135
1782829354096723500,4.991723388671875,-0.656480073928833,-0.3567686080932617,0.05875709652900696
1782829354106652400,5.00165234375,-0.6796748042106628,-0.3695721924304962,-0.011273122392594814
1782829354116581400,5.011581298828125,-0.6993973851203918,-0.3987465798854828,-0.09658882021903992
1782829354126509300,5.02150927734375,-0.733681857585907,-0.44182288646698,-0.19358666241168976
1782829354136438300,5.031438232421875,-0.7656299471855164,-0.5197458863258362,-0.28632935881614685
1782829354146367500,5.041367431640625,-0.7859120965003967,-0.611138105392456,-0.3638080358505249
1782829354156296400,5.05129638671875,-0.7978010177612305,-0.6642878651618958,-0.40693899989128113
1782829354166224400,5.061224365234375,-0.7990114688873291,-0.640937328338623,-0.41075077652931213
1782829354176153300,5.0711533203125,-0.7902241349220276,-0.56211918592453,-0.40065473318099976
1782829354186082300,5.081082275390625,-0.7536945939064026,-0.4418204426765442,-0.3767874240875244
1782829354196011500,5.091011474609375,-0.7150151133537292,-0.29742732644081116,-0.3193763196468353
1782829354205940500,5.1009404296875,-0.6859972476959229,-0.12543465197086334,-0.21216195821762085
1782829354215868400,5.110868408203125,-0.6848635673522949,0.025195064023137093,-0.054057009518146515
1782829354225797400,5.12079736328125,-0.7187758684158325,0.13354064524173737,0.11876494437456131
1782829354235726300,5.130726318359375,-0.7540361285209656,0.1923336535692215,0.262795090675354
1782829354245655600,5.140655517578125,-0.7706170678138733,0.19157668948173523,0.3408283591270447
1782829354255584500,5.15058447265625,-0.76017826795578,0.17544139921665192,0.36247506737709045
1782829354265512400,5.160512451171875,-0.7325649857521057,0.1581546515226364,0.35135701298713684
1782829354275441400,5.17044140625,-0.6898180842399597,0.1728164255619049,0.33554741740226746
1782829354285370400,5.180370361328125,-0.6285806894302368,0.2075512558221817,0.3348993957042694
1782829354295299600,5.190299560546875,-0.5590330362319946,0.23645667731761932,0.3435131311416626
1782829354305227500,5.2002275390625,-0.4795573353767395,0.23462335765361786,0.35900548100471497
1782829354315156500,5.210156494140625,-0.40822911262512207,0.19814497232437134,0.3732813596725464
1782829354325085400,5.22008544921875,-0.34307563304901123,0.09425506740808487,0.3733934760093689
1782829354335014400,5.230014404296875,-0.29894015192985535,-0.043571773916482925,0.3704221844673157
1782829354344943600,5.239943603515625,-0.2685820460319519,-0.20426160097122192,0.3549039959907532
1782829354354871600,5.24987158203125,-0.23984894156455994,-0.36197346448898315,0.3191388249397278
1782829354364800500,5.259800537109375,-0.21608760952949524,-0.4746505320072174,0.28436896204948425
1782829354374729500,5.2697294921875,-0.21167901158332825,-0.5105313062667847,0.2312341332435608
1782829354384658400,5.279658447265625,-0.21342693269252777,-0.48473063111305237,0.15837514400482178
1782829354394587400,5.28958740234375,-0.22037433087825775,-0.41002336144447327,0.08646927773952484
1782829354404515600,5.299515625,-0.24332773685455322,-0.3188640773296356,0.017614293843507767
1782829354414444500,5.309444580078125,-0.2833590507507324,-0.21594756841659546,-0.028778504580259323
1782829354424373500,5.31937353515625,-0.33429014682769775,-0.13592374324798584,-0.059901993721723557
1782829354434300400,5.329300537109375,-0.3739723265171051,-0.09836412966251373,-0.0842059999704361
1782829354444228400,5.339228271484375,-0.39893588423728943,-0.10251796990633011,-0.10650192201137543
1782829354454157300,5.3491572265625,-0.40318018198013306,-0.09812375903129578,-0.10981781780719757
1782829354464086500,5.35908642578125,-0.4089283347129822,-0.05962245911359787,-0.07847297191619873
1782829354474015500,5.369015380859375,-0.4172869324684143,-0.000475248321890831,-0.030067352578043938
1782829354483943400,5.378943359375,-0.3934514820575714,0.06470929831266403,0.0105698611587286
1782829354493872400,5.388872314453125,-0.3312235176563263,0.16301828622817993,0.034012869000434875
1782829354503801300,5.39880126953125,-0.2418901026248932,0.2792842388153076,0.04323109611868858
1782829354513730600,5.40873046875,-0.15591658651828766,0.3719217777252197,0.047630369663238525
1782829354523659500,5.418659423828125,-0.08945360779762268,0.424129456281662,0.052296288311481476
1782829354533587500,5.42858740234375,-0.044714365154504776,0.4257068634033203,0.05026322975754738
1782829354543516400,5.438516357421875,-0.03162507712841034,0.3744680881500244,0.04524088278412819
1782829354553445400,5.4484453125,-0.03945823013782501,0.2869001626968384,0.02871277555823326
1782829354563374600,5.45837451171875,-0.03471808880567551,0.19575387239456177,-0.004175795707851648
1782829354573303600,5.468303466796875,-0.03460037708282471,0.10038153827190399,-0.03799660876393318
1782829354583231500,5.4782314453125,-0.03274177014827728,0.0035707615315914154,-0.061512138694524765
1782829354593160400,5.488160400390625,-0.024323251098394394,-0.05174815654754639,-0.06467278301715851
1782829354603089400,5.49808935546875,-0.009796230122447014,-0.06673581153154373,-0.061373040080070496
1782829354613018600,5.5080185546875,0.013857966288924217,-0.05040450394153595,-0.05568026751279831
1782829354622946600,5.517946533203125,0.041249580681324005,-0.05675600469112396,-0.058204978704452515
1782829354632875500,5.52787548828125,0.05985601991415024,-0.0621398501098156,-0.05954108387231827
1782829354642804500,5.537804443359375,0.06377431750297546,-0.048921048641204834,-0.05448167771100998
1782829354652733400,5.5477333984375,0.048313070088624954,-0.06019580736756325,-0.053908564150333405
1782829354662662400,5.557662353515625,0.039039403200149536,-0.06063900142908096,-0.06128609552979469
1782829354672590600,5.567590576171875,0.031749799847602844,-0.06013140082359314,-0.07983314990997314
1782829354682519600,5.57751953125,0.02585700899362564,-0.06316828727722168,-0.11160580813884735
1782829354692448300,5.5874482421875,0.02633344940841198,-0.048034876585006714,-0.13930055499076843
1782829354702377500,5.59737744140625,0.024915315210819244,-0.04384971782565117,-0.1598532348871231
1782829354712306400,5.607306396484375,0.017819855362176895,-0.04538103565573692,-0.164266899228096
1782829354722234400,5.617234375,0.020017147064208984,-0.043267250061035156,-0.16292773187160492
1782829354732163300,5.627163330078125,0.02348032221198082,-0.032117392867803574,-0.15135762095451355
1782829354742092300,5.63709228515625,0.02756091207265854,-0.007778182625770569,-0.1405463069677353
1782829354752021500,5.647021484375,0.026228532195091248,0.016092795878648758,-0.12620331346988678
1782829354761950500,5.656950439453125,0.017830342054367065,0.0347580760717392,-0.12115085870027542
1782829354771878400,5.66687841796875,0.007922849617898464,0.034747421741485596,-0.12338818609714508
1782829354781807400,5.676807373046875,-0.003943558782339096,0.023352384567260742,-0.13298062980175018
1782829354791736300,5.686736328125,-0.016940850764513016,0.037450093775987625,-0.146686851978302
1782829354801665500,5.69666552734375,-0.020584847778081894,0.05812183767557144,-0.16030488908290863
1782829354811593500,5.706593505859375,-0.02825421839952469,0.08247937262058258,-0.17309045791625977
1782829354821522400,5.7165224609375,-0.030702834948897362,0.08077327907085419,-0.17956672608852386
1782829354831451400,5.726451416015625,-0.025614066049456596,0.07763048261404037,-0.16524024307727814
1782829354841380400,5.73638037109375,-0.02909846231341362,0.05330485478043556,-0.14080749452114105
1782829354851309600,5.7463095703125,-0.03567780181765556,0.038517650216817856,-0.10614059120416641
1782829354861237500,5.756237548828125,-0.04977596178650856,0.03665339946746826,-0.08140101283788681
1782829354871166500,5.76616650390625,-0.052266817539930344,0.01366419531404972,-0.062716543674469
1782829354881095400,5.776095458984375,-0.048507120460271835,0.005320646800100803,-0.03826015442609787
1782829354891024400,5.7860244140625,-0.03555217385292053,0.030872344970703125,-0.0009620524942874908
1782829354900953600,5.79595361328125,-0.0164133682847023,0.08041246235370636,0.033551450818777084
1782829354910881500,5.805881591796875,0.008399569429457188,0.13671888411045074,0.06856056302785873
1782829354920810500,5.815810546875,0.022130638360977173,0.1687087118625641,0.09145908057689667
1782829354930739500,5.825739501953125,0.026712074875831604,0.1705324500799179,0.1014331504702568
1782829354940668400,5.83566845703125,0.01970726251602173,0.15375643968582153,0.10194017738103867
1782829354950596400,5.845596435546875,0.014465894550085068,0.12277162820100784,0.09202735871076584
1782829354960525600,5.855525634765625,0.014662690460681915,0.10232435166835785,0.08063136041164398
1782829354970455300,5.865455322265625,0.010808564722537994,0.10759634524583817,0.06919681280851364
1782829354980384300,5.87538427734375,0.009807473048567772,0.1291646957397461,0.06509654968976974
1782829354990313200,5.885313232421875,0.013620320707559586,0.1794976443052292,0.06394100189208984
1782829355000241200,5.8952412109375,0.0275227352976799,0.2464865744113922,0.07049782574176788
1782829355010170000,5.905170166015625,0.052646733820438385,0.29205697774887085,0.08265089988708496
1782829355020099000,5.91509912109375,0.07597760856151581,0.2736520767211914,0.0928635448217392
1782829355030028300,5.9250283203125,0.09708982706069946,0.20063860714435577,0.08344634622335434
1782829355039957200,5.934957275390625,0.11088830232620239,0.11549479514360428,0.04938613250851631
1782829355049885200,5.94488525390625,0.10914020240306854,0.03221641480922699,0.0012862477451562881
1782829355059814100,5.954814208984375,0.07697312533855438,-0.03531681001186371,-0.05720066279172897
1782829355069743000,5.9647431640625,0.036546602845191956,-0.07257043570280075,-0.10105733573436737
1782829355079672300,5.97467236328125,-0.0015065940096974373,-0.07892394810914993,-0.13886375725269318
1782829355089601300,5.984601318359375,-0.02611180581152439,-0.05614753067493439,-0.1673039197921753
1782829355099529200,5.994529296875,-0.04442094266414642,-0.007875576615333557,-0.2089076191186905
1782829355109458200,6.004458251953125,-0.06675634533166885,0.04035746678709984,-0.2588922083377838
1782829355119387100,6.01438720703125,-0.09211008250713348,0.08695954829454422,-0.29881709814071655
1782829355129316400,6.02431640625,-0.11841093003749847,0.138180673122406,-0.3120940327644348
1782829355139245300,6.034245361328125,-0.12687650322914124,0.19138872623443604,-0.2909396290779114
1782829355149173200,6.04417333984375,-0.11212605983018875,0.24427644908428192,-0.22664211690425873
1782829355159102200,6.054102294921875,-0.0785973072052002,0.33005839586257935,-0.1273723989725113
1782829355169031200,6.06403125,-0.03390786796808243,0.4218125641345978,-0.006102696061134338
1782829355178960400,6.07396044921875,0.008442884311079979,0.479194700717926,0.09860853850841522
1782829355188889300,6.083889404296875,0.0501951240003109,0.4471270442008972,0.17160312831401825
1782829355198817300,6.0938173828125,0.0757581815123558,0.3810492157936096,0.22465363144874573
1782829355208746200,6.103746337890625,0.0865120217204094,0.29778867959976196,0.26230379939079285
1782829355218675200,6.11367529296875,0.07726182788610458,0.2483711540699005,0.2952416241168976
1782829355228604400,6.1236044921875,0.0631188377737999,0.2161964476108551,0.31665104627609253
1782829355238532400,6.133532470703125,0.0488155335187912,0.20775315165519714,0.3160203993320465
1782829355248461300,6.14346142578125,0.049277592450380325,0.19877856969833374,0.2898508608341217
1782829355258390300,6.153390380859375,0.043453946709632874,0.22496239840984344,0.2655523717403412
1782829355268319200,6.1633193359375,0.03285456821322441,0.23187197744846344,0.2520349621772766
1782829355278248200,6.173248291015625,0.02224818430840969,0.24026364088058472,0.2557199001312256
1782829355288176400,6.18317626953125,0.010183265432715416,0.22669589519500732,0.26205581426620483
1782829355298105300,6.193105224609375,0.016055196523666382,0.20878702402114868,0.2552947700023651
1782829355308034300,6.203034423828125,0.014656237326562405,0.17773030698299408,0.23592397570610046
1782829355317963000,6.212962890625,0.012948323972523212,0.1255098283290863,0.1975090652704239
1782829355327892200,6.222892333984375,0.020995862782001495,0.04491298273205757,0.16271139681339264
1782829355337820400,6.2328203125,0.013017832301557064,-0.026967596262693405,0.13369280099868774
1782829355347749000,6.2427490234375,-0.0259077288210392,-0.06237352266907692,0.12418851256370544
1782829355357678000,6.252677978515625,-0.07123418152332306,-0.04273875057697296,0.13008642196655273
1782829355367607300,6.262607177734375,-0.10383740067481995,-0.02840268984436989,0.12540459632873535
1782829355377536300,6.272536376953125,-0.13066734373569489,-0.007425948046147823,0.11628006398677826
1782829355387464200,6.282464111328125,-0.15438440442085266,0.004071984440088272,0.08893845975399017
1782829355397393200,6.29239306640625,-0.1830936074256897,-0.005943740718066692,0.05559912323951721
1782829355407322000,6.302322021484375,-0.19103915989398956,-0.03629152476787567,0.002433108165860176
1782829355417251300,6.312251220703125,-0.19205379486083984,-0.10541780292987823,-0.04334576427936554
1782829355427180300,6.32218017578125,-0.19726400077342987,-0.1994132697582245,-0.07116860896348953
1782829355437108200,6.332108154296875,-0.21258927881717682,-0.2652278542518616,-0.07303528487682343
1782829355447037200,6.342037109375,-0.24046218395233154,-0.31077349185943604,-0.0656636580824852
1782829355456966100,6.351966064453125,-0.27010220289230347,-0.3252304196357727,-0.061118561774492264
1782829355466895400,6.361895263671875,-0.29019200801849365,-0.29311323165893555,-0.058114781975746155
1782829355476824300,6.37182421875,-0.32001978158950806,-0.24806292355060577,-0.05535617843270302
1782829355486752300,6.381752197265625,-0.34718960523605347,-0.16665887832641602,-0.054368942975997925
1782829355496681200,6.39168115234375,-0.3707053065299988,-0.05560874193906784,-0.029004421085119247
1782829355506610200,6.401610107421875,-0.3846304714679718,0.0294150710105896,-0.006001101341098547
1782829355516539400,6.411539306640625,-0.37891513109207153,0.10135294497013092,0.01569606363773346
1782829355526467300,6.42146728515625,-0.37632226943969727,0.14831726253032684,0.02857484482228756
1782829355536396300,6.431396240234375,-0.37243011593818665,0.14572851359844208,0.031305309385061264
1782829355546325200,6.4413251953125,-0.36447444558143616,0.10254668444395065,0.034803640097379684
1782829355556254200,6.451254150390625,-0.36355331540107727,0.0023229215294122696,0.04468214884400368
1782829355566183400,6.461183349609375,-0.36456504464149475,-0.11767379194498062,0.05234219878911972
1782829355576111400,6.471111328125,-0.3512435555458069,-0.22760426998138428,0.05635976046323776
1782829355586040300,6.481040283203125,-0.3310488164424896,-0.31406646966934204,0.05314852297306061
1782829355595969300,6.49096923828125,-0.32763490080833435,-0.36322808265686035,0.041857052594423294
1782829355605898200,6.500898193359375,-0.3365676701068878,-0.3894959092140198,0.026292473077774048
1782829355615827200,6.5108271484375,-0.3615182042121887,-0.4075680673122406,-0.009287398308515549
1782829355625755400,6.52075537109375,-0.385890394449234,-0.4003397226333618,-0.07154038548469543
1782829355635684400,6.530684326171875,-0.4105750620365143,-0.3514409065246582,-0.11439082771539688
1782829355645613300,6.54061328125,-0.44548991322517395,-0.294674277305603,-0.13181748986244202
1782829355655542000,6.5505419921875,-0.4795680642127991,-0.24857212603092194,-0.1293753832578659
1782829355665471200,6.56047119140625,-0.5022611021995544,-0.2241259068250656,-0.1171775683760643
1782829355675399400,6.5703994140625,-0.5157956480979919,-0.2237497866153717,-0.10150469839572906
1782829355685328100,6.580328125,-0.5306622385978699,-0.2364935427904129,-0.08845147490501404
1782829355695257000,6.590257080078125,-0.5445000529289246,-0.26545724272727966,-0.07661573588848114
1782829355705186000,6.60018603515625,-0.5586534142494202,-0.3052648603916168,-0.0732167437672615
1782829355715115300,6.610115234375,-0.5695577263832092,-0.3324434161186218,-0.07498982548713684
1782829355725043200,6.620043212890625,-0.582271158695221,-0.3386177122592926,-0.06748317927122116
1782829355734972200,6.62997216796875,-0.6008898019790649,-0.31491756439208984,-0.0645696297287941
1782829355744901000,6.639901123046875,-0.6204512119293213,-0.2835457921028137,-0.06751428544521332
1782829355754830000,6.649830078125,-0.6484455466270447,-0.2618187963962555,-0.08348382264375687
1782829355764759300,6.65975927734375,-0.6772516369819641,-0.2598531246185303,-0.0986422672867775
1782829355774687200,6.669687255859375,-0.694342851638794,-0.2624751925468445,-0.10537374019622803
1782829355784616200,6.6796162109375,-0.7053409218788147,-0.2679940462112427,-0.11330516636371613
1782829355794545200,6.689545166015625,-0.7120068073272705,-0.2836717367172241,-0.11093595623970032
1782829355804474400,6.699474365234375,-0.7120832204818726,-0.2835391163825989,-0.11212372779846191
1782829355814403300,6.7094033203125,-0.7172552347183228,-0.2900407612323761,-0.1138024851679802
1782829355824331300,6.719331298828125,-0.7261760234832764,-0.2811087965965271,-0.11150337755680084
1782829355834260200,6.72926025390625,-0.7464836239814758,-0.2640231251716614,-0.09950390458106995
1782829355844189200,6.739189208984375,-0.7729740738868713,-0.25820010900497437,-0.08448714017868042
1782829355854118400,6.749118408203125,-0.7980310916900635,-0.27002546191215515,-0.06801655888557434
1782829355864047400,6.75904736328125,-0.8136630654335022,-0.2650133967399597,-0.046489961445331573
1782829355873975300,6.768975341796875,-0.8257023096084595,-0.2638064920902252,-0.03468457981944084
1782829355883904300,6.778904296875,-0.8319048285484314,-0.26272284984588623,-0.042225584387779236
1782829355893833200,6.788833251953125,-0.8327778577804565,-0.27420976758003235,-0.07324454188346863
1782829355903762400,6.798762451171875,-0.8311240077018738,-0.27047067880630493,-0.10054141283035278
1782829355913691400,6.80869140625,-0.8376947641372681,-0.2576720416545868,-0.09499252587556839
1782829355923619300,6.818619384765625,-0.8359573483467102,-0.237315371632576,-0.06552997976541519
1782829355933548300,6.82854833984375,-0.8339471817016602,-0.2159353792667389,-0.030309006571769714
1782829355943477200,6.838477294921875,-0.8277992606163025,-0.23337003588676453,-0.013251724652945995
1782829355953406200,6.84840625,-0.831686794757843,-0.281322181224823,-0.02940165251493454
1782829355963334400,6.85833447265625,-0.8454657196998596,-0.3576390743255615,-0.06843773275613785
1782829355973262800,6.868262939453125,-0.8397082090377808,-0.4306302070617676,-0.12550956010818481
1782829355983191800,6.87819189453125,-0.8283609747886658,-0.4950835108757019,-0.17131033539772034
1782829355993121000,6.88812109375,-0.8081808090209961,-0.5440922975540161,-0.19871170818805695
1782829356003049700,6.8980498046875,-0.8180563449859619,-0.5489677786827087,-0.22778597474098206
1782829356012978000,6.90797802734375,-0.8588724732398987,-0.544256865978241,-0.24575616419315338
1782829356022907000,6.917906982421875,-0.8915202021598816,-0.4709102511405945,-0.2402535378932953
1782829356032835800,6.9278359375,-0.9519277215003967,-0.3722401559352875,-0.21916097402572632
1782829356042764800,6.937764892578125,-1.0086884498596191,-0.27650323510169983,-0.1834208220243454
1782829356052693800,6.94769384765625,-1.0315444469451904,-0.1590099036693573,-0.1367284208536148
1782829356062622000,6.9576220703125,-1.045695185661316,-0.049091119319200516,-0.09813522547483444
1782829356072550700,6.967550537109375,-1.032537817955017,0.049372244626283646,-0.06436403095722198
1782829356082479600,6.977479736328125,-1.0057029724121094,0.08240450173616409,-0.057566575706005096
1782829356092408800,6.987408935546875,-0.9671101570129395,0.08339651674032211,-0.047854483127593994
1782829356102337800,6.997337890625,-0.9274786114692688,0.04443074017763138,-0.03360763192176819
1782829356112265700,7.007265625,-0.8812794089317322,-0.015578532591462135,-0.025005357339978218
1782829356122194700,7.017194580078125,-0.8378130793571472,-0.08262690901756287,-0.010352039709687233
1782829356132123600,7.02712353515625,-0.7904044985771179,-0.1519448459148407,0.011732297018170357
1782829356142052900,7.037052978515625,-0.7323709726333618,-0.18398027122020721,0.05370451509952545
1782829356151981800,7.04698193359375,-0.6863988637924194,-0.20662443339824677,0.09985341876745224
1782829356161909800,7.05690966796875,-0.6695607304573059,-0.2401009052991867,0.12458140403032303
1782829356171838700,7.066838623046875,-0.6690943837165833,-0.2728688716888428,0.12016245722770691
1782829356181768000,7.076767822265625,-0.6829844117164612,-0.3038981556892395,0.08090133219957352
1782829356191697000,7.08669677734375,-0.7032172083854675,-0.34769150614738464,0.023794014006853104
1782829356201625900,7.0966259765625,-0.733815610408783,-0.3575468063354492,-0.028071580454707146
1782829356211553800,7.1065537109375,-0.7708644270896912,-0.3542094826698303,-0.06697488576173782
1782829356221482800,7.116482666015625,-0.8016968965530396,-0.3080262541770935,-0.09540572762489319
1782829356231412000,7.126411865234375,-0.8415258526802063,-0.25951066613197327,-0.10565279424190521
1782829356241341000,7.1363408203125,-0.8688887357711792,-0.18443617224693298,-0.1028229221701622
1782829356251270000,7.146269775390625,-0.8686667680740356,-0.05136576667428017,-0.08495216816663742
1782829356261197800,7.15619775390625,-0.8517857789993286,0.052573684602975845,-0.05624515563249588
1782829356271126800,7.166126708984375,-0.815509557723999,0.14454810321331024,-0.018486836925148964
1782829356281056000,7.176055908203125,-0.77118980884552,0.18428778648376465,0.033021893352270126
1782829356290985000,7.18598486328125,-0.7302849888801575,0.16859762370586395,0.0917377918958664
1782829356300914000,7.195913818359375,-0.6947957277297974,0.12702088057994843,0.1351928561925888
1782829356310841900,7.205841796875,-0.6491196155548096,0.057409826666116714,0.150202214717865
1782829356320770800,7.215770751953125,-0.6007863879203796,-0.01983010396361351,0.1508520245552063
1782829356330700000,7.225699951171875,-0.558176577091217,-0.08846379816532135,0.14594130218029022
1782829356340628700,7.235628662109375,-0.5303540229797363,-0.12996384501457214,0.13752304017543793
1782829356350557700,7.2455576171875,-0.5082666277885437,-0.1397779881954193,0.11415935307741165
1782829356360486000,7.25548583984375,-0.4797883927822113,-0.11734592169523239,0.08625528216362
1782829356370414800,7.265414794921875,-0.4516289234161377,-0.06035789102315903,0.05648204684257507
1782829356380343800,7.27534375,-0.4223749041557312,-0.021970821544528008,0.014957510866224766
1782829356390272800,7.285272705078125,-0.3905007243156433,0.011718752793967724,-0.026202213019132614
1782829356400201700,7.29520166015625,-0.3676638603210449,0.05180199444293976,-0.04674477130174637
1782829356410129700,7.305129638671875,-0.37228623032569885,0.05541772395372391,-0.055752240121364594
1782829356420058600,7.31505859375,-0.3870449364185333,0.03890053182840347,-0.05295592546463013
1782829356429987800,7.32498779296875,-0.41370901465415955,0.00383156631141901,-0.04126138240098953
1782829356439916800,7.334916748046875,-0.44328102469444275,-0.02784620225429535,-0.03313048556447029
1782829356449845800,7.344845703125,-0.46969789266586304,-0.03497043997049332,-0.006651311181485653
1782829356459773700,7.354773681640625,-0.4886396527290344,-0.016233237460255623,0.013329853303730488
1782829356469702700,7.36470263671875,-0.49513018131256104,0.0011931881308555603,0.022663109004497528
1782829356479632000,7.3746318359375,-0.47903937101364136,0.018171904608607292,0.0018007038161158562
1782829356489560800,7.384560791015625,-0.44177886843681335,0.02426213026046753,-0.03475853055715561
1782829356499489800,7.39448974609375,-0.40147697925567627,0.032966937869787216,-0.06935033202171326
1782829356509417700,7.404417724609375,-0.38637107610702515,0.021725792437791824,-0.09407896548509598
1782829356519346700,7.4143466796875,-0.389822781085968,-0.0067497906275093555,-0.11038389801979065
1782829356529276000,7.42427587890625,-0.3982245624065399,-0.036205217242240906,-0.12836270034313202
1782829356539204900,7.434204833984375,-0.4086977243423462,-0.07318667322397232,-0.15376099944114685
1782829356549133800,7.4441337890625,-0.4087878167629242,-0.08555086702108383,-0.1671706736087799
1782829356559061800,7.454061767578125,-0.3935515880584717,-0.09068331122398376,-0.17204585671424866
1782829356568990700,7.46399072265625,-0.36530664563179016,-0.0864899605512619,-0.16407738626003265
1782829356578920000,7.473919921875,-0.33006665110588074,-0.06113453581929207,-0.14347968995571136
1782829356588849000,7.483848876953125,-0.2942429184913635,-0.010406523011624813,-0.11724210530519485
1782829356598777900,7.49377783203125,-0.2524304687976837,0.04751110449433327,-0.08850153535604477
1782829356608705800,7.503705810546875,-0.21301907300949097,0.1019221767783165,-0.054628852754831314
1782829356618635000,7.513635009765625,-0.1762903481721878,0.1500316560268402,-0.01843089982867241
1782829356628564000,7.52356396484375,-0.1464257687330246,0.173856720328331,0.022048871964216232
1782829356638493000,7.533492919921875,-0.12094464898109436,0.17289185523986816,0.05851101130247116
1782829356648422000,7.543421875,-0.09139774739742279,0.17231589555740356,0.07962898164987564
1782829356658349800,7.553349853515625,-0.07464486360549927,0.1724109798669815,0.08226817846298218
1782829356668279000,7.563279052734375,-0.06262776255607605,0.18545660376548767,0.07300520688295364
1782829356678208000,7.5732080078125,-0.051221709698438644,0.2048923522233963,0.05696338415145874
1782829356688136700,7.58313671875,-0.043089304119348526,0.22055518627166748,0.029465794563293457
1782829356698065700,7.593065673828125,-0.021318230777978897,0.2430940568447113,0.004600659012794495
1782829356707995000,7.602994873046875,0.0013279421254992485,0.2758476734161377,-0.014508123509585857
1782829356717922800,7.6129228515625,0.02765941619873047,0.3055720031261444,-0.022537022829055786
1782829356727851800,7.622851806640625,0.05059799179434776,0.3247804641723633,-0.016302142292261124
1782829356737780700,7.63278076171875,0.07106571644544601,0.33769387006759644,0.0010635331273078918
1782829356747709700,7.642709716796875,0.094854436814785,0.32009372115135193,0.01468680240213871
1782829356757639000,7.652638916015625,0.12290684133768082,0.2790011465549469,0.03677639365196228
1782829356767566800,7.66256689453125,0.14862389862537384,0.23984560370445251,0.05899553745985031
1782829356777495800,7.672495849609375,0.18885333836078644,0.18702633678913116,0.062383346259593964
1782829356787424800,7.6824248046875,0.2291092574596405,0.17604804039001465,0.06127810478210449
1782829356797353700,7.692353759765625,0.26039472222328186,0.164739191532135,0.05386172980070114
1782829356807283000,7.702282958984375,0.28271836042404175,0.11815871298313141,0.045519180595874786
1782829356817211000,7.7122109375,0.2890596389770508,0.040731027722358704,0.03903305158019066
1782829356827139800,7.722139892578125,0.27666768431663513,-0.02183450572192669,0.04633954167366028
1782829356837068800,7.73206884765625,0.21487170457839966,-0.0721120536327362,0.07004007697105408
1782829356846997800,7.741997802734375,0.12043362110853195,-0.1405414342880249,0.11064238846302032
1782829356856927000,7.751927001953125,0.030176427215337753,-0.16520443558692932,0.15034905076026917
1782829356866855000,7.76185498046875,-0.03948865458369255,-0.2014976441860199,0.1768537014722824
1782829356876783900,7.771783935546875,-0.055581606924533844,-0.23822078108787537,0.19251921772956848
1782829356886712800,7.781712890625,-0.030975691974163055,-0.24584384262561798,0.19413848221302032
1782829356896641800,7.791641845703125,0.004507202189415693,-0.22971974313259125,0.1905362904071808
1782829356906571000,7.801571044921875,0.030243374407291412,-0.155045747756958,0.17630046606063843
1782829356916499000,7.8114990234375,0.010843843221664429,-0.028849994763731956,0.14164793491363525
1782829356926428000,7.821427978515625,-0.048133090138435364,0.12306289374828339,0.08199415355920792
1782829356936356900,7.83135693359375,-0.1267773061990738,0.26323917508125305,0.00464690662920475
1782829356946285800,7.841285888671875,-0.19936665892601013,0.3724430501461029,-0.07816170156002045
1782829356956214800,7.85121484375,-0.2454550713300705,0.4200238883495331,-0.12960916757583618
1782829356966143000,7.86114306640625,-0.27348312735557556,0.45038077235221863,-0.12956500053405762
1782829356976071400,7.871071533203125,-0.28349581360816956,0.45922645926475525,-0.08291573822498322
1782829356986000400,7.88100048828125,-0.2842901349067688,0.4667894244194031,-0.0019779852591454983
1782829356995929600,7.8909296875,-0.2731946110725403,0.45696955919265747,0.0922614261507988
1782829357005858300,7.9008583984375,-0.2275407761335373,0.44256362318992615,0.1662006825208664
1782829357015786500,7.910786376953125,-0.1667967289686203,0.4048817455768585,0.20557206869125366
1782829357025715500,7.920715576171875,-0.10353332757949829,0.3706561326980591,0.21201372146606445
1782829357035644400,7.93064453125,-0.04064464569091797,0.3195679187774658,0.18518982827663422
1782829357045573400,7.940573486328125,0.01486681867390871,0.23326048254966736,0.1425936371088028
1782829357055502300,7.95050244140625,0.059280090034008026,0.1594371199607849,0.10976646095514297
1782829357065430500,7.960430419921875,0.08092502504587173,0.11501029133796692,0.10034626722335815
1782829357075359200,7.970359130859375,0.07553000003099442,0.10430917888879776,0.10121632367372513
1782829357085288200,7.9802880859375,0.049312252551317215,0.10688529908657074,0.1002669557929039
1782829357095217400,7.990217529296875,0.00541883148252964,0.11680291593074799,0.08297691494226456
1782829357105146400,8.000146484375,-0.027752183377742767,0.12454333901405334,0.04641672223806381
1782829357115074300,8.01007421875,-0.0349712148308754,0.1270586997270584,-0.009200465865433216
1782829357125003300,8.020003173828124,-0.013668566010892391,0.12927667796611786,-0.059109877794981
1782829357134932200,8.02993212890625,0.031651780009269714,0.11567112058401108,-0.09777923673391342
1782829357144861400,8.039861328125,0.07552119344472885,0.09752446413040161,-0.11821833997964859
1782829357154790400,8.049790283203125,0.10941231995820999,0.07493500411510468,-0.10787462443113327
1782829357164718300,8.05971826171875,0.13775616884231567,0.03591308742761612,-0.07852955907583237
1782829357174647300,8.069647216796875,0.15976481139659882,-0.007776338141411543,-0.0371224582195282
1782829357184576300,8.079576171875,0.18185991048812866,-0.06656157970428467,0.0017057554796338081
1782829357194505500,8.08950537109375,0.19510488212108612,-0.10154274106025696,0.01992284320294857
1782829357204434400,8.099434326171876,0.20795375108718872,-0.10748982429504395,0.017218241468071938
1782829357214362400,8.1093623046875,0.2272273153066635,-0.09427948296070099,-0.0036683990620076656
1782829357224291300,8.119291259765625,0.24513119459152222,-0.04711712524294853,-0.03011554293334484
1782829357234220300,8.12922021484375,0.2600390315055847,-0.03481492027640343,-0.058543987572193146
1782829357244149500,8.1391494140625,0.2797226309776306,-0.01950969360768795,-0.09828488528728485
1782829357254078500,8.149078369140625,0.3049909770488739,-0.03535044193267822,-0.15605869889259338
1782829357264007400,8.15900732421875,0.34389522671699524,-0.08229906111955643,-0.200912743806839
1782829357273935400,8.168935302734376,0.37377697229385376,-0.13852106034755707,-0.2292003035545349
1782829357283864300,8.1788642578125,0.3772870898246765,-0.21528099477291107,-0.22174693644046783
1782829357293793500,8.18879345703125,0.3632434606552124,-0.27170005440711975,-0.18740174174308777
1782829357303722500,8.198722412109374,0.33796924352645874,-0.28860342502593994,-0.13550472259521484
1782829357313651200,8.208651123046875,0.3073021471500397,-0.27818194031715393,-0.10144582390785217
1782829357323579400,8.218579345703125,0.2860266864299774,-0.24831096827983856,-0.09004122018814087
1782829357333508400,8.22850830078125,0.28206896781921387,-0.1478826403617859,-0.08832481503486633
1782829357343437300,8.238437255859376,0.2882367670536041,-0.04018284007906914,-0.07791898399591446
1782829357353366300,8.2483662109375,0.31121930480003357,0.08313243836164474,-0.05440140515565872
1782829357363295200,8.258295166015625,0.34578004479408264,0.17696230113506317,-0.01868554577231407
1782829357373223400,8.268223388671874,0.3818024694919586,0.23511774837970734,0.014098767191171646
1782829357383152000,8.278152099609375,0.40491265058517456,0.2341376543045044,0.0494220107793808
1782829357393081300,8.288081298828125,0.4096009135246277,0.17379628121852875,0.07083196192979813
1782829357403010300,8.29801025390625,0.3944268524646759,0.0988968014717102,0.08035219460725784
1782829357412939300,8.307939208984376,0.37698954343795776,0.01253687497228384,0.07569964975118637
1782829357422867200,8.3178671875,0.35565605759620667,-0.05910227820277214,0.05118672549724579
1782829357432796400,8.32779638671875,0.3356325328350067,-0.11371998488903046,0.01621861942112446
1782829357442725400,8.337725341796874,0.305976927280426,-0.1357397437095642,-0.020379625260829926
1782829357452654300,8.347654296875,0.2748301923274994,-0.11849257349967957,-0.057984527200460434
1782829357462583300,8.357583251953125,0.2499483972787857,-0.0815509706735611,-0.08356630802154541
1782829357472511200,8.36751123046875,0.23534150421619415,-0.04535647854208946,-0.09803153574466705
1782829357482440400,8.3774404296875,0.2278439700603485,-0.015095042064785957,-0.09933876991271973
1782829357492369400,8.387369384765625,0.2116956263780594,-0.028249459341168404,-0.08479098230600357
1782829357502298400,8.39729833984375,0.1866016536951065,-0.05627701058983803,-0.05252900719642639
1782829357512227300,8.407227294921874,0.16305717825889587,-0.08529189229011536,-0.013428211212158203
1782829357522155300,8.4171552734375,0.1226329579949379,-0.11306873708963394,0.019151847809553146
1782829357532084500,8.42708447265625,0.08760306984186172,-0.12996649742126465,0.022636327892541885
1782829357542013400,8.437013427734374,0.05846383422613144,-0.13057737052440643,0.009957064874470234
1782829357551942400,8.4469423828125,0.03350948542356491,-0.1192469596862793,-0.005478085018694401
1782829357561871400,8.456871337890625,0.02044910192489624,-0.08529528230428696,-0.014200378209352493
1782829357571800600,8.466800537109375,0.018479427322745323,-0.035222530364990234,-0.009577663615345955
1782829357581728500,8.476728515625,0.01736752688884735,0.0029151486232876778,-0.0047990018501877785
1782829357591657500,8.486657470703125,0.011809243820607662,0.02461564913392067,0.005354300141334534
1782829357601586400,8.49658642578125,0.003251907415688038,0.03024725802242756,0.028189215809106827
1782829357611515400,8.506515380859375,-0.009196506813168526,-0.007248451467603445,0.048095811158418655
1782829357621444400,8.5164443359375,-0.02546444535255432,-0.057711161673069,0.0668603777885437
1782829357631372500,8.52637255859375,-0.04159307852387428,-0.10756846517324448,0.06993020325899124
1782829357641301500,8.536301513671875,-0.05402294173836708,-0.1357404589653015,0.061484597623348236
1782829357651230200,8.546230224609374,-0.0663994550704956,-0.14711083471775055,0.04362251237034798
1782829357661159200,8.5561591796875,-0.08656659722328186,-0.1441962867975235,0.025511212646961212
1782829357671088400,8.56608837890625,-0.10815950483083725,-0.13310874998569489,0.011014027521014214
1782829357681016300,8.576016357421874,-0.12912672758102417,-0.1311192661523819,0.011400461196899414
1782829357690945300,8.5859453125,-0.14456292986869812,-0.12874479591846466,0.024961275979876518
1782829357700874200,8.595874267578125,-0.16066129505634308,-0.11519595235586166,0.04086311534047127
1782829357710803200,8.60580322265625,-0.17661389708518982,-0.1331842690706253,0.052768245339393616
1782829357720732400,8.615732421875,-0.1974003165960312,-0.16047394275665283,0.060621023178100586
1782829357730660400,8.625660400390625,-0.22073812782764435,-0.20345869660377502,0.06210014969110489
1782829357740589300,8.63558935546875,-0.23949727416038513,-0.2471848875284195,0.052779145538806915
1782829357750518300,8.645518310546874,-0.25935834646224976,-0.2736596465110779,0.03757701814174652
1782829357760447200,8.655447265625,-0.2757430672645569,-0.2866290211677551,0.025714905932545662
1782829357770376400,8.66537646484375,-0.2948318123817444,-0.31088563799858093,0.01842104084789753
1782829357780304400,8.675304443359375,-0.3082517087459564,-0.338096559047699,0.008923838846385479
1782829357790233300,8.6852333984375,-0.32304662466049194,-0.36001890897750854,0.007859907113015652
1782829357800162300,8.695162353515625,-0.3420819044113159,-0.34978970885276794,0.019738685339689255
1782829357810091300,8.70509130859375,-0.36764800548553467,-0.3006748855113983,0.04112466424703598
1782829357820020500,8.7150205078125,-0.39565879106521606,-0.24880777299404144,0.06639452278614044
1782829357829949400,8.724949462890624,-0.41444820165634155,-0.21801817417144775,0.08144111186265945
1782829357839877400,8.73487744140625,-0.41528913378715515,-0.20831379294395447,0.07229873538017273
1782829357849806300,8.744806396484375,-0.3972347676753998,-0.23156984150409698,0.04373926296830177
1782829357859735300,8.7547353515625,-0.3849203884601593,-0.2847228944301605,0.002923666499555111
1782829357869664500,8.76466455078125,-0.3822593688964844,-0.3540492355823517,-0.04306965693831444
1782829357879593500,8.774593505859375,-0.3888373076915741,-0.412783145904541,-0.07969515025615692
1782829357889521400,8.784521484375,-0.40664055943489075,-0.46855056285858154,-0.0966043621301651
1782829357899450400,8.794450439453126,-0.4269344210624695,-0.48476192355155945,-0.08792600780725479
1782829357909379600,8.804379638671875,-0.4343145787715912,-0.45697689056396484,-0.06465717405080795
1782829357919308500,8.81430859375,-0.4195137917995453,-0.4208378493785858,-0.048407673835754395
1782829357929237200,8.8242373046875,-0.39792966842651367,-0.36621055006980896,-0.03604128584265709
1782829357939165400,8.83416552734375,-0.3912660479545593,-0.2858887016773224,-0.02342650294303894
1782829357949094400,8.844094482421875,-0.4213334023952484,-0.17129634320735931,0.004047464579343796
1782829357959023400,8.8540234375,-0.45928138494491577,-0.016164567321538925,0.04656863957643509
1782829357968952300,8.863952392578126,-0.48432469367980957,0.11051135510206223,0.08653389662504196
1782829357978881300,8.87388134765625,-0.4941543638706207,0.19189372658729553,0.10358042269945145
1782829357988809500,8.8838095703125,-0.4777761995792389,0.233699232339859,0.10115588456392288
1782829357998738400,8.893738525390624,-0.4431056082248688,0.2259085476398468,0.09593435376882553
1782829358008667400,8.90366748046875,-0.40616971254348755,0.184799462556839,0.09784623235464096
1782829358018596400,8.913596435546875,-0.3713754713535309,0.13097263872623444,0.11699667572975159
1782829358028525300,8.923525390625,-0.3346171975135803,0.05384509637951851,0.15023505687713623
1782829358038454500,8.93345458984375,-0.29206719994544983,-0.015949297696352005,0.1857011318206787
1782829358048382500,8.943382568359375,-0.24125328660011292,-0.07708722352981567,0.21994058787822723
1782829358058311400,8.9533115234375,-0.19069887697696686,-0.11242908984422684,0.23818722367286682
1782829358068240400,8.963240478515624,-0.15416721999645233,-0.15946103632450104,0.23602259159088135
1782829358078169300,8.97316943359375,-0.1450367122888565,-0.21320368349552155,0.21074959635734558
1782829358088098600,8.9830986328125,-0.16201995313167572,-0.26195576786994934,0.16124515235424042
1782829358098026500,8.993026611328125,-0.19626420736312866,-0.2864648699760437,0.10589958727359772
1782829358107955500,9.00295556640625,-0.2438405305147171,-0.28552210330963135,0.04448815435171127
1782829358117884400,9.012884521484375,-0.28214403986930847,-0.2490537315607071,-0.009169016033411026
1782829358127813400,9.0228134765625,-0.3062632083892822,-0.19573910534381866,-0.054230500012636185
1782829358137742600,9.03274267578125,-0.30892106890678406,-0.13619489967823029,-0.08323000371456146
1782829358147670500,9.04267041015625,-0.29882127046585083,-0.09514227509498596,-0.10261914134025574
1782829358157599500,9.052599609375,-0.2875380516052246,-0.08587566018104553,-0.11494943499565125
1782829358167528400,9.062528564453125,-0.2693694233894348,-0.0903196781873703,-0.12108269333839417
1782829358177457400,9.07245751953125,-0.2469625174999237,-0.10302173346281052,-0.13028305768966675
1782829358187386600,9.08238671875,-0.19301965832710266,-0.11032891273498535,-0.14460687339305878
1782829358197315300,9.0923154296875,-0.15613794326782227,-0.08343731611967087,-0.14648929238319397
1782829358207243500,9.102243408203124,-0.13185657560825348,-0.020965151488780975,-0.12729668617248535
1782829358217172500,9.11217236328125,-0.11906813085079193,0.10501768440008163,-0.08980688452720642
1782829358227101400,9.122101318359375,-0.11630670726299286,0.21420276165008545,-0.046805091202259064
1782829358237030400,9.132030517578125,-0.1071009486913681,0.3039419949054718,-0.011948015540838242
1782829358246959400,9.14195947265625,-0.1020452007651329,0.3249093294143677,-0.00973732490092516
1782829358256887600,9.151887451171875,-0.08098947256803513,0.3148092031478882,-0.02806606888771057
1782829358266816300,9.161816162109375,-0.06930352002382278,0.31147173047065735,-0.05984397232532501
1782829358276745500,9.171745361328124,-0.06814558804035187,0.31053584814071655,-0.0921630784869194
1782829358286674400,9.18167431640625,-0.06373965740203857,0.3056201934814453,-0.10888240486383438
1782829358296603400,9.191603271484375,-0.03499000146985054,0.31690147519111633,-0.10349364578723907
1782829358306531300,9.20153125,0.0022894609719514847,0.3080001473426819,-0.08781454712152481
1782829358316460300,9.211460205078126,0.03038030117750168,0.2748333513736725,-0.06897731870412827
1782829358326389500,9.221389404296875,0.08790751546621323,0.23629982769489288,-0.056393615901470184
1782829358336318500,9.231318359375,0.14235201478004456,0.2060239315032959,-0.05603586882352829
1782829358346247400,9.241247314453124,0.18730910122394562,0.1419014036655426,-0.06480991840362549
1782829358356176400,9.25117626953125,0.21455612778663635,0.09012328088283539,-0.06481131911277771
1782829358366104300,9.261104248046875,0.21370524168014526,0.028112905099987984,-0.06522198021411896
1782829358376033500,9.271033447265625,0.2086908221244812,-0.04153021052479744,-0.048550255596637726
1782829358385962500,9.28096240234375,0.19198161363601685,-0.08005470037460327,-0.02698051743209362
1782829358395891500,9.290891357421875,0.17244307696819305,-0.1298486292362213,-0.025576232001185417
1782829358405820400,9.3008203125,0.1699887067079544,-0.11309866607189178,-0.041987963020801544
1782829358415748400,9.310748291015624,0.18049179017543793,-0.11250315606594086,-0.07780434191226959
1782829358425677600,9.320677490234376,0.19351038336753845,-0.09777747094631195,-0.11667557805776596
1782829358435606500,9.3306064453125,0.20290608704090118,-0.08987561613321304,-0.13298673927783966
1782829358445535500,9.340535400390625,0.20378465950489044,-0.0740862712264061,-0.13416625559329987
1782829358455464400,9.35046435546875,0.1957559436559677,-0.0542055144906044,-0.12302616983652115
1782829358465392400,9.360392333984375,0.18303082883358002,-0.034442197531461716,-0.11348353326320648
1782829358475321600,9.370321533203125,0.16910994052886963,-0.013730577193200588,-0.1127791702747345
1782829358485250600,9.38025048828125,0.14752769470214844,0.01673891395330429,-0.12858903408050537
1782829358495179500,9.390179443359376,0.12394144386053085,0.032381344586610794,-0.1519814431667328
1782829358505108500,9.4001083984375,0.12910105288028717,0.04096844047307968,-0.17921146750450134
1782829358515037400,9.410037353515625,0.11526856571435928,0.05182001367211342,-0.1859893947839737
1782829358524965600,9.419965576171874,0.11393725126981735,0.06897689402103424,-0.17521318793296814
1782829358534894600,9.42989453125,0.08976944535970688,0.09861796349287033,-0.14156389236450195
1782829358544823300,9.4398232421875,0.1128539964556694,0.12976789474487305,-0.12278513610363007
1782829358554752300,9.449752197265624,0.14315806329250336,0.1719234436750412,-0.13176625967025757
1782829358564681500,9.459681396484376,0.2025793045759201,0.17612245678901672,-0.1606983095407486
1782829358574609400,9.469609375,0.2727472484111786,0.2051672637462616,-0.1844208687543869
1782829358584538400,9.479538330078125,0.32664987444877625,0.22369806468486786,-0.19236347079277039
1782829358594467300,9.48946728515625,0.34493860602378845,0.22280430793762207,-0.1706496626138687
1782829358604396300,9.499396240234375,0.3317756652832031,0.20797529816627502,-0.13286073505878448
1782829358614325500,9.509325439453125,0.28232091665267944,0.1931304931640625,-0.09991768002510071
1782829358624254500,9.51925439453125,0.2354375720024109,0.15029114484786987,-0.05714012309908867
1782829358634182400,9.529182373046876,0.1917179524898529,0.12353304028511047,-0.01505003310739994
1782829358644111400,9.539111328125,0.15390639007091522,0.12558074295520782,0.036607835441827774
1782829358654040300,9.549040283203125,0.1301691085100174,0.1518232673406601,0.0580633245408535
1782829358663969500,9.558969482421874,0.1401698887348175,0.1553385704755783,0.0565917007625103
1782829358673898500,9.5688984375,0.19465410709381104,0.18401314318180084,0.02881401777267456
1782829358683826400,9.578826416015625,0.2644278407096863,0.21545308828353882,-0.010275064036250114
1782829358693755400,9.58875537109375,0.3288341760635376,0.249413400888443,-0.04630786553025246
1782829358703684400,9.598684326171876,0.36215537786483765,0.2779744565486908,-0.06178722158074379
1782829358713613600,9.608613525390625,0.38104453682899475,0.26096853613853455,-0.05766880139708519
1782829358723542500,9.61854248046875,0.38617458939552307,0.24704685807228088,-0.020452991127967834
1782829358733470500,9.628470458984374,0.3874577283859253,0.22884215414524078,0.033558622002601624
1782829358743399400,9.6383994140625,0.3941020369529724,0.22471797466278076,0.08935823291540146
1782829358753328600,9.64832861328125,0.409905344247818,0.25082868337631226,0.13990870118141174
1782829358763257600,9.658257568359375,0.4192333519458771,0.2576136291027069,0.16285769641399384
1782829358773186600,9.6681865234375,0.42232224345207214,0.23009654879570007,0.14828205108642578
1782829358783115300,9.678115234375,0.42478781938552856,0.1627129763364792,0.11617418378591537
1782829358793043500,9.68804345703125,0.41149967908859253,0.04759456589818001,0.0934099480509758
1782829358802972700,9.69797265625,0.4027317464351654,-0.04963771253824234,0.08863010257482529
1782829358812901400,9.7079013671875,0.37562301754951477,-0.11256524175405502,0.10640905052423477
1782829358822830300,9.717830322265625,0.3304901421070099,-0.14940927922725677,0.13435065746307373
1782829358832759300,9.72775927734375,0.30107581615448,-0.12391883134841919,0.12867014110088348
1782829358842687500,9.7376875,0.26270046830177307,-0.07606129348278046,0.08405793458223343
1782829358852616400,9.747616455078125,0.25184470415115356,-0.04234937205910683,0.004867716692388058
1782829358862545400,9.75754541015625,0.26483187079429626,0.017129667103290558,-0.08510451763868332
1782829358872474400,9.767474365234374,0.28543487191200256,0.05076403170824051,-0.1484835147857666
1782829358882403300,9.7774033203125,0.31787484884262085,0.09177645295858383,-0.17926166951656342
1782829358892332500,9.78733251953125,0.36055999994277954,0.11079783737659454,-0.1670803427696228
1782829358902260500,9.797260498046874,0.39387428760528564,0.1330954134464264,-0.10578449815511703
1782829358912189400,9.807189453125,0.41862913966178894,0.158473938703537,-0.03828302025794983
1782829358922118400,9.817118408203125,0.4301997721195221,0.18393349647521973,-0.0015769372694194317
1782829358932047400,9.82704736328125,0.4393075406551361,0.2112315446138382,0.0038720080628991127
1782829358941976600,9.8369765625,0.4404495060443878,0.22488504648208618,-0.008126065135002136
1782829358951904500,9.846904541015626,0.4351605176925659,0.22463084757328033,-0.008174755610525608
1782829358961833500,9.85683349609375,0.42680618166923523,0.24245885014533997,0.01760384440422058
1782829358971763000,9.866762939453125,0.4088311195373535,0.2573428750038147,0.045802146196365356
1782829358981692000,9.87669189453125,0.39187291264533997,0.25224292278289795,0.08665530383586884
1782829358991621000,9.88662109375,0.3887864947319031,0.22012756764888763,0.12214093655347824
1782829359001550000,9.896550048828125,0.40453454852104187,0.18179775774478912,0.14357858896255493
1782829359011481000,9.906481201171875,0.4309099614620209,0.13322587311267853,0.15626341104507446
1782829359021409000,9.916408935546874,0.45145440101623535,0.08478165417909622,0.16217777132987976
1782829359031338000,9.926337890625,0.4810965359210968,0.06619580090045929,0.1639128029346466
1782829359041267000,9.936266845703125,0.5169498920440674,0.061588529497385025,0.15244443714618683
1782829359051196000,9.94619580078125,0.5594677925109863,0.056126706302165985,0.12453349679708481
1782829359061125000,9.956125,0.6011598110198975,0.08424888551235199,0.08517170697450638
1782829359071053000,9.966052978515625,0.640953779220581,0.11433438956737518,0.04560871422290802
1782829359080982000,9.97598193359375,0.672851026058197,0.11887161433696747,0.008211806416511536
1782829359090911000,9.985910888671874,0.7100682258605957,0.0862526223063469,-0.0063363974913954735
1782829359100840000,9.99583984375,0.7239236235618591,0.04669083282351494,0.02748415246605873
1782829359110769200,10.00576904296875,0.7146180868148804,0.016059137880802155,0.11671298742294312
1782829359120697900,10.01569775390625,0.6935135722160339,0.009723744355142117,0.21913284063339233
1782829359130626000,10.0256259765625,0.6762979626655579,0.06095539778470993,0.2956012487411499
1782829359140555000,10.035554931640625,0.6679031848907471,0.0850953534245491,0.32339799404144287
1782829359150484000,10.04548388671875,0.6752509474754333,0.08658744394779205,0.2848099172115326
1782829359160413000,10.055412841796874,0.6712830662727356,0.014736958779394627,0.1789114624261856
1782829359170342000,10.065341796875,0.6867098212242126,-0.06919486075639725,0.024187861010432243
1782829359180270000,10.07527001953125,0.6948381066322327,-0.14045439660549164,-0.12362290173768997
1782829359190198800,10.08519873046875,0.6602046489715576,-0.19777919352054596,-0.21377906203269958
1782829359200127700,10.095127685546874,0.6060926914215088,-0.24838989973068237,-0.2332659363746643
1782829359210057000,10.105056884765625,0.5646255016326904,-0.25139787793159485,-0.2008209526538849
1782829359219986000,10.11498583984375,0.5321527719497681,-0.2348487377166748,-0.16017818450927734
1782829359229915000,10.124914794921875,0.5203438997268677,-0.22829768061637878,-0.14386621117591858
1782829359239842800,10.1348427734375,0.5273970365524292,-0.2344767451286316,-0.12268954515457153
1782829359249771800,10.144771728515625,0.5313364863395691,-0.2314929962158203,-0.09205730259418488
1782829359259701000,10.154700927734375,0.5068724751472473,-0.229719877243042,-0.05381457507610321
1782829359269630000,10.1646298828125,0.46240124106407166,-0.19187277555465698,-0.0363178625702858
1782829359279559000,10.174558837890626,0.4073568880558014,-0.10969668626785278,-0.048581719398498535
1782829359289486800,10.18448681640625,0.34867483377456665,0.0006907470524311066,-0.08925880491733551
1782829359299416000,10.194416015625,0.2767966687679291,0.10445123165845871,-0.13814431428909302
1782829359309345000,10.204344970703126,0.21131378412246704,0.19404985010623932,-0.1590157449245453
1782829359319274000,10.21427392578125,0.17856702208518982,0.2656726539134979,-0.16124801337718964
1782829359329203000,10.224202880859375,0.20088760554790497,0.3145746886730194,-0.16563484072685242
1782829359339132000,10.2341318359375,0.2571556866168976,0.3122209906578064,-0.15954259037971497
1782829359349060000,10.24406005859375,0.30181416869163513,0.25643134117126465,-0.13458360731601715
1782829359358989000,10.253989013671875,0.3250707685947418,0.14781883358955383,-0.0876094400882721
1782829359368918000,10.26391796875,0.3329659402370453,0.03382214531302452,-0.026939699426293373
1782829359378847000,10.273846923828126,0.32219210267066956,-0.04230803996324539,0.013044467195868492
1782829359388776000,10.28377587890625,0.3008301854133606,-0.09300053119659424,0.017493437975645065
1782829359398704000,10.2937041015625,0.2831057906150818,-0.146630197763443,0.0032657673582434654
1782829359408633000,10.303633056640624,0.24920392036437988,-0.18291442096233368,-0.004677005112171173
1782829359418562000,10.31356201171875,0.21470506489276886,-0.14983050525188446,0.0012791547924280167
1782829359428490800,10.32349072265625,0.1878228336572647,-0.08266619592905045,-0.024789001792669296
1782829359438420000,10.333419921875,0.18058568239212036,-0.05332668125629425,-0.08949768543243408
1782829359448349000,10.343348876953126,0.16924604773521423,-0.05165737867355347,-0.16714701056480408
1782829359458276900,10.35327685546875,0.1649642288684845,-0.06593272089958191,-0.218000590801239
1782829359468205800,10.363205810546875,0.15921492874622345,-0.08825204521417618,-0.22184762358665466
1782829359478134800,10.373134765625,0.14921848475933075,-0.08237817883491516,-0.19659098982810974
1782829359488064000,10.38306396484375,0.13895444571971893,-0.06411995738744736,-0.1627781242132187
1782829359497993000,10.392992919921875,0.12793374061584473,-0.07565783709287643,-0.1390773355960846
1782829359507921000,10.4029208984375,0.11726640164852142,-0.11352280527353287,-0.10089992731809616
1782829359517849900,10.412849853515626,0.09591636806726456,-0.1346280872821808,-0.04503212869167328
1782829359527778800,10.42277880859375,0.07499252259731293,-0.12135520577430725,0.006088984198868275
1782829359537708000,10.4327080078125,0.06939775496721268,-0.086798295378685,0.03118075430393219
1782829359547637000,10.442636962890624,0.06197211146354675,-0.06260944157838821,0.01620221883058548
1782829359557566000,10.45256591796875,0.05426705628633499,-0.026676738634705544,-0.009928185492753983
1782829359567494000,10.462493896484375,0.041086595505476,0.012043658643960953,-0.0347740575671196
1782829359577422800,10.4724228515625,0.027603011578321457,0.07494086772203445,-0.06960687786340714
1782829359587352000,10.48235205078125,0.04844691976904869,0.19773724675178528,-0.12951843440532684
1782829359597281000,10.492281005859375,0.049543607980012894,0.3361095190048218,-0.2032531052827835
1782829359607210000,10.5022099609375,0.009325630962848663,0.45286014676094055,-0.2869548797607422
1782829359617139000,10.512138916015624,-0.05326025187969208,0.6217612624168396,-0.24390487372875214
1782829359627067000,10.52206689453125,-0.2259742021560669,0.45625177025794983,-0.1276884227991104
1782829359636996000,10.53199609375,-0.33305883407592773,-0.08899236470460892,-0.17352008819580078
1782829359646925000,10.541925048828125,-0.29096877574920654,-0.3226640522480011,-0.19259151816368103
1782829359656854000,10.55185400390625,-0.2640242278575897,-0.4404524862766266,-0.17886345088481903
1782829359666783000,10.561782958984375,-0.27654585242271423,-0.43648725748062134,-0.10544031858444214
1782829359676711000,10.5717109375,-0.2599021792411804,-0.3956271708011627,-0.04544861987233162
1782829359686640000,10.58164013671875,-0.23890778422355652,-0.39836791157722473,-0.009115082211792469
1782829359696569000,10.591569091796876,-0.2464091181755066,-0.3435816168785095,0.00893023144453764
1782829359706497800,10.601497802734375,-0.29682621359825134,-0.2583039402961731,0.014905080199241638
1782829359716426800,10.6114267578125,-0.38691988587379456,-0.26673418283462524,-0.013723635114729404
1782829359726356000,10.62135595703125,-0.49804240465164185,-0.30363017320632935,-0.024647679179906845
1782829359736284000,10.631283935546875,-0.6179384589195251,-0.30434897541999817,-0.00665429700165987
