time,seconds_elapsed,z,y,x
1782831558959667200,0.087667236328125,0.1460217513501644,-0.08043832226209342,-0.10671568647604435
1782831558969596400,0.097596435546875,0.15096797558069228,-0.10974771111570299,-0.043323118495754896
1782831558979524400,0.1075244140625,0.09756430217325687,-0.07856054569147526,-0.005538819828815758
1782831558989453300,0.117453369140625,0.05088672215044498,-0.03654328562989831,0.05490306338602677
1782831558999382300,0.12738232421875,-0.015320903250575064,-0.023952172669395803,0.06655475833825766
1782831559009311200,0.137311279296875,-0.08042904297709465,-0.04163724776804447,-0.041167420032899825
1782831559019240400,0.147240478515625,-0.0020727146208286283,0.002581979317218065,-0.12949485157700255
1782831559029169400,0.15716943359375,-0.026564181798696518,0.018420915092527867,-0.11788197253150864
1782831559039098400,0.167098388671875,0.03129530197381973,-0.03349558849707246,-0.09291322496440262
1782831559049027300,0.17702734375,0.11385668080449103,-0.06832849001251161,-0.02137001068908721
1782831559058956300,0.186956298828125,0.0780786804586649,-0.06305471432805061,0.07174892944786697
1782831559068885200,0.19688525390625,-0.008254618126153945,-0.06790566149055957,0.07569792280197143
1782831559078814200,0.206814208984375,0.008557984986901282,-0.028343101104721425,0.009569299187604338
1782831559088743200,0.2167431640625,-0.00599310293495655,0.08611965583413839,-0.014402436698786913
1782831559098672400,0.22667236328125,-0.1375730719566345,0.07074044652506709,-0.022194734542816875
1782831559108601300,0.236601318359375,-0.14118015653789043,0.011569660958275198,0.007479542100429534
1782831559118530300,0.2465302734375,-0.1828226650029421,0.027720731422677634,0.01869191405363381
1782831559128459300,0.256459228515625,-0.14207681311666964,0.06252258021272719,0.0017758870987221597
1782831559138388500,0.266388427734375,-0.046725510817766186,0.06776997934691607,-0.027865144862048326
1782831559148317400,0.2763173828125,0.004848024553060532,0.05448240855485201,0.007680654163099825
1782831559158246400,0.286246337890625,0.004021510601043701,0.04403247234150767,0.05807060577254742
1782831559168175000,0.296175048828125,0.053773091241717336,0.033522038112580775,0.08842015132885425
1782831559178103300,0.306103271484375,-0.02084755771756172,0.003978986633569002,0.13467835516212506
1782831559188032500,0.316032470703125,-0.0024216741889715194,-0.028338571060076354,0.1837698461925611
1782831559197961200,0.325961181640625,-0.057013096076250075,-0.042608284757286306,0.16492431247979403
1782831559207890200,0.33589013671875,-0.13409399766921995,-0.06536050705239177,0.11336666879784316
1782831559217819100,0.345819091796875,-0.2171983973354101,-0.07802680414095521,0.043725726213585586
1782831559227748400,0.355748291015625,-0.35239538781046864,-0.10188961802646516,-0.050886795215681194
1782831559237677300,0.36567724609375,-0.30715280902683734,-0.03529416235163808,-0.1406124213862233
1782831559247606300,0.375606201171875,-0.32560908769369123,0.037178076402097936,-0.11551316104093566
1782831559257535200,0.38553515625,-0.31098551905751226,0.04187449059002101,-0.019068875873554495
1782831559267464400,0.39546435546875,-0.1882195556104183,0.013554624230414628,0.08663361497195438
1782831559277393400,0.405393310546875,-0.09798808054327965,-0.008157295231521129,0.111864922465384
1782831559287322400,0.415322265625,-0.024589666855335233,-0.08361373742781579,0.07286677276296541
1782831559297251300,0.425251220703125,0.09768354463875294,-0.12845029269382358,0.06157298787031323
1782831559307180300,0.43518017578125,0.0958288566827774,-0.0804630913771689,0.05990794073492288
1782831559317109200,0.445109130859375,0.04603051429092884,-0.07382336110174656,0.05116248861821368
1782831559327038200,0.4550380859375,0.0895762260288,-0.07751629733555018,-0.016091997220925986
1782831559336967200,0.46496728515625,0.05832827032804489,-0.009104147627577185,-0.059748969047237185
1782831559346896400,0.474896484375,0.0033148236364126202,0.0005402443565428257,-0.05856861842256039
1782831559356825300,0.484825439453125,0.019672668719291686,-0.004034589278325438,-0.06480161279430613
1782831559366753300,0.494753173828125,-0.054010991650819774,0.01810176614075899,-0.03404038116456941
1782831559376682200,0.50468212890625,-0.0703138916760683,0.029940453298762437,0.029858273174334315
1782831559386611200,0.514611083984375,-0.13176760054826736,0.0009629998132586479,0.05784534564930945
1782831559396540400,0.52454052734375,-0.1275830083400011,-0.029189050409570334,0.07714759188732132
1782831559406469400,0.534469482421875,-0.16547288627326487,-0.007271160046756267,0.09626987844854593
1782831559416398300,0.5443984375,-0.11773790615200996,-0.015912366337701676,0.08331634365012869
1782831559426327300,0.554327392578125,-0.12263386150002478,-0.0266754601534456,0.03539906576452777
1782831559436256500,0.564256591796875,-0.15142624074220656,-0.067076809450984,-0.004102667812164873
1782831559446185500,0.574185546875,-0.15228548792004584,-0.10270641430206597,0.03284043079027906
1782831559456115000,0.584114990234375,-0.12153379130363463,-0.10942490890212356,0.05008530610706657
1782831559466044000,0.5940439453125,-0.09179799373149872,-0.096233857287094,0.009259356455598026
1782831559475972900,0.603972900390625,-0.0663794748365879,-0.09793116272427141,0.031189192984532564
1782831559485902000,0.613902099609375,-0.08433715633153915,-0.06724566321186722,0.09474217569092289
1782831559495831000,0.6238310546875,-0.08073474792540072,-0.02588540575429797,0.07073584341518581
1782831559505760000,0.633760009765625,-0.08373568330705165,-0.005379135755077004,0.014769479912891983
1782831559515689000,0.64368896484375,-0.08125263431966304,-0.019859788789227603,-0.0004992364927195012
1782831559525618200,0.6536181640625,-0.13174538871645927,-0.03465082294680178,0.07451580034531652
1782831559535547100,0.663547119140625,-0.17415946607589722,-0.04554207318685949,0.132122715862561
1782831559545475800,0.673475830078125,-0.22240356476306913,-0.062446007845178245,0.0777138109353371
1782831559555404800,0.68340478515625,-0.2174082406938076,-0.0412242830529809,-0.04052605338944122
1782831559565334000,0.693333984375,-0.19595570282042024,-0.015267930954322217,-0.045867323085851966
1782831559575262000,0.703261962890625,-0.11452712741196155,-0.026444281746074556,0.03530203513083979
1782831559585191000,0.71319091796875,-0.1265244391977787,-0.02267470007948577,0.09022345615746453
1782831559595119900,0.723119873046875,-0.184268187636137,-0.056148003679513926,0.033646577807702124
1782831559605048800,0.733048828125,-0.10274433515965938,-0.056175476208329196,-0.06281708791358397
1782831559614978000,0.74297802734375,-0.11441314564347266,0.022724457505345342,-0.021285181949846445
1782831559624907000,0.752906982421875,-0.13781623306274413,0.004631824519112706,0.04588728816164657
1782831559634836000,0.7628359375,-0.1844511429876089,-0.028308468182757496,0.036305896677449344
1782831559644765000,0.772764892578125,-0.18095804017484188,-0.009903700507432223,0.013541929145622997
1782831559654694100,0.782694091796875,-0.15045534988343714,0.04220445319674909,0.015937573844194412
1782831559664623000,0.792623046875,-0.11408230625391005,0.058865957401320335,-0.031407511910330504
1782831559674552000,0.802552001953125,-0.050012861925363535,0.056881067194417115,-0.02741190293552354
1782831559684481000,0.81248095703125,-0.01821077947318554,0.03942198287136853,-0.0014611037948168814
1782831559694410000,0.822409912109375,0.05222878440916538,-0.0032696693204343316,0.012551347205694764
1782831559704339000,0.8323388671875,0.1346118840634823,-0.041719300028309224,0.014239355091564357
1782831559714268000,0.842267822265625,0.12947569021880626,-0.038239056697115296,0.043023971152398734
1782831559724196900,0.85219677734375,0.12059271106123924,-0.049974429611116644,0.03669270403794944
1782831559734126000,0.8621259765625,0.0805658210992813,-0.008450067633017897,-0.022146529753226785
1782831559744055000,0.872054931640625,0.011872808623313903,0.04260938073582947,-0.0012651793639175592
1782831559753984000,0.88198388671875,-0.03674889120459556,0.035289193915575744,-0.00930792657136917
1782831559763913000,0.891912841796875,-0.12039455814063549,0.05903444583602249,-0.03606244331039488
1782831559773842200,0.90184228515625,-0.13955810829401016,0.05011990249641239,-0.007736202008929103
1782831559783770000,0.91177001953125,-0.11337561928927897,0.012205986100435256,0.0219214705593884
1782831559793699000,0.921698974609375,-0.07507482246756553,0.011696136882156132,0.017123258231114595
1782831559803628000,0.9316279296875,-0.0764180537700653,-0.019030936749652026,0.03361654799561947
1782831559813557000,0.941556884765625,-0.06564005464613437,-0.014806889313831924,0.048283243387471884
1782831559823486200,0.951486328125,-0.08235036642849444,0.007950082221627235,0.0509509830256924
1782831559833415000,0.961414794921875,-0.08799567883908749,0.012427227635681628,0.022890553053561597
1782831559843344000,0.97134375,-0.10798457390069961,0.015904913683608173,-0.01951992584299296
1782831559853272800,0.98127294921875,-0.1232341654807329,-0.019078063827008006,0.012034684654138981
1782831559863202000,0.9912021484375,-0.0782043526649475,-0.015507584929093718,0.040507476553134615
1782831559873131000,1.001131103515625,-0.09785948572754859,0.03538870876729488,0.05714742651302367
1782831559883060000,1.01106005859375,-0.19074527469575403,0.0201480311460793,0.10923755137016997
1782831559892989000,1.020989013671875,-0.24632044692337512,0.015867723478376866,0.0467262780027464
1782831559902918100,1.030918212890625,-0.23302432749867438,0.07842669017873705,-0.11126109308702871
1782831559912847000,1.04084716796875,-0.2530874568402767,0.08939465891681611,-0.1295326080378145
1782831559922776000,1.050776123046875,-0.22343232328891752,0.08111950945928692,0.004998447608109563
1782831559932705000,1.060705078125,-0.19926000506281852,0.031221286889538166,0.08778556148605421
1782831559942634000,1.070634033203125,-0.09844634570479392,0.011343816313147544,0.036906091060303146
1782831559952563000,1.08056298828125,-0.030080665487051007,0.021813260944560167,-0.02716302447468042
1782831559962492000,1.090491943359375,0.028645664247870444,-0.026764380545914172,-0.024367311075236646
1782831559972420900,1.1004208984375,0.08046294524669646,-0.027847499607503413,0.015985669035930187
1782831559982350000,1.11035009765625,0.07542319751381873,-0.006690291418880224,0.04174607843738049
1782831559992279000,1.120279052734375,0.04496200827658176,0.044006095791235565,0.01565355100473389
1782831560002207000,1.13020703125,-0.0332224706441164,0.09319755833111702,-0.030341654510796068
1782831560012136000,1.140135986328125,-0.11096212840676307,0.10631459486186504,-0.08408844226747751
1782831560022065000,1.15006494140625,-0.13654665151834486,0.06117737614884972,-0.13013932349300011
1782831560031994000,1.159994140625,-0.109414314442873,-0.0067301119726151225,-0.09291548998672515
1782831560041923000,1.169923095703125,-0.06442950981259346,-0.0034785628307610747,0.0026197723106481134
1782831560051852000,1.17985205078125,-0.03577800034582615,0.03527545765116811,0.029017913360055533
1782831560061781000,1.189781005859375,0.023577859464287757,0.06188990833237767,-0.025755020840279755
1782831560071710200,1.199710205078125,0.03601765432059765,0.08611132639721035,-0.06820128343626856
1782831560081639200,1.20963916015625,0.03406827381849289,0.07550437299124896,-0.03025775735331699
1782831560091567900,1.21956787109375,0.0435007035523653,0.08738178472444415,0.02005682746497914
1782831560101496800,1.229496826171875,0.02103752733170986,0.09075454909317195,0.04228466055979952
1782831560111426000,1.239426025390625,0.019985972452163697,0.042520825669541955,0.06706986825354397
1782831560121355000,1.24935498046875,0.051209962755441665,0.06192351834103465,0.0729612826460041
1782831560131284000,1.259283935546875,-0.02935118216872215,0.08164828257374465,0.013177169220149516
1782831560141213000,1.269212890625,-0.0808493142157793,-0.009279211933538317,-0.004546612187381833
1782831560151142000,1.279141845703125,-0.08042553584575653,-0.010146934678778051,0.054900159042887385
1782831560161071000,1.289071044921875,-0.15251988119781015,0.017827186983078717,0.12583806436881423
1782831560171000000,1.299,-0.1223112054169178,-0.020482304601743818,0.06814231979064643
1782831560180929000,1.308928955078125,-0.11201719041764735,0.0007877893768250941,-0.026341131898853926
1782831560190858000,1.31885791015625,-0.0755593911141157,-0.009555471591651439,-0.05272738158106804
1782831560200787000,1.328786865234375,-0.0629506694316864,-0.06438216353952884,0.023814389900211244
1782831560210716000,1.3387158203125,-0.0706798023790121,-0.040577655712515114,0.12698568176766856
1782831560220644000,1.34864404296875,-0.17272855648994445,-0.02848097520545125,0.10509661564053967
1782831560230573000,1.358572998046875,-0.17623042713105677,-0.08305778404548764,0.008612089794315398
1782831560240501800,1.368501708984375,-0.13864917675554753,-0.03927409883327782,-0.018355284244101492
1782831560250431000,1.378430908203125,-0.1762339342623949,0.011167802159115671,0.018627561846841126
1782831560260360000,1.38835986328125,-0.19268354928195475,-0.040788229723274706,0.044358927816897625
1782831560270289000,1.398288818359375,-0.1467892285913229,-0.06044701604768633,0.04698474627584219
1782831560280217900,1.4082177734375,-0.14140987364053725,-0.028052009203657507,0.03259621023824438
1782831560290147000,1.41814697265625,-0.14879823032617567,-0.04557129928134381,0.047109486900363116
1782831560300076000,1.428075927734375,-0.058361003553867336,-0.02814129492230713,0.0009327690717764198
1782831560310005000,1.4380048828125,0.004577390918135643,0.04384593679346144,-0.0429694096872583
1782831560319934000,1.447933837890625,-0.007446808874607086,-0.013310147950053215,-0.053460390297044066
1782831560329863200,1.45786328125,-0.013536942443251609,-0.09311272959187626,-0.004978646929096431
1782831560339792100,1.467792236328125,-0.03294716083407402,-0.0808445649754256,0.03641447161845863
1782831560349720800,1.477720947265625,0.025388123756647108,-0.08786584191434085,0.016290241473075
1782831560359649800,1.48764990234375,0.009725275200605392,-0.07868409900590777,0.0332852336820215
1782831560369579000,1.4975791015625,-0.055419689404964445,-0.0573015576288104,0.028072796263359484
1782831560379508000,1.507508056640625,-0.07992401606440544,-0.03914798823557794,-0.019134725917689503
1782831560389437000,1.51743701171875,-0.10004618211686611,-0.030285540409386157,-0.061252468945365394
1782831560399366000,1.527365966796875,-0.15748481012880802,-0.008692132760584354,-0.002259487630892545
1782831560409295000,1.537295166015625,-0.17223229740560053,-0.0495819231621921,0.023775647058710454
1782831560419224000,1.54722412109375,-0.07398761175274848,-0.04687127596400678,-0.048319374146778137
1782831560429153000,1.557153076171875,-0.08734452145397663,0.018920754373446105,-0.06282324365973473
1782831560439082000,1.56708203125,-0.06778174284994602,-0.025155191783607006,-0.02888685259260237
1782831560449010000,1.577010009765625,-0.11726035176813601,-0.06084799806401133,-0.03032959874682128
1782831560458942200,1.586942138671875,-0.1269119772106409,-0.06319901816956698,-0.022007705804426222
1782831560468871200,1.59687109375,-0.08315233046114444,-0.08394180033840239,-0.01825447248443961
1782831560478800100,1.606800048828125,-0.056145081070065495,-0.055330184490606185,-0.024151056242361663
1782831560488729300,1.616729248046875,-0.06824351514279842,-0.042129342133924365,-0.030706980691850183
1782831560498658300,1.626658203125,-0.02847498385608196,-0.054979763617739076,-0.018296430196333674
1782831560508587000,1.6365869140625,-0.03347264601290226,-0.04157470392584801,-0.019595365699380637
1782831560518516000,1.646515869140625,-0.03753215053677559,-0.05542129684016108,-0.024541516864672302
1782831560528445200,1.656445068359375,0.018071078741550443,-0.04864639587774872,-0.029575547242816535
1782831560538374100,1.6663740234375,-0.0033329438149929044,0.0033089784175157544,-0.030006047614570704
1782831560548303000,1.67630322265625,-0.016142156505584714,-0.02349829142205417,-0.019900577457342295
1782831560558232000,1.686232177734375,-0.013484335473179817,-0.03035341801382601,0.009429561923351138
1782831560568161000,1.6961611328125,-0.03963876742720604,0.011718567909672855,0.033672114107757806
1782831560578090200,1.70609033203125,-0.07289689390659332,0.01858275459073484,0.03149800320537761
1782831560588019200,1.716019287109375,-0.08778758904635905,-0.02056348007917404,0.005276552163437008
1782831560597948200,1.7259482421875,-0.10754267535209655,-0.015246595905348657,0.022442096900008618
1782831560607877000,1.735877197265625,-0.10111819526255131,-0.035344431234151125,0.058015204057190566
1782831560617806000,1.74580615234375,-0.06501227813661098,-0.05051292040199041,0.06489044185522944
1782831560627735000,1.755735107421875,-0.06899287220537662,-0.022572408748790622,0.06361180022154003
1782831560637664000,1.7656640625,-0.10015256510078907,-0.031610724598541855,0.07549103858564049
1782831560647593000,1.775593017578125,-0.09043430416285991,-0.008407178339362144,0.013368499674322083
1782831560657522200,1.785522216796875,-0.1092746137112379,0.031744287850335236,-0.014400080344919115
1782831560667451100,1.795451171875,-0.12352175025045871,0.012895868060737848,0.011125351256877183
1782831560677380000,1.805380126953125,-0.09801789115965366,0.016332783706858752,0.051597701697703446
1782831560687309000,1.81530908203125,-0.06870236482620239,0.013347630416229366,0.03675071783550084
1782831560697237000,1.825237060546875,-0.02648994751870632,0.017233458873629568,0.012560626490693538
1782831560707166200,1.835166259765625,-0.03507891216576099,0.012145195823907851,0.022660306227952242
1782831560717095200,1.84509521484375,-0.042886955568194385,-0.02935461623482406,0.063852312712837
1782831560727024000,1.855024169921875,-0.03474690373241901,-0.010561799089983104,0.07377320181708782
1782831560736953000,1.864953125,-0.03982055373489857,0.010128741434961556,0.016153326353570446
1782831560746882300,1.87488232421875,-0.08564064014554024,-0.015547478548064826,0.005129828035971149
1782831560756811300,1.884811279296875,-0.1319312666773796,-0.05249927191361785,0.03992044304595329
1782831560766740000,1.894739990234375,-0.13047054647505282,-0.04306443102695048,0.021856259836070237
1782831560776669000,1.9046689453125,-0.13383797708153725,-0.021468393029645084,-0.000806393612595275
1782831560786598100,1.91459814453125,-0.13114800734519957,-0.02872881248667836,-0.04437419845126569
1782831560796527000,1.924527099609375,-0.1080675760090351,-0.057286725385859605,-0.04298859844491817
1782831560806456000,1.9344560546875,-0.05991758534610271,-0.06282908887863159,0.0009507157204207032
1782831560816385000,1.944385009765625,-0.07421849789917469,-0.07027838197126984,0.05540703085279092
1782831560826314200,1.954314208984375,-0.09845511353313922,-0.09677212888225913,0.042342263365397224
1782831560836243200,1.9642431640625,-0.09135200352966785,-0.07145991990603506,-0.04560628839633427
1782831560846172200,1.974172119140625,-0.06553367166221141,0.004139657087996602,-0.03994510256317444
1782831560856101000,1.98410107421875,-0.07086100416481494,-0.038744887327402826,-0.0005831062507349997
1782831560866030300,1.9940302734375,-0.08160159388780594,-0.09131021021455525,-0.0011712814022321254
1782831560875959000,2.003958984375,-0.10755085865855217,-0.06832425222881137,0.02269731377009302
1782831560885888000,2.013887939453125,-0.09333528630137443,-0.03910224939770996,0.02573144816844724
1782831560895817000,2.02381689453125,-0.06649053399562835,-0.004829319852590561,0.0070097600310575214
1782831560905746200,2.03374609375,-0.11065466989278792,0.017569339764490724,-0.022714237505430356
1782831560915675100,2.043675048828125,-0.04842822308242321,0.016850450905412435,-0.035264799259835854
1782831560925604000,2.05360400390625,-0.09521218608915805,-0.012470628385990857,-0.029074502385500817
1782831560935533000,2.063532958984375,-0.08252806108295917,0.002081993905827403,-0.01954331585173495
1782831560945462300,2.073462158203125,0.001786298894882202,0.0633327275518328,-0.00022428287570364772
1782831560955391200,2.08339111328125,-0.006822539496421813,0.0924048005182296,-0.005625055073853582
1782831560965319200,2.093319091796875,0.014926935496926306,0.07054916173666716,-0.01835602402961813
1782831560975248100,2.103248046875,0.029904724398255346,0.050217882978171105,-0.011437915204232558
1782831560985177000,2.113177001953125,-0.015986673682928085,0.05251373883038759,0.009955649890378117
1782831560995106300,2.123106201171875,-0.020018705677986144,0.03867737504914403,0.011998882688395678
1782831561005035300,2.13303515625,-0.029981881287693975,0.030734526285901665,0.006340117141185328
1782831561014964200,2.142964111328125,-0.09012333851754664,0.04781023731455206,0.03646001866008155
1782831561024893000,2.152892822265625,-0.1333861416608095,0.001971373138204217,0.08807642505825497
1782831561034822100,2.162822265625,-0.11165011067092417,0.005320829696580767,0.032641099692741406
1782831561044751000,2.172751220703125,-0.10993979962170124,0.030670448073744774,-0.051303769385581836
1782831561054680000,2.18268017578125,-0.1275093585819006,-0.021152385883033274,-0.05425628991508856
1782831561064609000,2.192609130859375,-0.08257365379035472,-0.0146467303160578,0.007519116058992222
1782831561074538200,2.202538330078125,-0.07776362316012382,0.026034970292821525,0.03741631473791785
1782831561084467200,2.21246728515625,-0.02426525720655918,-0.017179755925014615,0.008977589505305514
1782831561094396200,2.222396240234375,-0.06406652171909809,-0.0011643676042556762,0.015357189273508265
1782831561104325000,2.2323251953125,-0.03504033372104168,0.010162643704563379,0.0256830881152302
1782831561114254300,2.24225439453125,0.008224222987890243,0.004744198852404952,0.006363370152609423
1782831561124183300,2.252183349609375,-0.05617138455510139,0.021338044648244976,-0.01822183972331695
1782831561134112000,2.262112060546875,-0.08996317951977252,-0.040456148224696516,0.006475306094484403
1782831561144041000,2.272041015625,-0.10952654264569282,-0.05803557099178433,0.05930874186591245
1782831561153970200,2.28197021484375,-0.0991618004977703,-0.013455328574404119,0.04418551661190576
1782831561163899100,2.291899169921875,-0.0798643948316574,-0.0032023762378841636,0.02138306196690537
1782831561173828000,2.301828125,-0.10985562846958637,-0.025786110098287462,0.00025719876461662353
1782831561183757000,2.311757080078125,-0.1170341417968273,-0.060447527504339814,0.021657038336386904
1782831561193686000,2.32168603515625,-0.11035714825093745,-0.09162585203498601,0.08223554440978914
1782831561203615200,2.331615234375,-0.07633212905228137,-0.09467873679958283,0.03147914324128069
1782831561213544200,2.341544189453125,-0.08877952269315718,-0.05644632903896272,-0.0007933971337042748
1782831561223473200,2.35147314453125,-0.07822422640919685,-0.050265375381708145,-0.006158613961283117
1782831561233402000,2.361402099609375,-0.118590139067173,-0.04438830004185438,-0.006039471960486844
1782831561243331000,2.3713310546875,-0.1418266377478838,-0.0470914945859462,0.014460733624128624
1782831561253259300,2.38125927734375,-0.1193482639580965,-0.04031637442782521,0.013270656189881264
1782831561263188200,2.391188232421875,-0.08654372646510601,-0.0018839871156960725,-0.03822601455245167
1782831561273117200,2.4011171875,-0.09948387205898761,-0.0060565235599875445,-0.02317674958379939
1782831561283046000,2.4110458984375,-0.08643442087173461,-0.006226107973232865,0.010023609693208708
1782831561292975000,2.42097509765625,-0.06665361560285091,-0.00907528685927391,-0.025644336140574885
1782831561302904000,2.430904052734375,-0.057680035552382464,-0.009953311802819371,-0.007036657171137631
1782831561312833000,2.4408330078125,-0.07250292615294456,-0.03652743047364056,0.023183572050230576
1782831561322762000,2.450761962890625,-0.06245324130356311,-0.04129610618017614,0.034026909761643034
1782831561332691200,2.460691162109375,-0.0347515799075365,-0.018172347158938645,0.01681264877882786
1782831561342620200,2.4706201171875,-0.04394786279797554,-0.02988287789262831,0.005118466391740366
1782831561352549000,2.480549072265625,0.003471475502848625,-0.0000852671306580305,-0.016773230083892122
1782831561362478000,2.49047802734375,-0.027972879552841185,0.015358458781987428,-0.021709773170622063
1782831561372407300,2.5004072265625,-0.03639350189566612,-0.0016503975555300712,-0.04879696506327018
1782831561382336300,2.510336181640625,-0.0823918674826622,0.03164594204239547,-0.04586192539152689
1782831561392265000,2.520264892578125,-0.08645195652842522,0.021941709629818795,-0.02970656234449707
1782831561402194000,2.53019384765625,-0.08014671890437602,0.04847374272458255,-0.009859788300469517
1782831561412123100,2.540123046875,-0.11360358282625675,0.07145144433863461,0.006980196009855717
1782831561422052000,2.550052001953125,-0.10364449886977672,0.040548356552794575,0.002430332419462502
1782831561431981000,2.55998095703125,-0.08195289154350757,0.005503200526162982,-0.009748829606128856
1782831561441910000,2.569909912109375,-0.0641705666154623,0.004851750880107283,0.015914476096397265
1782831561451839200,2.579839111328125,-0.05400222382247448,-0.008172858126834034,0.022350929751526562
1782831561461768400,2.5897685546875,-0.0788403124809265,-0.01633870199099183,-0.010782045111386104
1782831561471697400,2.599697509765625,-0.09454641565680504,-0.01583367507830262,-0.021382897570123894
1782831561481626400,2.60962646484375,-0.08822188881039619,0.008690159999206661,-0.006821808844059705
1782831561491555300,2.619555419921875,-0.06244914965033531,0.059146381777897473,-0.02839737944207154
1782831561501484300,2.629484375,-0.028209026396274563,0.07464424903057515,-0.050140808287123216
1782831561511413200,2.639413330078125,0.002149286988377571,0.06956468074396252,-0.01791783354175277
1782831561521342200,2.64934228515625,-0.025915362501144408,0.04161306317485869,-0.0030618626554962244
1782831561531271400,2.659271484375,-0.07513327465653419,-0.017389307022467253,0.00665148464529775
1782831561541200400,2.669200439453125,-0.10337912593185901,-0.025451105990260837,0.010092236216319724
1782831561551129300,2.67912939453125,-0.07951835787296295,0.017180632707849145,-0.010838414941122755
1782831561561058300,2.689058349609375,-0.08878595243394374,0.022862404671311377,-0.015313249667081981
1782831561570987500,2.698987548828125,-0.11117547889649868,-0.00671747168675065,-0.019009428170742467
1782831561580915500,2.70891552734375,-0.15317396119236945,-0.026971593555808065,-0.007766697611892595
1782831561590845400,2.718845458984375,-0.11291092438697814,-0.02844290821738541,0.03698894703816622
1782831561600773400,2.7287734375,-0.09754209034144878,0.006414835478365421,0.04189210844510235
1782831561610702300,2.738702392578125,-0.13037526940703392,0.03025397622734308,-0.018026043156580997
1782831561620631600,2.748631591796875,-0.11944763267934322,0.049617432866990566,-0.05752300009345635
1782831561630560500,2.758560546875,-0.1281622695326805,0.07687354245260357,-0.04111792746852152
1782831561640489200,2.7684892578125,-0.11599953805208206,0.02539002345278859,0.02258996267179027
1782831561650418200,2.778418212890625,-0.07853811466395855,0.01043970708027482,0.050941027887258676
1782831561660347400,2.788347412109375,-0.10040566307902335,-0.0038624475818127392,0.09626205133511684
1782831561670276400,2.7982763671875,-0.14384674539864062,-0.04659881569817662,0.12205666440026834
1782831561680205300,2.808205322265625,-0.19504501771628854,-0.05045293384306133,0.0402907924619969
1782831561690134300,2.81813427734375,-0.12444763292372225,0.01421440331339836,0.0020192948000039906
1782831561700063500,2.8280634765625,-0.09551906008124351,0.05277852724641561,0.003288378587481566
1782831561709992400,2.837992431640625,-0.10462240399122237,0.020618059810623524,-0.015038839472760445
1782831561719921400,2.84792138671875,-0.1451765326976776,-0.031178982117772102,-0.0012234865135047584
1782831561729850400,2.857850341796875,-0.10400573339760302,-0.07956504655890166,0.03671703476160765
1782831561739779600,2.867779541015625,-0.0821305861979723,-0.028194778675213455,0.04852784753199667
1782831561749708300,2.877708251953125,-0.016400515180826185,0.03271086786016822,0.04597644601613283
1782831561759637200,2.88763720703125,0.022726795592904088,0.054422787322103976,0.0027005824618972834
1782831561769566200,2.897566162109375,0.03209960409402847,0.018304814432188867,-0.027366218896582722
1782831561779495400,2.907495361328125,0.025886720928549763,-0.04537161199077964,0.013907958579575642
1782831561789424400,2.91742431640625,-0.06327917073369026,-0.10010507269725202,0.054377427510148846
1782831561799353300,2.927353271484375,-0.050040334454178804,-0.1259695817939937,0.08426125068427064
1782831561809282300,2.9372822265625,-0.036597500035166736,-0.030882775650173423,0.024346405284525825
1782831561819211500,2.94721142578125,-0.08269581886529923,-0.0014148352339863777,-0.03364064582383726
1782831561829140500,2.957140380859375,-0.09601531916558742,-0.008886924680322409,-0.07710819145869463
1782831561839069400,2.9670693359375,-0.11978490180969238,-0.006351049527153372,-0.0652063302708324
1782831561848998400,2.976998291015625,-0.1491729088574648,-0.04690941601730883,-0.02366426823926158
1782831561858927600,2.986927734375,-0.12994272320866584,-0.05958521158657968,0.027009624011255798
1782831561868856300,2.996856201171875,-0.13744097000956534,-0.011606193576380609,0.016022210787190124
1782831561878785300,3.006785400390625,-0.09643091422915458,0.018738748870044945,-0.019874182640761136
1782831561888714200,3.01671435546875,-0.06510872424840927,0.035528190303221345,-0.04849273055284284
1782831561898643500,3.0266435546875,-0.04276829762458801,0.023436624362692237,-0.06452241226043552
1782831561908572400,3.036572509765625,-0.03480360235571861,-0.05393412702232599,-0.013878074897965416
1782831561918501400,3.04650146484375,-0.09965630601644515,-0.08234459427483379,0.06603868487516884
1782831561928430300,3.056430419921875,-0.07783668839633465,-0.038397681324928996,0.030451512660016306
1782831561938359300,3.066359375,-0.03323065395057201,0.028178850453719494,-0.00632181886609178
1782831561948288500,3.07628857421875,-0.05433130964636802,0.10102445256449281,-0.015815011477028018
1782831561958217500,3.086217529296875,-0.10057634347081183,0.08427388183698058,-0.010688507909304461
1782831561968146400,3.096146484375,-0.06841711814403534,0.07158091593720019,-0.005137938277190551
1782831561978075400,3.106075439453125,-0.05234159713387489,0.07253500179164112,0.0074766103578265755
1782831561988004400,3.11600439453125,-0.08507306939065457,0.017501316029578447,0.04977105252612382
1782831561997932500,3.1259326171875,-0.05884089602530002,-0.036207696999982,0.025164471068605778
1782831562007861200,3.135861328125,-0.05477963793575764,-0.01341375445500016,0.005565068514924496
1782831562017790200,3.145790283203125,-0.07836626522839069,0.0015124503895640373,0.033074865167238746
1782831562027719200,3.15571923828125,-0.07430442261695862,-0.000602057546377182,0.04524294867638964
1782831562037648400,3.1656484375,-0.09149287330508231,0.0240824479855597,0.018434943617880343
1782831562047577300,3.175577392578125,-0.07544774743318557,0.05181165497563779,0.01218735903177876
1782831562057506300,3.18550634765625,-0.10876958679854869,0.026853300938382743,0.01930420529965777
1782831562067435300,3.195435302734375,-0.12743103264868258,0.01747318591363728,0.020379615978826766
1782831562077364500,3.205364501953125,-0.09546002337038516,0.03289075447171926,0.006306333602592348
1782831562087293400,3.21529345703125,-0.10767068564593792,0.026069164823368192,0.031113867292576466
1782831562097222400,3.225222412109375,-0.09479425293803215,-0.003244315683469176,0.04616029185017105
1782831562107151400,3.2351513671875,-0.1251379532754421,-0.0022865765672177075,0.023199395240447482
1782831562117080600,3.24508056640625,-0.11964695464372634,-0.004300838999077678,0.025433766696392558
1782831562127009300,3.25500927734375,-0.09768296011686324,0.026695260832458732,0.032461961999861524
1782831562136938200,3.264938232421875,-0.0953583165615797,0.006914747824519872,0.015379254974843933
1782831562146867200,3.2748671875,-0.08903028258383273,-0.05501110860407352,0.006218143862485885
1782831562156796400,3.28479638671875,-0.062141106614470476,-0.03773300687111914,0.05362011090340092
1782831562166725400,3.294725341796875,-0.06097264735698699,-0.019869798726588485,0.05179549385870341
1782831562176654300,3.304654296875,-0.06456979506611824,-0.030420199639722704,0.011089599523483776
1782831562186583300,3.314583251953125,-0.10274082802832125,-0.008037175983190536,-0.008285816982015966
1782831562196512500,3.324512451171875,-0.10908581314086914,-0.02986753419302404,-0.01364052611531224
1782831562206441500,3.33444140625,-0.07591068876981735,-0.030541195670887825,-0.03774176099973265
1782831562216370400,3.344370361328125,-0.01809562866091728,-0.014272344045713543,-0.012625462754676117
1782831562226299400,3.35429931640625,-0.010106383472681045,-0.0018544687602669,-0.02452246510433033
1782831562236228400,3.364228271484375,-0.05055062206387519,-0.013899638275802135,-0.027135570212174207
1782831562246157300,3.3741572265625,-0.03998948056101799,-0.0064227995891124,0.0131676844391739
1782831562256086300,3.384086181640625,-0.05901274546086788,0.02226458490863442,0.006471661965828389
1782831562266015200,3.39401513671875,-0.041156770774722094,0.012190788531303405,-0.047403446611948306
1782831562275944400,3.4039443359375,0.005803717842698097,-0.022915450032800436,-0.047747730004973704
1782831562285873400,3.413873291015625,0.00907177972793579,-0.06304813845679164,-0.0007768295913934707
1782831562295802400,3.42380224609375,0.05022562789320945,-0.10291245826818049,0.03360501282145269
1782831562305731300,3.4337314453125,0.03459434351921081,-0.09044606766588985,0.04922261572997085
1782831562315660500,3.44366064453125,0.007821487405896187,-0.09218589707054198,0.0411582457791781
1782831562325589500,3.453589599609375,-0.030150223591923712,-0.07751008679047226,0.028386488155298865
1782831562335518500,3.4635185546875,-0.0832025993436575,-0.01751497922874987,-0.012565672558569349
1782831562345447400,3.473447509765625,-0.07017535998821259,-0.0013264262981712818,-0.062022809430467896
1782831562355376400,3.48337646484375,-0.10738076278865337,-0.0178824243016541,-0.05642727271204348
1782831562365305300,3.493305419921875,-0.11233400128185748,-0.06619425446279346,-0.036894551319559106
1782831562375234300,3.503234375,-0.060741761210560796,-0.10181194968037306,-0.00773910178549122
1782831562385163300,3.513163330078125,-0.013746785801649094,-0.09286014307029544,0.016683802801347337
1782831562395092500,3.523092529296875,0.010508534532785415,-0.09543810379952192,0.030927034917008128
1782831562405021400,3.533021484375,0.03350187210738659,-0.09172653593048453,0.03664083685339428
1782831562414950400,3.542950439453125,0.04413607884645462,-0.06112111591696739,0.01878103537550196
1782831562424879400,3.55287939453125,0.0654687897324562,-0.0723633715517819,-0.0232801003604196
1782831562434808600,3.56280859375,0.0658697717487812,-0.0826545370068401,0.006464428507443517
1782831562444737500,3.572737548828125,0.02690261997282505,-0.0865490602273494,0.07603865339788608
1782831562454666500,3.58266650390625,0.017028876212239266,-0.07836473085843026,0.07810837234403006
1782831562464595200,3.59259521484375,-0.010991349613666533,-0.048111266087740655,0.05180342600340954
1782831562474524200,3.602524169921875,-0.08384908055365085,-0.0644582244504243,0.06028243660312146
1782831562484453000,3.612453125,-0.10357786337435244,-0.10775624503754079,0.08907419479079544
1782831562494382000,3.622382080078125,-0.12120996617674827,-0.11189283338561654,0.08431756571508012
1782831562504311300,3.632311279296875,-0.13931027101278304,-0.07794687077254056,0.07187893076939508
1782831562514239200,3.6422392578125,-0.19738076718747616,-0.03773037652261555,0.0643636415021494
1782831562524168200,3.652168212890625,-0.2500304073572159,-0.041888811376318336,0.03377924601035193
1782831562534097200,3.66209716796875,-0.34634032555520533,-0.03247413649484515,0.026296804133360274
1782831562544026000,3.672026123046875,-0.37796237526535986,-0.054887263028696176,0.049492893171869216
1782831562553955300,3.681955322265625,-0.37694764526486396,-0.036733985896408555,0.08946631764722987
1782831562563884300,3.69188427734375,-0.33521161329746246,0.0173376499004662,0.03482164946906268
1782831562573813200,3.701813232421875,-0.26429741764068604,0.05828421199060976,-0.006744788951938971
1782831562583742200,3.7117421875,-0.1998877815723419,0.06139174955189228,-0.017932437455840406
1782831562593671400,3.72167138671875,-0.13140578149855137,0.0598952273838222,0.01946604023128748
1782831562603600400,3.731600341796875,-0.07944821524620056,0.05353007626608014,0.02899804874896072
1782831562613529000,3.741529052734375,-0.04633095854222774,-0.0007603899132460355,0.04557790255206637
1782831562623458000,3.7514580078125,-0.029109190106391906,-0.048805605027452105,0.05091031308858655
1782831562633387300,3.76138720703125,0.005358896684646606,-0.029175021884217858,0.06093507355926558
1782831562643316200,3.771316162109375,0.03161094379425049,0.017827771504968403,0.09105304798255674
1782831562653245200,3.7812451171875,0.021895605465769765,0.011865575164929032,0.11290527096432633
1782831562663174100,3.791174072265625,0.006193593943119049,0.028905703423544763,0.08807286312798969
1782831562673103400,3.801103271484375,0.027862989437580105,0.051606268596649164,0.034196941699460144
1782831562683032300,3.8110322265625,-0.01054886654317379,0.08202391095310449,0.013197910614078864
1782831562692961300,3.820961181640625,0.02605564775466919,0.08616101075783371,0.01820556444195099
1782831562702890200,3.83089013671875,0.049022681844234466,0.11981259353421628,0.002044365309178829
1782831562712819500,3.8408193359375,-0.04791793547272682,0.08811988974064588,-0.015775542549742384
1782831562722748200,3.850748046875,-0.10948270350396633,0.02750898836813867,0.02307740826201625
1782831562732677000,3.860677001953125,-0.22850597329139707,0.05407967297285795,-0.016671970799658445
1782831562742606000,3.870606201171875,-0.285582782253623,0.031911826436966655,-0.08661294664326123
1782831562752535300,3.880535400390625,-0.3806657890051603,0.008116817090660334,-0.07900676422216929
1782831562762464300,3.89046435546875,-0.3308528335660696,-0.003901391352713108,-0.09285290047875605
1782831562772393200,3.900393310546875,-0.2927244707018137,-0.024671353789418933,-0.1296635135416407
1782831562782322200,3.910322265625,-0.21830781988203524,-0.04641008819304406,-0.1909298740150407
1782831562792251400,3.92025146484375,-0.08265548685491085,-0.04367562172785401,-0.21570538229867814
1782831562802180400,3.930180419921875,0.017097849795222282,-0.04348031835146248,-0.1824306334780529
1782831562812109300,3.940109375,0.09731295776069164,-0.06335873877592385,-0.1300573260316625
1782831562822038300,3.950038330078125,0.10608312419354915,-0.06468545733503997,-0.11329721115767023
1782831562831967200,3.95996728515625,0.08727204073965548,-0.08319755784235894,-0.08372254069768824
1782831562841896200,3.969896240234375,0.09854279181659222,-0.04090009259991347,-0.07772193030971102
1782831562851825200,3.9798251953125,0.054469256812334055,-0.002793430110812187,-0.08776081063728779
1782831562861754000,3.989754150390625,-0.0035381109982728955,-0.03560023262612522,-0.09821916761910542
1782831562871683300,3.999683349609375,-0.031307576933503146,-0.04765088203437626,-0.07740698260902426
1782831562881612300,4.0096123046875,-0.0622229396790266,-0.07877572281211614,-0.08876155777820385
1782831562891541200,4.019541259765625,-0.10016191745102405,-0.09217201467566191,-0.07678606509855017
1782831562901470200,4.02947021484375,-0.0373790058016777,-0.08355323941223324,-0.07793370989686808
1782831562911399400,4.0393994140625,-0.012715689188241957,-0.04381780667752027,-0.09256393660269677
1782831562921328400,4.049328369140625,-0.03354103507399559,-0.0415166170630604,-0.07418674192088656
1782831562931257300,4.05925732421875,-0.022286066088080404,-0.06568053278699516,-0.01619227925762534
1782831562941186300,4.069186279296875,-0.032203648990392686,-0.05689955269917846,0.051132769333384925
1782831562951115000,4.079114990234375,-0.07613689874112606,-0.03329115196615457,0.10767511522588319
1782831562961044200,4.089044189453125,-0.10525544119775294,0.013347776546701788,0.08594553224309347
1782831562970973200,4.09897314453125,-0.1822340514600277,0.05036357505917549,0.06813193539394996
1782831562980902100,4.108902099609375,-0.16969547240436075,0.02064078309908509,0.07550239109671675
1782831562990831000,4.1188310546875,-0.21583587681055066,0.03876687996350229,0.026286433436395598
1782831563000760300,4.12876025390625,-0.23486790953874587,0.009040069415420293,0.033747490032063794
1782831563010689300,4.138689208984375,-0.24667525171041488,-0.051239627241343254,0.09950344440913758
1782831563020618200,4.1486181640625,-0.17042378667891026,-0.04124824845045805,0.09605321262371726
1782831563030547200,4.158547119140625,-0.10885784960389136,0.015570055706053972,0.07565720719909295
1782831563040476400,4.168476318359375,-0.09532733690142631,0.03660349138453602,0.04769684006795287
1782831563050405400,4.1784052734375,-0.049506665968894956,0.037302725695073605,0.058771730646071954
1782831563060334000,4.188333984375,-0.04806172785758972,0.029499577663466333,0.09526923177232965
1782831563070263000,4.198262939453125,-0.015326163947582244,0.020343626783415673,0.13398680183454417
1782831563080192300,4.208192138671875,-0.014249474626779555,0.037648105066642165,0.1295248174570035
1782831563090121200,4.218121337890625,-0.0648112026065588,0.023790552366897463,0.12846169087067247
1782831563100050200,4.22805029296875,-0.05379471855163574,0.01439903916530311,0.10946306722173467
1782831563109979100,4.237979248046875,-0.10366612617969512,0.03310761209279298,0.0609002853736747
1782831563119908400,4.247908447265625,-0.0951490577250719,-0.020322657060623167,0.01349138626847416
1782831563129837300,4.25783740234375,-0.10994389127492904,-0.052944677593559024,0.06663924001762643
1782831563139766300,4.267766357421875,-0.1290168405354023,-0.06987148167081177,0.11834423801470548
1782831563149695200,4.2776953125,-0.13968553406596182,-0.045344285592436785,0.12926538106952792
1782831563159624400,4.28762451171875,-0.17757716556489467,0.01142148465923965,0.0789588060277514
1782831563169553200,4.29755322265625,-0.16427110926806926,0.06540295795463025,0.023639170330623162
1782831563179482000,4.307482177734375,-0.15192892956733703,0.09547200606912373,0.021457204915350303
1782831563189411000,4.3174111328125,-0.12341302917897701,0.09180033181905746,0.025967978604370726
1782831563199340300,4.32734033203125,-0.1655026968896389,0.045970016275346276,0.05279212651350535
1782831563209269200,4.337269287109375,-0.1116711534589529,-0.014788842200487852,0.05193069651173427
1782831563219198200,4.3471982421875,-0.05596504832804203,-0.007921294518560171,0.04593554775016382
1782831563229127200,4.357127197265625,-0.08449673080742359,-0.034728418227657674,0.03211250010821968
1782831563239056400,4.367056396484375,-0.03892915785312653,-0.05967128243483603,0.00024769115075469017
1782831563248985300,4.3769853515625,-0.007618073788285255,0.022205255936831234,-0.00624585385331884
1782831563258914300,4.386914306640625,0.0356973363250494,0.029625322934985158,-0.01774296103203669
1782831563268843300,4.39684326171875,0.04568447733223438,-0.0063966422345489255,-0.009277293971087784
1782831563278772500,4.4067724609375,0.034116789135336875,-0.032839535741135475,-0.00012216507494449615
1782831563288701200,4.416701171875,0.07072948673963546,-0.067260495454818,-0.011638981601130216
1782831563298629400,4.42662939453125,0.04409165518283844,-0.06583893821910024,0.019954919726774094
1782831563308559000,4.43655908203125,0.008407762861251831,-0.07939663118943571,0.015558383534569292
1782831563318487000,4.446487060546875,0.031418051570653915,-0.07426482125893234,-0.06062633640365675
1782831563328416300,4.456416259765625,-0.001373041918873787,-0.05693016703315079,-0.06637907297778874
1782831563338345200,4.46634521484375,-0.02040799725651741,-0.08173734909668565,-0.01163163854489103
1782831563348274200,4.476274169921875,-0.07675766098797321,-0.06516323091462255,0.01999287711698562
1782831563358203100,4.486203125,-0.12229600784778594,-0.04673997773453593,-0.01735368771981448
1782831563368132400,4.49613232421875,-0.10933774207532405,-0.05620163356289267,-0.04036516373930499
1782831563378061300,4.506061279296875,-0.13720482316613197,-0.020062617884948848,-0.05593017794406041
1782831563387990300,4.515990234375,-0.17523147922158241,-0.026513839850947258,-0.05408480580570176
1782831563397919200,4.525919189453125,-0.18029343878626822,-0.063126245194301,0.01743073501139879
1782831563407848400,4.535848388671875,-0.13287410048544407,-0.08311660156063735,0.031550920702703295
1782831563417777400,4.54577734375,-0.10648469073176384,-0.06283237681426107,0.0027587606562301517
1782831563427706400,4.555706298828125,-0.08438800973594188,-0.07597294035106897,-0.02015687203966081
1782831563437635000,4.565635009765625,-0.03049275341928005,-0.061038113808631896,-0.03825498491860926
1782831563447564300,4.575564208984375,-0.029577976661920545,-0.02394588905908167,-0.007941898915171624
1782831563457493200,4.5854931640625,-0.11295710161626338,-0.03424779510386288,0.048749892784841355
1782831563467419100,4.595419189453125,-0.13712357462346553,-0.0456454604960978,0.037034795473888514
1782831563477348000,4.60534814453125,-0.046373628640174865,0.06001870763301849,-0.08004110310543328
1782831563487277000,4.615277099609375,-0.05016425309479236,0.06348360726460814,-0.1181229964794591
1782831563497206300,4.625206298828125,-0.023877134671807288,-0.009999269836395978,-0.014905819643661378
1782831563507135200,4.63513525390625,-0.0489817653119564,-0.002816153399273753,0.08563441133415325
1782831563517064200,4.645064208984375,-0.0639917029172182,-0.043737581048160785,0.08978963131746277
1782831563526993200,4.6549931640625,-0.07889818014800548,-0.061026715631783,0.0028455073579214513
1782831563536922000,4.664922119140625,-0.08546236096918583,0.00951645475551486,-0.04231900122081861
1782831563546851000,4.67485107421875,-0.06874445040225982,0.0031941198661923405,-0.053074770246632395
1782831563556780000,4.684780029296875,-0.10409925689995288,-0.031722441344708203,-0.04263221362214535
1782831563566709000,4.694708984375,-0.08388298282325267,-0.05916325984746217,-0.0323023235918954
1782831563576638200,4.70463818359375,-0.06811492032706737,-0.015314692705497145,-0.0495518750838004
1782831563586567200,4.714567138671875,-0.09756430217325687,-0.0008817512705922127,-0.03174631541064009
1782831563596496100,4.72449609375,-0.10084697710573673,-0.007402969732880592,-0.04669322511651553
1782831563606425000,4.734425048828125,-0.0805786805808544,0.03324329423643648,-0.07513395050996914
1782831563616354300,4.744354248046875,-0.05153203431665897,0.03496259230971336,-0.06217464355789125
1782831563626283300,4.754283203125,-0.021852935367822644,0.004594707379117608,-0.009647168463096023
1782831563636212200,4.764212158203125,0.002850713256001472,-0.045866994292289014,0.01766079917391762
1782831563646141000,4.774140869140625,0.036568858462572094,-0.049450478802248836,0.008230086473096162
1782831563656070100,4.784070068359375,0.0692073917388916,-0.02909815725572407,-0.015058763449359684
1782831563665999000,4.7939990234375,0.09034194970428944,0.004291048257425427,-0.01720661653247662
1782831563675928000,4.803927978515625,0.028653263032436368,0.02644552385509014,-0.020211807964136824
1782831563685857000,4.81385693359375,-0.007853051587939261,0.03801430803053081,-0.02919390011462383
1782831563695786200,4.8237861328125,-0.006582300999760628,0.08429740884304046,-0.031197175361588596
1782831563705715200,4.833715087890625,-0.054962593287229536,0.11042188405022024,-0.004960261889034882
1782831563715644200,4.84364404296875,-0.08579787653386592,0.11147760364823042,0.031620789334829896
1782831563725573000,4.853572998046875,-0.12386486459970474,0.06980579602345824,0.05977416742057539
1782831563735502300,4.86350244140625,-0.08994622838497161,0.09225202110931277,0.08635178408958018
1782831563745431300,4.873431396484375,-0.18710721045434475,0.05456628744602203,0.04325438237478956
1782831563755360000,4.883360107421875,-0.18289163858592508,0.016604659450799225,0.03347016179487109
1782831563765289000,4.8932890625,-0.19191665656268594,0.028376711113378403,0.06944439709885046
1782831563775218000,4.903218017578125,-0.1595546021401882,-0.00019596096351742742,0.0875988980738446
1782831563785147100,4.913147216796875,-0.15994915441572666,0.0189166627202183,0.0378147851367481
1782831563795076000,4.923076171875,-0.13455810804963111,0.010680968490242958,0.011007003840524703
1782831563805005000,4.933005126953125,-0.08764555022716522,0.054730099705606695,-0.007155844837706536
1782831563814934000,4.94293408203125,-0.0955675753980875,0.05505260965824127,0.023112762703187763
1782831563824863200,4.95286328125,-0.053394905579090116,-0.028956337632238864,0.05262158311903476
1782831563834792200,4.962792236328125,0.015602058279514311,-0.019467136209830642,0.061438273841049516
1782831563844721200,4.97272119140625,0.026382980012893676,-0.008925795385986566,0.05435025180885568
1782831563854650000,4.982650146484375,0.0015805471897125244,-0.023411709117144346,0.05300778769133612
1782831563864579300,4.992579345703125,-0.04453238468766212,-0.029738427920639514,0.05685689173438586
1782831563874508000,5.002508056640625,-0.09385551078319548,-0.016077786032482982,0.015203204288193954
1782831563884437000,5.01243701171875,-0.12178630475997924,-0.004070318178832531,-0.030591702015418557
1782831563894366000,5.022365966796875,-0.16486322994232178,-0.06751205906309186,-0.019078451986075377
1782831563904295200,5.032295166015625,-0.15351298388838766,-0.11332198940590023,0.040264927368378264
1782831563914224000,5.04222412109375,-0.17025369080901145,-0.09533712764307856,0.05232060457819607
1782831563924153000,5.052153076171875,-0.16266367407143115,-0.10463131795004009,0.01655644552805461
1782831563934082000,5.06208203125,-0.1318880120575428,-0.05240742891170084,-0.016017137319850733
1782831563944011300,5.07201123046875,-0.12629647566080093,-0.0585342412289232,-0.052785290347342376
1782831563953940200,5.081940185546875,-0.11576572929620742,-0.04916903151236474,-0.0564882228187751
1782831563963869200,5.091869140625,-0.08924129498600959,-0.06571129325143993,-0.019700972365168854
1782831563973798100,5.101798095703125,-0.054233694490790366,-0.08655885096900165,-0.02487528799683787
1782831563983727000,5.11172705078125,-0.06815525233745574,-0.07262187635749578,-0.005785634196735918
1782831563993656000,5.121656005859375,-0.05036006792783737,-0.09719634564369917,0.012042365637095645
1782831564003585000,5.1315849609375,-0.09273556684255599,-0.0679362027592957,0.0006192461431957781
1782831564013514000,5.141513916015625,-0.047132922574877736,-0.01902947544492781,-0.008865338469599374
1782831564023443200,5.151443115234375,-0.019220833298563954,0.041015535673126574,-0.006620011794799939
1782831564033372200,5.1613720703125,-0.009842179578542708,0.04588160733953118,0.019954499601665884
1782831564043301000,5.171301025390625,-0.02240706211924553,0.034924525321647526,0.06097052846513688
1782831564053230000,5.18122998046875,0.022998013749718663,0.015383739353716373,0.07396189278960227
1782831564063159300,5.1911591796875,0.06269698693156242,0.009837211142480373,0.05980226100389845
1782831564073088300,5.201088134765625,0.07585866632163524,0.016563669853284953,0.04370788916279562
1782831564083017200,5.211017333984375,0.09267302300035953,0.018581585546955465,0.035771561471885066
1782831564092946200,5.2209462890625,0.05133271235227584,0.022793065762147305,0.02601551210710313
1782831564102875100,5.230875244140625,0.0001204115092754364,0.008984612901136278,0.03495092013822868
1782831564112804000,5.24080419921875,-0.05165127678215503,-0.01606792222559452,-0.007411824326193891
1782831564122733000,5.250733154296875,-0.12183365103304386,0.009277166106924414,-0.0755932477179449
1782831564132662000,5.260662109375,-0.18182196352779864,-0.055906376943364734,-0.053038383758999406
1782831564142591200,5.27059130859375,-0.20499533384442328,-0.09769552733749151,-0.0240341701307334
1782831564152520200,5.280520263671875,-0.24033728086054323,-0.06470664625354111,0.0005830468852305784
1782831564162449200,5.29044921875,-0.22165946839749812,-0.054998029926791786,-0.026046861660014835
1782831564172378000,5.300378173828125,-0.1939279963850975,-0.02235124027878046,-0.07881041053300723
1782831564182307300,5.310307373046875,-0.18037819446027278,0.005852598485723138,-0.0722257029470289
1782831564192236300,5.320236328125,-0.16998305717408657,-0.054157487449422476,-0.04058167886708397
1782831564202163200,5.3301630859375,-0.07212707857787609,-0.04231478170342743,-0.054267400397569866
1782831564212092200,5.340092041015625,-0.024079379245638848,0.02414345745779574,-0.07201632994608953
1782831564222021000,5.350021240234375,-0.03321662542521953,0.0031855712335556743,-0.05516786550178658
1782831564231950000,5.3599501953125,-0.037865912535786625,-0.028344635474681853,-0.006279395363316871
1782831564241879300,5.36987939453125,-0.04546703518927097,0.00835267167314887,-0.006041709583345801
1782831564251808300,5.379808349609375,-0.053362172353267665,-0.008636383985355496,0.025100726216589098
1782831564261737200,5.3897373046875,-0.045854573202133174,-0.03180653943158686,0.06694321423314976
1782831564271666200,5.399666259765625,-0.04543780909478664,0.02347615265548229,0.02452676225353498
1782831564281595100,5.40959521484375,-0.038333530047535896,0.023018325885385275,-0.012246500773914157
1782831564291524000,5.419524169921875,-0.04995090260505676,-0.002488601945340633,0.012732188231893815
1782831564301453000,5.429453125,-0.0568073443710804,0.015623904785141349,0.009044914553896524
1782831564311382000,5.439382080078125,-0.06801029090881347,0.017595424053817987,-0.011352017885912209
1782831564321311200,5.449311279296875,-0.12530512653589249,0.02626454126499593,0.032946425615134646
1782831564331240200,5.459240234375,-0.0681879855632782,0.012404577412456274,0.029088804905489086
1782831564341169200,5.469169189453125,-0.06388590445518494,0.04763678044378757,-0.019510244699195028
1782831564351098000,5.47909814453125,-0.05002689045071602,0.021481544772163033,0.001019008883391507
1782831564361027300,5.48902734375,-0.031000118419528006,-0.038804800821095706,0.025341124543454496
1782831564370956300,5.498956298828125,-0.016624387064576147,-0.05081467982754111,0.03461896650381386
1782831564380885200,5.50888525390625,-0.05090250424146652,-0.03807692493796348,0.05046385252929758
1782831564390814000,5.51881396484375,-0.11103344007730484,-0.024881635539233685,0.01903068558790255
1782831564400743000,5.528742919921875,-0.12873217837512493,-0.01610971554070711,-0.018200335710984655
1782831564410672000,5.538672119140625,-0.13263795364201067,0.021586028059944508,-0.04814362028765026
1782831564420601000,5.54860107421875,-0.08839256920218468,0.04834368660412729,-0.028492400781763717
1782831564430530000,5.558530029296875,-0.08008359054028988,0.01146963464990258,0.018834523694985544
1782831564440459000,5.568458984375,-0.03747136026024818,-0.02540244454294443,0.022795307951583525
1782831564450388200,5.57838818359375,0.0031762919485569,-0.0343485520645976,0.037963166931760495
1782831564460317200,5.588317138671875,0.02881049942076206,-0.012845233852043747,0.038603752690507094
1782831564470246100,5.59824609375,0.061816696965694425,-0.026950404637306927,0.03563482901547104
1782831564480175000,5.608175048828125,0.037601124119758605,-0.037014337207749486,0.03233222553981468
1782831564490104300,5.618104248046875,-0.010745265898108482,-0.02124539792872965,0.026256700451835056
1782831564500033000,5.628032958984375,0.0001461304724216461,-0.004803454758971929,0.028051269418140873
1782831564509962000,5.6379619140625,-0.0601490560144186,0.025234029173478483,0.036143495490239
1782831564519891000,5.647890869140625,-0.14123042542040348,-0.030773470056802033,0.03448160385973752
1782831564529820200,5.657820068359375,-0.13473989435732364,-0.05752674468681216,0.03713419159459881
1782831564539749000,5.6677490234375,-0.16857611298561095,-0.03570829611048102,0.011214970335667021
1782831564549678000,5.677677978515625,-0.16536591876745224,-0.06887830591499805,0.003610797208570875
1782831564559607000,5.68760693359375,-0.18846096315085886,-0.10028181750364601,0.030713570262840946
1782831564569536300,5.697536376953125,-0.26866964137554167,-0.14857063211537896,0.04319705356382764
1782831564579465200,5.70746533203125,-0.2500502811014652,-0.1843243017375469,0.05282139827376231
1782831564589394200,5.717394287109375,-0.2039268278300762,-0.11377112141288816,0.05063471558417659
1782831564599323100,5.7273232421875,-0.22879063545167444,-0.05826989120431244,-0.015180777827254495
1782831564609252000,5.737252197265625,-0.2048860282510519,-0.06410539242476225,-0.05579446383437607
1782831564619181000,5.74718115234375,-0.17360826193392276,-0.03604256956614554,-0.011066296279709786
1782831564629110000,5.757110107421875,-0.1643511887669563,-0.02313062715344131,0.036639471446792596
1782831564639039000,5.7670390625,-0.1742196718305349,-0.0505776562012732,0.04303224579039961
1782831564648968200,5.77696826171875,-0.1271867024987936,-0.06223338800780475,-0.004553955243621021
1782831564658897200,5.786897216796875,-0.1084206272304058,-0.018210414147004483,-0.010847589194844477
1782831564668826000,5.796826171875,-0.08828501717448234,-0.03567052138336003,0.009078771157725714
1782831564678755000,5.806755126953125,-0.05491466249227524,-0.018167013396695256,0.03236861202744767
1782831564688684300,5.816684326171875,-0.004636427628993987,0.047045828813314435,0.0350739756957395
1782831564698613200,5.82661328125,0.05224748910963535,0.0748821494396776,0.0015890958223491907
1782831564708542200,5.836542236328125,0.08998831396102905,0.07744462033882736,-0.00967827598741278
1782831564718471200,5.84647119140625,0.05060030642449855,0.0455077325258404,0.016128726201853714
1782831564728400100,5.856400146484375,0.044593759486079215,-0.01048588430956006,0.05016460015466436
1782831564738329000,5.8663291015625,0.04619301137626171,0.023133038306236267,0.04190769873987883
1782831564748258000,5.876258056640625,0.016678163078427313,0.05994885726720094,0.009869405512185767
1782831564758187000,5.88618701171875,-0.04192717062532902,0.01917955144010484,0.0010175087627605534
1782831564768116200,5.8961162109375,-0.12059037297368048,0.037095293489471076,0.017371511070872658
1782831564778045200,5.906045166015625,-0.16854454880356787,0.06930456850305199,0.02388090666462667
1782831564787974100,5.91597412109375,-0.168156426268816,0.060252881715074175,0.007749817259039264
1782831564797903000,5.925903076171875,-0.15183014536798,0.07729410595223307,-0.01789105284939287
1782831564807832300,5.935832275390625,-0.1469634161144495,0.08207198787853122,-0.022611838860169518
1782831564817761300,5.94576123046875,-0.07479249839484692,0.02446962067224085,-0.007987336358940228
1782831564827690200,5.955690185546875,-0.015816577813029288,0.04121332326754927,0.015069563404587096
1782831564837620000,5.965619873046875,0.013910451930761337,0.036425796730071305,0.00017141332743922247
1782831564847549200,5.975549072265625,0.034790158352255816,0.0037896746065467593,0.015072563645849003
1782831564857478100,5.98547802734375,0.038728666844964024,0.0062448126737028355,0.02877925489912741
1782831564867407000,5.995406982421875,-0.012907996889948843,-0.010106675733625888,0.04016344432185869
1782831564877336000,6.005336181640625,-0.04873217446506023,-0.03131035341247916,0.04545398391145281
1782831564887265300,6.015265380859375,-0.052853053787350654,-0.004782631166651845,0.035209297079779205
1782831564897194200,6.0251943359375,-0.09663082071542739,0.018744740219414233,-0.037068136054486965
1782831564907123200,6.035123291015625,-0.13305413322746754,0.015202610633149743,-0.06792416982820723
1782831564917052000,6.045052001953125,-0.1529980201035738,-0.03152940299063921,-0.04127222754766699
1782831564926981000,6.054981201171875,-0.13647066367268562,-0.06169891580492258,-0.010879713924246607
1782831564936910000,6.06491015625,-0.11154138959944247,-0.08031279618628323,0.003706348271225579
1782831564946839000,6.074839111328125,-0.07777823620736599,-0.10960362646989524,0.027470873431011567
1782831564956768000,6.08476806640625,-0.11002221720814705,-0.09483991871066391,-0.0036264868264028333
1782831564966697200,6.094697265625,-0.16041560288369655,-0.0781557642828673,0.02597330323345959
1782831564976626200,6.104626220703125,-0.1637637442678213,-0.0753601422149688,0.05394632435019593
1782831564986555100,6.11455517578125,-0.15463760400414467,-0.03683371994383633,0.0006229410750238458
1782831564996484000,6.124484130859375,-0.1475993759304285,0.0026929654110223055,-0.04513508155485615
1782831565006413300,6.134413330078125,-0.177332250893116,-0.0006768763482570648,-0.03768302568297367
1782831565016342300,6.14434228515625,-0.11521978585124015,-0.05740516413375735,0.005241427192772971
1782831565026271200,6.154271240234375,-0.06328443143069744,-0.07971636466309427,0.002288581294636242
1782831565036200000,6.164199951171875,-0.031088965746760365,-0.05005392458811402,-0.0019160376382176764
1782831565046129200,6.174129150390625,-0.06600187369585037,-0.07853869918584823,0.01852385259390576
1782831565056058000,6.18405810546875,-0.05272153636217117,-0.12134637897275388,0.04501321330743376
1782831565065987000,6.193987060546875,-0.04795183774232864,-0.041669615667685865,0.07485474997609853
1782831565075916000,6.203916015625,-0.07437105811238288,0.01607515568397939,0.07429402452053036
1782831565085845200,6.21384521484375,-0.08293255023062229,-0.004620499407500029,0.0463016228498891
1782831565095774200,6.223774169921875,-0.06596212620735169,0.02552059102989733,-0.01836739480700344
1782831565105703200,6.233703125,-0.04510989231467247,0.04187032587155699,-0.034232538169226605
1782831565115632000,6.243632080078125,-0.07255261051356791,0.0004294043932110071,0.06427761631966568
1782831565125561300,6.253561279296875,-0.03846797008216381,-0.03288783186227083,0.08209273840561508
1782831565135490300,6.263490234375,0.026886253359913823,0.03709112877100706,0.00020204592772061003
1782831565145419000,6.2734189453125,0.02516658996045589,0.04538673649467528,-0.04349034655513242
1782831565155348000,6.283347900390625,-0.012404723542928695,-0.018950711120292542,0.0011483868671231902
1782831565165277200,6.293277099609375,-0.021923077994585035,0.00789206842407584,0.06467770328684709
1782831565175206100,6.3032060546875,-0.051829555958509445,0.029550284937396643,0.06489671176581177
1782831565185135000,6.313135009765625,-0.10114099161624908,0.007018500459939241,0.021817772722896187
1782831565195064000,6.32306396484375,-0.12998773139417172,0.048408495468646284,-0.031310341996036
1782831565204993000,6.332992919921875,-0.11792261506915092,0.06177914143428206,-0.04997808743950445
1782831565214922200,6.342922119140625,-0.08723112420737743,0.053663858713582153,-0.014952245751407462
1782831565224851200,6.352851318359375,-0.11537643771767615,0.032369726272299885,0.013929499124526045
1782831565234780200,6.3627802734375,-0.1008130748361349,0.015000658320263028,0.007006400171836139
1782831565244709000,6.372709228515625,-0.041458968591690064,0.04902370475754141,-0.030256323448056354
1782831565254638000,6.38263818359375,-0.057357963991165155,0.04913754039555788,-0.034796302681963424
1782831565264567000,6.392567138671875,-0.08118541430234909,-0.022837489425763486,-0.00020233019715524278
1782831565274496000,6.40249609375,-0.05246083959937095,-0.04170797491669655,0.0036368792146095072
1782831565284425000,6.412425048828125,-0.018402502653002736,-0.015582988252863287,0.0036419914978556333
1782831565294354200,6.422354248046875,0.01606616865992546,-0.009731485745683312,-0.019193000010144897
1782831565304283100,6.432283203125,0.04176759614944458,0.006661869041994214,-0.037364835712430065
1782831565314212000,6.442212158203125,0.039789574074745176,0.02427848201431334,-0.04440266192734707
1782831565324141000,6.45214111328125,0.0009907646030187607,0.017835151093825698,-0.026733286721329203
1782831565334070300,6.4620703125,-0.04782382744848728,-0.019217033906280993,-0.03822416052208282
1782831565343999200,6.471999267578125,-0.04919803841114044,-0.04666019049659371,-0.011658269681845558
1782831565353928200,6.48192822265625,-0.10938976452350616,-0.027234482275694607,0.001636297677407856
1782831565363857200,6.491857177734375,-0.187466691416502,-0.01432801975570619,-0.00980918605781626
1782831565373786000,6.5017861328125,-0.17634440889954567,-0.006655439301207661,-0.01683287414952647
1782831565383715000,6.511715087890625,-0.244164730194211,0.01349354169294238,-0.04975913832604419
1782831565393644000,6.52164404296875,-0.2721709274947643,-0.014191022437810896,-0.02616321348210331
1782831565403573000,6.531572998046875,-0.23144085769951342,-0.028996304316446182,-0.022049332439468706
1782831565413502200,6.541502197265625,-0.1924935796678066,-0.011961802081018685,-0.014980525422753998
1782831565423431200,6.55143115234375,-0.135229723700881,-0.02584616972245276,0.0024727798967680427
1782831565433360100,6.561360107421875,-0.06868950534462928,-0.03973360610380768,0.036627714793628544
1782831565443289000,6.5712890625,-0.026437925070524212,-0.039755014218017456,0.05028385631989222
1782831565453218300,6.58121826171875,-0.021765257084369657,-0.038175855267792935,0.057107240633107716
1782831565463146200,6.591146240234375,-0.0008434650868177413,-0.012700272423401474,0.028200644443708005
1782831565473075500,6.601075439453125,-0.026415713238716124,0.01500087751597166,-0.005738937519286991
1782831565483004400,6.61100439453125,-0.02798223190307617,0.0036727702286094427,0.022322349827724974
1782831565492933400,6.620933349609375,-0.048503626406192775,0.005556830409541726,0.05605982307256199
1782831565502862300,6.6308623046875,-0.09663608141243457,0.01905972445271909,0.07855192399360239
1782831565512791300,6.640791259765625,-0.1355044489890337,0.0009664338793605565,0.05201013212322723
1782831565522720300,6.65072021484375,-0.13588906439244747,-0.009513386015594006,0.013174680435541085
1782831565532649200,6.660649169921875,-0.09878829101026057,-0.0008246873211115598,-0.012745579719718078
1782831565542578200,6.670578125,-0.054831075862050056,-0.009647460724040866,-0.008745509198924991
1782831565552507400,6.68050732421875,-0.06434007796347141,-0.00861724089346826,0.012548392630205489
1782831565562436400,6.690436279296875,-0.09584697686135768,-0.02966083263978362,0.04943227642527781
1782831565572365300,6.700365234375,-0.10609949080646038,-0.03159428492039442,0.03966792958960868
1782831565582294300,6.710294189453125,-0.08885843314826487,0.020751403866708276,0.011860019923688377
1782831565592223500,6.720223388671875,-0.06870236482620239,0.05339424799196422,0.010659181350120343
1782831565602152400,6.73015234375,-0.0596218172699213,0.029319325725734233,0.0007349335282924585
1782831565612081400,6.740081298828125,-0.0770540135860443,-0.005365984012559056,0.00776244841174921
1782831565622010000,6.750010009765625,-0.12771978646218776,-0.0370421019975096,0.04425109266140498
1782831565631939000,6.75993896484375,-0.07460135973691939,-0.011625482798740268,0.04508527389664668
1782831565641868300,6.769868408203125,-0.04439911369681358,0.053967517835274335,-0.0011157244232483207
1782831565651797200,6.77979736328125,-0.040831776604056354,0.05850245785117149,-0.04309862099091988
1782831565661726200,6.789726318359375,-0.03041092035472393,0.05561521197706461,-0.021777819738420655
1782831565671655200,6.7996552734375,-0.07069149281680584,0.054458881548792124,0.03395275539675494
1782831565681584400,6.80958447265625,-0.09401742334663868,0.00538322740830481,0.02687741931619821
1782831565691513300,6.819513427734375,-0.061085460081696505,0.026085458371043205,-0.02595491362682078
1782831565701442300,6.8294423828125,-0.042428105884790415,0.05411430589482188,-0.04154930918968748
1782831565711371300,6.839371337890625,-0.00701660076379776,0.018243512699007987,-0.0397153991602594
1782831565721300500,6.849300537109375,0.02211538569629192,-0.004670987485721707,-0.03342427910981932
1782831565731229200,6.859229248046875,-0.016056231787800787,-0.0106846217520535,-0.005977944181731436
1782831565741158100,6.869158203125,-0.047071547776460644,-0.04404299373552203,0.003069692052213941
1782831565751087000,6.879087158203125,-0.09431845211982727,0.004063303916156291,-0.007397501256607938
1782831565761016300,6.889016357421875,-0.13087094396948815,0.013231529755890368,-0.038415865435590967
1782831565770945300,6.8989453125,-0.10985913560092449,0.010768719838932156,-0.06869343260107562
1782831565780874200,6.908874267578125,-0.13700550120174884,0.03734451901018619,-0.061564804563857614
1782831565790803200,6.91880322265625,-0.12312836701869964,-0.012066796825453639,-0.035529943868890405
1782831565800732400,6.928732421875,-0.12842998055815696,-0.027658041450008747,0.00733900568515528
1782831565810661400,6.938661376953125,-0.1651139898329973,-0.04082702736370265,-0.0016545166082214562
1782831565820590300,6.94859033203125,-0.12317688233554362,-0.058701706750318404,0.00771959336742293
1782831565830519300,6.958519287109375,-0.11320376985371113,-0.024994302133470772,-0.01121511189956218
1782831565840448300,6.9684482421875,-0.14331716856658458,-0.029843568795546886,-0.03561217650895705
1782831565850378200,6.978378173828125,-0.1240367140352726,-0.07873509854078292,-0.028770308974268844
1782831565860307200,6.98830712890625,-0.125975573143363,-0.058858870073407885,0.014316406949725932
1782831565870236400,6.998236328125,-0.08272446043789386,-0.060840545409917825,0.04924828902734443
1782831565880165400,7.008165283203125,-0.09379179789721966,-0.06714534464254975,0.017862358761159703
1782831565890094300,7.01809423828125,-0.07256722356081008,-0.06690364484116434,-0.021331229031679683
1782831565900023300,7.028023193359375,-0.054115036547183984,-0.08847206417918205,0.020360233141633214
1782831565909952500,7.037952392578125,-0.030287586236000058,-0.05901537580937147,0.029370163147116542
1782831565919881200,7.047881103515625,-0.035494507229328155,-0.03295972805470228,0.007675322684145066
1782831565929810200,7.05781005859375,-0.03906593597531319,-0.05021247615069151,0.018332775584771296
1782831565939739100,7.0677392578125,-0.05783318028748035,-0.04364413061104715,0.03277980034395586
1782831565949668400,7.07766845703125,-0.07563070278465747,-0.05206278019249439,0.03121139796647476
1782831565959597300,7.087597412109375,-0.06357201620042324,-0.0436694842480123,0.052289917178987524
1782831565969526300,7.0975263671875,-0.10636661731004714,-0.043614685320854184,0.06745264789289794
1782831565979455200,7.107455322265625,-0.16466215441226958,-0.03648885202892124,0.0477657131862361
1782831565989384200,7.11738427734375,-0.16387538794875145,-0.01432253986299038,0.03162037377629895
1782831565999313400,7.1273134765625,-0.1609013405740261,0.04359298494569957,0.037555556528537995
1782831566009242400,7.137242431640625,-0.1912169838607311,0.01621018024049699,0.05362237592572346
1782831566019171300,7.14717138671875,-0.16469021146297455,-0.03894537833556533,0.022900848402001427
1782831566029100300,7.157100341796875,-0.11598843213617802,0.00200271812453866,0.019988440687174442
1782831566039029200,7.167029296875,-0.09561784428060054,-0.006868059138581156,0.048081537669757375
1782831566048958200,7.176958251953125,-0.058284431186318396,-0.021404387882724404,0.07810132154873572
1782831566058887200,7.18688720703125,-0.04833411505818367,0.02181267642267048,0.05279736894420348
1782831566068816100,7.196816162109375,-0.06416296783089637,0.013074658693745732,0.04953917086585424
1782831566078745300,7.206745361328125,-0.008210194462537766,0.04865918229408562,0.01981365950900363
1782831566088674300,7.21667431640625,-0.03091360917985439,0.08952106177546083,0.03197682938101934
1782831566098603300,7.226603271484375,-0.038943770900368685,0.036320071333274244,0.04627019566516392
1782831566108532200,7.2365322265625,-0.044349429336190224,0.05586947899907827,0.05064697227755095
1782831566118461400,7.24646142578125,-0.08189853100776671,0.0635879444219172,0.01082743688938208
1782831566128390400,7.256390380859375,-0.09795242470800876,0.021422654191777107,0.0073008108329260715
1782831566138319400,7.2663193359375,-0.08100421251654624,0.056596770360320806,0.026840119513112583
1782831566148248300,7.276248291015625,-0.09537702126204967,0.06367006974741816,0.014303611400234513
1782831566158177300,7.28617724609375,-0.06437456475496292,0.03457761158011854,-0.0012876012582797556
1782831566168106200,7.296106201171875,-0.04716857841014862,0.07436382465399802,-0.009257701071340125
1782831566178035200,7.30603515625,-0.057383682954311364,0.04502710940204561,0.012324778758070896
1782831566187964200,7.315964111328125,-0.037329321441054344,0.016009104710444807,0.022376491167757192
1782831566197893400,7.325893310546875,-0.06476853250861167,0.05258731552325189,0.004265110098570585
1782831566207822300,7.335822265625,-0.04946224230527878,0.03474631921052933,-0.003492694104101974
1782831566217751300,7.345751220703125,-0.029257658666372297,0.04991524676978588,0.0014883525613462551
1782831566227680300,7.35568017578125,-0.021255553996562957,0.05370324087589979,-0.02027402301277034
1782831566237609500,7.365609375,-0.04826163434386253,0.01872515873610973,-0.029804542826255782
1782831566247538400,7.375538330078125,-0.05100011939704418,0.019910422997921704,-0.021336535394459497
1782831566257467400,7.38546728515625,-0.029427754536271094,-0.027994068471342323,-0.015362235341384074
1782831566267396000,7.39539599609375,0.006634323447942733,-0.05586589880250394,-0.017449036711425288
1782831566277325300,7.4053251953125,-0.05512859750390053,-0.060839230235666036,-0.013728210106986808
1782831566287254300,7.415254150390625,-0.07828852381706237,-0.0504082179185003,-0.022919464054214765
1782831566297183200,7.425183349609375,-0.10460136120319366,-0.0005124795667827129,-0.04193097001761198
1782831566307112200,7.4351123046875,-0.14491758950054645,0.017867372862994668,-0.058853581976937124
1782831566317041400,7.44504150390625,-0.17900164541006086,-0.02197743853032589,-0.05716690296505112
1782831566326970400,7.454970458984375,-0.16457798326015471,-0.040117271659150716,-0.025006622758926823
1782831566336899300,7.4648994140625,-0.1131523319274187,-0.041958296415954825,0.0005764516060182359
1782831566346828300,7.474828369140625,-0.11583704096674918,-0.04445420488491654,0.018441611962328897
1782831566356757500,7.484757568359375,-0.09643968205749988,-0.038783027380704875,-0.002044298808397434
1782831566366686500,7.4946865234375,-0.10009586647748947,-0.03929163448996842,-0.029932397856470196
1782831566376615200,7.504615234375,-0.1048743329256773,-0.025625658839568494,-0.007248305469198385
1782831566386544000,7.514544189453125,-0.10058101964592933,-0.030192966755107045,0.03615128835433861
1782831566396473300,7.524473388671875,-0.07508709742724895,-0.013590060869976878,0.007930975662358104
1782831566406402300,7.53440234375,-0.07697042695581913,0.006218143862485885,0.012078838889696634
1782831566416331300,7.544331298828125,-0.05802899512052535,-0.040262671479210255,0.010877678372431546
1782831566426260200,7.55426025390625,-0.044645197412371634,-0.030703327430039642,0.018053183466900373
1782831566436189200,7.564189208984375,-0.03488426637649536,-0.025115152034163472,0.037302269037347284
1782831566446118400,7.574118408203125,-0.04174772240519523,-0.028022490848228335,0.06675344554840121
1782831566456047400,7.58404736328125,-0.057633858323097226,-0.00962656406648457,0.04218805005121976
1782831566465976800,7.593976806640625,-0.03820201262235641,0.019049495319649577,0.007215520298559567
1782831566475905800,7.60390576171875,-0.06144961721897125,0.016657047225162386,0.03432948660452384
1782831566485834800,7.613834716796875,-0.06255436359047889,0.003982274569198489,0.05333276359569281
1782831566495763700,7.623763671875,-0.07982289377748966,0.022324790663272143,0.0636986747873947
1782831566505693000,7.63369287109375,-0.07325345225930213,0.026845482958108183,0.06335544170713983
1782831566515622000,7.643621826171875,-0.038275077858567236,0.03369447207003832,0.03384429462017724
1782831566525550800,7.65355078125,-0.01223112054169178,0.022844357557967303,0.012139415678736986
1782831566535479800,7.663479736328125,0.01940846482515335,0.03423011331669986,0.035870395903592
1782831566545409000,7.673408935546875,0.0068944356888532635,0.033603067459538574,0.05827376366183162
1782831566555338000,7.683337890625,-0.010129764348268509,0.016311594788357614,0.08014800667916425
1782831566565267000,7.693266845703125,-0.06242518425285816,-0.001886325203254819,0.06820174466057215
1782831566575196000,7.70319580078125,-0.06876783127784729,-0.004072510135918856,0.016150565857614856
1782831566585124900,7.713124755859375,-0.07175298456847667,0.030098128078505395,-0.009436932949876064
1782831566595053800,7.7230537109375,-0.08768822032511234,-0.01251446752771735,0.014136070530314463
1782831566604982800,7.732982666015625,-0.06657353610396385,-0.03232376823872327,-0.004847300750564318
1782831566614911700,7.742911865234375,-0.08606675660312176,-0.00198145614080131,-0.008419527505926089
1782831566624841000,7.752841064453125,-0.10655307979285716,-0.04016315662749111,0.015397570374602218
1782831566634770000,7.76277001953125,-0.13060381746590136,-0.049931905643641944,0.0320795476866886
1782831566644699000,7.772698974609375,-0.1569406202495098,-0.03125248574540019,0.009567730568314435
1782831566654627800,7.7826279296875,-0.13025485789775848,-0.04840732642486691,-0.021654700248828155
1782831566664557000,7.79255712890625,-0.1181412262558937,-0.016862068277969957,-0.051229174345987845
1782831566674486000,7.802486083984375,-0.09793547357320785,-0.07071633499711752,-0.008547480717551662
1782831566684415000,7.8124150390625,-0.05996843875050544,-0.11480236415676771,0.04082863479889929
1782831566694343700,7.82234375,-0.04850304188430309,-0.08527809044346213,0.008807022707126452
1782831566704273000,7.83227294921875,-0.07454933728873729,-0.064084861093387,-0.02142860900852829
1782831566714201900,7.842201904296875,-0.09911211613714695,-0.07136456977277994,0.005959481509856414
1782831566724130800,7.852130859375,-0.09450900625586509,-0.02569974698908627,0.005034967668127501
1782831566734060800,7.862060791015625,-0.08358955283463,0.006614888095110655,-0.013261060669407014
1782831566743990000,7.871989990234375,-0.06578735416233539,-0.023108269191160796,-0.01789780681716511
1782831566753919000,7.8819189453125,-0.06798457194566726,-0.010881970955058932,-0.0015123887407709844
1782831566763848000,7.891847900390625,-0.07078209370970726,-0.005977028582990169,0.032025819621898696
1782831566773777000,7.90177685546875,-0.12230594471991062,-0.03567585514560342,0.04049387728604488
1782831566783705900,7.911705810546875,-0.13508710035979746,-0.03829319803714752,0.023689048770780208
1782831566793634800,7.921634765625,-0.09507774605453014,-0.017203940518200397,0.012207020430185365
1782831566803563800,7.931563720703125,-0.07448913153409957,0.030617183516547082,0.0036374272038810886
1782831566813492700,7.94149267578125,-0.09243219998180865,0.01372340492606163,0.017741140109352998
1782831566823422000,7.951421875,-0.06913900267779827,-0.0024666093092411755,0.03312875077894423
1782831566833351000,7.961350830078125,-0.04131283811926841,0.03291976137049496,0.012347573970124358
1782831566843280000,7.97127978515625,-0.04067921639084816,0.021758096691220998,0.00335482571159373
1782831566853208800,7.981208740234375,-0.00647065731883049,0.005377820580825209,-0.010247253248095512
1782831566863138000,7.991137939453125,0.027763620716333388,0.020420564477145672,-0.04573877850247081
1782831566873067000,8.00106689453125,-0.012928455156087875,-0.03297302592769265,-0.021641585038928313
1782831566882996000,8.010995849609374,-0.03879413329660892,-0.05855060784183442,0.03219102697083726
1782831566892924700,8.020924560546876,-0.10005436542332172,-0.01159545298665762,0.02907572622820735
1782831566902854000,8.03085400390625,-0.14122341115772724,-0.006659530954435468,0.009852787737525067
1782831566912782800,8.040782958984375,-0.16554887411892413,0.015930778777226803,-0.05038701073369011
1782831566922711800,8.0507119140625,-0.18579495881199837,0.0341041488494724,-0.06948088405118323
1782831566932640800,8.060640869140625,-0.14435937109589575,0.013688041351735592,-0.04221302009569481
1782831566942570000,8.070570068359375,-0.09911737683415413,0.017248437247052786,-0.03225888630896807
1782831566952499000,8.0804990234375,-0.10696341415941715,-0.004283595603331923,-0.030862287701282184
1782831566962428000,8.090427978515624,-0.08062485781013966,-0.01972469116747379,-0.004940388144785538
1782831566972356900,8.10035693359375,-0.08702303441464901,0.014260945868864654,0.010188514506403588
1782831566982286000,8.1102861328125,-0.10208440994620323,0.017392156566679477,0.00033456685825367457
1782831566992215000,8.120215087890625,-0.06455927367210387,0.03553520456589758,-0.004068925372767262
1782831567002143700,8.130143798828126,-0.05970423485636711,0.07415756149217485,-0.013768481610226445
1782831567012072700,8.14007275390625,-0.07108779865801335,0.032868834900856014,-0.02066926027489826
1782831567022002000,8.150001953125,-0.05154547832012176,0.017705460299551487,-0.024990078049502335
1782831567031931000,8.159930908203124,-0.06749181999266148,0.017020181449130176,-0.033246634687704495
1782831567041859800,8.16985986328125,-0.034328386059403415,-0.01766783170290291,-0.04413631174189504
1782831567051788800,8.179788818359375,-0.03661854282319545,0.0018290420580655336,-0.045762949395924804
1782831567061718000,8.189718017578125,-0.040702012744545935,-0.014036343332752584,-0.024956006816541774
1782831567071647000,8.19964697265625,-0.02907937949001789,-0.003818754570558667,-0.030994983303395562
1782831567081576000,8.209575927734376,-0.04942541742622852,0.02824117510020733,-0.033139495935244484
1782831567091505000,8.2195048828125,-0.09216741156578064,0.01099105735272169,-0.012681487807829397
1782831567101434000,8.22943408203125,-0.08425356970131397,0.02164725672788918,-0.01488910368758952
1782831567111362800,8.23936279296875,-0.08746259487569331,0.039188320245966315,-0.03818254073690623
1782831567121291800,8.249291748046875,-0.061627896395325656,0.033093291306495666,-0.0370338045266224
1782831567131220700,8.259220703125,-0.05224690458774566,0.0013004881393164395,-0.018049539338244356
1782831567141149700,8.269149658203125,-0.06245265678167343,-0.029938261341676115,0.005589831921778386
1782831567151079000,8.279078857421876,-0.026593407893180845,-0.027101138219609855,0.018197281812439903
1782831567161007900,8.2890078125,-0.01300970369875431,-0.003528466387093067,-0.024624633137439376
1782831567170936800,8.298936767578125,-0.006108253747224807,0.04387077897377312,-0.05830604022992775
1782831567180865800,8.30886572265625,-0.008577858731150627,0.009091726537421345,-0.013499022727302508
1782831567190795000,8.318794921875,-0.024196283623576162,-0.038335429743677374,0.0032937580154975875
1782831567200724000,8.328723876953125,-0.0806400553792715,-0.054064110077545045,0.035092082174587994
1782831567210653000,8.33865283203125,-0.10884732820987701,-0.07829495355784892,0.06471812662878074
1782831567220582000,8.348581787109374,-0.10159165799319743,-0.08263312889263033,0.03100071207457222
1782831567230510800,8.3585107421875,-0.11188216586112976,-0.028011165736615655,0.006205766154814046
1782831567240439800,8.368439697265625,-0.15291326442956923,-0.039066009040549396,0.0047306429677992125
1782831567250368800,8.37836865234375,-0.1450455997943878,-0.07157455926164984,0.017251368989655746
1782831567260297700,8.388297607421874,-0.17718144424557686,-0.032446006378903984,0.0477390991739463
1782831567270227000,8.39822705078125,-0.16276830348968505,-0.04818411212824285,0.03787614166885614
1782831567280156000,8.408156005859375,-0.09416238477528095,-0.03229388455711305,0.037950184152601284
1782831567290084900,8.4180849609375,-0.09998714540600775,0.008043167332559824,0.010717735145433107
1782831567300013800,8.428013916015624,-0.08723755394816399,-0.041194910828024144,0.008509934319293824
1782831567309943000,8.437943115234376,-0.0628629911482334,-0.07168459550738335,0.08378066409309394
1782831567319872000,8.4478720703125,-0.049614217996597286,-0.052671267479658126,0.11584290445195511
1782831567329801000,8.457801025390625,0.0033908114820718764,-0.038366701664775606,0.07784321860182099
1782831567339729700,8.467729736328126,-0.027618659287691114,-0.010315276983007788,0.06887177570951171
1782831567349659000,8.477658935546875,-0.10664251164197922,-0.005366641599684954,0.07638989625466056
1782831567359587800,8.487587890625,-0.08513795132040977,-0.001733472729101777,0.05811777851567603
1782831567369517800,8.497517822265625,-0.05485387221574783,0.05511880676224828,0.009256548010581173
1782831567379447000,8.507447021484374,-0.05051321266293526,0.04944368373528123,0.00022807199318776838
1782831567389376000,8.5173759765625,-0.0502151064991951,0.0012868249401450157,0.01730497946508112
1782831567399305000,8.527304931640625,-0.08163900328874588,-0.015798238438740373,0.032203975500667
1782831567409234000,8.53723388671875,-0.14645897372364997,-0.04846504796147346,0.06281395524158143
1782831567419163000,8.547162841796874,-0.12142507023215293,-0.04795476035177707,0.06254295628047547
1782831567429091800,8.557091796875,-0.1154044947683811,0.02798413159921765,0.014063408294547115
1782831567439020800,8.567020751953125,-0.12209084066450596,0.030655688896030184,-0.01858250685391831
1782831567448949800,8.57694970703125,-0.12449322563111781,0.018985197911784053,-0.01077042317225132
1782831567458878700,8.586878662109376,-0.10407412245869636,0.03444499817639589,0.01369997381812427
1782831567468808200,8.59680810546875,-0.06371113241016864,-0.0013128361642360687,0.037989723861834496
1782831567478737200,8.606737060546875,-0.01799509089589119,-0.0008056903596967459,0.007654718858355772
1782831567488666000,8.616666015625,0.029893033960461616,0.018746639915555714,-0.025838420240837146
1782831567498595300,8.62659521484375,0.03147007401883602,0.004845321139320731,-0.008714293789220392
1782831567508524300,8.636524169921875,-0.008122516179084778,-0.015883724765107035,0.009982496798108332
1782831567518453200,8.646453369140625,-0.018819266760349274,-0.024231866393610833,0.015289502323669147
1782831567528382000,8.6563818359375,-0.0607154577255249,0.020148469537496567,-0.012493109645857476
1782831567538311200,8.666311279296876,-0.11077157427072525,0.024247356223687528,-0.020770094867446458
1782831567548240100,8.676240234375,-0.13359423145353794,-0.003946984060108662,-0.008253844091307838
1782831567558169000,8.686169189453125,-0.13612170410454272,0.02160736310891807,-0.025189192234619986
1782831567568098000,8.69609814453125,-0.14455810853838919,0.019548677013441918,-0.03092902137811761
1782831567578027000,8.706027099609376,-0.16784838323295115,-0.0097516517508775,0.002668864157871576
1782831567587956200,8.715956298828125,-0.15366905123293398,-0.002904123943671584,-0.003875960083934478
1782831567597885200,8.72588525390625,-0.15950433325767516,0.008493176122382283,-0.0073474418658268405
1782831567607814100,8.735814208984374,-0.10097323383390903,0.03056654930785298,-0.02126885643613059
1782831567617743000,8.7457431640625,-0.05667991859912872,0.05870587146878242,-0.01694455207978608
1782831567627672300,8.75567236328125,-0.018104981011152266,0.04409370100945234,-0.007403943555481964
1782831567637601000,8.76560107421875,-0.013093874850869177,0.025332594177126883,-0.002318184131744783
1782831567647530000,8.775530029296876,-0.03790741358995437,-0.002957096239924431,0.01412771369392285
1782831567657459000,8.785458984375,-0.036194764453172684,-0.026909415039792654,0.03280514941434376
1782831567667388200,8.79538818359375,-0.09080138390958309,0.006010200200229882,0.01590489085072186
1782831567677317000,8.805317138671874,-0.11690028628408908,0.005342822332680225,-0.015198461897706147
1782831567687246000,8.81524609375,-0.108856680560112,0.014434621935337781,-0.022844300475751513
1782831567697175000,8.825175048828125,-0.11567688196897506,0.029620500629395245,-0.014711500364670064
1782831567707104300,8.835104248046875,-0.0946615664690733,0.0021334318321198226,-0.02798293972255196
1782831567717033200,8.845033203125,-0.03663666300177574,-0.010049538718909025,-0.05337554785807151
1782831567726962200,8.854962158203126,-0.05641279209554195,0.0018816490281373262,-0.03642120047005592
1782831567736891100,8.86489111328125,-0.0320545959085226,-0.036973932132124895,-0.01970106598000275
1782831567746820000,8.874820068359375,-0.061978025007247924,-0.045847705069929356,-0.0006167151177476625
1782831567756749000,8.8847490234375,-0.11605506763160228,-0.03521605561412871,0.013385787594196154
1782831567766678000,8.894677978515626,-0.10899287416040897,-0.03301036226339638,-0.014180034111271379
1782831567776607000,8.90460693359375,-0.08579846105575561,0.016086115469411015,-0.06843884591865353
1782831567786536200,8.9145361328125,-0.07249766545593739,0.02797171050906181,-0.04991790908433031
1782831567796465200,8.924465087890624,-0.06778349641561508,0.01698138380870223,0.00325133679601131
1782831567806394000,8.93439404296875,-0.03947977747321128,0.001173135432600975,0.002880130861319776
1782831567816323000,8.944322998046875,-0.02553016257584095,0.008293123505637049,-0.011023074767558136
1782831567826252300,8.954252197265625,-0.04886310736835003,-0.006480740321427583,0.02683836138086626
1782831567836181200,8.96418115234375,-0.05219605118334293,-0.026399054364860057,0.03505205840816488
1782831567846110200,8.974110107421875,-0.08528758892416953,-0.028629736026376484,-0.010151199861941858
1782831567856039200,8.9840390625,-0.09268763604760169,-0.043998058615252376,0.008820898822962771
1782831567865968000,8.993968017578124,-0.13158639876246453,-0.02891162170767784,0.023121231420722324
1782831567875897000,9.00389697265625,-0.16980594704151153,-0.012434680289775133,0.0343427182621439
1782831567885826000,9.013825927734375,-0.2308493215471506,-0.001171893323585391,0.013291498048510401
1782831567895755000,9.023755126953125,-0.2185708547323942,0.016292232500761745,-0.03367415993437171
1782831567905684200,9.033684326171874,-0.22113573678433893,0.038745179588347674,-0.03248453002469614
1782831567915613200,9.04361328125,-0.1760638383924961,0.03172141843140125,0.011694271435344126
1782831567925543200,9.053543212890625,-0.14816928477287292,0.008456058982387184,0.04503527900876943
1782831567935472000,9.06347216796875,-0.1249205111324787,-0.018494053393974898,0.03889889971218072
1782831567945401000,9.073401123046875,-0.12939210358858108,0.007789704028144479,0.0334813590423204
1782831567955330000,9.083330078125,-0.0852758984863758,0.010630991868674755,0.031324989292607644
1782831567965259000,9.093259033203125,-0.03621171558797359,0.05629771434850991,0.05615963475180324
1782831567975188000,9.10318798828125,0.004429506880044937,0.08190912546701729,0.058469299933663565
1782831567985117200,9.1131171875,-0.0087140523314476,0.04643288454674184,0.035886392623744906
1782831567995046100,9.123046142578126,-0.0031289456754922864,0.03540397940166294,0.05332198190677445
1782831568004975000,9.13297509765625,-0.0051864627271890635,0.017051161109283567,0.08635372031833977
1782831568014904000,9.142904052734375,0.0008522329151630402,-0.006115852531790733,0.08140339530142955
1782831568024833300,9.152833251953124,0.03498363509774208,0.01871872899532318,0.03198833258914528
1782831568034762200,9.16276220703125,0.04541267465353012,0.025938158854842186,0.011701377029565628
1782831568044691200,9.172691162109375,0.036082536250352855,-0.0082266341406852,0.022481869504682252
1782831568054620000,9.182619873046875,0.026830723780393598,-0.018839725026488303,0.03814229549148585
1782831568064549000,9.192549072265624,-0.027553192836046216,-0.027261881739273665,0.033374829927925016
1782831568074478000,9.20247802734375,-0.10106383472681045,-0.055724006113782525,0.032788611554785164
1782831568084407000,9.212406982421875,-0.14350655365884304,-0.05305420238263905,0.021765818773373028
1782831568094336000,9.2223359375,-0.18250468509495257,-0.010613675407692789,-0.03837133217412047
1782831568104265200,9.23226513671875,-0.17357845131754873,0.007724018380790948,-0.05430887405227404
1782831568114194200,9.242194091796875,-0.19084990411400793,-0.014230769926309585,-0.0030865198894287457
1782831568124123100,9.252123046875,-0.15974281818866728,-0.04281849344186484,-0.012674543185456423
1782831568134052000,9.262052001953125,-0.1245417409479618,-0.060327846647426485,-0.003303275904158363
1782831568143981300,9.271981201171876,-0.11646481747627258,-0.08059175925813615,0.0034320145670732015
1782831568153910300,9.28191015625,-0.10928162797391414,-0.08869242893159389,0.011405946880101691
1782831568163839000,9.2918388671875,-0.09943769482970237,-0.046101241439580914,0.013262472883425653
1782831568173768000,9.301767822265624,-0.09851298120021819,-0.000034559856727719304,-0.010736717265471816
1782831568183697200,9.311697265625,-0.11541267807483672,0.020087971521914005,-0.013318331256508827
1782831568193626000,9.321626220703125,-0.1561304729104042,0.006672755762189626,-0.032941703774244525
1782831568203554000,9.331553955078125,-0.17168576943874359,0.012091931266710161,-0.013141049877286422
1782831568213483000,9.34148291015625,-0.1372995157122612,0.015333981927856802,0.032191533860913474
1782831568223412000,9.351411865234375,-0.1365536657810211,0.03904021701216698,0.06306185645489022
1782831568233341200,9.361341064453125,-0.12054887191951275,0.0627441870741546,0.01572373701398028
1782831568243270100,9.371270263671875,-0.1377910986214876,0.09841872704550624,-0.016537019308377057
1782831568253199000,9.38119921875,-0.11988543957471846,0.12330956880450249,-0.007843537124211434
1782831568263128000,9.391128173828125,-0.1125859302163124,0.13077910096757114,0.0011174620058969594
1782831568273057300,9.401057373046875,-0.08047171307504176,0.11843735965825616,0.00958787602391094
1782831568282986200,9.410986328125,-0.034515433064103124,0.11117774391882121,0.014625801692460663
1782831568292915200,9.420915283203126,0.0074193363457918165,0.0996849475890398,0.027594851437129544
1782831568302844200,9.43084423828125,0.0702484252244234,0.09980959688201546,-0.002948140040267026
1782831568312773000,9.440773193359375,0.11412556087374687,0.09144925335906445,-0.027891037355130537
1782831568322702000,9.4507021484375,0.15265958192944526,0.07886917324922979,0.01374011974048917
1782831568332631000,9.460631103515626,0.1354997728139162,0.06457936661206186,0.0233872596624773
1782831568342560000,9.47056005859375,0.11123802273869514,0.048532121848315,-0.008747330121608683
1782831568352489200,9.4804892578125,0.08829320048093796,0.0244827724147588,-0.026293146304972467
1782831568362418200,9.490418212890624,0.02687807005345821,0.006813771668076515,-0.02259283961546607
1782831568372347100,9.50034716796875,-0.021125790137052534,0.0018248773396015165,-0.023248321549245155
1782831568382276000,9.510276123046875,-0.08035422417521476,-0.00027004911303520204,0.0034496472635306414
1782831568392205300,9.520205322265625,-0.14703823491632936,-0.018293562385812402,-0.006789810837176628
1782831568402134300,9.53013427734375,-0.20027005888819693,-0.016826923899352548,-0.026355681014014407
1782831568412063200,9.540063232421875,-0.21866846988797187,-0.037412323549389837,-0.018267816023202613
1782831568421992000,9.549991943359375,-0.1964899558275938,-0.07063873971626163,-0.01405210715746507
1782831568431921200,9.559921142578125,-0.16361352214217184,-0.08153641969710589,0.003897459529689513
1782831568441850000,9.56985009765625,-0.12262567819356918,-0.07373765557967125,-0.02815167475242633
1782831568451779000,9.579779052734375,-0.09646890815198421,-0.0687470076855272,-0.05086241425967309
1782831568461709000,9.589708984375,-0.042300680112838746,-0.061815820182859894,-0.03131198824713938
1782831568471641900,9.599641845703125,-0.020326164191961288,-0.032306013386324044,-0.0002926810699515044
1782831568481571000,9.609571044921875,-0.03608370529413223,-0.0368915876109153,0.010841205119830555
1782831568491499800,9.619499755859374,-0.07190846739113331,-0.025812048257142305,0.009904495091876015
1782831568501428700,9.6294287109375,-0.08539221834242343,-0.023857407058030366,0.021606869918573645
1782831568511357700,9.639357666015625,-0.08120236543715,-0.04566935282833874,0.04044655384586658
1782831568521287000,9.649286865234375,-0.07972937027513981,-0.0381830156609416,0.048425962626677935
1782831568531216000,9.6592158203125,-0.0846352624952793,-0.0033663346279412506,0.06444418679191731
1782831568541144800,9.669144775390626,-0.060139119142293924,-0.008260609475523232,0.05508579040863551
1782831568551073800,9.67907373046875,-0.027302432945370672,0.051079687439277766,-0.002974992656218819
1782831568561003000,9.6890029296875,-0.008148819664120673,0.06787095550335943,-0.006826845778780989
1782831568570932000,9.698931884765624,-0.027898645272850988,0.03818221194334328,0.015434677239798474
1782831568580861000,9.70886083984375,-0.05861585509777069,-0.01587707582861185,0.04629742616538424
1782831568590790000,9.718789794921875,-0.05310965889692306,-0.04188398907072842,0.06256005811232608
1782831568600718800,9.72871875,-0.0888753842830658,-0.044420667941495774,0.056895159651851275
1782831568610647800,9.738647705078124,-0.08416881402730941,-0.05406958997026085,0.03649346427195705
1782831568620576800,9.74857666015625,-0.11300035623610019,-0.047327933690324425,0.028090637880726715
1782831568630505700,9.758505615234375,-0.13783727585077285,-0.05711341464556753,-0.010120060371584258
1782831568640435000,9.76843505859375,-0.11429507222175597,-0.0721940063342452,-0.04803486268355045
1782831568650364000,9.778364013671874,-0.09582944120466709,-0.04981785080991685,-0.06501971709097269
1782831568660292900,9.78829296875,-0.09655950904488562,-0.08738397668153047,-0.07528074770267121
1782831568670221800,9.798221923828125,-0.10223697015941142,-0.15142054165378213,-0.02293131888878997
1782831568680151000,9.808151123046875,-0.15017127224504948,-0.1599272348448634,0.021632360552856698
1782831568690080000,9.818080078125,-0.10237842445671558,-0.10988390471599996,-0.038257583301072005
1782831568700009000,9.828009033203125,-0.13368074069321154,-0.05019684019014239,-0.06981778328877408
1782831568709938000,9.83793798828125,-0.09112287094891071,-0.038165187743306156,-0.08021583861783146
1782831568719867000,9.847866943359374,-0.06263561213314534,-0.037374548822268844,-0.0453566107844701
1782831568729795800,9.8577958984375,-0.08454056994915007,-0.10094495758749544,0.010293238681135698
1782831568739724800,9.867724853515625,-0.039357027876377106,-0.12087291624210775,0.014804441628418862
1782831568749653800,9.87765380859375,-0.05666822816133499,-0.08843421638682485,0.0067916648675454775
1782831568759582700,9.887582763671874,-0.012288403686881064,-0.0661681701734662,-0.023818705315724945
1782831568769512000,9.897511962890626,0.004986556240916252,-0.04193571925796568,-0.017125888579618186
1782831568779441000,9.90744091796875,-0.01652794095277786,-0.02580101540647447,-0.045868884855275974
1782831568789369900,9.917369873046875,0.07943067958950996,-0.00870776872113347,-0.09513533972697331
1782831568799298800,9.927298828125,0.08107844679653645,-0.030314547308161854,-0.020854186104459223
1782831568809228000,9.93722802734375,0.009212649503350257,-0.10753580721989274,0.07304886046475731
1782831568819157000,9.947156982421875,0.025427871245145797,-0.10768792904168367,0.0600604735486675
1782831568829086000,9.9570859375,0.04379471806287765,-0.05460055504180491,0.015734826946863904
1782831568839017000,9.967016845703125,-0.034676176583766934,-0.0720063748076558,-0.000495966823399067
1782831568848946000,9.97694580078125,-0.050129766303300856,-0.04325936907716095,0.013981348042772151
1782831568858875000,9.986875,-0.017328735941648483,-0.0700702191133052,0.06822209789543413
1782831568868804000,9.99680419921875,-0.09923077408075331,-0.06804521609172225,0.043117649918375536
1782831568878732800,10.00673291015625,-0.10558452702164649,-0.07349938984438777,0.007058658940391615
1782831568888661800,10.016661865234376,-0.10469722279310226,-0.03257313988991081,0.03498263045074418
1782831568898590700,10.0265908203125,-0.1623912868708372,-0.019819822105020285,0.05724535219585523
1782831568908520000,10.03652001953125,-0.2210030503153801,-0.07096965217106044,0.06008020572902169
1782831568918449000,10.046448974609374,-0.19441314955353736,-0.061161594057828186,0.06097473428279627
1782831568928377900,10.0563779296875,-0.16796061143577098,-0.0262049200322479,0.05952476836992427
1782831568938306800,10.066306884765625,-0.1427671334683895,-0.005764262615144252,0.09327126288814469
1782831568948236000,10.076236083984375,-0.13965864605903625,-0.043717780369147655,0.1227289650381077
1782831568958165000,10.0861650390625,-0.1508446414619684,-0.05928958964087069,0.1078908220694866
1782831568968094000,10.096093994140626,-0.11950783843398094,-0.03533654018864035,0.0702121757341083
1782831568978023000,10.10602294921875,-0.16172434739470481,-0.0273606659386307,0.03939240058385767
1782831568987951900,10.115951904296875,-0.14710779302120208,-0.06678995533362031,0.03785160088264383
1782831568997880800,10.125880859375,-0.14505086049139498,-0.07386931913532316,0.059141842600097874
1782831569007809800,10.135809814453125,-0.1492372062653303,-0.06973601872287691,0.09206282781329937
1782831569017738800,10.14573876953125,-0.10423603502213954,-0.04898183837719261,0.0682475611302536
1782831569027667700,10.155667724609375,-0.12507540943324566,-0.015713263569027185,0.05100425671604462
1782831569037597000,10.165596923828126,-0.11797405299544333,-0.023158684204146265,0.019753634134167804
1782831569047526000,10.17552587890625,-0.10158990442752837,-0.04454816677868366,0.0038561822378076612
1782831569057454800,10.185454833984375,-0.05969079085290432,-0.04563771558105945,-0.0065382791949436065
1782831569067383800,10.1953837890625,-0.08972586363255977,-0.04783128010258078,0.026622277794638646
1782831569077313000,10.20531298828125,-0.033415362867712975,-0.06708893828019499,0.05413061770880594
1782831569087242000,10.215241943359375,-0.04995324069261551,-0.011294131952524185,0.01981431481284089
1782831569097171000,10.2251708984375,-0.059898296123743054,0.0009308511093258857,-0.04473622756353579
1782831569107099600,10.235099609375,-0.032812136277556414,-0.012258885331451893,-0.04703111530137248
1782831569117028900,10.24502880859375,-0.03490940081775188,0.0035818770747631785,-0.028602108233934265
1782831569126957800,10.254957763671875,0.006429156264662742,0.026766280242055653,-0.0066422418929170815
1782831569136886800,10.26488671875,0.004597849184274673,0.04116393116787076,-0.01904177780407481
1782831569146815700,10.274815673828124,-0.026257892328500745,0.026764672806859013,-0.035250441940920425
1782831569156745000,10.284744873046876,-0.02284136188328266,0.04820647009052336,-0.04663089133687317
1782831569166674000,10.294673828125,-0.02588262927532196,0.08313128767311573,0.0009802340758498758
1782831569176603000,10.304602783203125,-0.04367372203171253,0.04292882194854319,0.029447281220648436
1782831569186531800,10.31453173828125,-0.045947512182593346,0.008107391675189137,0.015848662584880366
1782831569196461000,10.3244609375,-0.03891629837155342,0.01872742375843227,0.006869209916051477
1782831569206390000,10.33439013671875,-0.05816168158948421,-0.003301014306768775,0.04214357158867642
1782831569216318700,10.344318603515624,-0.06769231100082397,-0.006898673472553491,0.0035979422935750334
1782831569226249000,10.3542490234375,-0.09070376875400543,-0.01180588086694479,-0.07417683244822547
1782831569236178000,10.364177978515626,-0.07420680746138096,-0.017690993382781742,-0.0238284458250273
1782831569246107000,10.37410693359375,-0.07168751811683177,-0.00438712904304266,0.03949356853654608
1782831569256035800,10.384035888671875,-0.10641279453933239,0.002209127416834235,0.012099484385503454
1782831569265965000,10.393965087890624,-0.17720307155549525,-0.025816505236551164,0.029256804716424084
1782831569275894000,10.40389404296875,-0.2610170807957649,-0.11899009817019104,0.009280143515300005
1782831569285823000,10.413822998046875,-0.23394144234359263,-0.2213927072200924,-0.05070990884539205
1782831569295752000,10.423751953125,-0.1566226403415203,-0.1935919693637639,-0.05385262731791008
1782831569305681000,10.433680908203126,-0.05143266559541225,-0.14971366467066108,0.0981119991838932
1782831569315609900,10.44360986328125,0.04752864389419555,-0.018229118847474454,0.21726875915788113
1782831569325538800,10.453538818359375,0.027776480197906493,0.001570756448060274,0.2662507436655462
1782831569335467800,10.4634677734375,0.012322305956482886,-0.08404168051630258,0.3522944116540253
1782831569345396700,10.473396728515626,-0.06890987009704112,-0.06480345769152045,0.1547381965680979
1782831569355326000,10.483325927734375,-0.16973346632719039,-0.03393310313150286,0.265011338063702
1782831569365255000,10.4932548828125,-0.16563479883670806,-0.011741437328606844,0.0764134643599158
1782831569375184000,10.503183837890624,-0.08893266742825508,0.07069222346916794,-0.13367695043408312
1782831569385112800,10.51311279296875,-0.14230886830687522,0.11983758184500037,-0.1833821072502993
1782831569395042000,10.5230419921875,-0.09239595962464808,0.014189780328795313,-0.07236084623455535
1782831569404971000,10.532970947265625,-0.07075637474656105,-0.06720752315856517,-0.06355784154459834
1782831569414899700,10.542899658203124,-0.10836275956332683,-0.08379530453979969,-0.0992848332223948
1782831569424828700,10.55282861328125,-0.2649526666790247,-0.07091368420012295,-0.1605665556617081
1782831569434758000,10.5627578125,-0.2922229509204626,-0.11220372596569358,-0.3478800658104941
1782831569444686800,10.572686767578125,-0.36662031251788135,-0.06833630799278617,-0.35167766799516975
1782831569454615800,10.58261572265625,-0.22944471544623374,0.018491971034742892,-0.22484511269629
1782831569464544800,10.592544677734375,-0.14964520254433153,0.10601897291615604,-0.1321059382576961
1782831569474470100,10.60247021484375,-0.13418985925912857,0.05874664187058806,-0.10910886522289365
1782831569484399000,10.612399169921876,1.2371364878684281,0.09909801454655826,-0.10895440531354397
1782831569494328000,10.622328125,1.000924177983403,0.5056621053202077,0.46462264078222215
1782831569504257300,10.63225732421875,-1.286838968670368,-0.2829952499784529,0.6145015059519559
1782831569514186200,10.642186279296874,-0.23420973789095878,-0.6691920042995363,0.08174788875700906
1782831569524115200,10.652115234375,-0.3931137671679258,0.29467662768289443,-0.08528664820925332
1782831569534044000,10.6620439453125,-0.4339320997685194,0.19450561360996216,0.06819247907530517
1782831569543973000,10.67197314453125,-0.45514907532036303,-0.10443517432343215,0.16576843515373765
1782831569553902000,10.681902099609376,-0.2252379114061594,-0.11889967994038014,0.08457912099440582
1782831569563831000,10.6918310546875,-0.01609305666685104,0.097751495308429,0.19728698795679955
