time,seconds_elapsed,z,y,x
1782831558959667200,0.087667236328125,-0.012052331119775772,-0.09081040322780609,0.11537852883338928
1782831558969596400,0.097596435546875,-0.018629273399710655,-0.12214196473360062,0.1593550443649292
1782831558979524400,0.1075244140625,-0.033851444721221924,-0.11398066580295563,0.18056829273700714
1782831558989453300,0.117453369140625,-0.040600426495075226,-0.09320374578237534,0.17271463572978973
1782831558999382300,0.12738232421875,-0.02696257457137108,-0.06046692281961441,0.14212699234485626
1782831559009311200,0.137311279296875,-0.007679157890379429,-0.02147957682609558,0.10516417771577835
1782831559019240400,0.147240478515625,-0.0077701592817902565,-0.015917297452688217,0.07158912718296051
1782831559029169400,0.15716943359375,-0.018783926963806152,-0.00562950549647212,0.05073178559541702
1782831559039098400,0.167098388671875,-0.0415971502661705,0.000997563824057579,0.020598724484443665
1782831559049027300,0.17702734375,-0.06796830892562866,-0.022005755454301834,-0.00719908531755209
1782831559058956300,0.186956298828125,-0.08152034878730774,-0.04537123441696167,-0.026847515255212784
1782831559068885200,0.19688525390625,-0.08799982070922852,-0.008081922307610512,-0.018594378605484962
1782831559078814200,0.206814208984375,-0.09446828067302704,0.046827103942632675,-0.004085094667971134
1782831559088743200,0.2167431640625,-0.09276465326547623,0.07750139385461807,0.00714891729876399
1782831559098672400,0.22667236328125,-0.06956325471401215,0.08819466084241867,0.015981275588274002
1782831559108601300,0.236601318359375,-0.04821908101439476,0.07298747450113297,0.02835618518292904
1782831559118530300,0.2465302734375,-0.005380121059715748,0.046573325991630554,0.034119732677936554
1782831559128459300,0.256459228515625,0.03758465498685837,0.02771521732211113,0.026195501908659935
1782831559138388500,0.266388427734375,0.0749504566192627,-0.013449098914861679,0.019535062834620476
1782831559148317400,0.2763173828125,0.09947311133146286,-0.05159169062972069,0.012227615341544151
1782831559158246400,0.286246337890625,0.10576882213354111,-0.08642636984586716,0.01631716638803482
1782831559168175000,0.296175048828125,0.09487196803092957,-0.13036373257637024,0.0353718139231205
1782831559178103300,0.306103271484375,0.06592236459255219,-0.15213847160339355,0.06334275752305984
1782831559188032500,0.316032470703125,0.03872749209403992,-0.17582383751869202,0.07932838052511215
1782831559197961200,0.325961181640625,0.013204799965023994,-0.1828458458185196,0.06599150598049164
1782831559207890200,0.33589013671875,-0.0024423357099294662,-0.1648375540971756,0.04879814013838768
1782831559217819100,0.345819091796875,-0.013432699255645275,-0.09854895621538162,0.05471605435013771
1782831559227748400,0.355748291015625,-0.024291206151247025,0.018943317234516144,0.06594953685998917
1782831559237677300,0.36567724609375,-0.024404559284448624,0.09703817963600159,0.07185348123311996
1782831559247606300,0.375606201171875,-0.013385197147727013,0.1173623651266098,0.06130204349756241
1782831559257535200,0.38553515625,-0.0006881402805447578,0.1093164011836052,0.036972012370824814
1782831559267464400,0.39546435546875,0.00095343217253685,0.07574831694364548,-0.008474566042423248
1782831559277393400,0.405393310546875,-0.009043059311807156,0.03561963886022568,-0.04392882063984871
1782831559287322400,0.415322265625,-0.024348512291908264,0.002591916359961033,-0.06447511166334152
1782831559297251300,0.425251220703125,-0.04671356454491615,-0.03459564223885536,-0.07704375684261322
1782831559307180300,0.43518017578125,-0.05306600034236908,-0.06394154578447342,-0.08963438123464584
1782831559317109200,0.445109130859375,-0.04307771846652031,-0.06530719995498657,-0.08948186039924622
1782831559327038200,0.4550380859375,-0.034568920731544495,-0.06222352012991905,-0.08593133091926575
1782831559336967200,0.46496728515625,-0.019465653225779533,-0.05095239356160164,-0.07202070951461792
1782831559346896400,0.474896484375,-0.0026248879730701447,-0.02503344416618347,-0.04325404018163681
1782831559356825300,0.484825439453125,0.0028253188356757164,-0.01784731261432171,-0.017624780535697937
1782831559366753300,0.494753173828125,0.007800635881721973,-0.006148578133434057,0.002362776082009077
1782831559376682200,0.50468212890625,0.014905177056789398,-0.014307068660855293,-0.0004339800216257572
1782831559386611200,0.514611083984375,0.024512797594070435,-0.019201958552002907,-0.004883323330432177
1782831559396540400,0.52454052734375,0.0280369333922863,-0.028535332530736923,-0.009073037654161453
1782831559406469400,0.534469482421875,0.021686892956495285,-0.008679870516061783,-0.003348040860146284
1782831559416398300,0.5443984375,0.013645723462104797,0.0072548286989331245,-0.0005858396179974079
1782831559426327300,0.554327392578125,0.01206433866173029,0.014059736393392086,-0.015063848346471786
1782831559436256500,0.564256591796875,0.003747223876416683,0.021176591515541077,-0.04067182540893555
1782831559446185500,0.574185546875,-0.010650889948010445,0.02720598876476288,-0.06955993175506592
1782831559456115000,0.584114990234375,-0.021898744627833366,0.019447103142738342,-0.0806044340133667
1782831559466044000,0.5940439453125,-0.02702452801167965,0.002134159207344055,-0.07108789682388306
1782831559475972900,0.603972900390625,-0.028319325298070908,-0.022514846175909042,-0.04290749132633209
1782831559485902000,0.613902099609375,-0.01732073724269867,-0.02526535838842392,-0.008545524440705776
1782831559495831000,0.6238310546875,0.0031304555013775826,-0.021101564168930054,0.013761084526777267
1782831559505760000,0.633760009765625,0.023492984473705292,-0.02493598312139511,0.026510968804359436
1782831559515689000,0.64368896484375,0.02316184714436531,-0.053456954658031464,0.03143509477376938
1782831559525618200,0.6536181640625,0.01997004821896553,-0.07323385030031204,0.03457442671060562
1782831559535547100,0.663547119140625,0.013946660794317722,-0.060169219970703125,0.028825843706727028
1782831559545475800,0.673475830078125,0.01558796688914299,-0.01254178024828434,0.021728787571191788
1782831559555404800,0.68340478515625,0.015382615849375725,0.032892487943172455,0.01812843047082424
1782831559565334000,0.693333984375,0.008533231914043427,0.06406265497207642,0.008581263944506645
1782831559575262000,0.703261962890625,0.003454117104411125,0.04839785769581795,-0.005727012641727924
1782831559585191000,0.71319091796875,-0.0007225191220641136,0.01989484578371048,-0.0029581240378320217
1782831559595119900,0.723119873046875,-0.00482180155813694,0.015805639326572418,0.025726471096277237
1782831559605048800,0.733048828125,-0.019436964765191078,0.0138620650395751,0.06364376097917557
1782831559614978000,0.74297802734375,-0.03372659161686897,0.011151253245770931,0.08034009486436844
1782831559624907000,0.752906982421875,-0.02913503348827362,0.015370233915746212,0.07456076890230179
1782831559634836000,0.7628359375,-0.02160569652915001,0.03565702959895134,0.054948583245277405
1782831559644765000,0.772764892578125,-0.013468940742313862,0.06634889543056488,0.028737487271428108
1782831559654694100,0.782694091796875,0.007139929104596376,0.09043155610561371,0.0013316296972334385
1782831559664623000,0.792623046875,0.02681909129023552,0.09698266535997391,-0.017010891810059547
1782831559674552000,0.802552001953125,0.03967536613345146,0.06657272577285767,-0.02367270365357399
1782831559684481000,0.81248095703125,0.041851699352264404,0.032875217497348785,-0.013596367090940475
1782831559694410000,0.822409912109375,0.02917310781776905,-0.0020092688500881195,0.014123983681201935
1782831559704339000,0.8323388671875,0.013083353638648987,-0.04340038448572159,0.03877713531255722
1782831559714268000,0.842267822265625,0.0022575361654162407,-0.07106921076774597,0.060669295489788055
1782831559724196900,0.85219677734375,-0.0003702053800225258,-0.08240149170160294,0.07779181748628616
1782831559734126000,0.8621259765625,-0.01156466081738472,-0.06409824639558792,0.08840955793857574
1782831559744055000,0.872054931640625,-0.013748185709118843,-0.021816303953528404,0.0763731375336647
1782831559753984000,0.88198388671875,-0.0033379793167114258,0.006773022934794426,0.03609590232372284
1782831559763913000,0.891912841796875,0.009015358984470367,0.031607262790203094,-0.015614697709679604
1782831559773842200,0.90184228515625,0.024828840047121048,0.04307743161916733,-0.057246819138526917
1782831559783770000,0.91177001953125,0.029996704310178757,0.036075182259082794,-0.07655873149633408
1782831559793699000,0.921698974609375,0.04068588465452194,0.012751303613185883,-0.07571238279342651
1782831559803628000,0.9316279296875,0.04486704617738724,-0.009153196588158607,-0.04252114146947861
1782831559813557000,0.941556884765625,0.051340728998184204,-0.030665187165141106,-0.010380089282989502
1782831559823486200,0.951486328125,0.05714935064315796,-0.039439503103494644,0.013486893847584724
1782831559833415000,0.961414794921875,0.058995649218559265,-0.05323250591754913,0.02876768819987774
1782831559843344000,0.97134375,0.04640395566821098,-0.057749759405851364,0.04325075447559357
1782831559853272800,0.98127294921875,0.026568900793790817,-0.03979577496647835,0.062090370804071426
1782831559863202000,0.9912021484375,0.0038081947714090347,-0.03572460263967514,0.07080582529306412
1782831559873131000,1.001131103515625,-0.017688026651740074,-0.042376551777124405,0.07315993309020996
1782831559883060000,1.01106005859375,-0.02674863487482071,-0.01304289698600769,0.07517700642347336
1782831559892989000,1.020989013671875,-0.018648935481905937,0.0364009290933609,0.07629670202732086
1782831559902918100,1.030918212890625,0.0008270284160971642,0.0772186666727066,0.07409187406301498
1782831559912847000,1.04084716796875,0.006064713932573795,0.09424971044063568,0.05982298031449318
1782831559922776000,1.050776123046875,0.011891976930201054,0.08476406335830688,0.04050014913082123
1782831559932705000,1.060705078125,0.014406876638531685,0.07388851046562195,0.024014607071876526
1782831559942634000,1.070634033203125,0.010477382689714432,0.04428347945213318,0.012144099920988083
1782831559952563000,1.08056298828125,0.0031442437320947647,0.00196967925876379,0.009383386000990868
1782831559962492000,1.090491943359375,-0.01848035678267479,-0.03247404843568802,0.013346701860427856
1782831559972420900,1.1004208984375,-0.037828486412763596,-0.05874582752585411,0.028781380504369736
1782831559982350000,1.11035009765625,-0.04209407418966293,-0.06272672116756439,0.046532150357961655
1782831559992279000,1.120279052734375,-0.03920420631766319,-0.055445414036512375,0.051863688975572586
1782831560002207000,1.13020703125,-0.026629824191331863,-0.02863723412156105,0.031630855053663254
1782831560012136000,1.140135986328125,-0.02498621866106987,-0.00790565088391304,-0.012966427020728588
1782831560022065000,1.15006494140625,-0.03188353776931763,0.011615321040153503,-0.043977342545986176
1782831560031994000,1.159994140625,-0.048053890466690063,0.02253696508705616,-0.050842516124248505
1782831560041923000,1.169923095703125,-0.06361367553472519,0.034125976264476776,-0.029887696728110313
1782831560051852000,1.17985205078125,-0.0593508705496788,0.05878680944442749,-0.005741768982261419
1782831560061781000,1.189781005859375,-0.045766085386276245,0.06922613084316254,0.010202841833233833
1782831560071710200,1.199710205078125,-0.02039933204650879,0.05701301619410515,0.009074175730347633
1782831560081639200,1.20963916015625,0.0051020304672420025,0.01832980290055275,0.00039653247222304344
1782831560091567900,1.21956787109375,0.02958769164979458,-0.03614353388547897,0.004859426524490118
1782831560101496800,1.229496826171875,0.0383249893784523,-0.06276395916938782,0.025910383090376854
1782831560111426000,1.239426025390625,0.03373033553361893,-0.05786265805363655,0.057499125599861145
1782831560121355000,1.24935498046875,0.025483857840299606,-0.04352579638361931,0.05143377557396889
1782831560131284000,1.259283935546875,0.023667294532060623,-0.015354590490460396,0.024945275858044624
1782831560141213000,1.269212890625,0.015448247082531452,0.000674976035952568,-0.018783563748002052
1782831560151142000,1.279141845703125,0.010445638559758663,-0.007543173618614674,-0.05805489048361778
1782831560161071000,1.289071044921875,0.01694827899336815,0.001883617602288723,-0.08264944702386856
1782831560171000000,1.299,0.022178854793310165,0.0030780956149101257,-0.08154913038015366
1782831560180929000,1.308928955078125,0.02683512680232525,0.0029803579673171043,-0.052600838243961334
1782831560190858000,1.31885791015625,0.026923779398202896,-0.01384552288800478,-0.017569590359926224
1782831560200787000,1.328786865234375,0.01574675738811493,-0.038341011852025986,0.01458807848393917
1782831560210716000,1.3387158203125,0.013999313116073608,-0.07100167125463486,0.02458553947508335
1782831560220644000,1.34864404296875,0.022081473842263222,-0.067319855093956,0.02776455320417881
1782831560230573000,1.358572998046875,0.028380487114191055,-0.047666262835264206,0.034379176795482635
1782831560240501800,1.368501708984375,0.025712531059980392,-0.02477453090250492,0.028597189113497734
1782831560250431000,1.378430908203125,0.025481700897216797,-0.00784558616578579,0.009658927097916603
1782831560260360000,1.38835986328125,0.024497661739587784,0.022505126893520355,-0.01436544768512249
1782831560270289000,1.398288818359375,0.030909808352589607,0.031575944274663925,-0.03944816067814827
1782831560280217900,1.4082177734375,0.03916800394654274,0.024163566529750824,-0.050974853336811066
1782831560290147000,1.41814697265625,0.05197172984480858,0.02541119046509266,-0.028854453936219215
1782831560300076000,1.428075927734375,0.057298850268125534,0.031237388029694557,0.005181543994694948
1782831560310005000,1.4380048828125,0.06105867773294449,0.02021263912320137,0.024159464985132217
1782831560319934000,1.447933837890625,0.05926530435681343,-0.005469288676977158,0.035574574023485184
1782831560329863200,1.45786328125,0.04343271628022194,-0.032976604998111725,0.04982409626245499
1782831560339792100,1.467792236328125,0.02410908415913582,-0.04252909868955612,0.07139117270708084
1782831560349720800,1.477720947265625,-0.006006327457726002,-0.050551727414131165,0.08983221650123596
1782831560359649800,1.48764990234375,-0.023033779114484787,-0.0484001561999321,0.08266191929578781
1782831560369579000,1.4975791015625,-0.020684096962213516,-0.028485862538218498,0.05061214417219162
1782831560379508000,1.507508056640625,-0.006931801326572895,-0.010022965259850025,0.004300303291529417
1782831560389437000,1.51743701171875,0.0033688200637698174,-0.023964757099747658,-0.03735413774847984
1782831560399366000,1.527365966796875,0.00985042192041874,-0.02560686320066452,-0.061140161007642746
1782831560409295000,1.537295166015625,0.021258147433400154,-0.008816695772111416,-0.05121007561683655
1782831560419224000,1.54722412109375,0.01931377314031124,0.0017081163823604584,-0.01878502406179905
1782831560429153000,1.557153076171875,0.018419384956359863,0.018455076962709427,0.01837673969566822
1782831560439082000,1.56708203125,0.01688859984278679,0.015044896863400936,0.035374630242586136
1782831560449010000,1.577010009765625,0.009798042476177216,0.007378675974905491,0.03532809764146805
1782831560458942200,1.586942138671875,0.005121531430631876,-0.005317411385476589,0.030657708644866943
1782831560468871200,1.59687109375,-0.003693176433444023,-0.022704873234033585,0.01892166957259178
1782831560478800100,1.606800048828125,-0.003303823061287403,-0.04339070990681648,0.009952409192919731
1782831560488729300,1.616729248046875,-0.008093312382698059,-0.03984443098306656,-0.0005505084991455078
1782831560498658300,1.626658203125,-0.01236768625676632,-0.03696794807910919,-0.008154099807143211
1782831560508587000,1.6365869140625,-0.012214831076562405,-0.03233242407441139,-0.01979472115635872
1782831560518516000,1.646515869140625,-0.013738160021603107,-0.011178403161466122,-0.027462229132652283
1782831560528445200,1.656445068359375,-0.014221623539924622,-0.0002380823716521263,-0.040644675493240356
1782831560538374100,1.6663740234375,-0.005374602973461151,0.0042280396446585655,-0.04359625652432442
1782831560548303000,1.67630322265625,0.0009627519175410271,0.00414492841809988,-0.02440752275288105
1782831560558232000,1.686232177734375,0.004811818711459637,-0.004375588148832321,0.001644583884626627
1782831560568161000,1.6961611328125,0.006019762717187405,-0.013542712666094303,0.018220681697130203
1782831560578090200,1.70609033203125,0.014437748119235039,-0.0135214077308774,0.01573888212442398
1782831560588019200,1.716019287109375,0.016151921823620796,-0.017769403755664825,-0.0021931100636720657
1782831560597948200,1.7259482421875,0.015382002107799053,-0.024504272267222404,-0.020055996254086494
1782831560607877000,1.735877197265625,0.006568374112248421,-0.03468900918960571,-0.027681296691298485
1782831560617806000,1.74580615234375,-0.00673384964466095,-0.04795688018202782,-0.020348282530903816
1782831560627735000,1.755735107421875,-0.020637929439544678,-0.044820912182331085,-0.00907529704272747
1782831560637664000,1.7656640625,-0.02719835937023163,-0.01488511823117733,-0.007119205314666033
1782831560647593000,1.775593017578125,-0.025735866278409958,0.014162249863147736,-0.02121087722480297
1782831560657522200,1.785522216796875,-0.015029958449304104,0.040095046162605286,-0.04216436296701431
1782831560667451100,1.795451171875,-0.005274678580462933,0.051496271044015884,-0.04910506308078766
1782831560677380000,1.805380126953125,0.004437337629497051,0.04655823856592178,-0.032900795340538025
1782831560687309000,1.81530908203125,0.009308933280408382,0.020231742411851883,-0.005502146203070879
1782831560697237000,1.825237060546875,0.008573368191719055,-0.017077282071113586,0.024964414536952972
1782831560707166200,1.835166259765625,0.007447653450071812,-0.047635868191719055,0.04782544821500778
1782831560717095200,1.84509521484375,0.007295586634427309,-0.05686638504266739,0.05062602832913399
1782831560727024000,1.855024169921875,0.008864641189575195,-0.04930012300610542,0.034364745020866394
1782831560736953000,1.864953125,0.006296289153397083,-0.036886066198349,0.0072484384290874004
1782831560746882300,1.87488232421875,0.002324160188436508,-0.02158919721841812,-0.015360498800873756
1782831560756811300,1.884811279296875,-0.006804090924561024,-0.007616122718900442,-0.02211800403892994
1782831560766740000,1.894739990234375,-0.003839605487883091,0.007042796351015568,-0.02295295149087906
1782831560776669000,1.9046689453125,0.0054183416068553925,0.01605839654803276,-0.017923837527632713
1782831560786598100,1.91459814453125,0.017279019579291344,0.020972825586795807,-0.012869331985712051
1782831560796527000,1.924527099609375,0.0195941049605608,0.01248799730092287,-0.002452376764267683
1782831560806456000,1.9344560546875,0.016930129379034042,-0.016260692849755287,0.0057462784461677074
1782831560816385000,1.944385009765625,0.01997651904821396,-0.04328592121601105,0.018810149282217026
1782831560826314200,1.954314208984375,0.03361603617668152,-0.04276452213525772,0.023625781759619713
1782831560836243200,1.9642431640625,0.027445226907730103,-0.03504881262779236,0.026549136266112328
1782831560846172200,1.974172119140625,0.015792321413755417,-0.03557521849870682,0.020119559019804
1782831560856101000,1.98410107421875,0.01039302907884121,-0.03469930589199066,0.0018241745419800282
1782831560866030300,1.9940302734375,0.0006149467080831528,-0.03209966421127319,-0.026261942461133003
1782831560875959000,2.003958984375,-0.0063010165467858315,-0.01284793857485056,-0.04199616238474846
1782831560885888000,2.013887939453125,-0.007787969894707203,-0.003260519355535507,-0.043848805129528046
1782831560895817000,2.02381689453125,-0.015521523542702198,0.0026514315977692604,-0.027162503451108932
1782831560905746200,2.03374609375,-0.028201565146446228,0.0258319228887558,-0.009988552890717983
1782831560915675100,2.043675048828125,-0.03248259425163269,0.022807635366916656,0.004488390404731035
1782831560925604000,2.05360400390625,-0.028377775102853775,0.020763445645570755,0.009772082790732384
1782831560935533000,2.063532958984375,-0.01812753453850746,0.020755186676979065,0.016645435243844986
1782831560945462300,2.073462158203125,-0.003112809732556343,0.018826695159077644,0.01738796755671501
1782831560955391200,2.08339111328125,0.01300464104861021,0.016948100179433823,0.018150698393583298
1782831560965319200,2.093319091796875,0.019706590101122856,0.003870525397360325,0.024296807125210762
1782831560975248100,2.103248046875,0.01985226571559906,-0.025712400674819946,0.02897890843451023
1782831560985177000,2.113177001953125,0.023519661277532578,-0.042645469307899475,0.026604577898979187
1782831560995106300,2.123106201171875,0.0216064453125,-0.05248372256755829,0.011335344985127449
1782831561005035300,2.13303515625,0.021242626011371613,-0.06353453546762466,-0.011943052522838116
1782831561014964200,2.142964111328125,0.017526451498270035,-0.06147085130214691,-0.030927129089832306
1782831561024893000,2.152892822265625,0.008995382115244865,-0.038666218519210815,-0.031261760741472244
1782831561034822100,2.162822265625,-0.004791536368429661,-0.01535104401409626,-0.022355884313583374
1782831561044751000,2.172751220703125,-0.009030729532241821,0.0033153844997286797,-0.015289952978491783
1782831561054680000,2.18268017578125,-0.01803647354245186,0.02145630493760109,-0.00508471904322505
1782831561064609000,2.192609130859375,-0.023785386234521866,0.024436242878437042,-0.010495129972696304
1782831561074538200,2.202538330078125,-0.009231745265424252,0.021151501685380936,-0.02774149551987648
1782831561084467200,2.21246728515625,0.00525358971208334,0.0006259316578507423,-0.04216773808002472
1782831561094396200,2.222396240234375,0.01376958005130291,-0.009457862004637718,-0.03595751151442528
1782831561104325000,2.2323251953125,0.024524465203285217,-0.008996131829917431,-0.019698146730661392
1782831561114254300,2.24225439453125,0.03044147416949272,-0.01750093698501587,-0.008634842932224274
1782831561124183300,2.252183349609375,0.0358826108276844,-0.0289226695895195,-0.004173274617642164
1782831561134112000,2.262112060546875,0.03437632694840431,-0.034536879509687424,0.005736880470067263
1782831561144041000,2.272041015625,0.030589288100600243,-0.03862516209483147,0.021859358996152878
1782831561153970200,2.28197021484375,0.02817033790051937,-0.020503949373960495,0.030249647796154022
1782831561163899100,2.291899169921875,0.01934799551963806,-0.0067863245494663715,0.02746959775686264
1782831561173828000,2.301828125,0.008300404995679855,0.003499070182442665,0.010998478159308434
1782831561183757000,2.311757080078125,-0.014336436055600643,0.0040413569658994675,-0.008819933980703354
1782831561193686000,2.32168603515625,-0.02492383122444153,0.008898962289094925,-0.03690642863512039
1782831561203615200,2.331615234375,-0.02572159841656685,0.0012309243902564049,-0.052881259471178055
1782831561213544200,2.341544189453125,-0.020083419978618622,0.0039968835189938545,-0.054928168654441833
1782831561223473200,2.35147314453125,-0.009088004007935524,-0.011711861938238144,-0.04649483039975166
1782831561233402000,2.361402099609375,-0.0024660537019371986,-0.021451041102409363,-0.013835420832037926
1782831561243331000,2.3713310546875,0.006434708368033171,-0.015305662527680397,0.02340136282145977
1782831561253259300,2.38125927734375,0.016350189223885536,-0.0026332763954997063,0.05107906088232994
1782831561263188200,2.391188232421875,0.02944214642047882,-0.0019013527780771255,0.04986541345715523
1782831561273117200,2.4011171875,0.03401639312505722,-0.00587052758783102,0.040289487689733505
1782831561283046000,2.4110458984375,0.029557492583990097,-0.0059735276736319065,0.02854045480489731
1782831561292975000,2.42097509765625,0.028097279369831085,-0.008156254887580872,0.019692901521921158
1782831561302904000,2.430904052734375,0.013437405228614807,-0.014170138165354729,0.007026940118521452
1782831561312833000,2.4408330078125,0.004225264303386211,-0.012550669722259045,-0.0065397354774177074
1782831561322762000,2.450761962890625,-0.004192988388240337,-0.013607678934931755,-0.021329600363969803
1782831561332691200,2.460691162109375,-0.0035042939707636833,-0.022400636225938797,-0.033729277551174164
1782831561342620200,2.4706201171875,-0.012298907153308392,-0.01122534554451704,-0.030423032119870186
1782831561352549000,2.480549072265625,-0.01976853981614113,-0.006821276154369116,-0.021381333470344543
1782831561362478000,2.49047802734375,-0.020588343963027,-0.0011868728324770927,-0.005449479445815086
1782831561372407300,2.5004072265625,-0.01932653971016407,-0.001003914512693882,0.012529520317912102
1782831561382336300,2.510336181640625,-0.011690045706927776,0.0033045820891857147,0.023725105449557304
1782831561392265000,2.520264892578125,0.0008092345669865608,0.0022116200998425484,0.03182217851281166
1782831561402194000,2.53019384765625,0.012979959137737751,-0.016986383125185966,0.01713254675269127
1782831561412123100,2.540123046875,0.03134778141975403,-0.023075435310602188,0.0015301513485610485
1782831561422052000,2.550052001953125,0.027222562581300735,-0.027643725275993347,-0.011843088082969189
1782831561431981000,2.55998095703125,0.013553356751799583,-0.02728952467441559,-0.011189015582203865
1782831561441910000,2.569909912109375,-0.012247787788510323,-0.022348927333950996,-0.005270360969007015
1782831561451839200,2.579839111328125,-0.03185717761516571,-0.006409375928342342,-0.01970282942056656
1782831561461768400,2.5897685546875,-0.03515395149588585,0.010369897820055485,-0.03561514988541603
1782831561471697400,2.599697509765625,-0.028831075876951218,0.015197408385574818,-0.045993488281965256
1782831561481626400,2.60962646484375,-0.01545451208949089,0.019254354760050774,-0.04241621494293213
1782831561491555300,2.619555419921875,0.0035420823842287064,0.019676463678479195,-0.016682088375091553
1782831561501484300,2.629484375,0.012032129801809788,0.018127914518117905,0.020334701985120773
1782831561511413200,2.639413330078125,0.01141241192817688,0.0007838131859898567,0.03504573553800583
1782831561521342200,2.64934228515625,0.00876571610569954,-0.02952718921005726,0.036137454211711884
1782831561531271400,2.659271484375,0.004819443449378014,-0.04690378159284592,0.021832820028066635
1782831561541200400,2.669200439453125,-0.003127467818558216,-0.035009995102882385,0.005041736643761396
1782831561551129300,2.67912939453125,-0.00681940745562315,-0.010984553024172783,-0.016776209697127342
1782831561561058300,2.689058349609375,-0.015535951592028141,0.008318858221173286,-0.03745054826140404
1782831561570987500,2.698987548828125,-0.02006412297487259,0.009655766189098358,-0.051510438323020935
1782831561580915500,2.70891552734375,-0.02857247367501259,0.009115365333855152,-0.0402953065931797
1782831561590845400,2.718845458984375,-0.03455686196684837,0.007316933013498783,-0.01879907213151455
1782831561600773400,2.7287734375,-0.022405989468097687,0.006824826821684837,-0.0021635242737829685
1782831561610702300,2.738702392578125,0.007584663573652506,0.011077629402279854,0.010206859558820724
1782831561620631600,2.748631591796875,0.0245041586458683,0.012597205117344856,0.01597294770181179
1782831561630560500,2.758560546875,0.035716332495212555,0.005097744986414909,0.02155573107302189
1782831561640489200,2.7684892578125,0.029067959636449814,-0.0026122406125068665,0.026641234755516052
1782831561650418200,2.778418212890625,0.007846294902265072,-0.024451494216918945,0.023150628432631493
1782831561660347400,2.788347412109375,-0.006717720068991184,-0.05188861861824989,0.012945747002959251
1782831561670276400,2.7982763671875,-0.011254682205617428,-0.05933934450149536,0.006711286958307028
1782831561680205300,2.808205322265625,-0.01914357952773571,-0.028543930500745773,0.003292346838861704
1782831561690134300,2.81813427734375,-0.021938299760222435,0.018389225006103516,0.0009959028102457523
1782831561700063500,2.8280634765625,-0.01785663142800331,0.03967518359422684,-0.015117011964321136
1782831561709992400,2.837992431640625,-0.016749288886785507,0.04362092167139053,-0.048983365297317505
1782831561719921400,2.84792138671875,-0.0011840211227536201,0.04268231242895126,-0.06893710792064667
1782831561729850400,2.857850341796875,0.009633206762373447,0.02881789579987526,-0.05233709141612053
1782831561739779600,2.867779541015625,0.021228570491075516,0.019694287329912186,-0.01269020140171051
1782831561749708300,2.877708251953125,0.03906908631324768,0.01737627014517784,0.028874285519123077
1782831561759637200,2.88763720703125,0.04868927597999573,0.004525965079665184,0.040078677237033844
1782831561769566200,2.897566162109375,0.04380530118942261,-0.02150190807878971,0.024599583819508553
1782831561779495400,2.907495361328125,0.027464058250188828,-0.06641705334186554,-0.0011761412024497986
1782831561789424400,2.91742431640625,0.0045374357141554356,-0.07646675407886505,-0.01761104166507721
1782831561799353300,2.927353271484375,-0.019818805158138275,-0.05003590136766434,-0.016187747940421104
1782831561809282300,2.9372822265625,-0.03110288456082344,-0.010187022387981415,-0.0026415791362524033
1782831561819211500,2.94721142578125,-0.03500048443675041,0.032312169671058655,0.003665029536932707
1782831561829140500,2.957140380859375,-0.03885887190699577,0.047758765518665314,-0.008670732378959656
1782831561839069400,2.9670693359375,-0.03444356843829155,0.04036740958690643,-0.03152737766504288
1782831561848998400,2.976998291015625,-0.03010554239153862,0.020157476887106895,-0.04802326485514641
1782831561858927600,2.986927734375,-0.023186001926660538,0.001238115131855011,-0.04994965344667435
1782831561868856300,2.996856201171875,-0.004557457752525806,0.0014250688254833221,-0.03088940866291523
1782831561878785300,3.006785400390625,0.005067512392997742,0.005629555322229862,-0.0025868122465908527
1782831561888714200,3.01671435546875,0.0009145792573690414,0.005201851017773151,0.021600814536213875
1782831561898643500,3.0266435546875,-0.013606642372906208,-0.01091262511909008,0.026203934103250504
1782831561908572400,3.036572509765625,-0.03452683612704277,-0.03967636078596115,0.024467553943395615
1782831561918501400,3.04650146484375,-0.04041106998920441,-0.045991797000169754,0.021094348281621933
1782831561928430300,3.056430419921875,-0.03711993247270584,-0.022881951183080673,0.0182450320571661
1782831561938359300,3.066359375,-0.024941422045230865,-0.0032997354865074158,0.007119002286344767
1782831561948288500,3.07628857421875,-0.00010557938367128372,0.015774888917803764,-0.00872840452939272
1782831561958217500,3.086217529296875,0.024576973170042038,0.03040720522403717,-0.01645342819392681
1782831561968146400,3.096146484375,0.034299109131097794,0.025791149586439133,-0.011838437058031559
1782831561978075400,3.106075439453125,0.02823439985513687,0.006302510388195515,0.002636358607560396
1782831561988004400,3.11600439453125,0.01805846206843853,-0.01376334298402071,0.018551409244537354
1782831561997932500,3.1259326171875,0.0008805803954601288,-0.03511793538928032,0.029196791350841522
1782831562007861200,3.135861328125,-0.008629833348095417,-0.043759893625974655,0.029886018484830856
1782831562017790200,3.145790283203125,-0.015925534069538116,-0.031208083033561707,0.022617489099502563
1782831562027719200,3.15571923828125,-0.019655022770166397,-0.014335624873638153,0.007352249231189489
1782831562037648400,3.1656484375,-0.01616218313574791,0.003645346499979496,-0.007947606965899467
1782831562047577300,3.175577392578125,-0.007373482920229435,0.004622726701200008,-0.026339929550886154
1782831562057506300,3.18550634765625,0.008022082969546318,0.00574260950088501,-0.03615082800388336
1782831562067435300,3.195435302734375,0.02011789381504059,0.002042146399617195,-0.02579512447118759
1782831562077364500,3.205364501953125,0.018872328102588654,-0.006507555954158306,0.006247098091989756
1782831562087293400,3.21529345703125,0.01620517298579216,-0.006976538337767124,0.038357630372047424
1782831562097222400,3.225222412109375,0.015239851549267769,-0.01326361857354641,0.047020379453897476
1782831562107151400,3.2351513671875,0.015980210155248642,-0.011988230980932713,0.03379618749022484
1782831562117080600,3.24508056640625,0.017500579357147217,-0.008945902809500694,0.007178124506026506
1782831562127009300,3.25500927734375,0.011734035797417164,-0.00813363865017891,-0.021421030163764954
1782831562136938200,3.264938232421875,0.005899370647966862,-0.015150214545428753,-0.03274266794323921
1782831562146867200,3.2748671875,-0.013205614872276783,-0.015295889228582382,-0.025550803169608116
1782831562156796400,3.28479638671875,-0.026592787355184555,-0.01240334939211607,-0.013629348948597908
1782831562166725400,3.294725341796875,-0.026515554636716843,0.00218837708234787,-0.009008497931063175
1782831562176654300,3.304654296875,-0.017298132181167603,0.007737831212580204,-0.020718155428767204
1782831562186583300,3.314583251953125,-0.008090517483651638,0.008598032407462597,-0.03507472574710846
1782831562196512500,3.324512451171875,0.0006037428975105286,0.004373371601104736,-0.037671495229005814
1782831562206441500,3.33444140625,0.00002636946737766266,0.008031489327549934,-0.007933573797345161
1782831562216370400,3.344370361328125,-0.005724291317164898,-0.00026994384825229645,0.0248105525970459
1782831562226299400,3.35429931640625,-0.0027298321947455406,-0.014936503954231739,0.04714195802807808
1782831562236228400,3.364228271484375,-0.000860258936882019,-0.015884367749094963,0.04666275158524513
1782831562246157300,3.3741572265625,0.007022697478532791,0.0018072780221700668,0.019344845786690712
1782831562256086300,3.384086181640625,0.019308876246213913,0.03057975508272648,-0.018531417474150658
1782831562266015200,3.39401513671875,0.024029329419136047,0.042787954211235046,-0.05229417607188225
1782831562275944400,3.4039443359375,0.013125201687216759,0.0328921377658844,-0.06393961608409882
1782831562285873400,3.413873291015625,-0.003512897528707981,0.008388390764594078,-0.051591336727142334
1782831562295802400,3.42380224609375,-0.01565435901284218,-0.025499191135168076,-0.04022744670510292
1782831562305731300,3.4337314453125,-0.019970543682575226,-0.05216515436768532,-0.030313828960061073
1782831562315660500,3.44366064453125,-0.012097576633095741,-0.06373117119073868,-0.02400670200586319
1782831562325589500,3.453589599609375,-0.004546714946627617,-0.045591581612825394,-0.0030857091769576073
1782831562335518500,3.4635185546875,0.0027397964149713516,-0.000045297667384147644,0.02069365605711937
1782831562345447400,3.473447509765625,0.0017642807215452194,0.028026286512613297,0.031020862981677055
1782831562355376400,3.48337646484375,0.002881942316889763,0.04596751183271408,0.010305844247341156
1782831562365305300,3.493305419921875,-0.0014606080949306488,0.0503699816763401,-0.016518577933311462
1782831562375234300,3.503234375,-0.012855474837124348,0.042214587330818176,-0.043192531913518906
1782831562385163300,3.513163330078125,-0.023168034851551056,0.02948227897286415,-0.053836386650800705
1782831562395092500,3.523092529296875,-0.03436236456036568,0.024468079209327698,-0.04303434118628502
1782831562405021400,3.533021484375,-0.054383475333452225,0.02393331751227379,-0.04197147488594055
1782831562414950400,3.542950439453125,-0.06334776431322098,0.02297738566994667,-0.05768867954611778
1782831562424879400,3.55287939453125,-0.06644342839717865,0.01815067231655121,-0.08666067570447922
1782831562434808600,3.56280859375,-0.05973710119724274,0.00011508818715810776,-0.11622851341962814
1782831562444737500,3.572737548828125,-0.043957602232694626,0.001626698300242424,-0.11746634542942047
1782831562454666500,3.58266650390625,-0.02763378992676735,0.0038606785237789154,-0.10232372581958771
1782831562464595200,3.59259521484375,-0.010261724703013897,-0.001593741588294506,-0.0753597542643547
1782831562474524200,3.602524169921875,-0.01190412137657404,-0.0022082356736063957,-0.05803809314966202
1782831562484453000,3.612453125,-0.005093087442219257,-0.010977759025990963,-0.04043379798531532
1782831562494382000,3.622382080078125,0.006597390864044428,-0.02188367024064064,-0.025266829878091812
1782831562504311300,3.632311279296875,0.01056843064725399,-0.03425804525613785,-0.00029410235583782196
1782831562514239200,3.6422392578125,0.01603502780199051,-0.03429057449102402,0.0077846297062933445
1782831562524168200,3.652168212890625,0.021437518298625946,-0.03080982342362404,-0.009393025189638138
1782831562534097200,3.66209716796875,0.022129707038402557,-0.0163098257035017,-0.031353600323200226
1782831562544026000,3.672026123046875,0.024108435958623886,0.012820628471672535,-0.0495603047311306
1782831562553955300,3.681955322265625,0.034614600241184235,0.05070234462618828,-0.04629116132855415
1782831562563884300,3.69188427734375,0.04603024199604988,0.08756714314222336,-0.023772533982992172
1782831562573813200,3.701813232421875,0.06437520682811737,0.10449104756116867,0.011776940897107124
1782831562583742200,3.7117421875,0.07467924058437347,0.10363563895225525,0.048789288848638535
1782831562593671400,3.72167138671875,0.07446897029876709,0.07328139990568161,0.07158069312572479
1782831562603600400,3.731600341796875,0.06584618985652924,0.0335070863366127,0.06753535568714142
1782831562613529000,3.741529052734375,0.05432230234146118,0.008132286369800568,0.046678997576236725
1782831562623458000,3.7514580078125,0.03372834250330925,-0.006577950436621904,0.011796114966273308
1782831562633387300,3.76138720703125,0.01981869339942932,-0.007249180693179369,-0.021919120103120804
1782831562643316200,3.771316162109375,0.013178633525967598,0.0001855660229921341,-0.05352551490068436
1782831562653245200,3.7812451171875,0.021552130579948425,0.017877310514450073,-0.07931625843048096
1782831562663174100,3.791174072265625,0.03540509566664696,0.03495456650853157,-0.08759842067956924
1782831562673103400,3.801103271484375,0.048189930617809296,0.027213167399168015,-0.07617311924695969
1782831562683032300,3.8110322265625,0.056730158627033234,0.02194543182849884,-0.03541423752903938
1782831562692961300,3.820961181640625,0.05450887978076935,-0.002986329607665539,0.008684931322932243
1782831562702890200,3.83089013671875,0.04533402621746063,-0.0538519062101841,0.04896949976682663
1782831562712819500,3.8408193359375,0.032861508429050446,-0.09154006838798523,0.0584375336766243
1782831562722748200,3.850748046875,0.02176331728696823,-0.1028909981250763,0.0380699448287487
1782831562732677000,3.860677001953125,0.02213459648191929,-0.08359471708536148,-0.00803492683917284
1782831562742606000,3.870606201171875,0.018853316083550453,-0.04274236410856247,-0.05894790589809418
1782831562752535300,3.880535400390625,0.010971992276608944,0.020977186039090157,-0.08474469184875488
1782831562762464300,3.89046435546875,-0.006388089619576931,0.07784339785575867,-0.08580969274044037
1782831562772393200,3.900393310546875,-0.014640859328210354,0.12782135605812073,-0.05772673338651657
1782831562782322200,3.910322265625,-0.019953597337007523,0.15967676043510437,-0.0188435185700655
1782831562792251400,3.92025146484375,-0.019089601933956146,0.15184196829795837,0.02178794890642166
1782831562802180400,3.930180419921875,-0.012670318596065044,0.10235830396413803,0.05071946978569031
1782831562812109300,3.940109375,-0.006346442736685276,0.02068426087498665,0.05779639631509781
1782831562822038300,3.950038330078125,0.0029735546559095383,-0.05126369744539261,0.05899535119533539
1782831562831967200,3.95996728515625,0.004259825684130192,-0.09153430163860321,0.05131494626402855
1782831562841896200,3.969896240234375,0.005161838140338659,-0.09602385759353638,0.029202988371253014
1782831562851825200,3.9798251953125,0.001782056875526905,-0.06322741508483887,0.009277330711483955
1782831562861754000,3.989754150390625,-0.01317239087074995,-0.01769854873418808,-0.01181330531835556
1782831562871683300,3.999683349609375,-0.02750176377594471,0.0225051362067461,-0.03403867781162262
1782831562881612300,4.0096123046875,-0.035001493990421295,0.03127891570329666,-0.04769963026046753
1782831562891541200,4.019541259765625,-0.03961944580078125,0.0398634672164917,-0.038862574845552444
1782831562901470200,4.02947021484375,-0.040190696716308594,0.03146225959062576,-0.021239107474684715
1782831562911399400,4.0393994140625,-0.043093107640743256,0.014473481103777885,-0.015400506556034088
1782831562921328400,4.049328369140625,-0.04827934503555298,-0.008000403642654419,-0.014452421106398106
1782831562931257300,4.05925732421875,-0.059300173074007034,-0.03961450606584549,-0.014139348641037941
1782831562941186300,4.069186279296875,-0.055021803826093674,-0.0655912458896637,-0.026617323979735374
1782831562951115000,4.079114990234375,-0.048385173082351685,-0.0790887176990509,-0.03248194605112076
1782831562961044200,4.089044189453125,-0.04462079703807831,-0.0715802013874054,-0.02635774202644825
1782831562970973200,4.09897314453125,-0.047091178596019745,-0.025262920185923576,-0.014715580269694328
1782831562980902100,4.108902099609375,-0.0453563928604126,0.016861097887158394,-0.013497184962034225
1782831562990831000,4.1188310546875,-0.040204212069511414,0.04238889738917351,-0.0187827218323946
1782831563000760300,4.12876025390625,-0.03454472869634628,0.04137210547924042,-0.01764209009706974
1782831563010689300,4.138689208984375,-0.03267834335565567,0.04372386634349823,0.00648151570931077
1782831563020618200,4.1486181640625,-0.025560513138771057,0.03958851099014282,0.029545821249485016
1782831563030547200,4.158547119140625,-0.014834039844572544,0.03405235707759857,0.041771020740270615
1782831563040476400,4.168476318359375,-0.001830357126891613,0.036114439368247986,0.03161159157752991
1782831563050405400,4.1784052734375,0.012295516207814217,0.020725412294268608,0.014856161549687386
1782831563060334000,4.188333984375,0.02399877831339836,-0.0009809480980038643,-0.0040208566933870316
1782831563070263000,4.198262939453125,0.027038346976041794,-0.0187652837485075,-0.015487742610275745
1782831563080192300,4.208192138671875,0.0330381840467453,-0.02730417624115944,-0.011437075212597847
1782831563090121200,4.218121337890625,0.02864326536655426,-0.019282180815935135,0.014057822525501251
1782831563100050200,4.22805029296875,0.023021332919597626,-0.0010893279686570168,0.032737765461206436
1782831563109979100,4.237979248046875,0.012154500000178814,0.018130864948034286,0.03878842666745186
1782831563119908400,4.247908447265625,-0.006173640489578247,0.01815589889883995,0.025556247681379318
1782831563129837300,4.25783740234375,-0.026620060205459595,0.008213595487177372,0.0019418061710894108
1782831563139766300,4.267766357421875,-0.03308328613638878,-0.006808231584727764,-0.020132336765527725
1782831563149695200,4.2776953125,-0.021849431097507477,-0.0041145263239741325,-0.03005892224609852
1782831563159624400,4.28762451171875,0.0009669354185461998,0.01218348741531372,-0.027451688423752785
1782831563169553200,4.29755322265625,0.016132237389683723,0.037342146039009094,-0.009700806811451912
1782831563179482000,4.307482177734375,0.029491983354091644,0.05660426244139671,0.010682228952646255
1782831563189411000,4.3174111328125,0.03600667044520378,0.047796107828617096,0.019934505224227905
1782831563199340300,4.32734033203125,0.03643863648176193,0.03750458359718323,0.040753498673439026
1782831563209269200,4.337269287109375,0.020376114174723625,0.02567284181714058,0.0539679154753685
1782831563219198200,4.3471982421875,0.0034823520109057426,0.013897140510380268,0.05807211250066757
1782831563229127200,4.357127197265625,-0.0014954274520277977,0.023355673998594284,0.053697191178798676
1782831563239056400,4.367056396484375,0.003980298060923815,0.039676323533058167,0.045930881053209305
1782831563248985300,4.3769853515625,0.013635221868753433,0.06731827557086945,0.026230711489915848
1782831563258914300,4.386914306640625,0.027623208239674568,0.06640054285526276,0.0021472140215337276
1782831563268843300,4.39684326171875,0.03296844661235809,0.05246084928512573,-0.01634037122130394
1782831563278772500,4.4067724609375,0.03418737277388573,0.030930785462260246,-0.019082361832261086
1782831563288701200,4.416701171875,0.027616780251264572,0.00490979477763176,-0.008942646905779839
1782831563298629400,4.42662939453125,0.0245317742228508,-0.01765969581902027,0.014883056282997131
1782831563308559000,4.43655908203125,0.020730677992105484,-0.025318533182144165,0.03981435298919678
1782831563318487000,4.446487060546875,0.012683403678238392,-0.03762979432940483,0.046182770282030106
1782831563328416300,4.456416259765625,0.009014974348247051,-0.03936271369457245,0.03871733322739601
1782831563338345200,4.46634521484375,0.0014659781008958817,-0.040787771344184875,0.018389422446489334
1782831563348274200,4.476274169921875,-0.0065024010837078094,-0.02411905862390995,0.016040965914726257
1782831563358203100,4.486203125,-0.008940525352954865,0.01523979939520359,0.026153521612286568
1782831563368132400,4.49613232421875,-0.006269410252571106,0.05120035260915756,0.03337860479950905
1782831563378061300,4.506061279296875,0.001283048652112484,0.058319784700870514,0.01606086455285549
1782831563387990300,4.515990234375,0.01733195222914219,0.03994321823120117,0.00013264594599604607
1782831563397919200,4.525919189453125,0.032601453363895416,0.013130513951182365,-0.013619918376207352
1782831563407848400,4.535848388671875,0.03324010968208313,-0.019623026251792908,-0.010681272484362125
1782831563417777400,4.54577734375,0.0293433740735054,-0.02535441517829895,0.010471682995557785
1782831563427706400,4.555706298828125,0.01768825203180313,-0.010426356457173824,0.03847832605242729
1782831563437635000,4.565635009765625,0.0046339682303369045,-0.005321076605468988,0.04868755489587784
1782831563447564300,4.575564208984375,-0.00024144910275936127,-0.020373841747641563,0.042091090232133865
1782831563457493200,4.5854931640625,0.00760289141908288,-0.019681420177221298,0.0350656695663929
1782831563467419100,4.595419189453125,0.019913122057914734,0.006791197694838047,0.04456166923046112
1782831563477348000,4.60534814453125,0.032141827046871185,0.019981570541858673,0.05742420628666878
1782831563487277000,4.615277099609375,0.02955489605665207,0.02151930332183838,0.06763925403356552
1782831563497206300,4.625206298828125,0.011909589171409607,0.0009336015209555626,0.05618712678551674
1782831563507135200,4.63513525390625,0.00518487673252821,-0.010901755653321743,0.028771977871656418
1782831563517064200,4.645064208984375,-0.00005409400910139084,-0.014161464758217335,-0.01573849841952324
1782831563526993200,4.6549931640625,-0.0007129553705453873,-0.004599187523126602,-0.05161800608038902
1782831563536922000,4.664922119140625,-0.0010855309665203094,-0.0059262411668896675,-0.07087185978889465
1782831563546851000,4.67485107421875,-0.0037509966641664505,-0.028946438804268837,-0.06704669445753098
1782831563556780000,4.684780029296875,-0.008770788088440895,-0.04478958249092102,-0.031292159110307693
1782831563566709000,4.694708984375,-0.014538493938744068,-0.04730929434299469,0.011199109256267548
1782831563576638200,4.70463818359375,-0.014986171387135983,-0.04479154199361801,0.05123813822865486
1782831563586567200,4.714567138671875,-0.001180579885840416,-0.02199420891702175,0.07347351312637329
1782831563596496100,4.72449609375,0.013582121580839157,0.012567495927214622,0.07240771502256393
1782831563606425000,4.734425048828125,0.022386476397514343,0.0372365303337574,0.05250535532832146
1782831563616354300,4.744354248046875,0.019618120044469833,0.045393262058496475,0.020919999107718468
1782831563626283300,4.754283203125,0.0172373428940773,0.02544129081070423,-0.011372094973921776
1782831563636212200,4.764212158203125,0.003657085821032524,0.003878740593791008,-0.02361997216939926
1782831563646141000,4.774140869140625,-0.004229960963129997,-0.023404642939567566,-0.012303931638598442
1782831563656070100,4.784070068359375,-0.0227716863155365,-0.04179723188281059,0.019687557592988014
1782831563665999000,4.7939990234375,-0.029134579002857208,-0.05837992951273918,0.04871262237429619
1782831563675928000,4.803927978515625,-0.034300580620765686,-0.05450902506709099,0.06524339318275452
1782831563685857000,4.81385693359375,-0.030623257160186768,-0.03494145721197128,0.06330271065235138
1782831563695786200,4.8237861328125,-0.015205685980618,-0.025286965072155,0.04862576350569725
1782831563705715200,4.833715087890625,0.005229881964623928,-0.026813803240656853,0.02656242623925209
1782831563715644200,4.84364404296875,0.02289942279458046,-0.05797518417239189,0.017402218654751778
1782831563725573000,4.853572998046875,0.032078344374895096,-0.05896265059709549,0.006252058316022158
1782831563735502300,4.86350244140625,0.0424010194838047,-0.06764589250087738,-0.009262985549867153
1782831563745431300,4.873431396484375,0.0422341413795948,-0.07233744114637375,-0.022743068635463715
1782831563755360000,4.883360107421875,0.026234135031700134,-0.06682097166776657,-0.022764107212424278
1782831563765289000,4.8932890625,0.0012608803808689117,-0.05002022534608841,-0.014732618816196918
1782831563775218000,4.903218017578125,-0.01782812550663948,-0.027908263728022575,-0.016056209802627563
1782831563785147100,4.913147216796875,-0.01987706869840622,-0.00047128740698099136,-0.021194029599428177
1782831563795076000,4.923076171875,-0.01251209806650877,0.020060887560248375,-0.032120976597070694
1782831563805005000,4.933005126953125,-0.0035804854705929756,0.018138129264116287,-0.048451364040374756
1782831563814934000,4.94293408203125,0.0043799695558846,0.013758559711277485,-0.04521828517317772
1782831563824863200,4.95286328125,0.0009299442172050476,0.006367245689034462,-0.03986833617091179
1782831563834792200,4.962792236328125,0.0021571284160017967,-0.011268473230302334,-0.022138342261314392
1782831563844721200,4.97272119140625,0.008707238361239433,-0.04520411789417267,-0.004567451775074005
1782831563854650000,4.982650146484375,0.018035758286714554,-0.07002051919698715,0.011760387569665909
1782831563864579300,4.992579345703125,0.03185122087597847,-0.07295431941747665,0.033272240310907364
1782831563874508000,5.002508056640625,0.036698173731565475,-0.06155093014240265,0.055133067071437836
1782831563884437000,5.01243701171875,0.029595479369163513,-0.04200226813554764,0.06166049465537071
1782831563894366000,5.022365966796875,0.006360464729368687,-0.018751543015241623,0.05773872509598732
1782831563904295200,5.032295166015625,-0.01706705242395401,-0.010113837197422981,0.03714847192168236
1782831563914224000,5.04222412109375,-0.027876820415258408,0.00041976384818553925,0.01857052557170391
1782831563924153000,5.052153076171875,-0.03439853712916374,0.025680137798190117,-0.012859910726547241
1782831563934082000,5.06208203125,-0.023278772830963135,0.050949811935424805,-0.04323486238718033
1782831563944011300,5.07201123046875,-0.010019577108323574,0.04715750366449356,-0.06595837324857712
1782831563953940200,5.081940185546875,0.0015119099989533424,0.029263192787766457,-0.0699794813990593
1782831563963869200,5.091869140625,0.008016289211809635,0.005977870896458626,-0.05684008076786995
1782831563973798100,5.101798095703125,0.0001173531636595726,-0.026643987745046616,-0.030002877116203308
1782831563983727000,5.11172705078125,-0.012723746709525585,-0.040062688291072845,0.005177248734980822
1782831563993656000,5.121656005859375,-0.022307932376861572,-0.04501776769757271,0.03696926683187485
1782831564003585000,5.1315849609375,-0.027866575866937637,-0.013062856160104275,0.061591796576976776
1782831564013514000,5.141513916015625,-0.02317967638373375,0.028718143701553345,0.0623856857419014
1782831564023443200,5.151443115234375,-0.012397070415318012,0.061751995235681534,0.03162803873419762
1782831564033372200,5.1613720703125,0.004433042369782925,0.06503833830356598,-0.0033776178024709225
1782831564043301000,5.171301025390625,0.017292924225330353,0.050591424107551575,-0.03260720893740654
1782831564053230000,5.18122998046875,0.02316492795944214,0.016967417672276497,-0.0410986989736557
1782831564063159300,5.1911591796875,0.02875012904405594,-0.022771799936890602,-0.024618348106741905
1782831564073088300,5.201088134765625,0.03581922501325607,-0.04767794907093048,0.002416465897113085
1782831564083017200,5.211017333984375,0.03985051438212395,-0.06414272636175156,0.023705927655100822
1782831564092946200,5.2209462890625,0.04638990759849548,-0.07445874810218811,0.02483910135924816
1782831564102875100,5.230875244140625,0.05590731278061867,-0.0729791447520256,0.022213375195860863
1782831564112804000,5.24080419921875,0.04672819375991821,-0.06706453114748001,0.018609052523970604
1782831564122733000,5.250733154296875,0.020253311842679977,-0.06287261098623276,0.01873818039894104
1782831564132662000,5.260662109375,-0.007717601954936981,-0.04623425006866455,0.01074283942580223
1782831564142591200,5.27059130859375,-0.038289524614810944,-0.025977687910199165,-0.013393731787800789
1782831564152520200,5.280520263671875,-0.04501240700483322,0.015348180197179317,-0.04295934736728668
1782831564162449200,5.29044921875,-0.03911883756518364,0.047314971685409546,-0.07422905415296555
1782831564172378000,5.300378173828125,-0.03152403607964516,0.05595719814300537,-0.09111828356981277
1782831564182307300,5.310307373046875,-0.019858557730913162,0.04119430109858513,-0.07798299938440323
1782831564192236300,5.320236328125,-0.017590608447790146,0.0367598719894886,-0.028031153604388237
1782831564202163200,5.3301630859375,-0.020030725747346878,0.02435789443552494,0.025821924209594727
1782831564212092200,5.340092041015625,-0.018208591267466545,0.006596475839614868,0.06115594878792763
1782831564222021000,5.350021240234375,-0.018270449712872505,0.0005287295207381248,0.05813518911600113
1782831564231950000,5.3599501953125,-0.017527161166071892,-0.009508990682661533,0.032897744327783585
1782831564241879300,5.36987939453125,-0.01596589758992195,-0.014758872799575329,-0.005010850727558136
1782831564251808300,5.379808349609375,-0.024483487010002136,-0.01659831777215004,-0.02844400517642498
1782831564261737200,5.3897373046875,-0.032977186143398285,-0.011391122825443745,-0.03342759236693382
1782831564271666200,5.399666259765625,-0.037557024508714676,0.00048657506704330444,-0.020186088979244232
1782831564281595100,5.40959521484375,-0.039588745683431625,0.006635480560362339,0.001859754789620638
1782831564291524000,5.419524169921875,-0.03430423513054848,0.020599231123924255,0.012649552896618843
1782831564301453000,5.429453125,-0.018257493153214455,0.017588961869478226,0.006711271125823259
1782831564311382000,5.439382080078125,0.002551914192736149,0.004381549544632435,-0.012336456216871738
1782831564321311200,5.449311279296875,0.024811789393424988,0.001370537094771862,-0.02259669452905655
1782831564331240200,5.459240234375,0.0406501442193985,-0.008353197015821934,-0.026892106980085373
1782831564341169200,5.469169189453125,0.040208883583545685,-0.01985764503479004,-0.024606207385659218
1782831564351098000,5.47909814453125,0.02674953266978264,-0.030950509011745453,-0.018462294712662697
1782831564361027300,5.48902734375,0.0078678447753191,-0.03755437955260277,-0.013309771195054054
1782831564370956300,5.498956298828125,-0.01054099015891552,-0.04155870899558067,-0.01725204847753048
1782831564380885200,5.50888525390625,-0.016582638025283813,-0.03324492275714874,-0.037793584167957306
1782831564390814000,5.51881396484375,-0.01208269689232111,-0.01680416241288185,-0.05468921363353729
1782831564400743000,5.528742919921875,-0.0017840145155787468,0.006314130499958992,-0.056195564568042755
1782831564410672000,5.538672119140625,-0.00021940749138593674,0.026900365948677063,-0.03642212599515915
1782831564420601000,5.54860107421875,0.006506001576781273,0.03210974857211113,-0.01931440271437168
1782831564430530000,5.558530029296875,0.008070608600974083,0.024693112820386887,-0.0015814793296158314
1782831564440459000,5.568458984375,0.004673159681260586,0.014282455667853355,0.004336836282163858
1782831564450388200,5.57838818359375,-0.004345102235674858,0.005125176161527634,0.0017679515294730663
1782831564460317200,5.588317138671875,-0.00841977633535862,0.003105894662439823,-0.01400066539645195
1782831564470246100,5.59824609375,-0.007184602320194244,0.0015194499865174294,-0.03818296641111374
1782831564480175000,5.608175048828125,0.004668300040066242,-0.01254937332123518,-0.05988357961177826
1782831564490104300,5.618104248046875,0.016682352870702744,-0.0170381311327219,-0.06215205788612366
1782831564500033000,5.628032958984375,0.026767844334244728,-0.036806218326091766,-0.053662773221731186
1782831564509962000,5.6379619140625,0.03563430905342102,-0.03719530627131462,-0.04191317409276962
1782831564519891000,5.647890869140625,0.0402570441365242,-0.023053977638483047,-0.024098046123981476
1782831564529820200,5.657820068359375,0.034996770322322845,-0.007395921275019646,-0.01647048629820347
1782831564539749000,5.6677490234375,0.024810027331113815,0.010128366760909557,-0.014646166935563087
1782831564549678000,5.677677978515625,0.014296400360763073,0.008747518993914127,-0.033945564180612564
1782831564559607000,5.68760693359375,0.008221684023737907,-0.0225712638348341,-0.049592938274145126
1782831564569536300,5.697536376953125,-0.006485089659690857,-0.033328037708997726,-0.043641041964292526
1782831564579465200,5.70746533203125,-0.017322687432169914,-0.03118089959025383,-0.03129412606358528
1782831564589394200,5.717394287109375,-0.011541230604052544,-0.018144724890589714,-0.007927020080387592
1782831564599323100,5.7273232421875,0.0064547061920166016,0.005634416826069355,0.01148810051381588
1782831564609252000,5.737252197265625,0.017859160900115967,0.021202724426984787,0.026545878499746323
1782831564619181000,5.74718115234375,0.022206338122487068,0.022439520806074142,0.03338560089468956
1782831564629110000,5.757110107421875,0.023036979138851166,0.011493396945297718,0.03433821350336075
1782831564639039000,5.7670390625,0.02579890936613083,0.00026330631226301193,0.02931785024702549
1782831564648968200,5.77696826171875,0.014294052496552467,-0.013555836863815784,0.027673082426190376
1782831564658897200,5.786897216796875,0.0035294601693749428,-0.01715466007590294,0.0245065875351429
1782831564668826000,5.796826171875,-0.009195389226078987,0.0004682745784521103,0.020980296656489372
1782831564678755000,5.806755126953125,-0.012778110802173615,0.0245274156332016,0.009291525930166245
1782831564688684300,5.816684326171875,-0.003757717087864876,0.05466534197330475,-0.010673126205801964
1782831564698613200,5.82661328125,0.0017651459202170372,0.05743210017681122,-0.02971632592380047
1782831564708542200,5.836542236328125,0.011470237746834755,0.024669360369443893,-0.045395154505968094
1782831564718471200,5.84647119140625,0.017970681190490723,-0.019681809470057487,-0.04148392006754875
1782831564728400100,5.856400146484375,0.012607607990503311,-0.05605153366923332,-0.010679403319954872
1782831564738329000,5.8663291015625,0.0014944393187761307,-0.0763559564948082,0.028662793338298798
1782831564748258000,5.876258056640625,-0.003858247771859169,-0.07398094981908798,0.04790705814957619
1782831564758187000,5.88618701171875,-0.009751164354383945,-0.06030990928411484,0.04031796008348465
1782831564768116200,5.8961162109375,-0.009200156666338444,-0.03564104437828064,0.01756470836699009
1782831564778045200,5.906045166015625,0.0027174921706318855,0.0015155728906393051,-0.003490314818918705
1782831564787974100,5.91597412109375,0.016986975446343422,0.025818251073360443,-0.01727616786956787
1782831564797903000,5.925903076171875,0.03309458866715431,0.030067186802625656,-0.017813464626669884
1782831564807832300,5.935832275390625,0.04716513305902481,0.025779232382774353,0.001051036175340414
1782831564817761300,5.94576123046875,0.05096997693181038,0.00428312923759222,0.020475737750530243
1782831564827690200,5.955690185546875,0.0477648600935936,-0.01253659650683403,0.037097323685884476
1782831564837620000,5.965619873046875,0.0356408916413784,-0.024004286155104637,0.03819463029503822
1782831564847549200,5.975549072265625,0.028134506195783615,-0.03657946735620499,0.009394938126206398
1782831564857478100,5.98547802734375,0.014263526536524296,-0.05094339698553085,-0.01727023348212242
1782831564867407000,5.995406982421875,0.0021679820492863655,-0.05642125383019447,-0.03826100006699562
1782831564877336000,6.005336181640625,-0.0062251463532447815,-0.03864676505327225,-0.04141823574900627
1782831564887265300,6.015265380859375,-0.004813671112060547,-0.010479310527443886,-0.0379025973379612
1782831564897194200,6.0251943359375,0.007028835825622082,0.017069948837161064,-0.04037484899163246
1782831564907123200,6.035123291015625,0.01441724319010973,0.037348855286836624,-0.04556641727685928
1782831564917052000,6.045052001953125,0.015473535284399986,0.03330473601818085,-0.044039566069841385
1782831564926981000,6.054981201171875,0.0050986590795218945,0.026895835995674133,-0.035621579736471176
1782831564936910000,6.06491015625,-0.002065977081656456,0.008480501361191273,-0.017932219430804253
1782831564946839000,6.074839111328125,-0.008849580772221088,-0.025716084986925125,-0.0009899879805743694
1782831564956768000,6.08476806640625,-0.01800263673067093,-0.0524199977517128,0.02234451100230217
1782831564966697200,6.094697265625,-0.018334466964006424,-0.0479741171002388,0.03773998096585274
1782831564976626200,6.104626220703125,-0.009399875067174435,-0.02243170514702797,0.041138000786304474
1782831564986555100,6.11455517578125,0.0012583620846271515,0.006975184194743633,0.02626957558095455
1782831564996484000,6.124484130859375,0.009215621277689934,0.029473569244146347,0.004537114407867193
1782831565006413300,6.134413330078125,0.016266873106360435,0.05274241045117378,-0.016681887209415436
1782831565016342300,6.14434228515625,0.01862621307373047,0.05445696786046028,-0.021671339869499207
1782831565026271200,6.154271240234375,0.007827894762158394,0.03666252642869949,-0.021597838029265404
1782831565036200000,6.164199951171875,-0.012921685352921486,0.009021548554301262,-0.01682620495557785
1782831565046129200,6.174129150390625,-0.01691536046564579,-0.00880325399339199,-0.0054459841921925545
1782831565056058000,6.18405810546875,-0.02579893171787262,-0.027606721967458725,0.011117661371827126
1782831565065987000,6.193987060546875,-0.0288836732506752,-0.031886689364910126,0.026095280423760414
1782831565075916000,6.203916015625,-0.026507534086704254,-0.009566515684127808,0.02511858195066452
1782831565085845200,6.21384521484375,-0.01722508668899536,0.035827599465847015,0.013520516455173492
1782831565095774200,6.223774169921875,-0.007034594193100929,0.05981726199388504,-0.0010746661573648453
1782831565105703200,6.233703125,0.002595663070678711,0.03911677747964859,-0.014620568603277206
1782831565115632000,6.243632080078125,0.007071722764521837,0.007516331970691681,-0.004906135611236095
1782831565125561300,6.253561279296875,0.009150054305791855,-0.009086613543331623,0.013133583590388298
1782831565135490300,6.263490234375,0.009965503588318825,-0.022478260099887848,0.025071268901228905
1782831565145419000,6.2734189453125,0.00393584044650197,-0.03639513999223709,0.02479403279721737
1782831565155348000,6.283347900390625,-0.012782473117113113,-0.03267630934715271,0.008258253335952759
1782831565165277200,6.293277099609375,-0.016087722033262253,-0.030946586281061172,-0.01947910152375698
1782831565175206100,6.3032060546875,-0.00664413720369339,-0.027964448556303978,-0.04607219249010086
1782831565185135000,6.313135009765625,0.004466038662940264,-0.016835631802678108,-0.06047297269105911
1782831565195064000,6.32306396484375,0.010431721806526184,0.002153025008738041,-0.04114709421992302
1782831565204993000,6.332992919921875,0.013213394209742546,0.01418412197381258,-0.013648889027535915
1782831565214922200,6.342922119140625,0.012600556015968323,0.005738375708460808,0.008319253101944923
1782831565224851200,6.352851318359375,0.017121005803346634,0.005902959033846855,0.024774126708507538
1782831565234780200,6.3627802734375,0.02070579305291176,0.010003390721976757,0.026117997244000435
1782831565244709000,6.372709228515625,0.0223444364964962,0.0017784833908081055,0.015217412263154984
1782831565254638000,6.38263818359375,0.019866567105054855,-0.010329262353479862,-0.006787104532122612
1782831565264567000,6.392567138671875,0.010148425586521626,-0.017050549387931824,-0.016506576910614967
1782831565274496000,6.40249609375,-0.003572995774447918,-0.015548987314105034,-0.013289915397763252
1782831565284425000,6.412425048828125,-0.014639228582382202,0.0030401423573493958,-0.00434062909334898
1782831565294354200,6.422354248046875,-0.017110588029026985,0.01992219313979149,-0.00698653282597661
1782831565304283100,6.432283203125,-0.012077746912837029,0.022983763366937637,-0.01833452843129635
1782831565314212000,6.442212158203125,0.0017207888886332512,-0.007285484578460455,-0.03890098258852959
1782831565324141000,6.45214111328125,0.00821570586413145,-0.04373537003993988,-0.0481695830821991
1782831565334070300,6.4620703125,0.007451782934367657,-0.06637853384017944,-0.03973777964711189
1782831565343999200,6.471999267578125,-0.0009371740743517876,-0.08400359749794006,-0.01967538893222809
1782831565353928200,6.48192822265625,-0.010464356280863285,-0.07393956184387207,-0.006453921087086201
1782831565363857200,6.491857177734375,-0.010788463987410069,-0.032767895609140396,-0.0032839602790772915
1782831565373786000,6.5017861328125,-0.011630849912762642,-0.005747809074819088,-0.01237339898943901
1782831565383715000,6.511715087890625,-0.012966159731149673,0.02043905295431614,-0.015299413353204727
1782831565393644000,6.52164404296875,-0.01305946335196495,0.04848897084593773,-0.011125169694423676
1782831565403573000,6.531572998046875,-0.01305280439555645,0.05830245465040207,0.00318585941568017
1782831565413502200,6.541502197265625,-0.01298566535115242,0.056282319128513336,0.017380351200699806
1782831565423431200,6.55143115234375,-0.020115215331315994,0.04395880550146103,0.024950651451945305
1782831565433360100,6.561360107421875,-0.024859707802534103,0.02096353843808174,0.01782231591641903
1782831565443289000,6.5712890625,-0.025306053459644318,-0.0011180639266967773,0.0030649411492049694
1782831565453218300,6.58121826171875,-0.021680915728211403,-0.013276657089591026,-0.00934750959277153
1782831565463146200,6.591146240234375,-0.012746274471282959,-0.024150077253580093,-0.01607811637222767
1782831565473075500,6.601075439453125,-0.008038952015340328,-0.020684121176600456,-0.018314693123102188
1782831565483004400,6.61100439453125,-0.008550546132028103,-0.019970659166574478,-0.0012638038024306297
1782831565492933400,6.620933349609375,-0.006807634606957436,-0.004840870853513479,0.008291587233543396
1782831565502862300,6.6308623046875,-0.006674209609627724,0.009046182967722416,0.01192600280046463
1782831565512791300,6.640791259765625,-0.009426596574485302,0.026684623211622238,0.010289551690220833
1782831565522720300,6.65072021484375,-0.00749474111944437,0.0482487678527832,0.006046070251613855
1782831565532649200,6.660649169921875,-0.0053151557222008705,0.057128820568323135,-0.00669054826721549
1782831565542578200,6.670578125,-0.007242218591272831,0.030288156121969223,-0.0208473801612854
1782831565552507400,6.68050732421875,-0.007633859291672707,-0.005335655063390732,-0.027462812140583992
1782831565562436400,6.690436279296875,0.0007806653156876564,-0.0253642238676548,-0.01716117188334465
1782831565572365300,6.700365234375,0.0016010096296668053,-0.028132760897278786,0.0037486269138753414
1782831565582294300,6.710294189453125,0.00483515253290534,-0.003162696026265621,0.022059990093111992
1782831565592223500,6.720223388671875,0.003496934659779072,0.02076195925474167,0.019231585785746574
1782831565602152400,6.73015234375,-0.004399869590997696,0.02594686672091484,-0.009377420879900455
1782831565612081400,6.740081298828125,-0.010448415763676167,0.009301714599132538,-0.03980845957994461
1782831565622010000,6.750010009765625,-0.020330872386693954,0.00835256464779377,-0.038028400391340256
1782831565631939000,6.75993896484375,-0.019444800913333893,0.01367130409926176,-0.025807339698076248
1782831565641868300,6.769868408203125,-0.006193710491061211,0.01706656813621521,-0.006086630746722221
1782831565651797200,6.77979736328125,0.00703128008171916,0.021892685443162918,0.00373373506590724
1782831565661726200,6.789726318359375,0.010496052913367748,0.0022129910066723824,0.007351372856646776
1782831565671655200,6.7996552734375,0.02713094651699066,-0.013098795898258686,0.00037182262167334557
1782831565681584400,6.80958447265625,0.031656987965106964,-0.014340627938508987,-0.0028950772248208523
1782831565691513300,6.819513427734375,0.028090767562389374,0.0008177552372217178,0.00035548722371459007
1782831565701442300,6.8294423828125,0.019929509609937668,0.0226181261241436,0.0076621356420218945
1782831565711371300,6.839371337890625,0.0035888487473130226,0.031054945662617683,-0.0012272708117961884
1782831565721300500,6.849300537109375,-0.011063862591981888,0.012657564133405685,-0.021452646702528
1782831565731229200,6.859229248046875,-0.013345485553145409,-0.012340822257101536,-0.04058345779776573
1782831565741158100,6.869158203125,-0.011565962806344032,-0.0371130146086216,-0.04513666406273842
1782831565751087000,6.879087158203125,-0.005455750040709972,-0.03363874927163124,-0.026376495137810707
1782831565761016300,6.889016357421875,-0.00030759256333112717,-0.013041329570114613,0.0005675028078258038
1782831565770945300,6.8989453125,0.00893319770693779,0.008926586247980595,0.018560754135251045
1782831565780874200,6.908874267578125,0.0126658845692873,0.019929971545934677,0.025901224464178085
1782831565790803200,6.91880322265625,0.012487213127315044,0.011060714721679688,0.015324855223298073
1782831565800732400,6.928732421875,0.011503441259264946,-0.011660576798021793,0.0006521693430840969
1782831565810661400,6.938661376953125,0.009525293484330177,-0.014459274709224701,0.006501781288534403
1782831565820590300,6.94859033203125,0.0008124951273202896,-0.015327464789152145,0.01988230086863041
1782831565830519300,6.958519287109375,-0.001621384173631668,-0.0012555094435811043,0.02597012370824814
1782831565840448300,6.9684482421875,-0.0020157983526587486,0.019462287425994873,0.011792253702878952
1782831565850378200,6.978378173828125,-0.006908402778208256,0.026330873370170593,-0.00832380075007677
1782831565860307200,6.98830712890625,-0.00820110086351633,0.024904750287532806,-0.030156128108501434
1782831565870236400,6.998236328125,-0.00917679350823164,0.018230151385068893,-0.040363505482673645
1782831565880165400,7.008165283203125,-0.010672158561646938,0.005524475127458572,-0.028557445853948593
1782831565890094300,7.01809423828125,-0.014426213689148426,-0.008314589038491249,-0.001657271757721901
1782831565900023300,7.028023193359375,-0.019186079502105713,-0.006926549132913351,0.023243816569447517
1782831565909952500,7.037952392578125,-0.01879827119410038,-0.005577384028583765,0.03444794937968254
1782831565919881200,7.047881103515625,-0.017508236691355705,-0.002149895764887333,0.02416415326297283
1782831565929810200,7.05781005859375,-0.012527848593890667,-0.007634469773620367,-0.0009596408344805241
1782831565939739100,7.0677392578125,-0.007206852547824383,-0.02458229288458824,-0.01945742592215538
1782831565949668400,7.07766845703125,-0.016269247978925705,-0.03339873626828194,-0.01740240305662155
1782831565959597300,7.087597412109375,-0.026022542268037796,-0.034412868320941925,-0.0031771273352205753
1782831565969526300,7.0975263671875,-0.02318985015153885,-0.02614724449813366,0.004297131206840277
1782831565979455200,7.107455322265625,-0.011890591122210026,-0.0028432533144950867,0.013879183679819107
1782831565989384200,7.11738427734375,-0.0053318459540605545,0.015649452805519104,0.007163811940699816
1782831565999313400,7.1273134765625,0.007138937246054411,0.022283386439085007,-0.0069243102334439754
1782831566009242400,7.137242431640625,0.019650723785161972,0.031322918832302094,-0.008412744849920273
1782831566019171300,7.14717138671875,0.016740422695875168,0.022427961230278015,-0.0016970518045127392
1782831566029100300,7.157100341796875,0.01217830739915371,0.007152675651013851,0.019372999668121338
1782831566039029200,7.167029296875,0.0097476402297616,-0.001724972389638424,0.041153665632009506
1782831566048958200,7.176958251953125,0.0069029792211949825,-0.009342250414192677,0.046272553503513336
1782831566058887200,7.18688720703125,0.008610065095126629,-0.009823484346270561,0.037776537239551544
1782831566068816100,7.196816162109375,0.015997977927327156,0.0024194130674004555,0.02511431835591793
1782831566078745300,7.206745361328125,0.020624421536922455,-0.002824351191520691,0.012415565550327301
1782831566088674300,7.21667431640625,0.023608366027474403,-0.009033938869833946,0.013148438185453415
1782831566098603300,7.226603271484375,0.018067125231027603,-0.0092632370069623,0.006843938026577234
1782831566108532200,7.2365322265625,0.024608829990029335,-0.01659581810235977,0.0004858807660639286
1782831566118461400,7.24646142578125,0.024069540202617645,-0.012594151310622692,0.0003351462073624134
1782831566128390400,7.256390380859375,0.016799330711364746,-0.004000144079327583,0.009771814569830894
1782831566138319400,7.2663193359375,0.014165731146931648,0.004196532070636749,0.015657400712370872
1782831566148248300,7.276248291015625,0.014177963137626648,0.014811690896749496,0.019089775159955025
1782831566158177300,7.28617724609375,0.008591449819505215,0.019565435126423836,0.008358301594853401
1782831566168106200,7.296106201171875,0.01099169347435236,0.009125626645982265,-0.005235685966908932
1782831566178035200,7.30603515625,0.011827926151454449,-0.002442345954477787,-0.0152457095682621
1782831566187964200,7.315964111328125,0.013482649810612202,-0.016482237726449966,-0.0111274728551507
1782831566197893400,7.325893310546875,0.017692308872938156,-0.00949836429208517,0.006207841914147139
1782831566207822300,7.335822265625,0.014919020235538483,0.007290098816156387,0.02094234526157379
1782831566217751300,7.345751220703125,0.01499358844012022,0.017791209742426872,0.021446214988827705
1782831566227680300,7.35568017578125,0.02683405578136444,0.013598340563476086,0.0013179932720959187
1782831566237609500,7.365609375,0.034010741859674454,-0.005009964108467102,-0.011658791452646255
1782831566247538400,7.375538330078125,0.02722754329442978,-0.025181178003549576,-0.024876093491911888
1782831566257467400,7.38546728515625,0.009324975311756134,-0.039620570838451385,-0.008242788724601269
1782831566267396000,7.39539599609375,-0.00524519570171833,-0.05728418380022049,0.011705448850989342
1782831566277325300,7.4053251953125,-0.009125687181949615,-0.047629162669181824,0.01794310472905636
1782831566287254300,7.415254150390625,-0.006379690952599049,-0.02745656855404377,0.008143678307533264
1782831566297183200,7.425183349609375,0.007537455763667822,-0.008528417907655239,-0.01237437967211008
1782831566307112200,7.4351123046875,0.020394019782543182,-0.0013341251760721207,-0.03726494684815407
1782831566317041400,7.44504150390625,0.02483271062374115,-0.006142995320260525,-0.03596000000834465
1782831566326970400,7.454970458984375,0.019321314990520477,-0.006152118556201458,-0.010035286657512188
1782831566336899300,7.4648994140625,0.010388807393610477,-0.013521617278456688,0.02054978534579277
1782831566346828300,7.474828369140625,-0.0013833288103342056,-0.005352080799639225,0.04093727469444275
1782831566356757500,7.484757568359375,0.0008808914572000504,-0.00747275585308671,0.03522292897105217
1782831566366686500,7.4946865234375,0.002737114205956459,-0.008834163658320904,0.010291481390595436
1782831566376615200,7.504615234375,0.005175238009542227,-0.009683712385594845,-0.010728050023317337
1782831566386544000,7.514544189453125,0.004756747744977474,-0.004227706231176853,-0.011303449049592018
1782831566396473300,7.524473388671875,-0.002404492348432541,0.0007404210045933723,0.00042005209252238274
1782831566406402300,7.53440234375,-0.004733004607260227,0.006589019671082497,0.01753738708794117
1782831566416331300,7.544331298828125,-0.012425013817846775,0.0038531534373760223,0.027734365314245224
1782831566426260200,7.55426025390625,-0.01560345757752657,-0.001146053895354271,0.02024346962571144
1782831566436189200,7.564189208984375,-0.01470570731908083,-0.018687762320041656,0.002429319079965353
1782831566446118400,7.574118408203125,-0.005703883245587349,-0.029417214915156364,-0.010973749682307243
1782831566456047400,7.58404736328125,-0.0030998438596725464,-0.027390548959374428,-0.017017526552081108
1782831566465976800,7.593976806640625,-0.003516058437526226,-0.019718967378139496,-0.011537496000528336
1782831566475905800,7.60390576171875,-0.00789935514330864,-0.0029096268117427826,-0.010018695145845413
1782831566485834800,7.613834716796875,-0.003023730590939522,0.012366454117000103,-0.009619737043976784
1782831566495763700,7.623763671875,-0.002496957778930664,0.015245865099132061,-0.014623817056417465
1782831566505693000,7.63369287109375,0.004403853323310614,0.004102798178792,-0.0199431125074625
1782831566515622000,7.643621826171875,0.010371464304625988,-0.0007835701107978821,-0.009182609617710114
1782831566525550800,7.65355078125,0.005271709058433771,-0.006743631791323423,0.0037479777820408344
1782831566535479800,7.663479736328125,0.0013960106298327446,-0.01434988621622324,0.014154013246297836
1782831566545409000,7.673408935546875,-0.008225345984101295,-0.014872168190777302,0.007387846242636442
1782831566555338000,7.683337890625,-0.0030340468510985374,-0.0126700010150671,-0.014551008120179176
1782831566565267000,7.693266845703125,0.005107726436108351,-0.0033790869638323784,-0.03546854108572006
1782831566575196000,7.70319580078125,0.012041266076266766,-0.006100837606936693,-0.04961072653532028
1782831566585124900,7.713124755859375,0.016684558242559433,-0.015345009043812752,-0.05144793540239334
1782831566595053800,7.7230537109375,0.02159622684121132,-0.010747593827545643,-0.03102894499897957
1782831566604982800,7.732982666015625,0.017023177817463875,-0.02043098770081997,-0.00394485192373395
1782831566614911700,7.742911865234375,0.017694560810923576,-0.02019529789686203,0.012727867811918259
1782831566624841000,7.752841064453125,0.02267029881477356,-0.02597246691584587,0.015313662588596344
1782831566634770000,7.76277001953125,0.03186965733766556,-0.02278812602162361,0.005635735113173723
1782831566644699000,7.772698974609375,0.04013439267873764,-0.004550210200250149,-0.005053747445344925
1782831566654627800,7.7826279296875,0.036008886992931366,0.01634708046913147,-0.005391170270740986
1782831566664557000,7.79255712890625,0.016587283462285995,0.03163881599903107,0.009871775284409523
1782831566674486000,7.802486083984375,-0.010508516803383827,0.04273700714111328,0.02242964319884777
1782831566684415000,7.8124150390625,-0.02100261300802231,0.03188284486532211,0.018688952550292015
1782831566694343700,7.82234375,-0.019467033445835114,0.007251265458762646,-0.0058981492184102535
1782831566704273000,7.83227294921875,-0.006824208423495293,-0.01975877955555916,-0.02858695015311241
1782831566714201900,7.842201904296875,0.004275047220289707,-0.0334831140935421,-0.035057634115219116
1782831566724130800,7.852130859375,0.012485030107200146,-0.029829202219843864,-0.026276331394910812
1782831566734060800,7.862060791015625,0.011314304545521736,-0.005960354581475258,-0.0070946477353572845
1782831566743990000,7.871989990234375,0.006825124379247427,0.010977054014801979,0.007743820082396269
1782831566753919000,7.8819189453125,-0.0012775426730513573,0.009013505652546883,0.01155826449394226
1782831566763848000,7.891847900390625,-0.005433316342532635,-0.005873483140021563,0.005022854078561068
1782831566773777000,7.90177685546875,-0.002002631314098835,-0.0089704729616642,0.002060620579868555
1782831566783705900,7.911705810546875,-0.0005421433597803116,-0.004746489692479372,0.009725935757160187
1782831566793634800,7.921634765625,-0.0033062389120459557,0.004504533484578133,0.009965354576706886
1782831566803563800,7.931563720703125,0.005116567946970463,0.007384876720607281,0.0038476441986858845
1782831566813492700,7.94149267578125,0.008599982596933842,0.015405784361064434,-0.004806830547749996
1782831566823422000,7.951421875,0.016174886375665665,0.014904736541211605,-0.01438133791089058
1782831566833351000,7.961350830078125,0.02306981012225151,0.006744544021785259,-0.012972259894013405
1782831566843280000,7.97127978515625,0.023493684828281403,0.010224470868706703,0.0077733066864311695
1782831566853208800,7.981208740234375,0.009750441648066044,0.008225500583648682,0.034865643829107285
1782831566863138000,7.991137939453125,0.0013946350663900375,-0.011379197239875793,0.03659646213054657
1782831566873067000,8.00106689453125,-0.005039827898144722,-0.026850566267967224,0.025856198742985725
1782831566882996000,8.010995849609374,-0.013400115072727203,-0.04177340120077133,0.00017934711650013924
1782831566892924700,8.020924560546876,-0.004406353458762169,-0.03633229807019234,-0.02233288623392582
1782831566902854000,8.03085400390625,0.0025675659999251366,-0.015752747654914856,-0.03966999053955078
1782831566912782800,8.040782958984375,0.014552855864167213,0.009662863798439503,-0.03948570042848587
1782831566922711800,8.0507119140625,0.01552335824817419,0.03268352895975113,-0.014913521707057953
1782831566932640800,8.060640869140625,0.0037623057141900063,0.04253455996513367,0.018772803246974945
1782831566942570000,8.070570068359375,-0.0005384618416428566,0.031538523733615875,0.03928917273879051
1782831566952499000,8.0804990234375,-0.0008354047313332558,0.012983747757971287,0.040873218327760696
1782831566962428000,8.090427978515624,-0.0017663510516285896,-0.014260866679251194,0.02415359951555729
1782831566972356900,8.10035693359375,0.009815470315515995,-0.02978949248790741,0.002131121698766947
1782831566982286000,8.1102861328125,0.01588056981563568,-0.025819601491093636,-0.012490804307162762
1782831566992215000,8.120215087890625,0.01660122163593769,-0.0048069944605231285,-0.012341400608420372
1782831567002143700,8.130143798828126,0.012885184958577156,0.013129767961800098,-0.0023575061932206154
1782831567012072700,8.14007275390625,0.005156425293534994,0.027895931154489517,0.006760358344763517
1782831567022002000,8.150001953125,-0.00048011261969804764,0.02457023411989212,0.011229680851101875
1782831567031931000,8.159930908203124,-0.0021949224174022675,0.021880708634853363,0.008258925750851631
1782831567041859800,8.16985986328125,-0.0036876294761896133,-0.0016235318034887314,0.006850684527307749
1782831567051788800,8.179788818359375,-0.005254900082945824,-0.020228641107678413,0.003681523259729147
1782831567061718000,8.189718017578125,-0.0072336867451667786,-0.028114497661590576,0.006548225414007902
1782831567071647000,8.19964697265625,-0.010742401704192162,-0.0317893922328949,0.004983884748071432
1782831567081576000,8.209575927734376,-0.011149558238685131,-0.03256777673959732,-0.0026979674585163593
1782831567091505000,8.2195048828125,-0.010763664729893208,-0.01210324652493,-0.006298561114817858
1782831567101434000,8.22943408203125,-0.009541232138872147,0.010032989084720612,-0.020831439644098282
1782831567111362800,8.23936279296875,-0.011316228657960892,0.032620057463645935,-0.028332766145467758
1782831567121291800,8.249291748046875,-0.021945232525467873,0.0351911261677742,-0.029872220009565353
1782831567131220700,8.259220703125,-0.026961831375956535,0.016696274280548096,-0.02420048601925373
1782831567141149700,8.269149658203125,-0.02624467760324478,0.0016056559979915619,-0.006672670133411884
1782831567151079000,8.279078857421876,-0.015507612377405167,-0.004323339089751244,0.016954096034169197
1782831567161007900,8.2890078125,-0.009179307147860527,-0.004130500368773937,0.03109940141439438
1782831567170936800,8.298936767578125,-0.005584573373198509,0.004326634109020233,0.032403815537691116
1782831567180865800,8.30886572265625,-0.002614126540720463,-0.0007238257676362991,0.019601745530962944
1782831567190795000,8.318794921875,-0.008122076280415058,-0.01866873726248741,-0.0026423074305057526
1782831567200724000,8.328723876953125,-0.01708693988621235,-0.03644494712352753,-0.023165183141827583
1782831567210653000,8.33865283203125,-0.021755460649728775,-0.037463076412677765,-0.026664843782782555
1782831567220582000,8.348581787109374,-0.027873413637280464,-0.030453473329544067,-0.02528609335422516
1782831567230510800,8.3585107421875,-0.027883267030119896,-0.014439886435866356,-0.016413239762187004
1782831567240439800,8.368439697265625,-0.023892685770988464,0.0066289398819208145,-0.010203089565038681
1782831567250368800,8.37836865234375,-0.01982097700238228,0.010129665955901146,-0.009045679122209549
1782831567260297700,8.388297607421874,-0.012210214510560036,0.01036756206303835,0.004431616980582476
1782831567270227000,8.39822705078125,-0.0017943242564797401,0.020074252039194107,0.022628463804721832
1782831567280156000,8.408156005859375,0.003766915760934353,0.02181529626250267,0.02865050733089447
1782831567290084900,8.4180849609375,0.007131553720682859,0.015770982950925827,0.03430493175983429
1782831567300013800,8.428013916015624,-0.00004570372402667999,0.009999035857617855,0.02444932423532009
1782831567309943000,8.437943115234376,-0.011660280637443066,-0.003852064721286297,0.01367151364684105
1782831567319872000,8.4478720703125,-0.018900230526924133,0.00022356119006872177,0.002120130229741335
1782831567329801000,8.457801025390625,-0.022225450724363327,-0.002426549792289734,-0.010702723637223244
1782831567339729700,8.467729736328126,-0.017081281170248985,-0.009683443233370781,-0.01604987122118473
1782831567349659000,8.477658935546875,-0.009274223819375038,0.0012594861909747124,-0.016685834154486656
1782831567359587800,8.487587890625,0.0015524597838521004,0.015419100411236286,-0.008174929767847061
1782831567369517800,8.497517822265625,0.008731010369956493,0.01571684330701828,-0.0021095811389386654
1782831567379447000,8.507447021484374,0.013378310017287731,0.016555314883589745,-0.00010791653767228127
1782831567389376000,8.5173759765625,0.007183531299233437,-0.0028346292674541473,0.0005344380624592304
1782831567399305000,8.527304931640625,-0.002648279070854187,-0.028407860547304153,0.0000710408203303814
1782831567409234000,8.53723388671875,-0.008416153490543365,-0.03201271593570709,0.006603508722037077
1782831567419163000,8.547162841796874,-0.011361269280314445,-0.015595225617289543,0.012362424284219742
1782831567429091800,8.557091796875,-0.005267156288027763,0.016227152198553085,0.013517703860998154
1782831567439020800,8.567020751953125,-0.0006247013807296753,0.03551650792360306,0.008381305262446404
1782831567448949800,8.57694970703125,0.003478962928056717,0.04834149777889252,-0.0029054367914795876
1782831567458878700,8.586878662109376,-0.0008296538144350052,0.045438364148139954,-0.009167990647256374
1782831567468808200,8.59680810546875,0.001132296398282051,0.0380701944231987,-0.011570960283279419
1782831567478737200,8.606737060546875,0.0028982292860746384,0.02856781706213951,-0.005478656850755215
1782831567488666000,8.616666015625,0.000013226643204689026,0.004449431784451008,0.0032160314731299877
1782831567498595300,8.62659521484375,0.005955532193183899,-0.026221882551908493,0.01029956340789795
1782831567508524300,8.636524169921875,0.0074002970941364765,-0.03925858810544014,0.0107208751142025
1782831567518453200,8.646453369140625,0.012817577458918095,-0.04344101995229721,0.004107895772904158
1782831567528382000,8.6563818359375,0.01817905344069004,-0.036421723663806915,-0.004357760772109032
1782831567538311200,8.666311279296876,0.021742336452007294,-0.018696656450629234,-0.01164853386580944
1782831567548240100,8.676240234375,0.017552118748426437,-0.006310826167464256,-0.004704607184976339
1782831567558169000,8.686169189453125,0.006495296955108643,-0.0005844207480549812,0.0016515427269041538
1782831567568098000,8.69609814453125,-0.0011714110150933266,0.00923092570155859,0.011682072654366493
1782831567578027000,8.706027099609376,-0.007080444134771824,0.011565773747861385,0.007181388791650534
1782831567587956200,8.715956298828125,0.0014169048517942429,0.01967509835958481,-0.0005002324469387531
1782831567597885200,8.72588525390625,0.006689269095659256,0.026312783360481262,-0.0015378734096884727
1782831567607814100,8.735814208984374,0.010691201314330101,0.034149665385484695,-0.0013016508892178535
1782831567617743000,8.7457431640625,0.012129784561693668,0.029476623982191086,0.0017908713780343533
1782831567627672300,8.75567236328125,0.008066333830356598,0.006228293292224407,0.006871384102851152
1782831567637601000,8.76560107421875,0.0012016408145427704,-0.0213752631098032,0.01338278315961361
1782831567647530000,8.775530029296876,-0.012508045881986618,-0.02829815074801445,0.012620586901903152
1782831567657459000,8.785458984375,-0.016172997653484344,-0.03184966370463371,0.0033290679566562176
1782831567667388200,8.79538818359375,-0.008371267467737198,-0.018631597980856895,-0.006677227094769478
1782831567677317000,8.805317138671874,-0.0015165917575359344,0.0003036661073565483,-0.012613451108336449
1782831567687246000,8.81524609375,0.0032323570922017097,0.009869740344583988,-0.012750336900353432
1782831567697175000,8.825175048828125,0.006006873212754726,0.025906842201948166,0.0020182603038847446
1782831567707104300,8.835104248046875,0.00026642903685569763,0.03351602703332901,0.01894105039536953
1782831567717033200,8.845033203125,-0.005154323764145374,0.018092840909957886,0.02180435322225094
1782831567726962200,8.854962158203126,-0.010205808095633984,0.005338695831596851,0.015113426372408867
1782831567736891100,8.86489111328125,-0.01004732120782137,-0.021593458950519562,-0.005257257726043463
1782831567746820000,8.874820068359375,-0.01246653776615858,-0.043502483516931534,-0.02377954311668873
1782831567756749000,8.8847490234375,-0.01316821575164795,-0.03513914719223976,-0.02985593117773533
1782831567766678000,8.894677978515626,-0.017232732847332954,-0.0015183361247181892,-0.011283843778073788
1782831567776607000,8.90460693359375,-0.01978256367146969,0.027982093393802643,0.010453859344124794
1782831567786536200,8.9145361328125,-0.021566348150372505,0.03851596266031265,0.024833330884575844
1782831567796465200,8.924465087890624,-0.021802101284265518,0.04128357395529747,0.022590272128582
1782831567806394000,8.93439404296875,-0.018970094621181488,0.02202758938074112,0.004857080522924662
1782831567816323000,8.944322998046875,-0.018867196515202522,-0.010838721878826618,-0.01153341680765152
1782831567826252300,8.954252197265625,-0.019351892173290253,-0.04324406757950783,-0.02597786858677864
1782831567836181200,8.96418115234375,-0.020802084356546402,-0.06419731676578522,-0.03474412485957146
1782831567846110200,8.974110107421875,-0.026395786553621292,-0.06165212765336037,-0.03083966299891472
1782831567856039200,8.9840390625,-0.03506876528263092,-0.051196180284023285,-0.02249387465417385
1782831567865968000,8.993968017578124,-0.035282351076602936,-0.03191276267170906,-0.015956347808241844
1782831567875897000,9.00389697265625,-0.02818972058594227,-0.0183042474091053,-0.005092587321996689
1782831567885826000,9.013825927734375,-0.012997718527913094,0.005112129263579845,0.005751538556069136
1782831567895755000,9.023755126953125,-0.00116041861474514,0.017629899084568024,0.028147157281637192
1782831567905684200,9.033684326171874,-0.0013617537915706635,0.02338685654103756,0.04496608301997185
1782831567915613200,9.04361328125,-0.005132752470672131,0.01931522786617279,0.048321712762117386
1782831567925543200,9.053543212890625,-0.00434898491948843,0.01086075883358717,0.03714895248413086
1782831567935472000,9.06347216796875,-0.006908604875206947,0.0024028485640883446,0.01945045404136181
1782831567945401000,9.073401123046875,-0.005569567903876305,0.006391197443008423,0.014744648709893227
1782831567955330000,9.083330078125,-0.01039876602590084,0.02165476232767105,0.029587797820568085
1782831567965259000,9.093259033203125,-0.011875489726662636,0.035039275884628296,0.04009849578142166
1782831567975188000,9.10318798828125,-0.011093119159340858,0.038105688989162445,0.03892654925584793
1782831567985117200,9.1131171875,-0.0066019631922245026,0.03255939111113548,0.02206607721745968
1782831567995046100,9.123046142578126,-0.0035255271941423416,0.017005441710352898,0.0019070296548306942
1782831568004975000,9.13297509765625,0.0011128997430205345,0.0037042833864688873,-0.006904838141053915
1782831568014904000,9.142904052734375,0.0031582647934556007,-0.005739312153309584,-0.003991945181041956
1782831568024833300,9.152833251953124,0.0055963885970413685,-0.009360145777463913,0.002885934431105852
1782831568034762200,9.16276220703125,-0.0000287666916847229,-0.016693823039531708,0.005526625085622072
1782831568044691200,9.172691162109375,-0.004286895506083965,-0.02224038727581501,0.0037287254817783833
1782831568054620000,9.182619873046875,-0.008683064952492714,-0.03193862363696098,-0.006938811391592026
1782831568064549000,9.192549072265624,-0.012303100898861885,-0.0332971028983593,-0.012508813291788101
1782831568074478000,9.20247802734375,-0.01269579865038395,-0.02715192548930645,-0.011539610102772713
1782831568084407000,9.212406982421875,-0.004055440425872803,-0.015098459087312222,0.0014776545576751232
1782831568094336000,9.2223359375,0.004495896864682436,0.007649301551282406,0.019078396260738373
1782831568104265200,9.23226513671875,0.013599380850791931,0.009383819065988064,0.022098155692219734
1782831568114194200,9.242194091796875,0.017924539744853973,0.007330399937927723,0.022595064714550972
1782831568124123100,9.252123046875,0.015112508088350296,-0.0037118643522262573,0.013100096955895424
1782831568134052000,9.262052001953125,0.009218995459377766,-0.015190145000815392,0.014108248054981232
1782831568143981300,9.271981201171876,0.001976529136300087,-0.024615870788693428,0.022028755396604538
1782831568153910300,9.28191015625,0.0008434923365712166,-0.026777712628245354,0.04473723843693733
1782831568163839000,9.2918388671875,-0.004252200946211815,-0.02174966409802437,0.05885092914104462
1782831568173768000,9.301767822265624,-0.0053587546572089195,-0.012792877852916718,0.06128484383225441
1782831568183697200,9.311697265625,-0.004249813966453075,-0.010073790326714516,0.031718429177999496
1782831568193626000,9.321626220703125,0.0020351558923721313,-0.012269638478755951,0.005133976694196463
1782831568203554000,9.331553955078125,0.003225855529308319,-0.01707318238914013,-0.004430766217410564
1782831568213483000,9.34148291015625,-0.0030877208337187767,-0.028475943952798843,0.012773895636200905
1782831568223412000,9.351411865234375,-0.005360462702810764,-0.018000135198235512,0.04902084916830063
1782831568233341200,9.361341064453125,-0.006278078071773052,-0.0116344029083848,0.07543102651834488
1782831568243270100,9.371270263671875,-0.006567562930285931,-0.0028829891234636307,0.08663947135210037
1782831568253199000,9.38119921875,-0.004796900786459446,0.010125056840479374,0.07828530669212341
1782831568263128000,9.391128173828125,-0.0031124502420425415,0.023329276591539383,0.051220133900642395
1782831568273057300,9.401057373046875,-0.008812678046524525,0.0331433042883873,0.024138998240232468
1782831568282986200,9.410986328125,-0.01953190192580223,0.035416845232248306,0.005662251729518175
1782831568292915200,9.420915283203126,-0.026191607117652893,0.04163872450590134,-0.008363422006368637
1782831568302844200,9.43084423828125,-0.02591836452484131,0.037535324692726135,-0.017753195017576218
1782831568312773000,9.440773193359375,-0.028696924448013306,0.02719894051551819,-0.01864512264728546
1782831568322702000,9.4507021484375,-0.03010786697268486,0.003827040083706379,-0.027791215106844902
1782831568332631000,9.460631103515626,-0.026458177715539932,-0.021035626530647278,-0.0438397116959095
1782831568342560000,9.47056005859375,-0.020509742200374603,-0.04222320392727852,-0.04546051099896431
1782831568352489200,9.4804892578125,-0.013476031832396984,-0.06369778513908386,-0.03501554951071739
1782831568362418200,9.490418212890624,-0.011542043648660183,-0.06664057821035385,-0.015773143619298935
1782831568372347100,9.50034716796875,-0.013355197384953499,-0.060333315283060074,0.006335260812193155
1782831568382276000,9.510276123046875,-0.006091160699725151,-0.045725610107183456,0.0141668189316988
1782831568392205300,9.520205322265625,-0.0013380413874983788,-0.026514172554016113,0.002528558950871229
1782831568402134300,9.53013427734375,0.0028463173657655716,-0.005441909655928612,-0.011377403512597084
1782831568412063200,9.540063232421875,0.0029500992968678474,0.011844559572637081,-0.018651587888598442
1782831568421992000,9.549991943359375,-0.0012009702622890472,0.015349281020462513,-0.015156188979744911
1782831568431921200,9.559921142578125,-0.005561936646699905,0.011243129149079323,-0.004124898463487625
1782831568441850000,9.56985009765625,-0.0075095053762197495,0.006923481822013855,0.010488132014870644
1782831568451779000,9.579779052734375,-0.013122640550136566,-0.0012013399973511696,0.026182880625128746
1782831568461709000,9.589708984375,-0.020527027547359467,-0.018213879317045212,0.035152941942214966
1782831568471641900,9.599641845703125,-0.0203359667211771,-0.027196474373340607,0.028101829811930656
1782831568481571000,9.609571044921875,-0.014636801555752754,-0.03796309977769852,0.012830996885895729
1782831568491499800,9.619499755859374,-0.0167208444327116,-0.03600267693400383,-0.004079883918166161
1782831568501428700,9.6294287109375,-0.026078127324581146,-0.020846892148256302,-0.025245090946555138
1782831568511357700,9.639357666015625,-0.041640378534793854,-0.00983143039047718,-0.03925714269280434
1782831568521287000,9.649286865234375,-0.05602731555700302,0.005011165514588356,-0.05093590170145035
1782831568531216000,9.6592158203125,-0.05408506095409393,0.02249157801270485,-0.0480182021856308
1782831568541144800,9.669144775390626,-0.04954144358634949,0.03797093406319618,-0.03378786891698837
1782831568551073800,9.67907373046875,-0.03620240464806557,0.047184355556964874,-0.008919919840991497
1782831568561003000,9.6890029296875,-0.02086978405714035,0.02981708012521267,0.0094460379332304
1782831568570932000,9.698931884765624,-0.0033166855573654175,-0.002787673845887184,0.018519822508096695
1782831568580861000,9.70886083984375,0.005881872493773699,-0.0324784591794014,0.019976571202278137
1782831568590790000,9.718789794921875,0.005211221985518932,-0.04667172580957413,0.014439435675740242
1782831568600718800,9.72871875,0.002953660674393177,-0.04251586273312569,0.013496411964297295
1782831568610647800,9.738647705078124,-0.010168486274778843,-0.028949955478310585,0.0012309462763369083
1782831568620576800,9.74857666015625,-0.011145333759486675,-0.01038745604455471,-0.012378338724374771
1782831568630505700,9.758505615234375,-0.012825548648834229,0.018217165023088455,-0.019011573866009712
1782831568640435000,9.76843505859375,-0.01567007228732109,0.029765162616968155,-0.019080283120274544
1782831568650364000,9.778364013671874,-0.016800258308649063,0.024358689785003662,-0.019206030294299126
1782831568660292900,9.78829296875,-0.024810779839754105,0.0016935914754867554,-0.010861547663807869
1782831568670221800,9.798221923828125,-0.030322883278131485,-0.02648348920047283,0.007132751401513815
1782831568680151000,9.808151123046875,-0.03366488590836525,-0.02461927756667137,0.0335363931953907
1782831568690080000,9.818080078125,-0.02700939029455185,-0.009768379852175713,0.04716091603040695
1782831568700009000,9.828009033203125,-0.025969158858060837,0.018241148442029953,0.05095831677317619
1782831568709938000,9.83793798828125,-0.034889206290245056,0.030096489936113358,0.02883603796362877
1782831568719867000,9.847866943359374,-0.04447631910443306,0.023447107523679733,-0.007717180531471968
1782831568729795800,9.8577958984375,-0.05506884679198265,0.009901303797960281,-0.04203769564628601
1782831568739724800,9.867724853515625,-0.06412599235773087,-0.019026484340429306,-0.050190433859825134
1782831568749653800,9.87765380859375,-0.057979412376880646,-0.017782296985387802,-0.025940006598830223
1782831568759582700,9.887582763671874,-0.06214512884616852,-0.007787187583744526,0.0031084236688911915
1782831568769512000,9.897511962890626,-0.05332211032509804,0.014262369833886623,0.012760471552610397
1782831568779441000,9.90744091796875,-0.04736888036131859,0.03701641783118248,0.009185444563627243
1782831568789369900,9.917369873046875,-0.044266387820243835,0.032596834003925323,-0.018121255561709404
1782831568799298800,9.927298828125,-0.03719915822148323,-0.01219726912677288,-0.043523285537958145
1782831568809228000,9.93722802734375,-0.03162268176674843,-0.050993554294109344,-0.0440625436604023
1782831568819157000,9.947156982421875,-0.026318464428186417,-0.06326939165592194,-0.03444107621908188
1782831568829086000,9.9570859375,-0.014889683574438095,-0.07147371768951416,-0.02921091392636299
1782831568839017000,9.967016845703125,-0.013677146285772324,-0.0776653066277504,-0.02955579198896885
1782831568848946000,9.97694580078125,-0.02311999723315239,-0.06201881915330887,-0.04114217311143875
1782831568858875000,9.986875,-0.028994400054216385,-0.04943857714533806,-0.07019353657960892
1782831568868804000,9.99680419921875,-0.03383034095168114,-0.03511469438672066,-0.0895795002579689
1782831568878732800,10.00673291015625,-0.035860735923051834,-0.013323646038770676,-0.09654127061367035
1782831568888661800,10.016661865234376,-0.02760986052453518,-0.006935144308954477,-0.0999930277466774
1782831568898590700,10.0265908203125,-0.004156731069087982,-0.005820611026138067,-0.0852324515581131
1782831568908520000,10.03652001953125,0.014520539902150631,-0.0016790833324193954,-0.062267426401376724
1782831568918449000,10.046448974609374,0.029121585190296173,-0.016907570883631706,-0.029127851128578186
1782831568928377900,10.0563779296875,0.020713023841381073,-0.03409212455153465,-0.00239218445494771
1782831568938306800,10.066306884765625,0.013084398582577705,-0.051203735172748566,0.01452767662703991
1782831568948236000,10.076236083984375,0.010672842152416706,-0.04452367126941681,0.013789303600788116
1782831568958165000,10.0861650390625,0.0073566739447414875,-0.028189439326524734,-0.00018297135829925537
1782831568968094000,10.096093994140626,0.001679724082350731,-0.009238400496542454,-0.021129658445715904
1782831568978023000,10.10602294921875,0.0005177874118089676,0.01485282089561224,-0.03891265019774437
1782831568987951900,10.115951904296875,0.0005639782175421715,0.02283797599375248,-0.047473300248384476
1782831568997880800,10.125880859375,0.0011394871398806572,0.02495918609201908,-0.04294273257255554
1782831569007809800,10.135809814453125,0.009718742221593857,0.022724326699972153,-0.022111833095550537
1782831569017738800,10.14573876953125,0.014296183362603188,0.012515631504356861,-0.0019447789527475834
1782831569027667700,10.155667724609375,0.0273571889847517,0.005715725012123585,0.010578615590929985
1782831569037597000,10.165596923828126,0.025981135666370392,0.003982274793088436,0.011123232543468475
1782831569047526000,10.17552587890625,0.027303282171487808,0.0031234221532940865,0.0046026078052818775
1782831569057454800,10.185454833984375,0.021266961470246315,-0.005574196111410856,-0.004564258269965649
1782831569067383800,10.1953837890625,0.012477096170186996,-0.005844267550855875,-0.00866119097918272
1782831569077313000,10.20531298828125,0.011515429243445396,-0.000024194829165935516,-0.006575669627636671
1782831569087242000,10.215241943359375,0.012002562172710896,0.00824955478310585,-0.011504579335451126
1782831569097171000,10.2251708984375,0.011359408497810364,0.01703265868127346,-0.007008364889770746
1782831569107099600,10.235099609375,0.004809774924069643,0.011046449653804302,0.009676771238446236
1782831569117028900,10.24502880859375,-0.011453883722424507,0.0038090432062745094,0.02768613211810589
1782831569126957800,10.254957763671875,-0.02093600295484066,0.001118927262723446,0.031150782480835915
1782831569136886800,10.26488671875,-0.014274638146162033,0.004739494062960148,0.014435719698667526
1782831569146815700,10.274815673828124,-0.0013674749061465263,0.011283162981271744,-0.005355702713131905
1782831569156745000,10.284744873046876,0.003929818980395794,0.009740393608808517,-0.02168886922299862
1782831569166674000,10.294673828125,0.008053633384406567,0.006094454787671566,-0.03481903299689293
1782831569176603000,10.304602783203125,0.008592657744884491,-0.00003134831786155701,-0.03505099564790726
1782831569186531800,10.31453173828125,0.002580517902970314,-0.0068133375607430935,-0.02731017768383026
1782831569196461000,10.3244609375,-0.004045959562063217,-0.016514968127012253,-0.010990593582391739
1782831569206390000,10.33439013671875,-0.010395893827080727,-0.011187606491148472,-0.003991146571934223
1782831569216318700,10.344318603515624,-0.012302983552217484,-0.009353487752377987,-0.005092363338917494
1782831569226249000,10.3542490234375,-0.020716313272714615,-0.0002810051664710045,-0.0019641853868961334
1782831569236178000,10.364177978515626,-0.03247283771634102,0.015447624959051609,-0.004257433582097292
1782831569246107000,10.37410693359375,-0.03446449339389801,0.02693404257297516,-0.019032297655940056
1782831569256035800,10.384035888671875,-0.047918252646923065,0.04626672714948654,-0.04493420198559761
1782831569265965000,10.393965087890624,-0.06578167527914047,0.08851777017116547,-0.08529120683670044
1782831569275894000,10.40389404296875,-0.07365716993808746,0.10022982954978943,-0.10463134944438934
1782831569285823000,10.413822998046875,-0.08444058150053024,0.06479410827159882,-0.09913080930709839
1782831569295752000,10.423751953125,-0.12295415997505188,0.022305773571133614,-0.07113859057426453
1782831569305681000,10.433680908203126,-0.1730252504348755,0.0009195310994982719,-0.03766936436295509
1782831569315609900,10.44360986328125,-0.22011660039424896,-0.047702863812446594,-0.009409231133759022
1782831569325538800,10.453538818359375,-0.23891335725784302,-0.08518480509519577,-0.004303347319364548
1782831569335467800,10.4634677734375,-0.23778416216373444,-0.11975609511137009,-0.042079221457242966
1782831569345396700,10.473396728515626,-0.23175756633281708,-0.12570643424987793,-0.09645234793424606
1782831569355326000,10.483325927734375,-0.21666809916496277,-0.047295521944761276,-0.156087726354599
1782831569365255000,10.4932548828125,-0.20561730861663818,0.050936486572027206,-0.20501001179218292
1782831569375184000,10.503183837890624,-0.1916559636592865,0.0952506884932518,-0.24010062217712402
1782831569385112800,10.51311279296875,-0.18021558225154877,0.10840502381324768,-0.24620622396469116
1782831569395042000,10.5230419921875,-0.14597159624099731,0.08695992082357407,-0.22578030824661255
1782831569404971000,10.532970947265625,-0.11133207380771637,0.08416998386383057,-0.1896923929452896
1782831569414899700,10.542899658203124,-0.07421666383743286,0.11595401167869568,-0.19237206876277924
1782831569424828700,10.55282861328125,-0.024418648332357407,0.1697954386472702,-0.19939011335372925
1782831569434758000,10.5627578125,0.00850734580308199,0.21732273697853088,-0.21768096089363098
1782831569444686800,10.572686767578125,0.02367028221487999,0.3051432967185974,-0.23935462534427643
1782831569454615800,10.58261572265625,0.011833862401545048,0.380784809589386,-0.2718110978603363
1782831569464544800,10.592544677734375,0.010873830877244473,0.4465010464191437,-0.3047788441181183
1782831569474470100,10.60247021484375,0.008009068667888641,0.6453238725662231,-0.06736256927251816
1782831569484399000,10.612399169921876,-0.0745261013507843,0.26314204931259155,0.10200220346450806
1782831569494328000,10.622328125,-0.012234499678015709,-0.17051349580287933,0.08353105187416077
1782831569504257300,10.63225732421875,0.08039148151874542,-0.22159622609615326,0.04787318408489227
1782831569514186200,10.642186279296874,0.06660376489162445,-0.22426258027553558,0.024138562381267548
1782831569524115200,10.652115234375,0.02741851657629013,-0.14497481286525726,0.031938329339027405
1782831569534044000,10.6620439453125,-0.02095727249979973,-0.063038669526577,0.07066868245601654
1782831569543973000,10.67197314453125,-0.08899243175983429,0.04094962775707245,0.20026691257953644
1782831569553902000,10.681902099609376,-0.18302518129348755,0.11033722758293152,0.3549305498600006
1782831569563831000,10.6918310546875,-0.22080054879188538,0.10799058526754379,0.47193801403045654
