time,seconds_elapsed,z,y,x
1782831600179790600,0.07379052734375,-0.06801145995259285,-0.045244355182186696,0.010647125586145556
1782831600189719600,0.083719482421875,-0.07997954564392566,-0.048537816370162176,0.025853955736686474
1782831600199648500,0.0936484375,-0.07473755333721638,-0.04775325556346215,0.00768786478859838
1782831600209577500,0.103577392578125,-0.08505202660262584,-0.06857868364760651,0.0051974841614137405
1782831600219506400,0.11350634765625,-0.07905307844877242,-0.07440899266970809,-0.0019096618401250453
1782831600229435600,0.123435546875,-0.07394844878613949,-0.06951631612416823,-0.00875432098057645
1782831600239364600,0.133364501953125,-0.07857377049922942,-0.060344039730401706,-0.008797743422127677
1782831600249293600,0.14329345703125,-0.08694295491576194,-0.044586699557630345,0.005850751876042341
1782831600259222500,0.153222412109375,-0.07885667909383773,-0.039043390783364884,0.007910546508149126
1782831600269151500,0.1631513671875,-0.07436053671836852,-0.031994513451470995,0.009070452566418679
1782831600279080700,0.173080810546875,-0.07644961795210838,-0.04474840662509668,0.004734659843324334
1782831600289009700,0.183009765625,-0.07748831335008144,-0.060572172230738214,-0.0013865094687505915
1782831600298938600,0.192938720703125,-0.07239186699390411,-0.061181974692153744,-0.01485719358731876
1782831600308867300,0.202867431640625,-0.07073825456798076,-0.054148756153695285,-0.0006805152681608888
1782831600318796500,0.212796630859375,-0.0777647922039032,-0.04020553446449339,0.0061324212157458525
1782831600328725500,0.2227255859375,-0.07431845114231109,-0.034514743510936384,0.00693452567064669
1782831600338654500,0.232654541015625,-0.08044950124323368,-0.026593439859221687,0.01172888152442174
1782831600348583400,0.24258349609375,-0.08807809642553328,-0.028241083768662065,0.009747133122675587
1782831600358512600,0.2525126953125,-0.0758037212640047,-0.035924719906714746,0.005727105517598101
1782831600368441600,0.262441650390625,-0.07325462130308151,-0.04618919828424695,-0.007427394071372691
1782831600378370600,0.27237060546875,-0.07833703913390636,-0.04750250023936387,-0.013400690619094529
1782831600388299500,0.282299560546875,-0.07788403466939926,-0.04828450376279652,-0.008953023602918256
1782831600398228700,0.292228759765625,-0.07818097178936004,-0.033346106156939635,-0.0033545083344739394
1782831600408157700,0.30215771484375,-0.07383914319276809,-0.017131382172065786,0.0013193060052792134
1782831600418086700,0.312086669921875,-0.07473521524965762,-0.02465202803444117,0.013158908619318389
1782831600428015400,0.322015380859375,-0.07667816601097584,-0.026784973526082466,0.009599059571628458
1782831600437944600,0.331944580078125,-0.08415770811140537,-0.03189898750499123,-0.014950320939091034
1782831600447873500,0.34187353515625,-0.07637363010644913,-0.041924750339379535,-0.008299307222073548
1782831600457802500,0.351802490234375,-0.0702355657428503,-0.04635040759479161,-0.001079907402070603
1782831600467731500,0.3617314453125,-0.07606850968003273,-0.03347310267062858,-0.0033526346107406423
1782831600477660700,0.37166064453125,-0.08190262266099453,-0.018561921865260227,0.004134296497111791
1782831600487589600,0.381589599609375,-0.08010638689398765,-0.020617683067999312,0.005511019077259698
1782831600497515300,0.391515380859375,-0.07815992900133133,-0.017589889362175017,0.007873508712433976
1782831600507444200,0.4014443359375,-0.06828267810940743,-0.013563387492182664,-0.0004846536633753203
1782831600517373200,0.411373291015625,-0.07396773800849914,-0.03520735171786509,-0.009450429468977381
1782831600527302100,0.42130224609375,-0.07082301024198531,-0.03888165631643496,-0.015786684998264536
1782831600537231000,0.431231201171875,-0.07785363953113555,-0.04065672143124975,-0.002816619190154597
1782831600547160000,0.44116015625,-0.07695464486479758,-0.027444816541147884,0.0028795800179374055
1782831600557089000,0.451089111328125,-0.07201601941883563,-0.021500653614720793,0.004474482528687804
1782831600567018000,0.46101806640625,-0.07994564337432385,-0.020518143100105225,0.00025469920573996206
1782831600576947200,0.470947265625,-0.07680266917347908,-0.014402422999055123,0.007612231994321337
1782831600586876200,0.480876220703125,-0.0697691172748804,-0.018087997910310512,0.00369043888686283
1782831600596805000,0.49080517578125,-0.08368424538075923,-0.03065737852961756,-0.010028108913457253
1782831600606734000,0.500734130859375,-0.07919394822418689,-0.030394898518396073,-0.004321979112284316
1782831600616663300,0.510663330078125,-0.07664893991649151,-0.036155334341793785,0.0016759649653933593
1782831600626592300,0.52059228515625,-0.07694763060212134,-0.024373587835684885,0.004849716469936538
1782831600636521200,0.530521240234375,-0.08667349032461642,-0.008753233564365654,0.001723589086143329
1782831600646450000,0.540449951171875,-0.08457739482820034,-0.009280385543894954,0.007004016418504761
1782831600656379100,0.550379150390625,-0.07290507721304892,-0.017310241303732616,0.005780658910807687
1782831600666308000,0.56030810546875,-0.07290449269115924,-0.02662118638267275,0.0020792956294870234
1782831600676237000,0.570237060546875,-0.0636257922142744,-0.030075135361985302,-0.006326802143530221
1782831600686166000,0.580166015625,-0.0859212106525898,-0.022238984676497056,-0.003329242889532179
1782831600696095200,0.59009521484375,-0.07604395976066589,-0.030936026507639325,-0.008037767354946117
1782831600706024200,0.600024169921875,-0.07409808638989925,-0.018937470329517963,0.005132758636929793
1782831600715953200,0.609953125,-0.07709083846509455,-0.011491595319961197,0.004639352807142131
1782831600725882000,0.619882080078125,-0.07828677025139331,-0.015547736559680196,0.002757520830503199
1782831600735811300,0.629811279296875,-0.07439560803174972,-0.022131608462019357,0.00869290451214183
1782831600745740300,0.639740234375,-0.08920856176018714,-0.02494329118215246,0.00906383217103139
1782831600755669000,0.6496689453125,-0.08052841169834137,-0.020702925082482396,-0.0032840300642827057
1782831600765598000,0.659597900390625,-0.07139993334710598,-0.027528350655734536,-0.007459118654442136
1782831600775527200,0.669527099609375,-0.07214753684401512,-0.01783829974884866,0.0044433818542369405
1782831600785456000,0.6794560546875,-0.07917991969883441,-0.009447088446887209,0.014831315935612654
1782831600795385000,0.689385009765625,-0.08995324264764785,-0.011786920438148081,0.0036959079339576417
1782831600805314000,0.69931396484375,-0.08561316761672497,-0.014421429093624464,0.00016076292761717923
1782831600815243300,0.7092431640625,-0.0776817900955677,-0.021504021465452387,0.005438972187778563
1782831600825172200,0.719172119140625,-0.08830547544062137,-0.027161227526527363,0.003967542505536403
1782831600835101200,0.72910107421875,-0.06810322988927364,-0.02472404752445873,-0.008152555124321953
1782831600845030100,0.739030029296875,-0.07453706232905387,-0.028116082849237136,-0.014395251189463306
1782831600854959400,0.74895947265625,-0.07842764002680779,-0.021160322594316675,0.0033209217295254345
1782831600864888000,0.75888818359375,-0.08471241938471794,-0.011323183375428198,0.005974666520900791
1782831600874817000,0.768817138671875,-0.07932488112747668,-0.008372710955824004,0.006962530205713119
1782831600884746000,0.77874609375,-0.08935060057938099,-0.008367850975971668,0.00497102759493282
1782831600894675200,0.78867529296875,-0.08141922305822372,-0.014862436018016886,0.002172231470425322
1782831600904604200,0.798604248046875,-0.07932371208369732,-0.028139664654224177,0.006280661446863086
1782831600914533000,0.808533203125,-0.0772282011091709,-0.025888894619327037,-0.00875613676586072
1782831600924462000,0.818462158203125,-0.08545768479406833,-0.02030529265057994,0.002328590362388786
1782831600934391300,0.828391357421875,-0.07602993123531342,-0.016774805553047917,0.00663973141706665
1782831600944320300,0.8383203125,-0.07154080312252044,-0.0051212074797425886,0.003986980141657113
1782831600954249200,0.848249267578125,-0.07947159612178802,-0.00437855415258673,0.008225420572777512
1782831600964178200,0.85817822265625,-0.07273790395259856,-0.009389213929942342,0.006219953368726419
1782831600974108200,0.868108154296875,-0.06839841344356537,-0.021406760219612624,-0.010505608498404035
1782831600984037000,0.878037109375,-0.08186521326005458,-0.022421099777752532,-0.006643856748801772
1782831600993966000,0.887966064453125,-0.06869651960730552,-0.019871072801644914,-0.0074648148887557905
1782831601003894000,0.89789404296875,-0.07782382891476154,-0.015042279247083934,0.001014851514262773
1782831601013823000,0.907822998046875,-0.08156418448686599,-0.008395122575387359,0.0025642784075127563
1782831601023752200,0.917752197265625,-0.08350947333574295,-0.007607690533233107,0.009763411828974495
1782831601033682200,0.92768212890625,-0.0715384650349617,-0.0011296536255453247,0.00540555340454448
1782831601043611100,0.937611083984375,-0.07617664622962475,-0.00987230072217062,-0.005673658297309885
1782831601053540400,0.947540283203125,-0.06989186687171459,-0.021327345157717354,-0.0026269395536626687
1782831601063469000,0.957468994140625,-0.07916939830482006,-0.020007033506501466,-0.0015223200473796167
1782831601073398000,0.96739794921875,-0.07871990097165107,-0.016736557043535865,-0.005001726410584524
1782831601083327000,0.977326904296875,-0.07961772659420967,-0.01009901758355554,-0.00252160174511082
1782831601093256200,0.987256103515625,-0.07722352493405342,-0.004391068857576465,0.009276956044370307
1782831601103185200,0.99718505859375,-0.07557751129269599,-0.007390034902782645,0.00492052638780151
1782831601113114000,1.007114013671875,-0.07976677967607974,-0.009652745395578676,0.001708684348778479
1782831601123043000,1.01704296875,-0.07153671146929264,-0.020646020963205954,-0.0007919002953007293
1782831601132972300,1.02697216796875,-0.08425532326698303,-0.02062525673639029,-0.006107165760191856
1782831601142901200,1.0369013671875,-0.08275894722938537,-0.014245918404735857,-0.0021894274879319707
1782831601152830200,1.046830322265625,-0.07587503293454646,-0.007463736034877365,-0.005571006207010941
1782831601162759200,1.05675927734375,-0.07811959699094295,-0.007617918524658307,-0.004362253755045822
1782831601172688100,1.066688232421875,-0.07692249616086483,-0.0058965084093972105,0.002992492921935627
1782831601182617000,1.0766171875,-0.0844043763488531,0.002918145619158167,0.0016346425785610335
1782831601192546000,1.086546142578125,-0.07183481763303279,-0.0038948223313200283,0.01355088306199177
1782831601202475000,1.09647509765625,-0.08200959016680717,-0.01528793827095651,-0.0011861638775328173
1782831601212404200,1.106404296875,-0.07348024675250053,-0.01546483263275586,-0.003481350155358086
1782831601222333200,1.116333251953125,-0.06465104360878467,-0.0200718378044432,-0.003590559850606951
1782831601232262100,1.12626220703125,-0.08275719366371631,-0.014316468598518985,-0.005878709032869665
1782831601242191000,1.136191162109375,-0.07871756288409233,-0.004380405899666948,-0.0008445241046261798
1782831601252120300,1.146120361328125,-0.08245850297808646,0.0009434354546188842,0.002467727835259575
1782831601262049300,1.15604931640625,-0.07572481080889701,-0.007541340448887785,0.005091024116499466
1782831601271978200,1.165978271484375,-0.07811901246905327,-0.014650200914777815,0.0010302880438204738
1782831601281907200,1.1759072265625,-0.0770715492427349,-0.01468924857531092,-0.002072320040011982
1782831601291836200,1.185836181640625,-0.07946516638100147,-0.022107047126209364,-0.001505651469546865
1782831601301765000,1.19576513671875,-0.07811842794716357,-0.016391903757752152,0.007960044209926855
1782831601311694000,1.205694091796875,-0.07737023992836475,-0.009774442396353698,0.0026624058759771286
1782831601321623000,1.215623046875,-0.06689560766518116,-0.011831811034289421,0.0014597265436554151
1782831601331552300,1.22555224609375,-0.07467676306068897,-0.012076894669426838,0.016091623903234722
1782831601341481200,1.235481201171875,-0.08305646887123584,-0.011566377589222975,0.006885674710373859
1782831601351410200,1.24541015625,-0.07766951513588428,-0.012162618457811185,-0.002608667536388384
1782831601361339100,1.255339111328125,-0.08156009283363819,-0.01698068854731391,-0.005185568248867639
1782831601371268000,1.26526806640625,-0.079764441588521,-0.01602776260349783,-0.01172892490690574
1782831601381197300,1.275197265625,-0.07886603144407271,-0.014262677743291714,0.0026164849458407843
1782831601391126300,1.285126220703125,-0.07228197687864303,-0.013748670656414469,0.00290978992441087
1782831601401055000,1.295054931640625,-0.0820084211230278,0.0030240970615297556,0.0029926727309153647
1782831601410984000,1.30498388671875,-0.07901566904783248,-0.0038745101956534195,0.0028901844665757377
1782831601420913200,1.3149130859375,-0.08066168268918991,-0.020384625514084473,-0.00678767139572883
1782831601430842000,1.324842041015625,-0.07452595641314982,-0.013467295290122274,-0.008110582000229623
1782831601440771000,1.33477099609375,-0.0680915394514799,-0.01233750580890337,-0.004118020930334751
1782831601450700000,1.344699951171875,-0.07736907088458538,-0.016582352862512924,-0.0007650551000369887
1782831601460629200,1.354629150390625,-0.08589841429889201,-0.011787253798288292,0.011021842933341394
1782831601470558200,1.36455810546875,-0.08574877669513226,0.004469008915015729,-0.0016041230010669096
1782831601480487200,1.374487060546875,-0.0633031361311674,0.0008778274390788283,0.005183496735256631
1782831601490416000,1.384416015625,-0.07018646590411663,-0.009504517722548917,0.0029179795099102193
1782831601500347600,1.39434765625,-0.07482464709877967,-0.01212990578158642,0.00693758470659086
1782831601510276600,1.404276611328125,-0.07452478736937046,-0.00802106509860605,-0.0018234785399035898
1782831601520205600,1.41420556640625,-0.07422551216185093,-0.009127542202896438,-0.005782994144255644
1782831601530134500,1.424134521484375,-0.07497370018064975,-0.009811640593095217,0.0012501701660978142
1782831601540063700,1.434063720703125,-0.08290449317991733,-0.004510100118874106,0.0020517882805201225
1782831601549992400,1.443992431640625,-0.07437514976561069,-0.00837597491692286,0.002779910758824553
1782831601559921400,1.45392138671875,-0.08230594276487826,-0.004194268785486929,0.0021440434160351286
1782831601569850400,1.463850341796875,-0.0787146402746439,-0.013013513365836114,-0.002271306789082882
1782831601579779600,1.473779541015625,-0.0787146402746439,-0.0078073104667826555,0.0025631199239433042
1782831601589708500,1.48370849609375,-0.07572188819944858,-0.01879812807419803,-0.002685847829535487
1782831601599637500,1.493637451171875,-0.08080956672728061,-0.011149702530133072,-0.006688445950843743
1782831601609566500,1.50356640625,-0.08395195640623569,-0.004934880852606147,0.00010759398313093697
1782831601619495700,1.51349560546875,-0.07228022331297397,-0.00912663802059833,0.004474018735684512
1782831601629424600,1.523424560546875,-0.08410159400999545,-0.003506214597733924,-0.0028160161165447788
1782831601639353600,1.533353515625,-0.0764700762182474,-0.002127696211077273,0.0012064203580390313
1782831601649282600,1.543282470703125,-0.06779051067829131,-0.004903030117839807,0.005387492591468617
1782831601659211500,1.55321142578125,-0.07736731731891631,-0.008101843283814377,-0.0003515074328446644
1782831601669140500,1.563140380859375,-0.07572130367755889,-0.010628697163600008,-0.0018422267655631003
1782831601679069400,1.5730693359375,-0.07018412781655788,-0.016404731273284415,0.000456541564008512
1782831601688998400,1.582998291015625,-0.07976093445718288,-0.015618810768204275,-0.0021739978795929345
1782831601698927600,1.592927734375,-0.08200549851357937,-0.01043670455572428,-0.0064227995891124
1782831601708856600,1.602856689453125,-0.07422434311807155,-0.008225826998153933,0.008566518778161844
1782831601718785500,1.61278564453125,-0.07691781998574733,-0.008968312503595371,-0.00011836682430584915
1782831601728714500,1.622714599609375,-0.0757207191556692,-0.01795284092305228,-0.003004403697082307
1782831601738643500,1.6326435546875,-0.07572130367755889,-0.011900298276793909,0.004772032997057249
1782831601748572700,1.64257275390625,-0.07781564560830592,-0.009184748857916565,0.005691192241534008
1782831601758501600,1.652501708984375,-0.08275368653237819,-0.002696045567386318,0.007086525907317991
1782831601768430600,1.6624306640625,-0.07392506791055202,-0.003956298736081226,-0.001497407798648055
1782831601778359300,1.672359375,-0.07826455841958523,-0.006226158776404918,0.00656871999897994
1782831601788288500,1.68228857421875,-0.07886310883462429,-0.000822690585203236,-0.0009979914969488162
1782831601798217500,1.692217529296875,-0.08110767289102078,-0.008804019611753755,-0.004636488706964883
1782831601808146400,1.702146484375,-0.07826455841958523,-0.007352300133212702,0.00550881969948532
1782831601818075400,1.712075439453125,-0.07452361832559108,-0.0027455455524526768,-0.007314372996575548
1782831601828004600,1.722004638671875,-0.07587035675942898,-0.011301672513230004,0.002460142179603281
1782831601837933600,1.73193359375,-0.08963701630532742,-0.010573302298109046,0.0013899167062110791
1782831601847862500,1.741862548828125,-0.0805091224759817,-0.00023399141896516084,-0.006660852978553157
1782831601857791500,1.75179150390625,-0.07946165924966335,-0.005041322631211369,-0.002645691061549587
1782831601867720700,1.761720703125,-0.07976093445718288,0.0005110393824783386,0.001972946038660302
1782831601877649700,1.771649658203125,-0.07691781998574733,-0.004380924777008476,-0.005395671902169124
1782831601887578400,1.781578369140625,-0.07302724228799343,-0.01319153567221947,0.0007822088767039531
1782831601897507300,1.79150732421875,-0.07751637040078639,-0.010238695482304319,0.0013615020354242006
1782831601907436500,1.8014365234375,-0.08125731049478054,-0.002002219796794816,0.0023040173247245548
1782831601917365500,1.811365478515625,-0.07931202164590358,-0.007670884541867417,-0.0032158781797959816
1782831601927294500,1.82129443359375,-0.07916238404214382,-0.004276101279220893,0.00107597507957762
1782831601937223400,1.831223388671875,-0.07197977906167506,-0.008640390586081775,-0.0009721088505488296
1782831601947152600,1.841152587890625,-0.07587094128131866,0.0005770218573539751,0.0012935139768967929
1782831601957081600,1.85108154296875,-0.08469955990314483,-0.010667531336646061,0.0016480146584319298
1782831601967010600,1.861010498046875,-0.07452361832559108,-0.017172896925965322,0.0012193313563118862
1782831601976939500,1.870939453125,-0.07168050385415553,-0.009186762147667468,-0.0011408806984523835
1782831601986868700,1.88086865234375,-0.07452361832559108,-0.006752478497228003,0.0005103015948392567
1782831601996797400,1.89079736328125,-0.08110767289102078,-0.009498735294089419,0.0008328980270307511
1782831602006726400,1.900726318359375,-0.08155658570230007,-0.007923459076182917,0.0022704228709713786
1782831602016655400,1.9106552734375,-0.08365151215493678,-0.004408699270745274,0.00573632657873677
1782831602026584600,1.92058447265625,-0.07512216874063014,-0.010776855196326506,0.0032224172330257714
1782831602036513500,1.930513427734375,-0.07976093445718288,-0.008408330829298939,0.002106983643666899
1782831602046442500,1.9404423828125,-0.08410042496621609,-0.005190923702353029,-0.0009656785389401193
1782831602056371500,1.950371337890625,-0.07557108155190945,-0.01029338481160812,-0.0045640068509994304
1782831602066300700,1.96030078125,-0.08006020966470241,-0.008861209712931304,0.0034759145013595113
1782831602076229600,1.970229736328125,-0.07901274643838405,0.0014503221058985217,0.0006011349550644809
1782831602086158600,1.98015869140625,-0.07377543030679226,-0.013409399081935407,0.01173897366017336
1782831602096087600,1.990087646484375,-0.08275310201048851,-0.011739268204406834,0.0107809822405281
1782831602106016500,2.0000166015625,-0.07527122182250022,-0.0047861873886955435,0.0036172320867568484
1782831602115945500,2.009945556640625,-0.08574585408568382,-0.004627029042164213,-0.0033034428696395476
1782831602125874400,2.01987451171875,-0.08305237721800804,-0.008078459554116124,0.0010678111810753762
1782831602135803400,2.029803466796875,-0.07646832265257834,-0.010933564144978298,0.005481737613026052
1782831602145732600,2.039732666015625,-0.07197919453978538,-0.0055763936265371735,0.005658749564189929
1782831602155661600,2.04966162109375,-0.06988426808714866,-0.004997901902126614,0.0031638020743310334
1782831602165590500,2.059590576171875,-0.07616904744505881,-0.006071596119066817,-0.005556903474777937
1782831602175519500,2.06951953125,-0.07961071233153343,-0.005237878391417325,-0.0005958793954567227
1782831602185448400,2.079448486328125,-0.07182955693602562,-0.007512451710298774,0.0022671900196801287
1782831602195377700,2.089377685546875,-0.08649404210448265,-0.004902925086562754,0.0009466463292570551
1782831602205306600,2.099306640625,-0.08769114293456078,-0.014829863764042965,0.0008692853708969778
1782831602215235600,2.109235595703125,-0.08619476689696312,-0.015053075777378399,-0.006115496338764205
1782831602225164300,2.119164306640625,-0.0706324561059475,-0.006750236307791783,0.00011768940110996481
1782831602235093500,2.129093505859375,-0.0736252081811428,0.001037611406695214,0.004283073301057447
1782831602245022500,2.1390224609375,-0.07482230901122093,-0.005164077936267131,-0.0047400797997135665
1782831602254951400,2.148951416015625,-0.06180383748412132,-0.006789285109969205,0.0004571543415950145
1782831602264880400,2.15888037109375,-0.07811433629393577,0.002202401419347734,-0.00021143024399643764
1782831602274809600,2.1688095703125,-0.07646832265257834,-0.007544353819059324,0.0033396535440479054
1782831602284738600,2.178738525390625,-0.06958499287962913,-0.01216848308466142,0.0023711604237527354
1782831602294667500,2.18866748046875,-0.06524550237059593,-0.00502064688183018,0.0025199426505088923
1782831602304596500,2.198596435546875,-0.07557049703001975,-0.010414426508545875,-0.0025084534275258193
1782831602314525700,2.208525634765625,-0.06629296559691429,-0.003406700887659099,0.00562244984152494
1782831602324455400,2.218455322265625,-0.0770668730676174,0.000021342469661612993,0.000027723690564744174
1782831602334384400,2.22838427734375,-0.07646832265257834,-0.016272434105037245,0.004766208042346989
1782831602344313600,2.238313720703125,-0.07527180634438992,-0.014554387273930477,0.002200721775148122
1782831602354242600,2.24824267578125,-0.0692857176721096,-0.0068665658678160975,-0.003263291524464148
1782831602364171500,2.258171630859375,-0.08769114293456078,-0.003490450773021439,-0.0004658922017770237
1782831602374100500,2.2681005859375,-0.08095745076537132,-0.002129498296629754,-0.005106319867042475
1782831602384029700,2.27802978515625,-0.06853752965331077,-0.005882286946155364,-0.003557245527827763
1782831602393958700,2.287958740234375,-0.07242869187295436,-0.006120928853240911,-0.015837661700253376
1782831602403887600,2.2978876953125,-0.0779652832120657,-0.004998765556051512,0.00025350654419380587
1782831602413816600,2.307816650390625,-0.07631926957070827,-0.0069051448833575705,0.006358998796524247
1782831602423745500,2.31774560546875,-0.07826455841958523,-0.008028162701317341,0.00024049793533195043
1782831602433674500,2.327674560546875,-0.08425006256997584,0.007478804598201531,0.0017171479289136186
1782831602443603500,2.337603515625,-0.07377543030679226,0.0019832519473100547,0.003142423072051315
1782831602453532400,2.347532470703125,-0.07736673279702663,-0.012180563964811153,0.006120550398150226
1782831602463461600,2.357461669921875,-0.07990998753905296,-0.002689329844698659,0.007731110275280661
1782831602473390600,2.367390625,-0.07497253113687039,-0.003021176735369954,-0.00869928059564554
1782831602483319600,2.377319580078125,-0.07916179952025414,-0.014715214133629341,0.0034959252429267508
1782831602493248500,2.38724853515625,-0.07167991933226585,-0.009627290152269414,-0.006510909414116759
1782831602503174700,2.397174560546875,-0.06928630219399928,-0.006539338640868663,-0.0010375046629516873
1782831602513103600,2.407103515625,-0.07586977223753928,-0.006090837963187368,0.0018439253895994624
1782831602523032600,2.417032470703125,-0.0745230338037014,-0.005922703438223107,0.005242297125741606
1782831602532961500,2.42696142578125,-0.07616904744505881,-0.0021664493273769038,0.00013214104838698404
1782831602542890500,2.436890380859375,-0.0797603499352932,0.0030036484993674092,0.005844798771757632
1782831602552819700,2.44681982421875,-0.07631868504881859,0.0010151073139422805,-0.0013130231084927798
1782831602562748700,2.456748779296875,-0.06344985112547874,-0.003542998948410968,-0.0024706010685913494
1782831602572677600,2.466677734375,-0.07437339619994163,-0.0108561926264083,-0.0037343536625252453
1782831602582606600,2.476606689453125,-0.0770668730676174,-0.008467139211294125,-0.0035414834155817515
1782831602592535800,2.486535888671875,-0.07512158421874046,-0.014364151656656759,0.00024342596759088336
1782831602602464800,2.49646484375,-0.08424947804808616,-0.007374032474408159,0.007120263209316181
1782831602612393700,2.506393798828125,-0.08185527638792992,-0.0030261017889482897,0.004220895070453116
1782831602622322400,2.516322509765625,-0.07078209370970726,-0.015851062321232165,0.0036710189462290143
1782831602632251600,2.526251708984375,-0.08604512929320335,-0.005397386651931447,0.008818309002832392
1782831602642180600,2.5361806640625,-0.07437339619994163,-0.007060101978806779,-0.0032820732859254347
1782831602652109600,2.546109619140625,-0.08140636357665061,-0.007259814385545905,-0.004226606431553955
1782831602662038500,2.55603857421875,-0.07422375859618187,-0.002396095648076152,0.00007079422025562963
1782831602671967700,2.5659677734375,-0.07601940984129905,-0.00620278988808277,-0.004016205665319285
1782831602681896700,2.575896728515625,-0.0823041891992092,-0.0012801063633465673,0.0005010158880912058
1782831602691825700,2.58582568359375,-0.07542085942625999,-0.005591465043972129,-0.011308979036851087
1782831602701754600,2.595754638671875,-0.08110708836913108,-0.0028228822508710436,0.004507486895035253
1782831602711683800,2.605683837890625,-0.08589549168944359,-0.002097875319904415,0.0022493424086802404
1782831602721612800,2.61561279296875,-0.08140636357665061,-0.0017735501528077292,0.0034536410207583685
1782831602731541800,2.625541748046875,-0.07422375859618187,-0.011055610488913953,0.009560169458010932
1782831602741470500,2.635470458984375,-0.07616904744505881,-0.013249589427321915,-0.002410984117009502
1782831602751399700,2.645399658203125,-0.06584405278563499,-0.004958649887260981,-0.001521339803028968
1782831602761328600,2.65532861328125,-0.07916179952025414,-0.003940359668966266,0.002355331953430868
1782831602771257600,2.665257568359375,-0.077964698690176,-0.016454617704951668,0.008361659838847117
1782831602781186600,2.6751865234375,-0.08005904062092303,-0.004616240503379958,-0.003906038986722706
1782831602791115800,2.68511572265625,-0.07093173131346703,-0.0024646582391054835,0.004309914500566083
1782831602801044700,2.695044677734375,-0.06808861684203148,-0.009724058207764756,0.005083068568084854
1782831602810973700,2.7049736328125,-0.07302665776610374,-0.006848953720956342,-0.0034607189301052127
1782831602820902700,2.714902587890625,-0.07586977223753928,-0.0068527788002364105,-0.0015603009840051527
1782831602830831900,2.724831787109375,-0.07766542348265647,-0.007408332036231877,0.002121092084121483
1782831602840760800,2.7347607421875,-0.08409925592243671,0.0008766669576318236,-0.00008960851857991656
1782831602850689500,2.744689453125,-0.08215396707355975,-0.0021672170831792755,-0.005666074924942222
1782831602860618500,2.754618408203125,-0.08424889352619648,-0.005463901703880401,-0.00036917494945373617
1782831602870547500,2.76454736328125,-0.08260287988483905,-0.007598224589388701,-0.0030058321795324444
1782831602880476700,2.7744765625,-0.08005904062092303,0.0007032483319519087,-0.006371922210179036
1782831602890405600,2.784405517578125,-0.08245324228107928,-0.0030959270385908892,-0.0005631374645963661
1782831602900334600,2.79433447265625,-0.0758691877156496,-0.005750061130677932,0.0012343883604873554
1782831602910263600,2.804263671875,-0.0849970815449953,-0.0034248895648983303,-0.00196763996129157
1782831602920192800,2.81419287109375,-0.08095686624348163,-0.011040402644983259,-0.000618226083999616
1782831602930121700,2.824121826171875,-0.07751520135700703,-0.006077194742791471,0.0030655113507295027
1782831602940050700,2.83405078125,-0.07841302697956562,-0.005319025327739655,0.0053622097364510405
1782831602949979600,2.843979736328125,-0.08409925592243671,-0.008242414519240264,-0.00593824235900538
1782831602959908600,2.85390869140625,-0.06868658273518086,-0.011876587465999181,0.0024133293398452224
1782831602969837600,2.863837646484375,-0.07093114679157733,-0.011160929460334592,-0.00017664947909361216
1782831602979766500,2.8737666015625,-0.07676701333820819,-0.0022499080934387165,0.006227586402621818
1782831602989695500,2.883695556640625,-0.08260287988483905,-0.007005650111520663,0.0024857232891983584
1782831602999624700,2.893624755859375,-0.07138005960285664,-0.004358092461514752,-0.0025063896200139425
1782831603009553700,2.9035537109375,-0.07706628854572772,0.0008686320649372646,-0.0018290098066136124
1782831603019482600,2.913482666015625,-0.09098258569538593,-0.006466842514349264,0.0035038154322042827
1782831603029411600,2.92341162109375,-0.07571955011188984,-0.0002639612947212299,0.0016575659401889423
1782831603039340800,2.9333408203125,-0.07676701333820819,-0.010346472413936863,0.00173877852105943
1782831603049269800,2.943269775390625,-0.07901157739460468,-0.00803117321737809,0.008033616907036047
1782831603059198700,2.95319873046875,-0.07437281167805194,-0.006742828748648753,-0.0023217446349546663
1782831603069127700,2.963127685546875,-0.07841302697956562,0.0017861927219608332,0.004879628121832502
1782831603079056600,2.973056640625,-0.0806575910359621,-0.00268755972518702,0.0021933224929263813
1782831603088985600,2.982985595703125,-0.07392389886677264,-0.010810876196937168,-0.005253625662287232
1782831603098915600,2.99291552734375,-0.08080664411783219,-0.0007887854614906245,-0.0021939095835157786
1782831603108844800,3.0028447265625,-0.08379998071491718,-0.00769494412500062,0.0007856074091265327
1782831603118773800,3.012773681640625,-0.07467208688557148,-0.00713967116268468,0.0005305312467040493
1782831603128702700,3.02270263671875,-0.08020809370279312,-0.004357763097129645,0.004078003728366457
1782831603138631700,3.032631591796875,-0.08409867140054703,-0.007602554846278507,-0.0006488538322926615
1782831603148560600,3.042560546875,-0.08754033628702163,-0.01171183220820967,-0.002176384487035102
1782831603158489600,3.052489501953125,-0.08350012098550796,-0.0065386513709905555,0.006720463365680189
1782831603168418600,3.06241845703125,-0.07736497923135757,-0.00681942965730559,-0.006263869571444229
1782831603178347500,3.072347412109375,-0.07227730070352553,-0.009742340499837882,0.0036838630156038558
1782831603188276700,3.08227685546875,-0.07167875028848647,-0.010162644846207694,-0.0009254123158054426
1782831603198205700,3.092205810546875,-0.07736497923135757,-0.006330753945329342,-0.0048839218461042035
1782831603208134700,3.102134765625,-0.08589432264566421,-0.006384858181921299,-0.003898812663614808
1782831603218063600,3.112063720703125,-0.06554360853433609,-0.006625129215445486,-0.001475478238397045
1782831603227992600,3.12199267578125,-0.07287585111856461,-0.004820160440244944,0.0011016194077266845
1782831603237921800,3.131921875,-0.08200374494791031,0.002479535577006754,-0.001684743353948579
1782831603247850800,3.141850830078125,-0.07347440153360367,-0.008339956609581712,0.0024828069587936622
1782831603257779700,3.15177978515625,-0.07227730070352553,-0.0038645619070855897,0.012874941720429342
1782831603267708400,3.16170849609375,-0.07931026808023452,-0.005230078106629662,0.0055597358943254216
1782831603277637600,3.1716376953125,-0.08843816190958023,-0.009837295624159742,0.0034671246963611335
1782831603287566600,3.181566650390625,-0.08215338255167007,-0.002427581056661438,0.0031214639094687296
1782831603297495600,3.19149560546875,-0.07347440153360367,0.002221885292063234,-0.0035327381347116894
1782831603307424500,3.201424560546875,-0.07931026808023452,-0.004925286473776214,0.0015749973712823702
1782831603317353700,3.211353759765625,-0.08200374494791031,-0.011713302646088414,0.0032316802495930457
1782831603327282700,3.22128271484375,-0.08065700651407241,-0.0036037018891482146,0.002884388052973372
1782831603337211600,3.231211669921875,-0.07257599138915538,-0.0040037534653558395,0.006616179294831818
1782831603347140600,3.241140625,-0.0737730922192335,-0.01129343326620292,-0.0032137233261499204
1782831603357069800,3.25106982421875,-0.07616729387938975,-0.006179427849626517,0.001838216311787255
1782831603366998800,3.260998779296875,-0.08439736208617686,-0.003185002694686409,0.0037270559866476104
1782831603376927500,3.270927490234375,-0.08275134844481945,-0.010240406807133694,0.0005066631744048209
1782831603386856400,3.2808564453125,-0.08185352282226085,-0.0037155213833029847,-0.0015256743410849594
1782831603396785700,3.29078564453125,-0.07975859636962414,-0.004044357187091373,0.010273721129912882
1782831603406714600,3.300714599609375,-0.09532090716063976,-0.002592566355780582,0.0025825595579415674
1782831603416643600,3.3106435546875,-0.08709083895385265,-0.005289842615739325,0.002092107447409944
1782831603426572500,3.320572509765625,-0.07811258272826671,0.003804116977963713,-0.0019001259705662959
1782831603436501800,3.330501708984375,-0.08364917406737804,-0.0035689348239771788,-0.0011199445114616537
1782831603446430700,3.3404306640625,-0.08334989885985851,-0.004434838358999695,0.01040802188393427
1782831603456359700,3.350359619140625,-0.08679156374633312,-0.011427905266871674,0.0054869201073976
1782831603466288600,3.36028857421875,-0.08604337572753429,-0.0031292322282155506,0.006173173351242439
1782831603476217900,3.3702177734375,-0.07736439470946789,-0.011770738771616015,0.002528569200370111
1782831603486146800,3.380146728515625,-0.06973287691771984,-0.008414352432242594,0.0041838318731519395
1782831603496075500,3.390075439453125,-0.07556874346435069,-0.006394590699713444,0.010273646923032356
1782831603506004500,3.40000439453125,-0.07018178972899913,-0.006896535172750008,-0.00063697331072035
1782831603515933400,3.409933349609375,-0.07930968355834483,0.001449711326189572,0.0016408240117089007
1782831603525862400,3.4198623046875,-0.08320026125609874,-0.0016923144536398467,0.009888178711314685
1782831603535791600,3.42979150390625,-0.08454699968993663,-0.0014235805148564394,0.008536671058347564
1782831603545720600,3.439720458984375,-0.07646656908690928,-0.003860293013577757,-0.002728686034608108
1782831603555649500,3.4496494140625,-0.07317454180419444,0.003321172891274909,-0.0021751418071973604
1782831603565578500,3.45957861328125,-0.07556874346435069,-0.008986539996741339,-0.0037575849827073396
1782831603575507700,3.4695078125,-0.07092997774779797,-0.005466038862039568,0.0012737773726708838
1782831603585436700,3.479436767578125,-0.07766366991698742,-0.0020489413050076106,0.005230835016811033
1782831603595365600,3.48936572265625,-0.07362345461547375,-0.002202048080431996,0.00414548803633952
1782831603605294600,3.499294677734375,-0.06898468889892101,-0.01126045572849689,0.001192149233269447
1782831603615223300,3.509223388671875,-0.07362345461547375,-0.0021846211653624775,0.006540320454980247
1782831603625152500,3.519152587890625,-0.0803571467846632,-0.0013709241686679888,0.0026992932600536732
1782831603635081500,3.52908154296875,-0.085594462916255,-0.0001585749662859598,-0.004024569066165713
1782831603645010400,3.539010498046875,-0.08230243563354014,-0.001962512836669339,0.002662939594694762
1782831603654939400,3.548939453125,-0.07871113314330577,-0.002565078985589207,0.00433837569335883
1782831603664869600,3.55886962890625,-0.07766366991698742,-0.004767469273904862,0.003379317407100461
1782831603674798600,3.568798583984375,-0.08544482531249523,-0.006474856857446139,0.004647316917889111
1782831603684727600,3.5787275390625,-0.07317454180419444,-0.003850121818957268,0.008117353663488756
1782831603694656500,3.588656494140625,-0.08334989885985851,-0.0024114433434355305,-0.0026985340665836703
1782831603704585500,3.59858544921875,-0.08619301333129406,0.00017113077047106344,0.0010965453695651376
1782831603714514400,3.608514404296875,-0.07287526659667491,-0.0005771979559896863,0.0019647818547469794
1782831603724443400,3.618443359375,-0.0829009860485792,-0.0040888987254831585,-0.0017966929955553494
1782831603734372600,3.62837255859375,-0.07781330752074718,0.0005081227666625637,0.006809320396889234
1782831603744301600,3.638301513671875,-0.07826222033202648,-0.003127501780843886,0.0044870951296776184
1782831603754230500,3.64823046875,-0.09412380633056164,-0.0016070310545503162,0.00010598226676811464
1782831603764159500,3.658159423828125,-0.0751198306530714,-0.0022913674775889375,-0.0030216017124665086
1782831603774088700,3.668088623046875,-0.07676584429442881,-0.002624848061276134,-0.004960345799892092
1782831603784017700,3.678017578125,-0.08963467821776866,-0.009648750782117712,0.0053058107947843375
1782831603793946600,3.687946533203125,-0.07631693148314952,-0.0009409175580804002,0.008785442775447154
1782831603803875300,3.697875244140625,-0.08200316042602061,0.0035124391279547124,0.001207091644896718
1782831603813804500,3.707804443359375,-0.08409808687865733,0.0013726112335556535,-0.00016660472158109768
1782831603823733500,3.7177333984375,-0.08110475028157234,-0.0012353584727447014,0.006767947777707013
1782831603833662500,3.727662353515625,-0.07497019304931163,0.002613725306118431,0.003331971419446927
1782831603843591400,3.73759130859375,-0.08484627489745616,0.003872336790287227,0.004046269441320327
1782831603853520600,3.747520751953125,-0.07407236742675304,-0.0003408530372675159,0.0014051766376636805
1782831603863449600,3.75744970703125,-0.08275134844481945,-0.00459223115259665,0.0020105261154254547
1782831603873378600,3.767378662109375,-0.07960895876586437,-0.005170118947164155,0.0030141099570551886
1782831603883307500,3.7773076171875,-0.07601765627563,0.001396623153038672,0.012870887741463957
1782831603893236700,3.78723681640625,-0.07646656908690928,-0.0028298171692673346,0.007613801755255553
1782831603903165700,3.797165771484375,-0.07691548189818859,-0.0015728616401785983,0.00694588274830021
1782831603913094400,3.807094482421875,-0.07003215212523937,-0.00020886382757453247,0.008781957335351035
1782831603923023400,3.8170234375,-0.07930968355834483,-0.0071511652376560954,0.0032408721988016623
1782831603932952600,3.82695263671875,-0.0790104083508253,-0.00891756983869127,-0.0001595958817153587
1782831603942881500,3.836881591796875,-0.08783902697265147,-0.0001838338467729045,0.005517654314023093
1782831603952810500,3.846810546875,-0.08140461001098155,-0.0025295039216536677,0.004684343867983261
1782831603962739500,3.856739501953125,-0.07975859636962414,-0.011223509835149161,0.0058135371254582425
1782831603972668400,3.86666845703125,-0.08469663729369639,-0.0012640097493160282,-0.00009500307338312268
1782831603982597600,3.87659765625,-0.07856149553954601,0.0028028606636828044,-0.004148127232586557
1782831603992526600,3.886526611328125,-0.07676584429442881,0.002429058058994997,0.0009530780679211602
1782831604002455600,3.89645556640625,-0.07556815894246101,-0.007037662388957687,-0.00039008730461937373
1782831604012384500,3.906384521484375,-0.08798808005452155,-0.010596973151352721,0.004682199289136042
1782831604022313500,3.9163134765625,-0.0830500391304493,-0.004231165588129079,-0.0004661716192233143
1782831604032242400,3.926242431640625,-0.06569207709431647,-0.0020791532093586283,-0.0029448643773139337
1782831604042171400,3.93617138671875,-0.07586743414998054,-0.003965615980753501,0.009080706244840985
1782831604052100400,3.946100341796875,-0.0764659845650196,0.013296258705307262,0.0037913351282040817
1782831604062029600,3.956029541015625,-0.07616670935750007,0.0006830118302212213,0.00200656717834936
1782831604071958500,3.96595849609375,-0.07990764945149421,-0.0013573417408319073,0.0030542878454609306
1782831604081887500,3.975887451171875,-0.07631634696125984,-0.0030152242019074035,0.0020770991058234357
1782831604091816400,3.98581640625,-0.07152794364094733,-0.0015554355813423171,-0.0007600194496655603
1782831604101745700,3.99574560546875,-0.07018120520710945,-0.005803417019420885,0.005031906348894699
1782831604111674600,4.005674560546875,-0.06883446677327155,-0.0012366613743201014,0.0049558831122616534
1782831604121603600,4.015603515625,-0.0803565622627735,-0.0063848969978280365,0.0012877616593061248
1782831604131532500,4.025532470703125,-0.06688917792439461,-0.006216974818706512,-0.003476243865744618
1782831604141461500,4.03546142578125,-0.0773638101875782,0.00215655640855839,0.005946193911664886
1782831604151390500,4.045390380859375,-0.08050619986653328,-0.009358518539223587,0.00713333047015476
1782831604161319400,4.0553193359375,-0.07915946143269538,-0.0025593870324417366,-0.0005737250739810406
1782831604171249700,4.065249755859375,-0.0769148973762989,0.00173888983138022,0.008083654606575145
1782831604181178600,4.0751787109375,-0.07377250769734382,0.004966490129599697,0.003069668648505467
1782831604191107600,4.085107666015625,-0.07452069571614266,-0.0051044812488718885,0.012358370500418823
1782831604201036500,4.09503662109375,-0.06673954032063484,0.0010633720398589503,0.0019434448078958666
1782831604210965800,4.1049658203125,-0.06898410437703133,0.002138700235226133,-0.003700747364212293
1782831604220894500,4.11489453125,-0.0721264940559864,0.0031084931175748352,0.0066810737826745025
1782831604230823400,4.124823486328125,-0.0764659845650196,-0.0048834691841329915,0.0006887297557768761
1782831604240752400,4.13475244140625,-0.08185293830037116,0.003430336920751142,0.0071833242163877
1782831604250681600,4.144681640625,-0.07272504447102546,-0.0032852165181378947,0.0021636077746748925
1782831604260610600,4.154610595703125,-0.07796236060261726,-0.0031093733253423125,0.0037603063773451136
1782831604270539500,4.16453955078125,-0.08424713996052742,-0.00497449134378694,-0.004544301213875587
1782831604280468500,4.174468505859375,-0.08394786475300789,-0.004071902495731774,-0.0002722938711711322
1782831604290397400,4.1843974609375,-0.07197685645222664,-0.0032691236144513822,0.004908631024853094
1782831604300326700,4.19432666015625,-0.07481997092366219,-0.0051810033840709365,0.0044545217340593805
1782831604310255600,4.204255615234375,-0.07930909903645515,0.0010291486827933112,-0.0013007478633982827
1782831604320184600,4.2141845703125,-0.08140402548909187,-0.00045572072174545605,0.0015844056620888294
1782831604330113500,4.224113525390625,-0.08110475028157234,0.0001231611596100265,0.00030814578385325147
1782831604340042500,4.23404248046875,-0.08140402548909187,0.0007395374944069771,-0.001817095035711827
1782831604349971500,4.243971435546875,-0.08290040152668952,-0.00008429701840068446,0.003387734750640811
1782831604359900400,4.253900390625,-0.08275076392292977,-0.01214804080154281,0.01051082695457153
1782831604369829400,4.263829345703125,-0.07556815894246101,-0.007801112479792209,0.0069095385015069035
1782831604379758600,4.273758544921875,-0.08394786475300789,0.0031226281012597607,0.0024236349630838957
1782831604389687600,4.2836875,-0.08200257590413093,-0.0025860141736411602,0.0025698938704910687
1782831604399616500,4.293616455078125,-0.08230185111165046,-0.0015162843165875527,0.0005907387138082413
1782831604409545500,4.30354541015625,-0.06988192999958992,0.005952063105092383,0.0072294443634571505
1782831604419474700,4.313474609375,-0.08589315360188483,0.0016342190285198739,0.013297878698591375
1782831604429403600,4.323403564453125,-0.07900982382893562,-0.0007864422365324571,-0.0011762932207784614
1782831604439332600,4.33333251953125,-0.07003156760334968,-0.0021817881749928345,-0.0010794880618428578
1782831604449261300,4.34326123046875,-0.07841127341389656,0.005140717610277352,0.004107138776716601
1782831604459190500,4.3531904296875,-0.07915946143269538,0.006416406951766112,0.0012367701159411808
1782831604469119500,4.363119384765625,-0.07930909903645515,0.006271697255695471,0.0017691337017720797
1782831604479048400,4.37304833984375,-0.08753916724324226,-0.0030056766304944176,0.009683075460116378
1782831604488977400,4.382977294921875,-0.07886018622517585,0.0036572061916522215,0.0018521329559967852
1782831604498905900,4.39290576171875,-0.06883446677327155,0.01133856474929489,0.0025088510051587943
1782831604508834800,4.402834716796875,-0.08230185111165046,-0.003396253415114188,0.0050294655133475315
1782831604518763800,4.412763671875,-0.08260112631916999,-0.0015634830321243497,-0.006163438550161663
1782831604528692700,4.422692626953125,-0.07796236060261726,0.007412792440573685,0.003020527995987504
1782831604538622000,4.4326220703125,-0.07975801184773444,-0.0013802031682556843,0.009466004351555602
1782831604548551000,4.442551025390625,-0.07856091101765632,0.003960365843956242,-0.0012338629186910111
1782831604558480000,4.45247998046875,-0.0769148973762989,0.0023758483007244647,0.00040356926775566535
1782831604568408800,4.462408935546875,-0.07227613165974617,-0.0005078616155253258,-0.0007328700061916606
1782831604578337800,4.472337890625,-0.07616670935750007,-0.004367258152904105,-0.005145018755237106
1782831604588266800,4.482266845703125,-0.07856091101765632,0.0024390722775220635,0.002844032924287603
1782831604598195700,4.49219580078125,-0.0721264940559864,0.005233408283098834,0.006883757889567641
1782831604608124700,4.502124755859375,-0.07107903082966804,-0.005697509530355455,0.0024314309667053747
1782831604618054000,4.512053955078125,-0.0582101969063282,-0.0076224228823062725,-0.0011085557531783706
1782831604627982800,4.52198291015625,-0.08050619986653328,-0.005700454972690204,0.0019510039203218183
1782831604637911800,4.531911865234375,-0.08065583747029303,-0.011150678636023075,0.005907955676951678
1782831604647842000,4.541842041015625,-0.07945873664021491,-0.00621598729637335,-0.0042090938931607525
1782831604657770800,4.551770751953125,-0.07631634696125984,-0.007754670959847863,0.003212475794323836
1782831604667699700,4.56169970703125,-0.07706453498005866,0.003201031666291237,0.001432965116543346
1782831604677628700,4.571628662109375,-0.06883446677327155,-0.0015840300611089332,-0.0066573013230867215
1782831604687557600,4.5815576171875,-0.07631634696125984,-0.006097186647227499,-0.0037399685546813995
1782831604697486800,4.59148681640625,-0.07871054862141609,-0.0033154541094860177,0.00925192320945789
1782831604707415800,4.601415771484375,-0.0812543878853321,0.0014487594802412786,0.0019778402678421116
1782831604717344800,4.6113447265625,-0.08065583747029303,0.0031505270342269795,-0.0011906890701895462
1782831604727273700,4.621273681640625,-0.07586743414998054,-0.0032003261301040762,0.002864588801015634
1782831604737203000,4.631202880859375,-0.0778127229988575,-0.0027541144492759483,0.0004302848863895633
1782831604747132000,4.6411318359375,-0.07347323248982429,-0.01067063432589639,-0.002927690621871443
1782831604757060900,4.651060791015625,-0.0855938783943653,-0.011298767028446309,0.003577333615797397
1782831604766989800,4.66098974609375,-0.09307575858235359,-0.0057485256190731885,0.0007273410227702698
1782831604776918800,4.670918701171875,-0.08394786475300789,-0.009579940454271855,0.00004859037995774997
1782831604786847700,4.68084765625,-0.0864917040169239,-0.00041995500320917925,0.0016060529507827596
1782831604796776700,4.690776611328125,-0.08334931433796883,0.0007454974485575803,0.002036509083819692
1782831604806705700,4.70070556640625,-0.07137830603718757,0.0011208875096664996,0.0046835027615336
1782831604816635000,4.710634765625,-0.07541852133870125,0.0004466320913474192,0.0011250105581129901
1782831604826563800,4.720563720703125,-0.0855938783943653,0.0016762458098950445,-0.002879230960187851
1782831604836492800,4.730492919921875,-0.07601648723185062,0.0022181700960485612,0.0006775242314062779
1782831604846421800,4.740421875,-0.07766308539509773,-0.006034111940424191,0.000014651577737822663
1782831604856351000,4.75035107421875,-0.07556815894246101,-0.006540694914315827,0.0012357600461327819
1782831604866280000,4.760280029296875,-0.07706453498005866,0.004963226168500841,0.014101301752676954
1782831604876209000,4.770208984375,-0.08155366309285163,-0.001531194191351824,0.009032625894481316
1782831604886137600,4.7801376953125,-0.0773638101875782,-0.0001915579268024885,-0.0018354346954118227
1782831604896066800,4.79006689453125,-0.09113046973347663,0.0017955556324057396,0.0033415954810290713
1782831604905995800,4.799995849609375,-0.07392214530110358,-0.00518839895594865,0.008389772830123546
1782831604915924700,4.8099248046875,-0.0716775812447071,0.0009296603743045124,0.00478102829803247
1782831604925853700,4.819853759765625,-0.07481938640177249,-0.0010813092699376284,-0.004342312653781846
1782831604935783000,4.829782958984375,-0.08424655543863772,-0.002669124167364498,-0.00503030176780885
1782831604945711900,4.8397119140625,-0.07736322566568851,0.0018808617216760466,0.004050127913696633
1782831604955640800,4.849640869140625,-0.07212590953409671,-0.004104243852142826,0.0012159345363557804
1782831604965569800,4.85956982421875,-0.07571721202433108,0.0037563856853535978,0.007205477824335685
1782831604975499000,4.8694990234375,-0.07467033331990242,0.0016158947810181415,0.009628498011955524
1782831604985428000,4.879427978515625,-0.07377250769734382,-0.007870074646332067,-0.00005071983201778494
1782831604995356700,4.889356689453125,-0.07571779654622078,-0.0009894080441605183,0.006998162066453369
1782831605005285600,4.89928564453125,-0.08290040152668952,0.005161076553360908,0.007554819272502208
1782831605015214800,4.90921484375,-0.07856091101765632,0.002156511313607916,0.006116265807033051
1782831605025143800,4.919143798828125,-0.08454641516804695,-0.004468673842409043,0.0075938617956358935
1782831605035072800,4.92907275390625,-0.06883446677327155,-0.0009471152596597675,-0.0015729715234439935
1782831605045001700,4.939001708984375,-0.07556815894246101,0.0022799167851015227,-0.0018213941827940289
1782831605054931000,4.948930908203125,-0.07452069571614266,-0.0036238850190071386,0.00021707938548206582
1782831605064860000,4.95885986328125,-0.07526888373494148,-0.00029317854146211175,0.010576732939278008
1782831605074788900,4.968788818359375,-0.07886018622517585,-0.002004108076493139,-0.005021367259393446
1782831605084717800,4.9787177734375,-0.07317395728230476,0.007244798337860265,-0.0019727542424152486
1782831605094647000,4.98864697265625,-0.07886018622517585,0.006899466915352968,0.006192411199607886
1782831605104576800,4.99857666015625,-0.07541852133870125,0.0009650145300649455,0.0020558516780511127
1782831605114505700,5.008505615234375,-0.07766308539509773,-0.0000790563001690316,-0.004946194547775667
1782831605124434700,5.0184345703125,-0.0803565622627735,0.00038463652383361477,0.005948805423037265
1782831605134364000,5.028364013671875,-0.07092939322590827,-0.000804768481911742,-0.0033694889911857896
1782831605144292900,5.03829296875,-0.07392214530110358,-0.0078019846960494755,0.001472723165251955
1782831605154221800,5.048221923828125,-0.08065583747029303,0.002012838230576017,0.009229231887037167
1782831605164150800,5.05815087890625,-0.07481997092366219,-0.004337420422477589,0.007135973376745823
1782831605174080000,5.068080078125,-0.07452069571614266,0.0013679459040591608,0.0030063025369905516
1782831605184009000,5.078009033203125,-0.07975801184773444,0.010204914226999972,0.0028037525733045185
1782831605193937700,5.087937744140625,-0.08679097922444343,0.0006436756190872984,-0.002441908407413575
1782831605203866600,5.09786669921875,-0.08664134162068367,-0.007393649348686449,0.0023459903061113434
1782831605213795800,5.1077958984375,-0.07871054862141609,-0.004131321942846989,0.006038146511436207
1782831605223724800,5.117724853515625,-0.08439677756428718,-0.005810823436919599,-0.0017781272902808267
1782831605233653800,5.12765380859375,-0.0812543878853321,-0.00902422910053865,0.005573420213916688
1782831605243582700,5.137582763671875,-0.07197685645222664,-0.005638649774366058,0.0017557781757437624
1782831605253512000,5.147511962890625,-0.08574351599812507,-0.006464879456948256,0.006921978999616112
1782831605263441000,5.15744091796875,-0.08394786475300789,-0.0066910528956388585,0.003704550466839282
1782831605273369900,5.167369873046875,-0.07452011119425296,-0.0055926768994133454,0.004213363928312901
1782831605283298800,5.177298828125,-0.08469546824991703,0.004832253307659994,-0.0003749476739365491
1782831605293228000,5.18722802734375,-0.06943243266642093,0.006203567347861826,-0.0055516964350536
1782831605303156700,5.19715673828125,-0.07736322566568851,0.00009944406977156177,-0.002885648428298009
1782831605313085700,5.207085693359375,-0.07601648723185062,-0.003595924151835788,0.000956495009358332
1782831605323014700,5.2170146484375,-0.0778121384769678,0.0014363546585169386,0.001307777823683864
1782831605332944000,5.22694384765625,-0.08080489055216312,-0.0060988991137011905,-0.001612859719604603
1782831605342872800,5.236872802734375,-0.08020634013712406,0.006714704340929165,0.01045501881383825
1782831605352801800,5.2468017578125,-0.07616612483561039,-0.0016121145112774683,0.001998381588605116
1782831605362730800,5.256730712890625,-0.08005670253336429,0.0011086182582046604,0.005233330651285359
1782831605372660000,5.266659912109375,-0.07706395045816898,0.0026539291669323574,0.007265014575404348
1782831605382589000,5.2765888671875,-0.08005670253336429,-0.0002404454196934239,0.002543997096242674
1782831605392518000,5.286517822265625,-0.08200199138224125,0.002434972347372968,0.008508547221450134
1782831605402446800,5.29644677734375,-0.07691431285440921,-0.00435030273693701,0.0025317064389499136
1782831605412375800,5.306375732421875,-0.06943243266642093,-0.0030724965014756887,0.00024462469412246717
1782831605422304000,5.316303955078125,-0.07287409755289555,-0.0012224110845592804,0.0020679802218510302
1782831605432233000,5.32623291015625,-0.08035597774088382,-0.002076952975351014,0.00045888478896667943
1782831605442162000,5.336161865234375,-0.0805056153446436,-0.008675911136501235,0.004063479158558766
1782831605452090600,5.346090576171875,-0.07227554713785649,0.0018930303657325566,0.00561485219860333
1782831605462019800,5.356019775390625,-0.0782610512882471,0.005881292573956307,-0.0005891937836378929
1782831605471948800,5.36594873046875,-0.07541793681681155,-0.0003335296743927756,0.0010350638274045194
1782831605481877800,5.375877685546875,-0.07721358806192874,-0.006683100201335037,0.009132361083553404
1782831605491806700,5.385806640625,-0.08275017940104007,-0.005820634728169534,0.00016310158599808347
1782831605501739800,5.39573974609375,-0.07915946143269538,-0.0004848078210343374,0.00016672402341209817
1782831605511668700,5.405668701171875,-0.07601707175374031,-0.0019153015630450681,-0.0016028603424536412
1782831605521598000,5.415597900390625,-0.0743704735904932,0.0009577342642631265,0.005477027759401244
1782831605531527000,5.42552685546875,-0.07676467525064945,-0.00451297649172775,0.010352002539002569
1782831605541456000,5.435455810546875,-0.07721358806192874,0.003453239161959209,0.0008619988260514219
1782831605551384600,5.445384521484375,-0.07990706492960453,-0.004699170973534637,0.003083940629508288
1782831605561313800,5.455313720703125,-0.08140344096720219,-0.002238247623808274,0.0026548088038776765
1782831605571242800,5.46524267578125,-0.0839472802311182,-0.0004809091056959005,-0.003671869185833202
1782831605581171700,5.475171630859375,-0.07616612483561039,-0.0009128545137427863,-0.0037288743406315916
1782831605591102000,5.48510205078125,-0.08364800502359866,-0.0042086911781283555,-0.002127866316080326
1782831605601031000,5.495031005859375,-0.08245090419352054,0.0032001212049493914,0.0018926596167410023
1782831605610960000,5.5049599609375,-0.07272445994913578,-0.0017480364002272835,0.001895545408160251
1782831605620888800,5.514888916015625,-0.0778121384769678,-0.0041088403975692925,-0.004123920091925538
1782831605630817800,5.52481787109375,-0.07975801184773444,-0.0007868127001129323,-0.0029887457598801116
1782831605640746800,5.534746826171875,-0.08499532797932624,0.002108633034292143,0.003022855808747408
1782831605650675700,5.54467578125,-0.07586743414998054,-0.0021035461526320433,-0.0010977047093678265
1782831605660604700,5.554604736328125,-0.07930909903645515,-0.0007406968342096661,0.0040526997529290384
1782831605670533600,5.56453369140625,-0.07990764945149421,-0.005038916044993675,0.0017495125463276053
1782831605680462800,5.574462890625,-0.07063011801838874,-0.0017697952846530824,0.007253204264957457
1782831605690391800,5.584391845703125,-0.08529460318684577,0.007380897181679029,-0.003038295406474208
1782831605700320800,5.59432080078125,-0.0869406168282032,0.004172183390786813,-0.0007687972673986223
1782831605710249700,5.604249755859375,-0.08634206641316414,-0.00033606069984089113,0.008462938531034159
1782831605720179000,5.614178955078125,-0.08140402548909187,-0.007553048582168412,0.009584019549412187
1782831605730108000,5.62410791015625,-0.07407178290486335,-0.0080580486662162,0.004502383174121496
1782831605740036600,5.63403662109375,-0.06988192999958992,-0.0029719587364495964,0.0012685603435587836
1782831605749965600,5.643965576171875,-0.07496960852742195,-0.0072004077819292425,-0.0019286393935864907
1782831605759894800,5.653894775390625,-0.0812543878853321,-0.013162340402131666,0.010505938433611299
1782831605769823700,5.66382373046875,-0.08813771765828132,-0.0006098584019870032,0.0038460661275254095
1782831605779752700,5.673752685546875,-0.08469605277180671,0.0006780331193600432,0.0015418357434304197
1782831605789681700,5.683681640625,-0.08634206641316414,0.0004102373267931398,0.0013330073068296769
1782831605799611000,5.69361083984375,-0.07960837424397468,0.0007636047836393117,0.0021663888202281666
1782831605809539800,5.703539794921875,-0.08918518088459967,-0.0028971513510128713,0.0031807965916159447
1782831605819468800,5.71346875,-0.07990764945149421,-0.0005209380095184315,-0.0006349232029402628
1782831605829397800,5.723397705078125,-0.08409750235676765,-0.0010735086997388861,0.00472899871457339
1782831605839327000,5.733326904296875,-0.08798808005452155,-0.008566718565917108,0.00336924467930221
1782831605849255700,5.743255615234375,-0.09502104743123053,-0.0036675138127684474,0.004353026700274495
1782831605859184600,5.7531845703125,-0.07960837424397468,-0.0010075781696796183,0.006503920838437625
1782831605869113600,5.763113525390625,-0.08334931433796883,-0.015291744513105367,-0.0033090374976090966
1782831605879042800,5.773042724609375,-0.0725754068672657,0.001665436436102027,0.01061639480445301
1782831605888971800,5.7829716796875,-0.0725754068672657,-0.002266262719084625,0.010614259929582476
1782831605898900700,5.792900634765625,-0.08903554328083992,-0.011217358655575662,0.0032297856908509856
1782831605908829700,5.80282958984375,-0.08215221350789069,-0.005296618845575722,0.006230034088034881
1782831605918759000,5.812759033203125,-0.08873626807332038,-0.005058823467750335,0.0019037101628957315
1782831605928687900,5.82268798828125,-0.0769148973762989,-0.008526017804414731,0.005459697027865331
1782831605938616800,5.832616943359375,-0.07661562216877937,0.0019049380013573681,-0.0022844733729769358
1782831605948545800,5.8425458984375,-0.07227613165974617,-0.005977560018419171,0.002788571843426325
1782831605958474800,5.852474853515625,-0.07467033331990242,-0.009152161762566538,0.0032371287470901733
1782831605968403700,5.86240380859375,-0.07018120520710945,-0.007144951838467386,-0.0007714650047535541
1782831605978332700,5.872332763671875,-0.07796236060261726,-0.002278135249146726,0.006121299316821387
1782831605988261600,5.88226171875,-0.07511924613118172,0.008304940665949834,0.008062489662604639
1782831605998190800,5.89219091796875,-0.07332359488606452,-0.0003584580488502979,0.0023392817187006584
1782831606008119800,5.902119873046875,-0.07197685645222664,-0.0024065354145219315,0.00519565753050847
1782831606018048800,5.912048828125,-0.08319967673420905,-0.004670390976566705,-0.004041608392990019
1782831606027978800,5.921978759765625,-0.07377250769734382,-0.004826175764144864,0.0010723833238545921
1782831606037907700,5.93190771484375,-0.07676525977253913,-0.001314160186231311,-0.0005918717957916669
1782831606047836700,5.941836669921875,-0.07631634696125984,0.0023215262954792704,0.0060272312501329
1782831606057765600,5.951765625,-0.07616670935750007,0.003535964992370282,0.001628146622404165
1782831606067697000,5.96169677734375,-0.07856091101765632,-0.0023409399570693493,-0.00017172385469311848
1782831606077625900,5.9716259765625,-0.07526888373494148,-0.0001487000283654197,-0.005009910858684452
1782831606087554800,5.981554931640625,-0.0686842446476221,0.0005317248358362121,0.0024439428175843203
1782831606097483800,5.99148388671875,-0.07766250087320804,0.00411669120011793,0.0033913706023755365
1782831606107412700,6.001412841796875,-0.08454641516804695,-0.002883431925858895,0.002842458596776123
1782831606117341700,6.011341796875,-0.07137830603718757,-0.007514065424539148,0.0031495566365585545
1782831606127270700,6.021270751953125,-0.07437105811238288,0.002815260062596644,0.0005656884688200079
1782831606137199900,6.031199951171875,-0.08514496558308601,-0.008363294673507334,0.007688749562943121
1782831606147128800,6.04112890625,-0.08020692465901375,-0.0038540285258059155,0.006959803959087003
1782831606157057800,6.051057861328125,-0.07871054862141609,-0.000302021432921174,0.0021470273888655354
1782831606166986800,6.06098681640625,-0.07960837424397468,-0.004626457363773079,0.00323042244296812
1782831606176916000,6.070916015625,-0.07556815894246101,-0.010300959621643414,-0.010373991750169079
1782831606186845000,6.080844970703125,-0.08245148871541023,0.0031062152517537466,0.008003538575069979
1782831606196774000,6.09077392578125,-0.06793664115071296,0.004163902188331121,0.0007015535609651124
1782831606206702600,6.10070263671875,-0.08200257590413093,0.0014450148868854738,-0.006207068770978367
1782831606216631800,6.1106318359375,-0.08334931433796883,0.0002093027898139553,0.0021878500208986225
1782831606226560800,6.120560791015625,-0.06703881552815437,-0.009564829650108004,0.0035287238278862787
1782831606236489700,6.13048974609375,-0.08155366309285163,-0.003818659814080456,0.003393581111181993
1782831606246418700,6.140418701171875,-0.08275076392292977,-0.008004192737262928,0.012613601070235018
1782831606256347600,6.15034765625,-0.07960837424397468,-0.0033772547412329003,-0.00041216270993172657
1782831606266276900,6.16027685546875,-0.06958265479207039,-0.004764909136526694,-0.004237206884437182
1782831606276205800,6.170205810546875,-0.07437105811238288,-0.0055837635114177825,-0.00026775612042692957
1782831606286134800,6.180134765625,-0.07377250769734382,-0.0002750928976223804,0.006698841193161206
1782831606296063700,6.190063720703125,-0.07676525977253913,0.006970303661859361,-0.00019223406564851755
1782831606305993000,6.199992919921875,-0.07347323248982429,-0.0006744729015612393,-0.0007368928753494401
1782831606315921700,6.209921630859375,-0.07003156760334968,-0.006874879321723711,0.0015379347448033513
1782831606325850600,6.2198505859375,-0.07886018622517585,0.0004914624657511012,0.0036441577679448525
1782831606335779600,6.229779541015625,-0.0864917040169239,0.0021749126221009647,0.00643396144558792
1782831606345709800,6.239709716796875,-0.08409750235676765,-0.010488505524909124,0.00299898231363768
1782831606355638800,6.249638671875,-0.08050619986653328,-0.002486266997303755,-0.004890249409724492
1782831606365567700,6.259567626953125,-0.0869406168282032,0.000456924300265382,-0.003081657626287779
1782831606375497000,6.2694970703125,-0.08843699286580085,0.0012796048960808546,0.001707122722060012
1782831606385426000,6.279426025390625,-0.07347323248982429,-0.004745979817537591,0.0017998153927590464
1782831606395354600,6.289354736328125,-0.06554243949055671,0.0016785719101884752,0.006508624413018697
1782831606405283600,6.29928369140625,-0.07392214530110358,0.0005724064747962984,0.0060431708880700164
1782831606415212800,6.309212890625,-0.06838555396199227,-0.004380645359562185,-0.0005878888841849402
1782831606425141800,6.319141845703125,-0.06988192999958992,-0.0015032239056148682,0.010479942050896352
1782831606435070700,6.32907080078125,-0.08394786475300789,0.000144013007626927,0.0075354529891512355
1782831606444999700,6.338999755859375,-0.08424713996052742,0.0006378743534965906,0.007991272177718929
1782831606454929000,6.348928955078125,-0.06913374198079109,-0.003820538389802095,0.0027007542793668106
1782831606464857900,6.35885791015625,-0.08140402548909187,0.0006122033394116443,-0.0008028550860384712
1782831606474786800,6.368786865234375,-0.0803565622627735,0.0012025464734644628,0.0005070205090756644
1782831606484715800,6.3787158203125,-0.07826163581013679,-0.00164373948588036,0.015876767584646585
1782831606494645000,6.38864501953125,-0.0860427912056446,-0.004830400989757617,-0.0007066729794882121
1782831606504571000,6.39857080078125,-0.07077975562214851,-0.005737865515274461,0.007415805810745223
1782831606514500000,6.4085,-0.07886018622517585,0.0003348377133675967,0.0038093131720670498
1782831606524429000,6.418428955078125,-0.08544424079060554,0.008883242306581815,0.0011071195646291017
1782831606534358000,6.42835791015625,-0.07377250769734382,-0.00016293233722826698,-0.0022057581390472476
1782831606544287000,6.438286865234375,-0.07422142050862311,-0.006020494407025398,0.009883887270331616
1782831606554216200,6.44821630859375,-0.08529460318684577,-0.0030925289342849283,0.0013692767759202978
1782831606564145200,6.458145263671875,-0.07616670935750007,-0.0076293954749649855,-0.0008711257015340379
1782831606574074000,6.46807421875,-0.0803565622627735,-0.012549639305798336,-0.002006633679130755
1782831606584003000,6.478003173828125,-0.0778127229988575,-0.005766720575356157,0.0010150085617089643
1782831606593932000,6.48793212890625,-0.06793664115071296,0.0003920109752914868,0.004859684166457737
1782831606603861000,6.497861083984375,-0.07631634696125984,-0.010221294539642985,-0.000027227075287373736
1782831606613790000,6.5077900390625,-0.08185293830037116,-0.004428408903624222,-0.00938866936560371
1782831606623719000,6.517718994140625,-0.07766308539509773,-0.00041236820590856947,-0.0027465947235788915
1782831606633648000,6.527648193359375,-0.0716775812447071,-0.009232975338748655,0.0027666297250878414
1782831606643577000,6.5375771484375,-0.08634206641316414,-0.0038506404108877173,-0.003864931799843907
1782831606653506000,6.547506103515625,-0.07766308539509773,0.0012331008711102185,0.004472534312662901
1782831606663435000,6.55743505859375,-0.08065583747029303,-0.00036006034664751494,-0.0067975785851012915
1782831606673364200,6.5673642578125,-0.07452069571614266,0.0004785068006443907,-0.0031273542233160694
1782831606683293200,6.577293212890625,-0.0716775812447071,-0.002175442915885651,-0.004174902216724876
1782831606693222100,6.58722216796875,-0.0773638101875782,-0.007519435719400644,0.002420262260363961
1782831606703151000,6.597151123046875,-0.07975801184773444,-0.0001903086825099308,0.0025505429993383584
1782831606713080000,6.607080078125,-0.07706453498005866,-0.00187302162204287,-0.002090256556562963
1782831606723009000,6.617009033203125,-0.07586743414998054,-0.003244349361976492,0.002670810946841084
1782831606732938000,6.62693798828125,-0.07182721884846686,-0.004921423149411566,-0.007779615888147963
1782831606742867000,6.636866943359375,-0.07796236060261726,-0.0051751079328241755,-0.0011905309524518088
1782831606752796200,6.646796142578125,-0.08110475028157234,0.002733363922192075,-0.004081153810444812
1782831606762726100,6.65672607421875,-0.08245148871541023,-0.0003629538441658951,0.0016528303995670284
1782831606772655000,6.666655029296875,-0.07242576926350593,-0.00473969877592317,0.004792171888198936
1782831606782584000,6.676583984375,-0.07945873664021491,0.0011103846673722727,0.003383088829097687
1782831606792513000,6.686512939453125,-0.08828735526204108,-0.003986222375242505,0.000595148314977996
1782831606802442000,6.69644189453125,-0.08110475028157234,-0.0017465979283893829,0.00027326997706113613
1782831606812371000,6.706370849609375,-0.07541852133870125,-0.0017777317105254042,0.001986639205995016
1782831606822300000,6.7162998046875,-0.06943301718831062,-0.007024362803500844,-0.00010235840229870518
1782831606832229000,6.72622900390625,-0.07526888373494148,0.008319578829366946,0.00030437150774523616
1782831606842158000,6.736157958984375,-0.07796236060261726,-0.004780390118859941,0.002069998078179196
1782831606852087000,6.746087158203125,-0.08290040152668952,-0.008358849110541631,0.005215856643387815
1782831606862016000,6.75601611328125,-0.08723989203572273,-0.003150378620465926,0.012174145640467758
1782831606871945200,6.7659453125,-0.08439677756428718,-0.008601103180242353,0.008297800822398858
1782831606881874200,6.775874267578125,-0.07077975562214851,-0.0036735525403768406,0.006162208999233552
1782831606891803100,6.78580322265625,-0.07661562216877937,-0.002787068297862424,-0.007774964258383261
1782831606901731800,6.79573193359375,-0.0894844560921192,-0.006028893484256696,0.002449184677460289
1782831606911661000,6.8056611328125,-0.06793664115071296,-0.0028932072553128816,0.002481538591958815
1782831606921590000,6.815590087890625,-0.06913374198079109,-0.005770781404187437,0.00043572710484295383
1782831606931519000,6.82551904296875,-0.0817033006966114,0.002559467518366,-0.0012232915777378366
1782831606941448000,6.835447998046875,-0.07407178290486335,-0.0030128721292057886,-0.0015606329170899697
1782831606951377200,6.845377197265625,-0.07871054862141609,-0.00020612844779388978,-0.0007201101330851088
1782831606961306000,6.85530615234375,-0.0778127229988575,-0.0030694437445752554,-0.0012729311288218012
1782831606971235000,6.865235107421875,-0.0803565622627735,-0.005189509775867918,-0.0063948532779060764
1782831606981164000,6.8751640625,-0.08394786475300789,-0.0040377093922405035,0.005818230425240472
1782831606991093200,6.88509326171875,-0.07392214530110358,0.0029256970254849875,-0.0028894829261436822
1782831607001022200,6.895022216796875,-0.06539280188679694,0.0041637132461968575,0.00041570066566637247
1782831607010951200,6.904951171875,-0.08005728705525397,0.0016255359672650229,0.0006374099896711413
1782831607020880000,6.9148798828125,-0.07586743414998054,-0.00046472315799765056,0.0024300178964535004
1782831607030809000,6.92480908203125,-0.07452069571614266,-0.003664288952987408,0.007381499969877768
1782831607040738000,6.934738037109375,-0.06928337958455086,-0.011768284236337058,0.004118431922288436
1782831607050667000,6.9446669921875,-0.08020692465901375,-0.0009139079660351854,0.0016901484689617063
1782831607060596000,6.954595947265625,-0.07481997092366219,-0.0022132601692574096,-0.005431787249277112
1782831607070525200,6.964525146484375,-0.08634206641316414,-0.0011717594657893642,0.007859079469926655
1782831607080454100,6.9744541015625,-0.08589315360188483,-0.004179129725626262,0.0063194054300081915
1782831607090383000,6.984383056640625,-0.07661562216877937,-0.0036674924069375263,0.0033080365609552244
1782831607100312000,6.99431201171875,-0.06793664115071296,-0.0027209040161294976,0.00512403533271281
1782831607110241300,7.0042412109375,-0.08439677756428718,-0.004224395066514262,0.003043687392577703
1782831607120170200,7.014170166015625,-0.08230185111165046,-0.002561351802309218,0.002051949823190807
1782831607130099000,7.024098876953125,-0.0769148973762989,-0.006080169297056273,0.00675362470812106
1782831607140028000,7.03402783203125,-0.08245148871541023,-0.004329232834855793,0.0008229817045037635
1782831607149957000,7.04395703125,-0.08379822714924812,-0.003942633539032249,0.0031510593258892183
1782831607159886000,7.053885986328125,-0.08080547507405281,-0.003905109688249649,-0.0028913780557079005
1782831607169816000,7.063816162109375,-0.0778127229988575,-0.005026253497065045,-0.000490837130077125
1782831607179745000,7.0737451171875,-0.08873626807332038,0.0014438352828961797,0.007308346827054629
1782831607189674200,7.08367431640625,-0.08275076392292977,-0.001914115680012037,0.004158502781539573
1782831607199603200,7.093603271484375,-0.07556815894246101,-0.0027564097251728524,0.007053411943116225
1782831607209532000,7.103531982421875,-0.0712286684334278,-0.006178539079526672,0.009285625691304448
1782831607219460900,7.1134609375,-0.07272504447102546,-0.002223300074781582,0.00935751046729274
1782831607229390000,7.12339013671875,-0.07945873664021491,-0.0022639882781964843,0.014351972595095866
1782831607239319000,7.133319091796875,-0.08050619986653328,0.0027255844724131746,-0.0004781802903700736
1782831607249248000,7.143248046875,-0.07407178290486335,-0.0006768597944144857,-0.0046913906675225
1782831607259177000,7.153177001953125,-0.07317395728230476,0.0024680298001811024,-0.0029540917174963395
1782831607269106200,7.163106201171875,-0.07631634696125984,-0.006292156663478817,0.004299015222283196
1782831607279035100,7.17303515625,-0.07152794364094733,-0.0020764181149890647,-0.006194298337661894
1782831607288964000,7.182964111328125,-0.0778127229988575,-0.0030368957505430443,0.0006265589458605972
1782831607298893000,7.19289306640625,-0.0803565622627735,-0.009982316418306436,-0.0013947577062266645
1782831607308822300,7.202822265625,-0.07841127341389656,-0.0026757967929792355,0.008466846379527123
1782831607318751000,7.2127509765625,-0.07616670935750007,0.0014630089137688627,0.007355770731932716
1782831607328680000,7.222679931640625,-0.0830500391304493,-0.011441970324842258,0.004275492211978416
1782831607338609000,7.23260888671875,-0.08858663046956061,-0.0012978960358974291,0.003507125915309007
1782831607348538000,7.2425380859375,-0.08185293830037116,-0.003146388573582226,0.0007714578694765805
1782831607358467000,7.252467041015625,-0.08065583747029303,-0.003988642661191989,0.012622124586696737
1782831607368396000,7.26239599609375,-0.07601707175374031,-0.010082497990306001,0.009919077314721653
1782831607378325000,7.272324951171875,-0.0778127229988575,-0.00746528752950253,0.013976884213497395
1782831607388254200,7.282254150390625,-0.07332359488606452,0.0005545200478896731,0.0032065018550303647
1782831607398183200,7.29218310546875,-0.07721417258381844,0.0012422020595957292,-0.0006730698206971283
1782831607408112000,7.302112060546875,-0.08753916724324226,-0.001007934933528304,0.008869443822558968
1782831607418041000,7.312041015625,-0.07945873664021491,-0.0038652680140949087,0.01008051381248515
1782831607427970000,7.321969970703125,-0.07841127341389656,0.001031361760299478,0.0010068124117547995
1782831607437899000,7.33189892578125,-0.08918518088459967,-0.0031322005034366157,0.00681395204787841
1782831607447828000,7.341827880859375,-0.0855938783943653,0.0018890508790587773,0.005457140886242268
1782831607457757000,7.3517568359375,-0.07975801184773444,-0.0029067668502626475,-0.0002907163000840228
1782831607467686100,7.36168603515625,-0.07407178290486335,-0.007483483056607656,-0.00006414842328231315
1782831607477615000,7.371614990234375,-0.06973229239583015,-0.006057547614938812,0.0062426972067856695
1782831607487544000,7.3815439453125,-0.07272504447102546,-0.0016574061099847311,-0.0006788402618913096
1782831607497473000,7.39147314453125,-0.07960837424397468,-0.008587834419182035,-0.009380206927112885
1782831607507401500,7.4014013671875,-0.07915946143269538,-0.0002833940788535983,-0.0027148989670284208
1782831607517330400,7.411330322265625,-0.08200257590413093,-0.0015232089601850019,0.0012299684845187584
1782831607527259400,7.42125927734375,-0.07227613165974617,-0.0010677559540315997,0.010708089392608961
1782831607537188400,7.431188232421875,-0.07182721884846686,-0.003644798230406013,0.006193106460996204
1782831607547117600,7.44111767578125,-0.07841127341389656,-0.003884805258682172,0.0034225526189839
1782831607557046500,7.451046630859375,-0.07706453498005866,-0.0013262119544509914,0.0057685917303897435
1782831607566975200,7.460975341796875,-0.07841127341389656,-0.006287520445912378,0.0010854768425124347
1782831607576905500,7.470905517578125,-0.0860427912056446,-0.0034654156548203897,0.004229999683871574
1782831607586834400,7.48083447265625,-0.0773638101875782,-0.00018328956784534965,0.001867793176487612
1782831607596763400,7.490763427734375,-0.0803565622627735,-0.0019317660719563718,0.0036960746140277476
1782831607606692400,7.5006923828125,-0.0773638101875782,-0.006301165949596906,0.009776424290885915
1782831607616621600,7.51062158203125,-0.08364858954548836,-0.0037182504840398904,0.0034451454745823866
1782831607626550500,7.520550537109375,-0.08260112631916999,-0.00027139025969518115,-0.0020837526088958837
1782831607636479500,7.5304794921875,-0.08424713996052742,0.0022811743063153697,-0.0036807934194497648
1782831607646408200,7.540408203125,-0.07571779654622078,-0.0035589157534617697,0.0055237335700046965
1782831607656337400,7.55033740234375,-0.0721264940559864,-0.0035965055342036065,0.001705010680075793
1782831607666266400,7.560266357421875,-0.08140344096720219,0.0005133532100953744,0.008162348149262835
1782831607676195300,7.5701953125,-0.06314765330851077,-0.009016151967004407,0.0016346711196689283
1782831607686124300,7.580124267578125,-0.07107844630777835,0.002029539345271769,0.0006678998844130546
1782831607696053500,7.590053466796875,-0.07407119838297367,-0.0007597211950880591,0.0004931246998748975
1782831607705982500,7.599982421875,-0.07062953349649906,-0.006846252019683015,-0.007939050512603716
1782831607715911400,7.609911376953125,-0.08275076392292977,0.00021963181676110252,0.0012033068085787817
1782831607725840400,7.61984033203125,-0.07362287009358405,-0.003391861224020249,-0.00005169194215268362
1782831607735769600,7.62976953125,-0.0673380907356739,-0.0011086242518373183,0.0002615803955006413
1782831607745698600,7.639698486328125,-0.07182721884846686,-0.004277734401414636,0.006634664799593156
1782831607755627500,7.64962744140625,-0.07467033331990242,-0.001578363794958568,0.0049946550656924955
1782831607765556200,7.65955615234375,-0.08095511267781257,-0.008079049213405232,-0.0036719468176466758
1782831607775485400,7.6694853515625,-0.07811199820637703,-0.0005637405382061842,0.003566899557573197
1782831607785414400,7.679414306640625,-0.07706453498005866,-0.009306924207659903,0.003010668470265227
1782831607795343400,7.68934326171875,-0.0769148973762989,-0.003708949222388037,0.010574455358867998
1782831607805272300,7.699272216796875,-0.0712286684334278,0.0009318354921371792,0.002746697471567313
1782831607815201300,7.709201171875,-0.07886018622517585,0.0004277481527198688,-0.005120011036499636
1782831607825130500,7.719130615234375,-0.08858663046956061,-0.0017622995334866571,0.0040991681015148055
1782831607835059500,7.7290595703125,-0.08005728705525397,0.00008383465245278784,0.004619126009388128
1782831607844988400,7.738988525390625,-0.07721417258381844,0.0038596999293557016,-0.00649221498844563
1782831607854917400,7.74891748046875,-0.08110475028157234,-0.003761037315118301,0.0024985576545965157
1782831607864846600,7.7588466796875,-0.08185293830037116,-0.0006537497739409446,0.009061099645361536
1782831607874775300,7.768775390625,-0.07317395728230476,-0.0069112954921089105,0.003296700032899389
1782831607884704300,7.778704345703125,-0.06584171469807625,-0.006041316857701167,0.0016173529462204896
1782831607894633200,7.78863330078125,-0.0712286684334278,0.001639795961002528,0.007695220402925042
1782831607904562400,7.7985625,-0.0778127229988575,-0.005492309810212464,-0.0023109526712374643
1782831607914491400,7.808491455078125,-0.08275076392292977,-0.00186343980130041,-0.004561084526962076
1782831607924420400,7.81842041015625,-0.08140402548909187,-0.001161756949116534,-0.0009010781672142912
1782831607934349300,7.828349365234375,-0.07182721884846686,0.0083913814069645,-0.003376090549441869
1782831607944278500,7.838278564453125,-0.0721264940559864,-0.0005246069689383148,-0.0005116226200181699
1782831607954207500,7.84820751953125,-0.08649111949503421,-0.0009133043216032092,-0.00940155738828471
1782831607964136400,7.858136474609375,-0.08334872981607913,-0.003293063610342506,0.005934483495095628
1782831607974066400,7.86806640625,-0.08020634013712406,-0.000744334683821944,0.006021061804250348
1782831607983995400,7.877995361328125,-0.06763678142130375,-0.0006653976854839129,-0.0008890458069479791
1782831607993924400,7.88792431640625,-0.07122808391153812,-0.0041710831310774665,0.0035902869976154757
1782831608003853300,7.897853271484375,-0.07841127341389656,-0.00012706586858112132,0.009081618418649304
1782831608013782500,7.907782470703125,-0.07317395728230476,-0.0013106573360593757,0.0026101659445528637
1782831608023711500,7.91771142578125,-0.08334931433796883,-0.001980350743692543,-0.0004624587064972729
1782831608033640400,7.927640380859375,-0.0764659845650196,-0.0006758617118714028,0.0017019624897526228
1782831608043569400,7.9375693359375,-0.07392214530110358,-0.009302080781650146,-0.007951637712007504
1782831608053498600,7.94749853515625,-0.07347323248982429,-0.003975741224190278,0.0056860565545794085
1782831608063427300,7.95742724609375,-0.07975801184773444,-0.0020046343745227205,0.005217030253744451
1782831608073356300,7.967356201171875,-0.08798808005452155,0.00031682770346378673,-0.001395523321445944
1782831608083285200,7.97728515625,-0.08484569037556648,-0.008684391841301112,-0.001376136060380668
1782831608093214500,7.98721435546875,-0.06569207709431647,-0.003972385075312923,0.003741973282099934
1782831608103143400,7.997143310546875,-0.0739215607792139,-0.004160024878823606,-0.001771449527266668
1782831608113072400,8.007072265625,-0.07811141368448733,-0.001725555140360666,-0.0016692381116736213
1782831608123001300,8.01700146484375,-0.07242518474161624,-0.0075983792821934905,0.006660581267205998
1782831608132930600,8.0269306640625,-0.07990706492960453,0.0017790394640891463,-0.004690908608210156
1782831608142859500,8.036859619140625,-0.07691431285440921,-0.007021963067149044,-0.011118888408405473
1782831608152788500,8.04678857421875,-0.08140344096720219,-0.005585340693040052,0.002871858221196453
1782831608162717400,8.056717529296876,-0.0787099640995264,-0.0014767899877158924,0.00022754997632437151
1782831608172646400,8.066646484375,-0.08170271617472172,-0.005137859503732761,0.002197504906877293
1782831608182575400,8.076575439453125,-0.07197627193033695,-0.0041469810216935,0.004776734288349689
1782831608192504300,8.08650439453125,-0.08424655543863772,0.0003249941706657409,-0.000311237071249343
1782831608202433300,8.096433349609375,-0.0787099640995264,-0.007483204495394602,0.004299485579741303
1782831608212362200,8.1063623046875,-0.07122808391153812,-0.006231737421354046,-0.006399718965979991
1782831608222291500,8.11629150390625,-0.07616612483561039,0.0011154281665483722,-0.004529024585874867
1782831608232220400,8.126220458984376,-0.07347264796793461,0.00007146493629115866,0.0006682810509089904
1782831608242149400,8.1361494140625,-0.0805056153446436,0.0005357905166558339,-0.007663620259086019
1782831608252078300,8.146078369140625,-0.07930851451456546,-0.00006117643771722214,0.0011172846942641625
1782831608262007600,8.156007568359374,-0.0791588769108057,-0.009584351767908082,-0.0021017215196043252
1782831608271936500,8.1659365234375,-0.07721358806192874,-0.004952881729355431,-0.001096048254818379
1782831608281865500,8.175865478515625,-0.0778121384769678,-0.006750564530532574,0.005285192127618938
1782831608291794200,8.185794189453125,-0.0791588769108057,-0.002998652378430415,-0.004150446768425172
1782831608301723400,8.195723388671874,-0.07841068889200686,-0.006388283114868681,0.0010073726737027755
1782831608311652400,8.20565234375,-0.06943243266642093,-0.009195633294823346,-0.0025683035599591677
1782831608321581300,8.215581298828125,-0.09636720134317875,0.0032898829892787033,0.00904701403779327
1782831608331510300,8.22551025390625,-0.08469546824991703,0.002507855205904343,0.0003644094406685326
1782831608341439500,8.235439453125,-0.07362228557169437,-0.006152358892076881,-0.0043861466581089185
1782831608351368400,8.245368408203126,-0.0743704735904932,-0.00017060247456392972,0.008080510518129448
1782831608361297400,8.25529736328125,-0.07646540004312992,0.0010460170483813272,0.0004586085110422573
1782831608371226400,8.265226318359375,-0.0730237351566553,-0.0011119818277700688,-0.006757405263272813
1782831608381155600,8.275155517578124,-0.06643968059122562,-0.0008116431785703753,0.0051897101344453404
1782831608391085300,8.285085205078126,-0.08364800502359866,-0.0005313301123140263,-0.005610741137422155
1782831608401014300,8.29501416015625,-0.079607789722085,-0.005760085338592762,-0.012675372019229688
1782831608410943500,8.304943603515625,-0.08020634013712406,-0.00037619863069558046,-0.0109039715826686
1782831608420872400,8.31487255859375,-0.0739215607792139,-0.0010554133519224706,0.0001549973740877249
1782831608430801400,8.324801513671876,-0.0739215607792139,-0.009614356463815784,0.006500181953303399
1782831608440730400,8.33473046875,-0.08170271617472172,-0.004758414892836299,0.0034333400161238384
1782831608450659600,8.34465966796875,-0.07721358806192874,-0.0035167685286112828,0.0031870622210321015
1782831608460588500,8.354588623046874,-0.07466974879801273,-0.0036868589756995787,0.002000977402368153
1782831608470517500,8.364517578125,-0.07601648723185062,-0.007006950444396352,0.0065003063925338205
1782831608480446500,8.374446533203125,-0.07407119838297367,-0.0011258887680029148,-0.00006062188399082515
1782831608490375200,8.384375244140625,-0.07661503764688968,-0.0019367581971382604,-0.0026324850909266386
1782831608500304400,8.394304443359376,-0.08499474345743656,0.007364486044639488,0.0024481452103107585
1782831608510233300,8.4042333984375,-0.07197627193033695,0.00003226971823023632,-0.010973931546340463
1782831608520162300,8.414162353515625,-0.0695820702701807,-0.0005484813202812802,-0.0036606374036433405
1782831608530091500,8.424091552734374,-0.07452011119425296,0.002227766472756048,-0.0006204597111034672
1782831608540020500,8.4340205078125,-0.07511866160929202,-0.001003626938702655,-0.0067412852455337995
1782831608549949400,8.443949462890625,-0.0805056153446436,0.00004714648530934937,0.0006531418483427841
1782831608559878400,8.45387841796875,-0.07511866160929202,-0.006480464043503161,-0.004138789723727677
1782831608569807600,8.4638076171875,-0.08424655543863772,-0.0061705019035434815,0.0011396266735242534
1782831608579736600,8.473736572265626,-0.07751286326944827,0.0024350736683059946,0.007282735178474104
1782831608589665500,8.48366552734375,-0.09187807323038577,-0.0013805682090256596,0.005592934911028714
1782831608599594200,8.49359423828125,-0.07945815211832523,-0.002374144396583142,-0.002847606556407118
1782831608609523500,8.5035234375,-0.07616612483561039,0.0009836461652987054,-0.00004988676167381527
1782831608619452400,8.513452392578126,-0.07945815211832523,-0.008570347853197017,-0.001495572319999337
1782831608629381400,8.52338134765625,-0.07885960170328617,0.00019455531395360593,-0.0052369433847226894
1782831608639310300,8.533310302734375,-0.07212590953409671,-0.006619711542344885,-0.004561370223452104
1782831608649239600,8.543239501953124,-0.07347264796793461,-0.0069013049627013965,0.0023958108078193617
1782831608659168500,8.55316845703125,-0.07586684962809086,-0.0009884967265854356,-0.0015342358172201784
1782831608669097500,8.563097412109375,-0.08649111949503421,0.0007129591585020534,-0.002485451863262278
1782831608679026400,8.5730263671875,-0.07706395045816898,-0.007570229758298955,0.003912237259124231
1782831608688955600,8.58295556640625,-0.07706453498005866,-0.0003328555334242992,-0.0011978665880029438
1782831608698884600,8.592884521484375,-0.07586684962809086,-0.006840047182826674,-0.0008382043898105621
1782831608708813300,8.602813232421875,-0.07496960852742195,-0.0052838729576120385,-0.0015641364807896024
1782831608718742300,8.6127421875,-0.07796236060261726,-0.002361613137750828,-0.007760065800062148
1782831608728671500,8.62267138671875,-0.07287468207478523,0.0027327548549495985,-0.0018708540676037955
1782831608738600400,8.632600341796875,-0.07272504447102546,0.004481005598897172,0.0014561686091452428
1782831608748529400,8.642529296875,-0.07856032649576664,0.0009120051303718355,0.005984442421176936
1782831608758458400,8.652458251953124,-0.08005728705525397,-0.006740959876903798,0.004087260465889995
1782831608768387600,8.6623876953125,-0.07945873664021491,-0.004955866558419075,0.0032382641123622304
1782831608778317600,8.672317626953125,-0.07571779654622078,-0.001974143908958649,-0.007260027873032959
1782831608788246300,8.682246337890625,-0.08409750235676765,0.0014973706952077918,-0.0012887877121349448
1782831608798175200,8.69217529296875,-0.07601707175374031,-0.004733765935825068,0.0029231508732496876
1782831608808104400,8.7021044921875,-0.07422142050862311,-0.005065762381901731,0.01136847240543575
1782831608818033400,8.712033447265625,-0.07541852133870125,-0.0027825413927392217,0.0076840282928751545
1782831608827962400,8.72196240234375,-0.07871054862141609,-0.007532822640647646,-0.000669014842792967
1782831608837891300,8.731891357421874,-0.08185293830037116,-0.0036732203218809443,0.0030972022552916314
1782831608847820500,8.741820556640626,-0.08260112631916999,-0.0014734957730426685,0.0037070800652320027
1782831608857749500,8.75174951171875,-0.07886018622517585,-0.00007738436206855113,-0.002616663327765127
1782831608867678500,8.761678466796875,-0.07452069571614266,-0.005391536866457318,0.0007533583831995202
1782831608877607400,8.771607421875,-0.0764659845650196,0.001278533177479403,-0.00376825793000462
1782831608887536600,8.78153662109375,-0.07392214530110358,-0.0013138570796654675,-0.0013609139458960271
1782831608897465300,8.79146533203125,-0.0778127229988575,-0.002769247230092878,0.0017968650984359555
1782831608907394300,8.801394287109375,-0.07496902400553226,0.0009137798164607374,0.00214385575825072
1782831608917323300,8.8113232421875,-0.08484510585367679,-0.00674336988805444,-0.004957202282268554
1782831608927252500,8.82125244140625,-0.08634148189127444,-0.0007276395627588499,-0.0005302953544472984
1782831608937181400,8.831181396484375,-0.07856032649576664,0.0003990703329181997,-0.0002755890134303627
1782831608947110400,8.8411103515625,-0.08619242880940436,-0.0013552302696698462,-0.006987549340893747
1782831608957039400,8.851039306640626,-0.08619184428751468,-0.003962541818022146,-0.0009233833997979673
1782831608966968600,8.860968505859375,-0.08768822032511234,-0.0017667998953795176,-0.00784102436507237
1782831608976897500,8.8708974609375,-0.08484510585367679,0.006647843941574683,-0.009526864839208428
1782831608986826500,8.880826416015625,-0.08723930751383305,-0.0024388353863265366,-0.012348572908900677
1782831608996755500,8.89075537109375,-0.0730237351566553,0.0012631446683357352,-0.0013561694148251262
1782831609006684400,8.900684326171875,-0.0787099640995264,0.0018769996816612546,-0.001176901075023852
1782831609016613400,8.91061328125,-0.07496902400553226,-0.002809836110452306,-0.007192048662248998
1782831609026542300,8.920542236328124,-0.0782610512882471,-0.0032903616236581,-0.0030125898576487085
1782831609036471300,8.93047119140625,-0.06629004298746585,-0.008735876004188322,-0.0018590085088886553
1782831609046400500,8.940400390625,-0.08574293147623538,-0.007179722328571369,-0.0035665125401501425
1782831609056329500,8.95032958984375,-0.08260054179728031,0.0032945551686410905,-0.003930430788351804
1782831609066258400,8.960258544921874,-0.07706395045816898,-0.006155252960417419,-0.005935943087353371
1782831609076187400,8.9701875,-0.07407119838297367,-0.0016721787020200281,-0.0006519051621377002
1782831609086116600,8.98011669921875,-0.07122808391153812,-0.004627784525290189,0.0055779987784451805
1782831609096045600,8.990045654296875,-0.08364800502359866,-0.0020324759398630704,-0.007187712126315454
1782831609105974500,8.999974609375,-0.07571721202433108,-0.0031871712480642596,0.0045481528363859975
1782831609115903500,9.009903564453126,-0.07422083598673343,0.0030692251196887807,0.0006275299143511802
1782831609125832400,9.01983251953125,-0.0752682992130518,-0.0028663155380432726,0.004221991334407357
1782831609135761400,9.029761474609375,-0.08544365626871585,-0.0027530878256249707,-0.006017270974299754
1782831609145690400,9.0396904296875,-0.07466974879801273,-0.00895369032319868,-0.0017033711361327732
1782831609155619300,9.049619384765625,-0.07362228557169437,-0.005070634349019383,-0.0008415945026063127
1782831609165548300,9.05954833984375,-0.07601648723185062,0.0018003362679781276,-0.003209792359359562
1782831609175477500,9.0694775390625,-0.07631576243937015,0.002189033049820864,-0.0024421173283233656
1782831609185407500,9.079407470703124,-0.07107844630777835,-0.0030976897374144752,-0.008503367010367219
1782831609195336400,9.08933642578125,-0.07317337276041508,-0.001329680555293453,-0.006359762556571513
1782831609205265400,9.099265380859375,-0.07586684962809086,-0.009263631342738518,-0.0011301050031666817
1782831609215194400,9.1091943359375,-0.07018062068521976,0.00032052548940264384,-0.0026904800513468216
1782831609225123300,9.119123291015624,-0.06763678142130375,-0.0016656108222712646,-0.005705164255492855
1782831609235052300,9.12905224609375,-0.07257482234537602,0.005463701916125137,0.003735335762047907
1782831609244981500,9.1389814453125,-0.08364800502359866,0.004266315674968064,0.0019448799975063592
1782831609254910500,9.148910400390625,-0.07975742732584476,-0.002666185289484565,-0.007789164030383108
1782831609264839400,9.15883935546875,-0.08619184428751468,0.000039977529828320255,-0.003629018137262028
1782831609274768400,9.168768310546875,-0.0730237351566553,0.002274956340549397,-0.008594789887176012
1782831609284697600,9.178697509765625,-0.07003098308146,-0.0016948765888955676,-0.005039751157810678
1782831609294626600,9.18862646484375,-0.07706395045816898,-0.002131111154636892,-0.005119329474843107
1782831609304555500,9.198555419921876,-0.07018062068521976,0.002728293594374554,0.00041482459635954
1782831609314484500,9.208484375,-0.07197627193033695,0.0009715144819769192,-0.0019077371705141558
1782831609324413400,9.218413330078125,-0.08245090419352054,-0.0022701925442306673,0.0035944488619687035
1782831609334342400,9.22834228515625,-0.07646540004312992,-0.004213592827998218,-0.0016493970469928171
1782831609344271400,9.238271240234376,-0.07047989589273929,0.0076690013995685145,0.0037809130572451976
1782831609354200300,9.248200439453125,-0.07616612483561039,-0.003553539464967616,-0.010540029074525227
1782831609364129500,9.258129638671875,-0.08230126658976078,-0.001756562199977634,0.00304995587610465
1782831609374058500,9.26805859375,-0.07571721202433108,-0.001750888798550295,0.0007365246950575965
1782831609383987500,9.277987548828126,-0.08095452815592288,-0.004213279732044611,-0.00391504427708569
1782831609393916400,9.28791650390625,-0.07721358806192874,0.0029369256681529804,-0.010845773980382363
1782831609403845600,9.297845703125,-0.08634148189127444,-0.00398520317227958,-0.0028307655902826807
1782831609413774600,9.307774658203124,-0.08170271617472172,-0.008634640694485279,-0.007610029191614012
1782831609423701500,9.317701416015625,-0.07990706492960453,-0.012139266123331617,-0.010381541444029425
1782831609433630500,9.32763037109375,-0.08005670253336429,-0.0004832828696395154,-0.002899710346746724
1782831609443559400,9.337559326171874,-0.06718786861002445,-0.0015504545871925074,-0.0002372563790027925
1782831609453488400,9.34748828125,-0.07003098308146,-0.0020818888745503497,-0.0057704080864961725
1782831609463417600,9.35741748046875,-0.07721358806192874,-0.0017358579094885497,-0.006587188379076542
1782831609473346600,9.3673466796875,-0.07287409755289555,-0.001106080953712808,-0.003277499287974206
1782831609483275500,9.377275634765626,-0.07736322566568851,0.0009635834789150976,0.002529081227845745
1782831609493204500,9.38720458984375,-0.08140344096720219,-0.006201743000245187,-0.0035764645390619987
1782831609503133400,9.397133544921875,-0.07646540004312992,0.006756689452286809,-0.00631657472292718
1782831609513062700,9.407062744140624,-0.07676467525064945,0.005513719636888709,0.0014991687850051676
1782831609522991600,9.41699169921875,-0.08903495875895023,-0.003545432363270083,-0.0028398898970655863
1782831609532920800,9.4269208984375,-0.07900923930704593,-0.005236595183206373,-0.0019174952325978665
1782831609542849800,9.436849853515625,-0.07601648723185062,0.00975129555785097,-0.0076226597735018
1782831609552778800,9.44677880859375,-0.0834983674198389,-0.002158021138215554,-0.006809381474860128
1782831609562707700,9.456707763671876,-0.07811141368448733,-0.006033847649765084,0.004587714236861211
1782831609572637000,9.466636962890625,-0.08783785792887211,-0.0061201154316659085,0.0002669779471201764
1782831609582566000,9.47656591796875,-0.08319909221231937,0.0016055215153537572,-0.0075806421252811555
1782831609592494800,9.486494873046874,-0.0782610512882471,-0.0024546046338495215,-0.0038301341956874235
1782831609602423600,9.496423583984376,-0.07631576243937015,0.0019286288333765695,0.004185399065386446
1782831609612352800,9.506352783203125,-0.07706395045816898,-0.0017864747081068344,-0.005557599306988413
1782831609622281700,9.51628173828125,-0.09098024760782718,0.002349770575852017,-0.002635523006450967
1782831609632210700,9.526210693359374,-0.07556757442057133,-0.002120165925170295,-0.004499823036743328
1782831609642139600,9.5361396484375,-0.07571721202433108,-0.0028721667505727964,0.0036470889397256538
1782831609652068900,9.54606884765625,-0.08215162898600101,-0.007065620116607169,0.004911061585601419
1782831609661997800,9.555997802734375,-0.07661503764688968,-0.01237858559631859,-0.0037778089263505532
1782831609671926800,9.5659267578125,-0.07107844630777835,-0.0018566689942745142,-0.000894125553331105
1782831609681855700,9.575855712890625,-0.0730237351566553,-0.0038904438399578792,-0.006773273548440192
1782831609691785700,9.58578564453125,-0.0695820702701807,0.0017698526522799511,-0.005709027579857502
1782831609701714700,9.595714599609375,-0.08035597774088382,0.0007816127956655691,-0.0015923830444509804
1782831609711643600,9.6056435546875,-0.07332301036417484,-0.0028281937510502755,-0.004124131010712881
1782831609721572900,9.61557275390625,-0.07706395045816898,-0.0035675071977602783,-0.010519158674788195
1782831609731501800,9.625501708984375,-0.0834983674198389,0.007931361538136844,-0.0032983143179619217
1782831609741430800,9.6354306640625,-0.079607789722085,-0.004057514352419821,-0.006302469136583386
1782831609751359700,9.64535986328125,-0.07990706492960453,0.00027098783007386374,-0.009442823263723402
1782831609761289000,9.6552890625,-0.08065525294840335,-0.0039080928048468196,-0.006152901173126883
1782831609771218000,9.665218017578125,-0.07796177608072757,-0.008130401516373967,0.005093736663393793
1782831609781147000,9.67514697265625,-0.08469546824991703,0.0001513355142684304,0.004411601330596022
1782831609791075600,9.68507568359375,-0.08469546824991703,0.004678763225156581,-0.004595614986348664
1782831609801004800,9.6950048828125,-0.0638958413273096,0.006016825162194436,-0.010398078161943703
1782831609810933800,9.704933837890625,-0.07975742732584476,-0.006732419235777342,0.0020241988758680236
1782831609820862700,9.71486279296875,-0.07182663432657718,-0.005566271237211185,0.0016853675479782395
1782831609830791700,9.724791748046876,-0.07047989589273929,-0.0025684653880409312,-0.004686634006480744
1782831609840721000,9.734720947265625,-0.07930851451456546,-0.004110269450841588,-0.004284277164988452
1782831609850649900,9.74464990234375,-0.08364800502359866,-0.0019459949558862718,-0.0024900621084205338
1782831609860578800,9.754578857421874,-0.0839472802311182,-0.001445951606046583,-0.00803824456227012
1782831609870507800,9.7645078125,-0.0843961930423975,0.002652296330149693,-0.010874133566831005
1782831609880436700,9.774436767578125,-0.08020634013712406,0.005294807056046557,-0.008736728812492218
1782831609890366000,9.784365966796875,-0.07556757442057133,-0.003219553132848523,-0.0011483785902019008
1782831609900294700,9.794294677734374,-0.07721358806192874,-0.004433925614369218,0.0001525288179895142
1782831609910223600,9.8042236328125,-0.06569149257242679,0.0011010106258952873,-0.011081779259920585
1782831609920152600,9.814152587890625,-0.06464461386799812,-0.002392946993053192,-0.006526266242630663
1782831609930081800,9.824081787109375,-0.07751344779133797,-0.003899343813632731,-0.0033146386900334618
1782831609940010800,9.8340107421875,-0.09980945075154304,-0.009483610790193778,0.00035825883191719184
1782831609949939700,9.843939697265625,-0.10818915656208991,0.004028058502016938,0.0022942735331947916
1782831609959868700,9.85386865234375,-0.1078892968326807,0.009498657662275945,0.0053069404518348165
1782831609969798000,9.8637978515625,-0.09891104060709476,-0.0028553694523434387,0.0011673178985787671
1782831609979726800,9.873726806640626,-0.08379764262735843,-0.00617988336570852,-0.003939889311508159
1782831609989655800,9.88365576171875,-0.03142448131144047,-0.013412163002823944,-0.001299392446184356
1782831609999584800,9.893584716796875,-0.0634469285160303,-0.011450768977584083,-0.0014904083773479215
1782831610009513700,9.903513671875,-0.08604220668375491,-0.013669650603452464,-0.005780502505536423
