time,seconds_elapsed,z,y,x
1782831600179790600,0.07379052734375,0.0015936009585857391,0.0023159775882959366,-0.0016576116904616356
1782831600189719600,0.083719482421875,-0.0008767126128077507,0.0009707622230052948,0.0019857496954500675
1782831600199648500,0.0936484375,-0.00021358579397201538,0.00035024527460336685,0.000012613367289304733
1782831600209577500,0.103577392578125,-0.0019075404852628708,0.001031225547194481,0.0007582386024296284
1782831600219506400,0.11350634765625,0.0002347063273191452,-0.00019915495067834854,-0.0016423347406089306
1782831600229435600,0.123435546875,0.0025487802922725677,-0.0005069281905889511,0.002126061823219061
1782831600239364600,0.133364501953125,0.0002523362636566162,0.00006778165698051453,0.0003931424580514431
1782831600249293600,0.14329345703125,0.00006890390068292618,-0.0012799007818102837,0.0013471893034875393
1782831600259222500,0.153222412109375,0.0004590563476085663,-0.0011978754773736,0.0008182856254279613
1782831600269151500,0.1631513671875,-0.0003640623763203621,0.001518229953944683,0.0030016941018402576
1782831600279080700,0.173080810546875,-0.000837838277220726,0.0002825232222676277,0.004331410396844149
1782831600289009700,0.183009765625,-0.0006240988150238991,0.0010990863665938377,-0.0008506942540407181
1782831600298938600,0.192938720703125,0.00016020238399505615,0.00036831479519605637,-0.0014536338858306408
1782831600308867300,0.202867431640625,0.0007804529741406441,0.001287904568016529,-0.00005707237869501114
1782831600318796500,0.212796630859375,-0.0024251947179436684,0.00036325491964817047,0.0012508057989180088
1782831600328725500,0.2227255859375,0.00044069718569517136,0.00017385277897119522,-0.00030246563255786896
1782831600338654500,0.232654541015625,-0.0012107286602258682,-0.0008035274222493172,0.003183345776051283
1782831600348583400,0.24258349609375,-0.00024823378771543503,0.00023338384926319122,0.0025301831774413586
1782831600358512600,0.2525126953125,0.002008263021707535,-0.0001631602644920349,0.0013815616257488728
1782831600368441600,0.262441650390625,0.002443358302116394,0.0017863214015960693,-0.0012878752313554287
1782831600378370600,0.27237060546875,-0.0012136949226260185,0.0007908325642347336,-0.0015920083969831467
1782831600388299500,0.282299560546875,-0.0011399965733289719,0.0019145384430885315,0.0005245921202003956
1782831600398228700,0.292228759765625,-0.003103545866906643,0.0013113319873809814,-0.0008448055014014244
1782831600408157700,0.30215771484375,0.0013801325112581253,0.00035957712680101395,0.0010834108106791973
1782831600418086700,0.312086669921875,-0.0021733231842517853,0.0007438706234097481,0.0008240188471972942
1782831600428015400,0.322015380859375,-0.002022293396294117,-0.0004717223346233368,0.0014662151224911213
1782831600437944600,0.331944580078125,0.0016312971711158752,-0.000966271385550499,0.0012947074137628078
1782831600447873500,0.34187353515625,-0.0011957567185163498,-0.0023454781621694565,0.0002048206515610218
1782831600457802500,0.351802490234375,0.0012298505753278732,-0.0009427918121218681,0.0029992754571139812
1782831600467731500,0.3617314453125,0.00029772333800792694,-0.0012953365221619606,-0.0013897926546633244
1782831600477660700,0.37166064453125,-0.0023124413564801216,0.00046181678771972656,-0.0007887170650064945
1782831600487589600,0.381589599609375,0.0007501570507884026,-0.0009894156828522682,-0.000802074559032917
1782831600497515300,0.391515380859375,0.0018332647159695625,-0.002077849581837654,-0.0012380341067910194
1782831600507444200,0.4014443359375,-0.00042998045682907104,-0.00025766901671886444,-0.0004611816257238388
1782831600517373200,0.411373291015625,0.0013428861275315285,-0.0011945683509111404,-0.00033761095255613327
1782831600527302100,0.42130224609375,-0.002008216455578804,0.0005836151540279388,0.0007050433196127415
1782831600537231000,0.431231201171875,-0.0010265745222568512,0.0007543237879872322,-0.00008671404793858528
1782831600547160000,0.44116015625,0.0016380921006202698,-0.0021739136427640915,-0.0005849851295351982
1782831600557089000,0.451089111328125,-0.0013230768963694572,0.0000905720517039299,0.00031356560066342354
1782831600567018000,0.46101806640625,0.00013078004121780396,0.0016203662380576134,-0.0016888235695660114
1782831600576947200,0.470947265625,-0.0005027856677770615,0.00008558668196201324,-0.000528218224644661
1782831600586876200,0.480876220703125,-0.0024224016815423965,0.001096854917705059,0.0012889248318970203
1782831600596805000,0.49080517578125,0.000053538940846920013,-0.001101585105061531,-0.0007553175091743469
1782831600606734000,0.500734130859375,-0.0009799506515264511,-0.0006929663941264153,-0.0006967117078602314
1782831600616663300,0.510663330078125,-0.0012049879878759384,0.0004734983667731285,-0.0005619553849101067
1782831600626592300,0.52059228515625,-0.0010974863544106483,-0.001151316799223423,-0.00035790493711829185
1782831600636521200,0.530521240234375,0.000022905878722667694,-0.00038698967546224594,0.0018700952641665936
1782831600646450000,0.540449951171875,-0.0012879874557256699,-0.000568777322769165,0.001411170233041048
1782831600656379100,0.550379150390625,0.00023054704070091248,-0.0004249662160873413,0.0006513702683150768
1782831600666308000,0.56030810546875,0.0006002206355333328,0.00028996728360652924,0.000026967376470565796
1782831600676237000,0.570237060546875,0.0023797452449798584,-0.0006261607632040977,0.0010528168641030788
1782831600686166000,0.580166015625,0.0013273870572447777,0.0012651868164539337,0.002188493963330984
1782831600696095200,0.59009521484375,-0.0005874251946806908,-0.0027854805812239647,-0.0026086578145623207
1782831600706024200,0.600024169921875,-0.0004244707524776459,-0.0009025046601891518,-0.002031395211815834
1782831600715953200,0.609953125,0.0014898097142577171,-0.0011030398309230804,0.0024749389849603176
1782831600725882000,0.619882080078125,0.0008087940514087677,0.001879887655377388,0.002335637342184782
1782831600735811300,0.629811279296875,0.0013467520475387573,-0.0013550538569688797,0.0020022098906338215
1782831600745740300,0.639740234375,-0.001763838343322277,-0.001271035522222519,0.0010995329357683659
1782831600755669000,0.6496689453125,-0.0006082933396100998,0.0010954495519399643,0.0016159196384251118
1782831600765598000,0.659597900390625,-0.0011118361726403236,0.0012134481221437454,-0.0015602102503180504
1782831600775527200,0.669527099609375,0.00022906530648469925,-0.0007405132055282593,-0.0016409042291343212
1782831600785456000,0.6794560546875,0.000017484650015830994,-0.003010297194123268,0.0012421277351677418
1782831600795385000,0.689385009765625,0.00031762290745973587,0.0026318756863474846,0.0011601024307310581
1782831600805314000,0.69931396484375,-0.0007682926952838898,-0.0024442095309495926,0.0022488622926175594
1782831600815243300,0.7092431640625,0.0023390837013721466,-0.001887609250843525,0.00016653677448630333
1782831600825172200,0.719172119140625,-0.00074014812707901,-0.0003947317600250244,0.00033908942714333534
1782831600835101200,0.72910107421875,0.0009288545697927475,-0.0009966064244508743,0.0025143600068986416
1782831600845030100,0.739030029296875,-0.0003958083689212799,-0.0015211813151836395,-0.00022543035447597504
1782831600854959400,0.74895947265625,0.0015773279592394829,-0.001199738122522831,-0.0006342255510389805
1782831600864888000,0.75888818359375,0.0020263437181711197,-0.0031883874908089638,-0.0020313900895416737
1782831600874817000,0.768817138671875,-0.002467208541929722,0.000522194430232048,0.00229438254609704
1782831600884746000,0.77874609375,-0.000390748493373394,-0.0013896217569708824,-0.00039267679676413536
1782831600894675200,0.78867529296875,0.002048441208899021,-0.0006026569753885269,-0.00047496845945715904
1782831600904604200,0.798604248046875,-0.0011295294389128685,-0.0013719862326979637,0.0006564301438629627
1782831600914533000,0.808533203125,0.0005149729549884796,0.0002631945535540581,0.0012212865985929966
1782831600924462000,0.818462158203125,-0.0014587976038455963,-0.0003261873498558998,-0.00022766366600990295
1782831600934391300,0.828391357421875,-0.000777028501033783,0.001014447771012783,-0.00041009020060300827
1782831600944320300,0.8383203125,0.0005326056852936745,0.0010315338149666786,-0.00022325897589325905
1782831600954249200,0.848249267578125,-0.00004237145185470581,-0.0023626647889614105,0.0017560026608407497
1782831600964178200,0.85817822265625,-0.0012278370559215546,0.0009653959423303604,-0.000624858308583498
1782831600974108200,0.868108154296875,0.0014800652861595154,0.0002790987491607666,-0.00041553378105163574
1782831600984037000,0.878037109375,-0.0014129336923360825,0.00029567722231149673,0.0008737719617784023
1782831600993966000,0.887966064453125,0.0007849736139178276,0.000989164225757122,0.0008668475784361362
1782831601003894000,0.89789404296875,0.0003976123407483101,0.001423426903784275,-0.0009989277459681034
1782831601013823000,0.907822998046875,-0.0012378348037600517,-0.0023145852610468864,0.0019776872359216213
1782831601023752200,0.917752197265625,0.002222553826868534,-0.0016418388113379478,0.0007008635438978672
1782831601033682200,0.92768212890625,0.001585792750120163,-0.0003462107852101326,0.0014955508522689342
1782831601043611100,0.937611083984375,-0.0007139844819903374,-0.001348193734884262,0.002171230036765337
1782831601053540400,0.947540283203125,-0.0009392872452735901,-0.0007846690714359283,-0.002306608948856592
1782831601063469000,0.957468994140625,-0.001989448443055153,-0.0024014748632907867,-0.0003331410698592663
1782831601073398000,0.96739794921875,0.0003911508247256279,-0.0010299468412995338,-0.002813076600432396
1782831601083327000,0.977326904296875,0.0035763271152973175,-0.001514645293354988,0.0007845512591302395
1782831601093256200,0.987256103515625,-0.000014413148164749146,-0.0010914690792560577,0.0003437981940805912
1782831601103185200,0.99718505859375,-0.002173461951315403,0.00015973858535289764,0.0006421576254069805
1782831601113114000,1.007114013671875,-0.00005278643220663071,0.0006617438048124313,0.000765728298574686
1782831601123043000,1.01704296875,-0.00021550524979829788,0.0003528175875544548,0.0005159233696758747
1782831601132972300,1.02697216796875,0.0014577582478523254,0.0028103822842240334,0.00019288202747702599
1782831601142901200,1.0369013671875,0.0009026853367686272,0.0036302218213677406,-0.0008756588213145733
1782831601152830200,1.046830322265625,0.0011381087824702263,-0.0003860918805003166,0.0014655259437859058
1782831601162759200,1.05675927734375,0.000486982986330986,0.00003482401371002197,-0.0007825824432075024
1782831601172688100,1.066688232421875,-0.002478979527950287,-0.000415249727666378,0.00031437305733561516
1782831601182617000,1.0766171875,0.0002905838191509247,0.000616900622844696,0.000049670692533254623
1782831601192546000,1.086546142578125,-0.0001267334446310997,0.0007796194404363632,-0.0018307873979210854
1782831601202475000,1.09647509765625,-0.002288178540766239,-0.0018488680943846703,0.001340856309980154
1782831601212404200,1.106404296875,0.0014892490580677986,-0.0007393946871161461,0.0005288585089147091
1782831601222333200,1.116333251953125,-0.00006289314478635788,-0.002417502924799919,0.001819727011024952
1782831601232262100,1.12626220703125,-0.0009563835337758064,0.001493348740041256,-0.00011239666491746902
1782831601242191000,1.136191162109375,0.0006383545696735382,-0.00028385594487190247,-0.0023383935913443565
1782831601252120300,1.146120361328125,-0.00045087840408086777,0.00027327705174684525,-0.0016928436234593391
1782831601262049300,1.15604931640625,0.001681959256529808,-0.0005624359473586082,-0.0013344134204089642
1782831601271978200,1.165978271484375,-0.0020821532234549522,-0.0009704325348138809,-0.0008726213127374649
1782831601281907200,1.1759072265625,-0.00040486641228199005,-0.002098681405186653,-0.00044755544513463974
1782831601291836200,1.185836181640625,0.0013288510963320732,0.000011873431503772736,-0.000891237985342741
1782831601301765000,1.19576513671875,0.0014407970011234283,0.0017210589721798897,0.0013564955443143845
1782831601311694000,1.205694091796875,0.0005443766713142395,0.001397484913468361,0.00035115238279104233
1782831601321623000,1.215623046875,0.0004505002871155739,-0.0001564258709549904,-0.000593733973801136
1782831601331552300,1.22555224609375,-0.0025855032727122307,0.0010001854971051216,-0.0015103938058018684
1782831601341481200,1.235481201171875,0.00044582411646842957,0.0008822213858366013,-0.0006256154738366604
1782831601351410200,1.24541015625,-0.00019200332462787628,0.00183776393532753,0.0010234136134386063
1782831601361339100,1.255339111328125,0.0007129460573196411,0.001461009494960308,-0.0020478512160480022
1782831601371268000,1.26526806640625,0.00024396367371082306,0.00015020184218883514,-0.001403100322932005
1782831601381197300,1.275197265625,-0.00045878998935222626,0.00045812875032424927,-0.00045331334695219994
1782831601391126300,1.285126220703125,-0.00010086130350828171,-0.001047089695930481,-0.0005244198255240917
1782831601401055000,1.295054931640625,0.0002069864422082901,-0.0026294859126210213,0.0011142278090119362
1782831601410984000,1.30498388671875,-0.0014633480459451675,-0.0014792662113904953,0.0022175759077072144
1782831601420913200,1.3149130859375,0.00024837255477905273,0.0008980631828308105,-0.0024978118017315865
1782831601430842000,1.324842041015625,-0.0014597782865166664,0.0007771551609039307,0.000032191164791584015
1782831601440771000,1.33477099609375,-0.003423198126256466,-0.002900388091802597,-0.00007002335041761398
1782831601450700000,1.344699951171875,0.0009638266637921333,-0.0024460526183247566,0.0008098846301436424
1782831601460629200,1.354629150390625,-0.00031360890716314316,-0.0006460612639784813,0.0008725039660930634
1782831601470558200,1.36455810546875,0.0014203749597072601,-0.0002742838114500046,0.00008500739932060242
1782831601480487200,1.374487060546875,0.00039027445018291473,-0.00022444408386945724,-0.0015876144170761108
1782831601490416000,1.384416015625,-0.001766885630786419,-0.00174617487937212,0.003056406043469906
1782831601500347600,1.39434765625,0.001405780203640461,0.00011641811579465866,0.002845354378223419
1782831601510276600,1.404276611328125,-0.0008605699986219406,0.0010165665298700333,0.0008783433586359024
1782831601520205600,1.41420556640625,0.0002411017194390297,-0.0003965254873037338,0.0006871931254863739
1782831601530134500,1.424134521484375,0.0004815850406885147,0.0016256123781204224,-0.00009417813271284103
1782831601540063700,1.434063720703125,0.00035986583679914474,-0.00024824216961860657,-0.001853597816079855
1782831601549992400,1.443992431640625,0.00013695936650037766,-0.0001435801386833191,-0.0011238916777074337
1782831601559921400,1.45392138671875,0.002392766997218132,-0.0006319358944892883,0.0032092202454805374
1782831601569850400,1.463850341796875,0.0005682352930307388,-0.001249789260327816,0.0002861339598894119
1782831601579779600,1.473779541015625,0.001436835154891014,-0.0024044951424002647,0.00030682049691677094
1782831601589708500,1.48370849609375,-0.00031712278723716736,-0.0009948844090104103,0.001408304087817669
1782831601599637500,1.493637451171875,-0.0009692814201116562,-0.0021203989163041115,-0.0005356958135962486
1782831601609566500,1.50356640625,-0.0007501039654016495,-0.001461532898247242,-0.0008211866952478886
1782831601619495700,1.51349560546875,0.0010534906759858131,-0.000180685892701149,0.00023039337247610092
1782831601629424600,1.523424560546875,0.00016159750521183014,-0.0006027976050972939,-0.0005621630698442459
1782831601639353600,1.533353515625,-0.0014845514670014381,-0.0010690568014979362,0.0005183648318052292
1782831601649282600,1.543282470703125,-0.0017327573150396347,-0.0010112663730978966,0.0027474304661154747
1782831601659211500,1.55321142578125,-0.0005499236285686493,0.002522301860153675,-0.0008562710136175156
1782831601669140500,1.563140380859375,0.0012421179562807083,0.0015459870919585228,0.0004907557740807533
1782831601679069400,1.5730693359375,-0.004002713598310947,0.00047832168638706207,0.0019229790195822716
1782831601688998400,1.582998291015625,0.00039682816714048386,0.001982741057872772,-0.0019167670980095863
1782831601698927600,1.592927734375,0.0009913947433233261,0.002144516445696354,-0.0005691568367183208
1782831601708856600,1.602856689453125,0.0007463833317160606,0.0009162668138742447,-0.0026983539573848248
1782831601718785500,1.61278564453125,-0.0013527264818549156,-0.0010041287168860435,-0.0006111930124461651
1782831601728714500,1.622714599609375,-0.001782560721039772,0.0011184103786945343,-0.00304825184866786
1782831601738643500,1.6326435546875,0.0014488277956843376,0.00012963265180587769,0.0016685966402292252
1782831601748572700,1.64257275390625,0.002311958000063896,0.0010239221155643463,-0.0005460884422063828
1782831601758501600,1.652501708984375,-0.0012060580775141716,0.0003528827801346779,-0.0011361967772245407
1782831601768430600,1.6624306640625,0.0016174251213669777,-0.0008609862998127937,-0.0006347233429551125
1782831601778359300,1.672359375,0.002439407631754875,-0.000830785371363163,0.00004995148628950119
1782831601788288500,1.68228857421875,-0.00008473638445138931,0.0004762941971421242,-0.004085405729711056
1782831601798217500,1.692217529296875,0.00036688242107629776,0.0006565824151039124,0.000980638898909092
1782831601808146400,1.702146484375,-0.0015314193442463875,0.00014152657240629196,0.00023042690008878708
1782831601818075400,1.712075439453125,0.00007523037493228912,-0.0007209554314613342,-0.0020099845714867115
1782831601828004600,1.722004638671875,0.0007274392992258072,-0.002192884683609009,-0.0011758822947740555
1782831601837933600,1.73193359375,-0.00014108698815107346,0.0012546638026833534,-0.0019860100001096725
1782831601847862500,1.741862548828125,-0.0007157977670431137,0.0003358731046319008,-0.0019750907085835934
1782831601857791500,1.75179150390625,-0.0011039115488529205,-0.0007498469203710556,0.0019882218912243843
1782831601867720700,1.761720703125,-0.002290083095431328,-0.00034504663199186325,0.000993264839053154
1782831601877649700,1.771649658203125,-0.0005814442411065102,0.0028114905580878258,-0.0021874774247407913
1782831601887578400,1.781578369140625,-0.0018368586897850037,0.0017534168437123299,0.0016309628263115883
1782831601897507300,1.79150732421875,-0.0007396144792437553,0.0008537657558917999,0.0015728157013654709
1782831601907436500,1.8014365234375,-0.0010043326765298843,0.0010788030922412872,-0.002723395824432373
1782831601917365500,1.811365478515625,-0.00034696608781814575,-0.00011849775910377502,-0.0009492947719991207
1782831601927294500,1.82129443359375,-0.0006457725539803505,0.0009907092899084091,-0.00061373645439744
1782831601937223400,1.831223388671875,-0.00001119077205657959,-0.0019589196890592575,-0.0028850059024989605
1782831601947152600,1.841152587890625,0.0005755042657256126,-0.0006944509223103523,-0.001964084804058075
1782831601957081600,1.85108154296875,0.0010284893214702606,-0.001575332134962082,-0.00010045338422060013
1782831601967010600,1.861010498046875,0.0002455199137330055,-0.002057896926999092,0.0019722850993275642
1782831601976939500,1.870939453125,-0.0010168887674808502,-0.0016397526487708092,0.00325784832239151
1782831601986868700,1.88086865234375,0.0004971185699105263,-0.0006876727566123009,-0.001505481544882059
1782831601996797400,1.89079736328125,-0.0019035739824175835,-0.00009783171117305756,-0.0016974401660263538
1782831602006726400,1.900726318359375,0.00048155244439840317,-0.0010190187022089958,0.0004759654402732849
1782831602016655400,1.9106552734375,0.0026835650205612183,-0.0010479399934411049,0.001007741317152977
1782831602026584600,1.92058447265625,0.0011429265141487122,-0.0006841523572802544,0.0021917829290032387
1782831602036513500,1.930513427734375,0.00031364988535642624,0.0017531272023916245,-0.001487833447754383
1782831602046442500,1.9404423828125,0.0014718594029545784,-0.0001656804233789444,0.002419023774564266
1782831602056371500,1.950371337890625,0.000011538155376911163,-0.00005644373595714569,-0.00037883222103118896
1782831602066300700,1.96030078125,0.0004118112847208977,-0.001863398589193821,-0.0004454115405678749
1782831602076229600,1.970229736328125,-0.0006022211164236069,0.0012597721070051193,-0.00010473374277353287
1782831602086158600,1.98015869140625,0.0011815642938017845,0.0005527026951313019,0.003276415169239044
1782831602096087600,1.990087646484375,0.0012454325333237648,0.003451048396527767,0.0007591061294078827
1782831602106016500,2.0000166015625,-0.0005820281803607941,0.0019098762422800064,-0.00021907268092036247
1782831602115945500,2.009945556640625,0.00019442569464445114,0.002105075865983963,0.002215379849076271
1782831602125874400,2.01987451171875,-0.001292416825890541,-0.0001831119880080223,-0.0015053227543830872
1782831602135803400,2.029803466796875,-0.0008696140721440315,0.0015215929597616196,0.0006666677072644234
1782831602145732600,2.039732666015625,0.00048034265637397766,0.000603334978222847,-0.0016508153639733791
1782831602155661600,2.04966162109375,0.001081201247870922,-0.0009444626048207283,0.0017142277210950851
1782831602165590500,2.059590576171875,-0.001898610033094883,-0.0023040063679218292,-0.0006040539592504501
1782831602175519500,2.06951953125,0.00008148886263370514,-0.0010928045958280563,0.00031769927591085434
1782831602185448400,2.079448486328125,-0.002009092830121517,-0.00047095678746700287,0.0025936365127563477
1782831602195377700,2.089377685546875,-0.0010328171774744987,-0.002218407578766346,-0.0040509640239179134
1782831602205306600,2.099306640625,0.0007568271830677986,0.0005574049428105354,-0.0004034987650811672
1782831602215235600,2.109235595703125,-0.0021150270476937294,0.0006816070526838303,-0.0026302733458578587
1782831602225164300,2.119164306640625,-0.00009528640657663345,-0.0009343996644020081,0.00018948130309581757
1782831602235093500,2.129093505859375,0.0015460886061191559,-0.0010853782296180725,0.0005696117877960205
1782831602245022500,2.1390224609375,-0.0005197254940867424,-0.0011306526139378548,0.0006788019090890884
1782831602254951400,2.148951416015625,0.00011074822396039963,-0.0005688536912202835,0.0005164481699466705
1782831602264880400,2.15888037109375,0.0005493704229593277,0.0009736493229866028,0.0003665117546916008
1782831602274809600,2.1688095703125,-0.0010421723127365112,0.0013149091973900795,-0.0004001092165708542
1782831602284738600,2.178738525390625,-0.00016545969992876053,0.0014462033286690712,-0.0000895848497748375
1782831602294667500,2.18866748046875,-0.0010591419413685799,0.0021059848368167877,-0.0011273473501205444
1782831602304596500,2.198596435546875,-0.0011097416281700134,-0.0006655668839812279,-0.0032341741025447845
1782831602314525700,2.208525634765625,-0.00007648207247257233,-0.00009265262633562088,-0.0013426155783236027
1782831602324455400,2.218455322265625,-0.0008437391370534897,-0.0005270140245556831,-0.0002533826045691967
1782831602334384400,2.22838427734375,0.0009748712182044983,-0.002280055545270443,0.0006935838609933853
1782831602344313600,2.238313720703125,0.0016558412462472916,-0.0000035855919122695923,-0.0019685113802552223
1782831602354242600,2.24824267578125,0.001731601543724537,0.002627815119922161,0.0020213499665260315
1782831602364171500,2.258171630859375,0.0009867148473858833,-0.000976240262389183,0.00024502165615558624
1782831602374100500,2.2681005859375,-0.0011147577315568924,-0.0010246392339468002,-0.0005858573131263256
1782831602384029700,2.27802978515625,0.00014864560216665268,-0.0005058562383055687,-0.004603235516697168
1782831602393958700,2.287958740234375,-0.0000492362305521965,-0.0018982114270329475,-0.0038321022875607014
1782831602403887600,2.2978876953125,0.0017571868374943733,-0.000493660569190979,0.0015584016218781471
1782831602413816600,2.307816650390625,0.0007119355723261833,-0.001197516918182373,-0.0006299838423728943
1782831602423745500,2.31774560546875,0.0005244482308626175,-0.0012731505557894707,0.0026864511892199516
1782831602433674500,2.327674560546875,-0.00017079617828130722,-0.00014746561646461487,-0.00029459642246365547
1782831602443603500,2.337603515625,0.0022433586418628693,-0.0002569211646914482,0.0009866505861282349
1782831602453532400,2.347532470703125,0.002804773859679699,0.0001201871782541275,0.0009723696857690811
1782831602463461600,2.357461669921875,0.0007994137704372406,0.00048397481441497803,0.00018061138689517975
1782831602473390600,2.367390625,0.00100710429251194,-0.0012966906651854515,0.0006157075986266136
1782831602483319600,2.377319580078125,-0.00002007652074098587,-0.00006631016731262207,-0.0004444969817996025
1782831602493248500,2.38724853515625,0.0007960591465234756,0.0010223668068647385,0.00039785634726285934
1782831602503174700,2.397174560546875,-0.002318241633474827,0.000905986875295639,-0.000588045921176672
1782831602513103600,2.407103515625,0.00024759769439697266,0.0017373329028487206,-0.0004149596206843853
1782831602523032600,2.417032470703125,0.0016825087368488312,0.0006259959191083908,0.000305958092212677
1782831602532961500,2.42696142578125,0.002845234237611294,-0.0003218846395611763,0.0010997559875249863
1782831602542890500,2.436890380859375,0.00037435349076986313,0.0005050273612141609,0.0014483630657196045
1782831602552819700,2.44681982421875,-0.00016854237765073776,-0.000588628463447094,0.0000027371570467948914
1782831602562748700,2.456748779296875,-0.0012881355360150337,-0.0000746389850974083,0.00012231245636940002
1782831602572677600,2.466677734375,-0.0005410201847553253,-0.001130671240389347,0.0008879564702510834
1782831602582606600,2.476606689453125,-0.00008348934352397919,-0.0010891258716583252,-0.0020013069733977318
1782831602592535800,2.486535888671875,-0.0018186913803219795,-0.0006855791434645653,-0.00016038818284869194
1782831602602464800,2.49646484375,0.000380014069378376,-0.0012831930071115494,-0.003122888505458832
1782831602612393700,2.506393798828125,-0.00027603842318058014,0.0020179832354187965,-0.0022790241055190563
1782831602622322400,2.516322509765625,-0.0012590112164616585,0.0016371514648199081,-0.0019615748897194862
1782831602632251600,2.526251708984375,0.0008805654942989349,-0.0006297547370195389,-0.0010106395930051804
1782831602642180600,2.5361806640625,-0.00024967920035123825,-0.00016902852803468704,0.0004386529326438904
1782831602652109600,2.546109619140625,0.0005854843184351921,0.0026024794206023216,-0.0008756243623793125
1782831602662038500,2.55603857421875,0.0014613978564739227,0.0003334665670990944,-0.0007986589334905148
1782831602671967700,2.5659677734375,-0.001040504314005375,0.00017933733761310577,-0.0008842358365654945
1782831602681896700,2.575896728515625,0.002332388423383236,0.00008239783346652985,-0.0027790749445557594
1782831602691825700,2.58582568359375,0.00005221739411354065,-0.0001810230314731598,-0.0021817144006490707
1782831602701754600,2.595754638671875,0.0001076115295290947,-0.001168789342045784,-0.002617673948407173
1782831602711683800,2.605683837890625,0.0017599770799279213,-0.0012447284534573555,-0.00020798388868570328
1782831602721612800,2.61561279296875,-0.0005814740434288979,-0.0003286004066467285,-0.0002548554912209511
1782831602731541800,2.625541748046875,0.0004990380257368088,-0.0022928956896066666,0.0005050171166658401
1782831602741470500,2.635470458984375,-0.0018719742074608803,0.0015766769647598267,-0.00031683407723903656
1782831602751399700,2.645399658203125,0.0010457094758749008,-0.001600068062543869,0.003664126619696617
1782831602761328600,2.65532861328125,-0.00012528244405984879,-0.0012083174660801888,0.0012331940233707428
1782831602771257600,2.665257568359375,-0.001394488848745823,-0.0018369928002357483,-0.0012305807322263718
1782831602781186600,2.6751865234375,-0.0003049895167350769,0.001166253350675106,-0.00026411935687065125
1782831602791115800,2.68511572265625,-0.00019680429250001907,-0.0023451102897524834,-0.0012112022377550602
1782831602801044700,2.695044677734375,-0.0035364078357815742,-0.0011554770171642303,-0.002593915443867445
1782831602810973700,2.7049736328125,0.00041975732892751694,0.00022189319133758545,0.0012580165639519691
1782831602820902700,2.714902587890625,0.0016514696180820465,0.0005707666277885437,0.0006633326411247253
1782831602830831900,2.724831787109375,0.0005120448768138885,0.0028617363423109055,-0.00027032429352402687
1782831602840760800,2.7347607421875,-0.0001950245350599289,-0.001990809105336666,0.003794991411268711
1782831602850689500,2.744689453125,0.0015390822663903236,0.00019412953406572342,0.002897930331528187
1782831602860618500,2.754618408203125,-0.00018957536667585373,0.002647699788212776,0.0009298538789153099
1782831602870547500,2.76454736328125,0.0012605013325810432,-0.00007934030145406723,-0.002831460442394018
1782831602880476700,2.7744765625,-0.0024391626939177513,0.00046128127723932266,-0.0008942773565649986
1782831602890405600,2.784405517578125,0.0016887728124856949,-0.0022449102252721786,-0.0008037290535867214
1782831602900334600,2.79433447265625,0.0006858259439468384,0.0010414309799671173,0.0007962984964251518
1782831602910263600,2.804263671875,-0.0028160670772194862,-0.0007002353668212891,0.0016196034848690033
1782831602920192800,2.81419287109375,-0.0010927356779575348,0.0018010055646300316,0.0020885858684778214
1782831602930121700,2.824121826171875,0.001811247318983078,0.0008765319362282753,0.0002607237547636032
1782831602940050700,2.83405078125,-0.0012338105589151382,-0.0010268297046422958,0.0004279697313904762
1782831602949979600,2.843979736328125,0.0019442997872829437,-0.000603613443672657,-0.0009573716670274734
1782831602959908600,2.85390869140625,-0.0028643039986491203,-0.0013594180345535278,0.00020030420273542404
1782831602969837600,2.863837646484375,0.0005725985392928123,-0.0008522700518369675,-0.0006356853991746902
1782831602979766500,2.8737666015625,0.0006596837192773819,0.0004920931532979012,0.00035927165299654007
1782831602989695500,2.883695556640625,0.00016791746020317078,-0.00007652491331100464,0.0004577925428748131
1782831602999624700,2.893624755859375,0.0021082963794469833,0.0009892722591757774,0.00014380551874637604
1782831603009553700,2.9035537109375,0.0010870583355426788,-0.0034194914624094963,0.003334200941026211
1782831603019482600,2.913482666015625,-0.0011678403243422508,-0.001895897090435028,0.0008177803829312325
1782831603029411600,2.92341162109375,0.0007256641983985901,0.0028964783996343613,-0.0011213929392397404
1782831603039340800,2.9333408203125,-0.0013976739719510078,0.001377943903207779,-0.000006327405571937561
1782831603049269800,2.943269775390625,0.00033170171082019806,0.00021311361342668533,-0.001607812475413084
1782831603059198700,2.95319873046875,0.0007966896519064903,0.0028432514518499374,0.0007770480588078499
1782831603069127700,2.963127685546875,0.0007149325683712959,0.0008022980764508247,-0.001989501528441906
1782831603079056600,2.973056640625,0.0003633955493569374,0.0005865823477506638,0.00008882954716682434
1782831603088985600,2.982985595703125,0.00009061023592948914,0.0013457965105772018,0.001204838976264
1782831603098915600,2.99291552734375,0.001270657405257225,0.0014680353924632072,0.0005305269733071327
1782831603108844800,3.0028447265625,0.000707884319126606,-0.0018650563433766365,0.0002394840121269226
1782831603118773800,3.012773681640625,0.0005869762971997261,0.0005237990990281105,0.0005023377016186714
1782831603128702700,3.02270263671875,-0.0012238556519150734,-0.0012695901095867157,0.0033314600586891174
1782831603138631700,3.032631591796875,0.0020246682688593864,-0.0021223342046141624,0.00047069229185581207
1782831603148560600,3.042560546875,-0.002306802198290825,0.0000340193510055542,0.001341015100479126
1782831603158489600,3.052489501953125,-0.0008599068969488144,0.0009501473978161812,0.0011418107897043228
1782831603168418600,3.06241845703125,0.0012602955102920532,-0.0024116775020956993,-0.0006176796741783619
1782831603178347500,3.072347412109375,-0.002177312970161438,-0.0014723800122737885,-0.0010211481712758541
1782831603188276700,3.08227685546875,0.0006521055474877357,0.0005820514634251595,-0.0007754233665764332
1782831603198205700,3.092205810546875,0.0017980635166168213,0.0014840634539723396,0.0006645480170845985
1782831603208134700,3.102134765625,0.0003019087016582489,-0.000827309675514698,-0.0007695634849369526
1782831603218063600,3.112063720703125,0.00054984912276268,0.0014789877459406853,0.0006903810426592827
1782831603227992600,3.12199267578125,-0.0002605365589261055,0.0014694500714540482,0.0006972979754209518
1782831603237921800,3.131921875,0.0011999402195215225,0.003783205524086952,0.0010280618444085121
1782831603247850800,3.141850830078125,0.002599421888589859,-0.00139651820063591,0.0003601051867008209
1782831603257779700,3.15177978515625,-0.001289326697587967,0.00004451815038919449,-0.0005536251701414585
1782831603267708400,3.16170849609375,-0.0008657565340399742,0.0006172275170683861,-0.002957451157271862
1782831603277637600,3.1716376953125,-0.0014756200835108757,-0.0005119526758790016,-0.00010360777378082275
1782831603287566600,3.181566650390625,0.00041581783443689346,0.0007760422304272652,0.001977013424038887
1782831603297495600,3.19149560546875,-0.0008808756247162819,-0.002094845287501812,0.0015434501692652702
1782831603307424500,3.201424560546875,0.002636827528476715,-0.001874072477221489,0.0029668211936950684
1782831603317353700,3.211353759765625,-0.0013331472873687744,-0.0022019073367118835,0.002024594694375992
1782831603327282700,3.22128271484375,0.0011886805295944214,-0.0023014340549707413,0.0013664448633790016
1782831603337211600,3.231211669921875,-0.00016500428318977356,0.0012762565165758133,0.00014325417578220367
1782831603347140600,3.241140625,-0.0006396118551492691,-0.0015165964141488075,0.0008338345214724541
1782831603357069800,3.25106982421875,-0.0012976787984371185,0.00023043714463710785,-0.001004279125481844
1782831603366998800,3.260998779296875,-0.00006759073585271835,-0.001804114319384098,-0.0005499818362295628
1782831603376927500,3.270927490234375,0.001130565069615841,-0.0003209998831152916,-0.0019928826950490475
1782831603386856400,3.2808564453125,-0.0013575218617916107,-0.001238478347659111,0.0009700646623969078
1782831603396785700,3.29078564453125,0.0004062904044985771,-0.0022701872512698174,0.0016201427206397057
1782831603406714600,3.300714599609375,0.0027493974193930626,-0.0003761034458875656,-0.0010292362421751022
1782831603416643600,3.3106435546875,-0.0007025916129350662,0.0005035381764173508,-0.0012470823712646961
1782831603426572500,3.320572509765625,0.0010992111638188362,-0.0002483408898115158,0.0020520491525530815
1782831603436501800,3.330501708984375,-0.001839054748415947,0.000882437452673912,0.0018629645928740501
1782831603446430700,3.3404306640625,-0.0012745372951030731,-0.0010453751310706139,0.0015747258439660072
1782831603456359700,3.350359619140625,-0.001419147476553917,0.0017940877005457878,-0.0002918834798038006
1782831603466288600,3.36028857421875,0.0023427465930581093,0.001486017368733883,0.0003806697204709053
1782831603476217900,3.3702177734375,-0.0006876643747091293,0.0007685618475079536,0.0015876144170761108
1782831603486146800,3.380146728515625,0.00031739287078380585,0.0003841361030936241,0.002521962858736515
1782831603496075500,3.390075439453125,0.0009562848135828972,-0.0032891621813178062,0.00004069507122039795
1782831603506004500,3.40000439453125,0.00007141195237636566,-0.0007502390071749687,0.00170834269374609
1782831603515933400,3.409933349609375,0.0016216384246945381,-0.0015587741509079933,-0.0023540430702269077
1782831603525862400,3.4198623046875,0.0018028859049081802,-0.0007657874375581741,0.001747027039527893
1782831603535791600,3.42979150390625,0.0007562628015875816,-0.0010265111923217773,-0.0029047164134681225
1782831603545720600,3.439720458984375,0.0013281935825943947,-0.0014998335391283035,0.0008120182901620865
1782831603555649500,3.4496494140625,0.0003010127693414688,0.0034416625276207924,0.00004476122558116913
1782831603565578500,3.45957861328125,-0.0014079930260777473,-0.0019924091175198555,0.0006676474586129189
1782831603575507700,3.4695078125,-0.0013512670993804932,-0.0026720482856035233,0.002021864987909794
1782831603585436700,3.479436767578125,0.0000868355855345726,0.0012497110292315483,-0.0016826195642352104
1782831603595365600,3.48936572265625,-0.0004947995766997337,-0.0013245008885860443,-0.000479936134070158
1782831603605294600,3.499294677734375,-0.0008878642693161964,0.002620604820549488,-0.00042027467861771584
1782831603615223300,3.509223388671875,-0.00012300442904233932,0.002204885706305504,-0.003006204031407833
1782831603625152500,3.519152587890625,0.0018040435388684273,0.00012769456952810287,0.0012433230876922607
1782831603635081500,3.52908154296875,0.0003970954567193985,0.0023509012535214424,-0.003915220033377409
1782831603645010400,3.539010498046875,-0.000664515420794487,-0.0011624572798609734,-0.0008109230548143387
1782831603654939400,3.548939453125,0.000923527404665947,-0.0001651030033826828,0.001390179619193077
1782831603664869600,3.55886962890625,0.00035136379301548004,-0.00038581062108278275,-0.002169919665902853
1782831603674798600,3.568798583984375,0.0004709400236606598,0.00013483688235282898,0.0014471858739852905
1782831603684727600,3.5787275390625,-0.0013761715963482857,-0.0005603311583399773,0.00032439175993204117
1782831603694656500,3.588656494140625,-0.0014075972139835358,-0.0002972101792693138,0.001305234618484974
1782831603704585500,3.59858544921875,0.0018833065405488014,-0.0004334384575486183,0.001802045851945877
1782831603714514400,3.608514404296875,0.0007650451734662056,-0.0014757998287677765,-0.0004121065139770508
1782831603724443400,3.618443359375,-0.000047888606786727905,-0.0012165326625108719,-0.0013066427782177925
1782831603734372600,3.62837255859375,0.0017643924802541733,-0.0021228063851594925,0.0006616991013288498
1782831603744301600,3.638301513671875,-0.0009611845016479492,-0.001976846717298031,-0.0013982071541249752
1782831603754230500,3.64823046875,0.0001661311835050583,-0.001393347978591919,0.0013310005888342857
1782831603764159500,3.658159423828125,-0.00013104919344186783,-0.0005340976640582085,-0.0013543847016990185
1782831603774088700,3.668088623046875,0.00047268904745578766,0.0011623362079262733,0.00023019593209028244
1782831603784017700,3.678017578125,-0.0007623434066772461,0.0008074454963207245,-0.001575426198542118
1782831603793946600,3.687946533203125,0.0011378219351172447,0.002566729672253132,0.0015311511233448982
1782831603803875300,3.697875244140625,0.0004048403352499008,0.001228131353855133,-0.000610224436968565
1782831603813804500,3.707804443359375,0.0005640974268317223,0.0019940566271543503,-0.000865621492266655
1782831603823733500,3.7177333984375,-0.00040915515273809433,0.0036934036761522293,0.000051344744861125946
1782831603833662500,3.727662353515625,0.0010302839800715446,-0.0012696636840701103,-0.00024586403742432594
1782831603843591400,3.73759130859375,0.0008769258856773376,-0.00018135085701942444,-0.003023166675120592
1782831603853520600,3.747520751953125,0.000043623149394989014,0.0004716562107205391,0.0023343143984675407
1782831603863449600,3.75744970703125,0.00006577838212251663,0.00008384417742490768,0.00166295375674963
1782831603873378600,3.767378662109375,-0.0032562492415308952,-0.0008434690535068512,0.0009199315682053566
1782831603883307500,3.7773076171875,0.00004306714981794357,-0.0005916105583310127,0.0009288731962442398
1782831603893236700,3.78723681640625,-0.0002450868487358093,-0.0013122614473104477,0.00045669451355934143
1782831603903165700,3.797165771484375,-0.0019021732732653618,0.0004915725439786911,-0.0008277418091893196
1782831603913094400,3.807094482421875,0.002742379903793335,-0.0021340372040867805,0.0015850821509957314
1782831603923023400,3.8170234375,-0.0014036362990736961,-0.0001508193090558052,-0.000683619175106287
1782831603932952600,3.82695263671875,-0.0011535659432411194,-0.0017721513286232948,0.0032512014731764793
1782831603942881500,3.836881591796875,0.0015530306845903397,-0.0015631429851055145,-0.0005031544715166092
1782831603952810500,3.846810546875,-0.0031351977959275246,-0.0005474137142300606,0.0004060482606291771
1782831603962739500,3.856739501953125,-0.0004651779308915138,-0.002316165715456009,-0.0008119340054690838
1782831603972668400,3.86666845703125,0.000893300399184227,0.00010331626981496811,-0.0006950213573873043
1782831603982597600,3.87659765625,-0.0008573643863201141,0.0009871795773506165,0.001772165298461914
1782831603992526600,3.886526611328125,0.0006987201049923897,0.0012737354263663292,0.0016025211662054062
1782831604002455600,3.89645556640625,-0.0011510252952575684,0.000005756504833698273,-0.0019805473275482655
1782831604012384500,3.906384521484375,0.0008538020774722099,0.0026686517521739006,0.0007052505388855934
1782831604022313500,3.9163134765625,0.0007024658843874931,-0.000545058399438858,0.0007937457412481308
1782831604032242400,3.926242431640625,-0.002445656806230545,-0.002127508632838726,-0.0003452887758612633
1782831604042171400,3.93617138671875,0.0007091313600540161,0.0008642496541142464,0.0014231521636247635
1782831604052100400,3.946100341796875,-0.0004312340170145035,-0.001104624941945076,-0.0005126991309225559
1782831604062029600,3.956029541015625,-0.000413297675549984,0.00029081664979457855,-0.0011003664694726467
1782831604071958500,3.96595849609375,-0.001335284672677517,-0.0009400965645909309,0.0003406703472137451
1782831604081887500,3.975887451171875,0.0014267833903431892,-0.001679716631770134,-0.0027060960419476032
1782831604091816400,3.98581640625,-0.000009725801646709442,-0.0007265713065862656,0.000988241285085678
1782831604101745700,3.99574560546875,-0.00010094419121742249,0.00004712119698524475,-0.0034517901949584484
1782831604111674600,4.005674560546875,-0.0024115024134516716,0.0017004115507006645,-0.0015007583424448967
1782831604121603600,4.015603515625,0.00051130261272192,0.00009175576269626617,0.003260992467403412
1782831604131532500,4.025532470703125,-0.00045462604612112045,-0.0014462191611528397,-0.0005811494775116444
1782831604141461500,4.03546142578125,-0.0005665197968482971,0.00027192849665880203,0.0003582760691642761
1782831604151390500,4.045390380859375,0.0014947671443223953,-0.00047136005014181137,0.0010608173906803131
1782831604161319400,4.0553193359375,-0.0014760075137019157,0.0013733990490436554,0.0006928481161594391
1782831604171249700,4.065249755859375,0.001722182147204876,0.00008735805749893188,-0.0028600748628377914
1782831604181178600,4.0751787109375,0.0018759071826934814,0.0008114231750369072,0.0007478473708033562
1782831604191107600,4.085107666015625,0.00003699492663145065,0.001676417887210846,-0.0013557830825448036
1782831604201036500,4.09503662109375,-0.00037910789251327515,0.0011011511087417603,-0.003348582424223423
1782831604210965800,4.1049658203125,0.0003420757129788399,-0.0009239166975021362,-0.0009980765171349049
1782831604220894500,4.11489453125,-0.0000027138739824295044,-0.0009468290954828262,0.00030002184212207794
1782831604230823400,4.124823486328125,0.001654837280511856,0.00013654492795467377,-0.0006573847495019436
1782831604240752400,4.13475244140625,0.0014549670740962029,-0.002038436010479927,0.0010442612692713737
1782831604250681600,4.144681640625,0.0014211451634764671,-0.0015739807859063148,0.0008831406012177467
1782831604260610600,4.154610595703125,0.000435524620115757,0.0016723275184631348,-0.0008904882706701756
1782831604270539500,4.16453955078125,-0.002183161675930023,0.0004315609112381935,-0.0004886169917881489
1782831604280468500,4.174468505859375,-0.002034994773566723,-0.0013445308431982994,0.0010379934683442116
1782831604290397400,4.1843974609375,-0.0012549543753266335,0.0014041177928447723,0.0020518582314252853
1782831604300326700,4.19432666015625,-0.0008034743368625641,-0.0018177321180701256,-0.0002778107300400734
1782831604310255600,4.204255615234375,0.0007946891710162163,-0.00039080996066331863,-0.000022147782146930695
1782831604320184600,4.2141845703125,-0.0005118167027831078,-0.0004971958696842194,0.001786692999303341
1782831604330113500,4.224113525390625,0.0014764992520213127,0.001329200342297554,0.00012860912829637527
1782831604340042500,4.23404248046875,-0.0003075897693634033,0.0011585857719182968,0.00009721796959638596
1782831604349971500,4.243971435546875,-0.0014634020626544952,0.0005133021622896194,0.0009590163826942444
1782831604359900400,4.253900390625,-0.0003305356949567795,0.0017402283847332,0.000059300102293491364
1782831604369829400,4.263829345703125,-0.00013479404151439667,-0.00023210886865854263,-0.00002192612737417221
1782831604379758600,4.273758544921875,-0.0016838489100337029,0.001777426339685917,-0.0007479460909962654
1782831604389687600,4.2836875,0.0008903620764613152,0.0008977847173810005,0.0007615340873599052
1782831604399616500,4.293616455078125,0.0011328747496008873,0.0005375482141971588,-0.0017703035846352577
1782831604409545500,4.30354541015625,0.0003989068791270256,-0.0009271902963519096,0.00004836916923522949
1782831604419474700,4.313474609375,0.00019811931997537613,0.00046090874820947647,-0.0020292019471526146
1782831604429403600,4.323403564453125,-0.0010011019185185432,0.0024950308725237846,0.0008600614964962006
1782831604439332600,4.33333251953125,0.0005802633240818977,-0.00015052501112222672,-0.00008484441787004471
1782831604449261300,4.34326123046875,0.0006796000525355339,-0.000036541372537612915,-0.000841981265693903
1782831604459190500,4.3531904296875,0.0014163507148623466,-0.0021759560331702232,-0.00009811483323574066
1782831604469119500,4.363119384765625,0.0007236627861857414,0.00064140185713768,-0.0010778922587633133
1782831604479048400,4.37304833984375,-0.00015458930283784866,-0.001398981548845768,0.0006095170974731445
1782831604488977400,4.382977294921875,-0.0014233188703656197,-0.0013976497575640678,0.0007844865322113037
1782831604498905900,4.39290576171875,-0.0007445206865668297,-0.0003758622333407402,-0.0016395454294979572
1782831604508834800,4.402834716796875,0.0007122280076146126,0.0013655787333846092,-0.0001476425677537918
1782831604518763800,4.412763671875,0.0013949936255812645,0.0009969202801585197,0.0006969477981328964
1782831604528692700,4.422692626953125,0.0016392050310969353,0.0010528462007641792,-0.0030900673009455204
1782831604538622000,4.4326220703125,-0.0019010137766599655,-0.0027640052139759064,-0.00039945216849446297
1782831604548551000,4.442551025390625,0.001357097178697586,-0.0008603781461715698,0.00015847943723201752
1782831604558480000,4.45247998046875,0.001548665575683117,0.0032157180830836296,0.00209059938788414
1782831604568408800,4.462408935546875,-0.0034708604216575623,0.0007498962804675102,-0.000757917296141386
1782831604578337800,4.472337890625,0.000698416493833065,-0.00008439458906650543,0.0009820740669965744
1782831604588266800,4.482266845703125,0.0017192056402564049,0.0007419846951961517,-0.000302635133266449
1782831604598195700,4.49219580078125,0.000502503477036953,0.0007164804264903069,0.0003133956342935562
1782831604608124700,4.502124755859375,0.000015677884221076965,0.0015569739043712616,0.0012729326263070107
1782831604618054000,4.512053955078125,-0.000010922551155090332,0.0027998192235827446,-0.000591679010540247
1782831604627982800,4.52198291015625,-0.000683637335896492,-0.0011355336755514145,0.0009606778621673584
1782831604637911800,4.531911865234375,-0.0005184486508369446,0.0015042219310998917,-0.0009491392411291599
1782831604647842000,4.541842041015625,-0.0003293640911579132,-0.002382129430770874,0.0003422275185585022
1782831604657770800,4.551770751953125,0.0001642666757106781,-0.00402204692363739,0.0003139013424515724
1782831604667699700,4.56169970703125,0.00036639999598264694,0.0005258331075310707,-0.0011457768268883228
1782831604677628700,4.571628662109375,0.0005558067932724953,-0.0020947810262441635,-0.00041838036850094795
1782831604687557600,4.5815576171875,0.0009563462808728218,-0.00004787556827068329,0.00005326513200998306
1782831604697486800,4.59148681640625,-0.0011709677055478096,0.00113714300096035,-0.00028451811522245407
1782831604707415800,4.601415771484375,-0.0013115834444761276,-0.0017185648903250694,-0.0017953296191990376
1782831604717344800,4.6113447265625,0.00044272467494010925,-0.0017524631693959236,0.00033462420105934143
1782831604727273700,4.621273681640625,-0.0011581014841794968,-0.00022114533931016922,0.0018787253648042679
1782831604737203000,4.631202880859375,0.00034460611641407013,-0.0006651682779192924,0.0006466386839747429
1782831604747132000,4.6411318359375,0.0020602140575647354,0.001978818327188492,-0.0001435205340385437
1782831604757060900,4.651060791015625,-0.00036100391298532486,0.0005075009539723396,0.0022382689639925957
1782831604766989800,4.66098974609375,0.0007428769022226334,0.0008300095796585083,0.0011684773489832878
1782831604776918800,4.670918701171875,-0.003178417682647705,0.0018074540421366692,0.0007045352831482887
1782831604786847700,4.68084765625,0.0014293836429715157,0.0024700481444597244,-0.0017698071897029877
1782831604796776700,4.690776611328125,0.0015010815113782883,0.0008183671161532402,0.003128455951809883
1782831604806705700,4.70070556640625,0.0006440766155719757,0.0020607318729162216,0.0000746091827750206
1782831604816635000,4.710634765625,0.002018531784415245,0.0015977220609784126,0.0021955789998173714
1782831604826563800,4.720563720703125,0.002073925919830799,-0.0007722256705164909,0.003446466289460659
1782831604836492800,4.730492919921875,0.0016004787757992744,0.000147894024848938,-0.00013140682131052017
1782831604846421800,4.740421875,0.00064120814204216,-0.0016665179282426834,-0.001687491312623024
1782831604856351000,4.75035107421875,-0.0027441540732979774,-0.0013208473101258278,-0.0015091579407453537
1782831604866280000,4.760280029296875,0.001104113645851612,-0.0008838223293423653,-0.0006790510378777981
1782831604876209000,4.770208984375,-0.001361730508506298,-0.0005203923210501671,-0.00014294404536485672
1782831604886137600,4.7801376953125,-0.0011468129232525826,0.0002734959125518799,-0.0013458938337862492
1782831604896066800,4.79006689453125,-0.00007397495210170746,0.0012030182406306267,0.0011416999623179436
1782831604905995800,4.799995849609375,0.0015468252822756767,-0.000141877681016922,0.0006255796179175377
1782831604915924700,4.8099248046875,0.00043233297765254974,0.000935983844101429,0.0007364992052316666
1782831604925853700,4.819853759765625,-0.0000033602118492126465,0.001194310374557972,0.003264371305704117
1782831604935783000,4.829782958984375,0.00015603099018335342,-0.0027584927156567574,0.0029285019263625145
1782831604945711900,4.8397119140625,-0.0005853930488228798,-0.00015818234533071518,0.0008512362837791443
1782831604955640800,4.849640869140625,-0.0007223039865493774,0.0008654054254293442,-0.0018564937636256218
1782831604965569800,4.85956982421875,0.00042525213211774826,0.0014132177457213402,-0.0014482312835752964
1782831604975499000,4.8694990234375,-0.0023210039362311363,0.000019166618585586548,-0.000580239575356245
1782831604985428000,4.879427978515625,0.00148012675344944,-0.00032810959964990616,-0.0003040698356926441
1782831604995356700,4.889356689453125,-0.0011676829308271408,0.001418977975845337,-0.002422547433525324
1782831605005285600,4.89928564453125,-0.001096043735742569,0.00046529993414878845,0.0006360933184623718
1782831605015214800,4.90921484375,-0.0004601394757628441,-0.0006088018417358398,0.0011408450081944466
1782831605025143800,4.919143798828125,0.00008474290370941162,-0.0012900391593575478,0.0009474996477365494
1782831605035072800,4.92907275390625,-0.0003975238651037216,-0.0013306718319654465,-0.00012760888785123825
1782831605045001700,4.939001708984375,0.0015873303636908531,-0.0013538412749767303,-0.0014019315131008625
1782831605054931000,4.948930908203125,-0.0013984674587845802,-0.0006013726815581322,-0.0006330125033855438
1782831605064860000,4.95885986328125,-0.0014519961550831795,0.0009190253913402557,-0.0022309087216854095
1782831605074788900,4.968788818359375,-0.001096048392355442,-0.0005730492994189262,0.00003775954246520996
1782831605084717800,4.9787177734375,0.0011175712570548058,0.000588088296353817,0.00034908298403024673
1782831605094647000,4.98864697265625,0.0006034858524799347,0.0008196458220481873,0.0004641599953174591
1782831605104576800,4.99857666015625,0.00015793927013874054,0.0011216476559638977,-0.0010019098408520222
1782831605114505700,5.008505615234375,0.001066579483449459,0.0007749786600470543,0.0011525237932801247
1782831605124434700,5.0184345703125,0.0006979983299970627,0.0008594011887907982,0.002130436711013317
1782831605134364000,5.028364013671875,0.0014797570183873177,0.0015329942107200623,0.0014138761907815933
1782831605144292900,5.03829296875,-0.0023770323023200035,0.00160942692309618,-0.0010684565640985966
1782831605154221800,5.048221923828125,-0.0006335414946079254,0.0008263690397143364,0.00005667470395565033
1782831605164150800,5.05815087890625,0.0016463901847600937,-0.002179007977247238,-0.002857356332242489
1782831605174080000,5.068080078125,-0.00003951508551836014,0.0017456980422139168,0.000931023620069027
1782831605184009000,5.078009033203125,-0.00004004780203104019,0.0018090810626745224,-0.0008706045337021351
1782831605193937700,5.087937744140625,-0.00020702090114355087,-0.000028250738978385925,-0.0005775461904704571
1782831605203866600,5.09786669921875,-0.0008552344515919685,0.00023433659225702286,0.0011508455500006676
1782831605213795800,5.1077958984375,-0.0004629911854863167,0.0015878211706876755,0.0006727380678057671
1782831605223724800,5.117724853515625,-0.001324256882071495,0.0017769057303667068,0.0006096214056015015
1782831605233653800,5.12765380859375,-0.00024383608251810074,-0.001582111231982708,-0.00011648423969745636
1782831605243582700,5.137582763671875,0.000368424691259861,-0.0014383010566234589,-0.0007559088990092278
1782831605253512000,5.147511962890625,0.00102141872048378,-0.001405123621225357,-0.0002957279793918133
1782831605263441000,5.15744091796875,-0.00008672196418046951,0.0009131589904427528,0.0015224125236272812
1782831605273369900,5.167369873046875,0.0006809523329138756,0.002089446410536766,0.0005730176344513893
1782831605283298800,5.177298828125,-0.0003076130524277687,-0.0011337772011756897,0.0029251212254166603
1782831605293228000,5.18722802734375,0.0008175680413842201,-0.0013474291190505028,0.001777559518814087
1782831605303156700,5.19715673828125,0.00016908813267946243,0.0021064244210720062,0.0008976506069302559
1782831605313085700,5.207085693359375,-0.0033867741003632545,0.00030534714460372925,0.000490579754114151
1782831605323014700,5.2170146484375,-0.0004037674516439438,-0.0016675228253006935,0.0005784640088677406
1782831605332944000,5.22694384765625,-0.003344421274960041,0.0022912807762622833,-0.00046459538862109184
1782831605342872800,5.236872802734375,-0.00021573901176452637,-0.00024910829961299896,0.0017663342878222466
1782831605352801800,5.2468017578125,-0.0012423479929566383,0.0015248488634824753,0.000036930665373802185
1782831605362730800,5.256730712890625,-0.001474042423069477,0.0009133871644735336,0.0005426649004220963
1782831605372660000,5.266659912109375,0.0005088178440928459,0.00013372022658586502,-0.0001594764180481434
1782831605382589000,5.2765888671875,0.0011157523840665817,0.002565985545516014,0.0019569378346204758
1782831605392518000,5.286517822265625,-0.002976474352180958,0.0009522652253508568,0.0019969651475548744
1782831605402446800,5.29644677734375,-0.0010305028408765793,-0.0008738646283745766,-0.0012534232810139656
1782831605412375800,5.306375732421875,0.0015081362798810005,0.0013603521510958672,-0.0001979256048798561
1782831605422304000,5.316303955078125,0.00015879888087511063,-0.0004661455750465393,-0.0005828365683555603
1782831605432233000,5.32623291015625,0.0007127365097403526,-0.0024105189368128777,-0.0023945849388837814
1782831605442162000,5.336161865234375,0.00055667944252491,-0.0008431216701865196,0.0005577187985181808
1782831605452090600,5.346090576171875,-0.0011844951659440994,0.00021734833717346191,-0.0015166173689067364
1782831605462019800,5.356019775390625,0.0035031838342547417,-0.0006305854767560959,0.0016066227108240128
1782831605471948800,5.36594873046875,0.00015425868332386017,-0.0012050298973917961,-0.00037503521889448166
1782831605481877800,5.375877685546875,0.00166325643658638,-0.002863624133169651,0.0032027829438447952
1782831605491806700,5.385806640625,0.0010922746732831001,-0.0006654513999819756,0.0005252407863736153
1782831605501739800,5.39573974609375,0.0005978913977742195,-0.0010068407282233238,-0.0021180175244808197
1782831605511668700,5.405668701171875,-0.0003062514588236809,-0.002282494679093361,-0.0006950907409191132
1782831605521598000,5.415597900390625,-0.00014883559197187424,0.0013893218711018562,0.002376721240580082
1782831605531527000,5.42552685546875,0.0005076341331005096,0.00040794722735881805,-0.0001418301835656166
1782831605541456000,5.435455810546875,-0.002450336702167988,0.0016845371574163437,0.000053005293011665344
1782831605551384600,5.445384521484375,-0.0013784151524305344,0.0005524279549717903,0.0007720589637756348
1782831605561313800,5.455313720703125,-0.00009086169302463531,0.0018928572535514832,-0.0008885199204087257
1782831605571242800,5.46524267578125,-0.0013012690469622612,-0.00045951269567012787,0.0007178988307714462
1782831605581171700,5.475171630859375,-0.0008718324825167656,0.001375202089548111,0.00018143095076084137
1782831605591102000,5.48510205078125,0.0000466909259557724,-0.0005148435011506081,-0.0011775800958275795
1782831605601031000,5.495031005859375,-0.0013466188684105873,0.00011139921844005585,0.0005647521466016769
1782831605610960000,5.5049599609375,0.00036579370498657227,-0.0015283087268471718,-0.0007844055071473122
1782831605620888800,5.514888916015625,0.002869579941034317,-0.000461820513010025,-0.0033114030957221985
1782831605630817800,5.52481787109375,0.001821625977754593,-0.00133560411632061,-0.0024919486604630947
1782831605640746800,5.534746826171875,-0.0008256910368800163,0.00023329444229602814,-0.0019530444405972958
1782831605650675700,5.54467578125,0.0015450548380613327,0.0020607560873031616,-0.0018220171332359314
1782831605660604700,5.554604736328125,-0.002518290653824806,0.0007180087268352509,-0.0009184470400214195
1782831605670533600,5.56453369140625,0.0005640517920255661,-0.00064126867800951,0.0009747939184308052
1782831605680462800,5.574462890625,-0.00046348851174116135,-0.0017555700615048409,-0.0007897587493062019
1782831605690391800,5.584391845703125,-0.0021924134343862534,-0.0011640815064311028,0.0014560846611857414
1782831605700320800,5.59432080078125,0.0013038394972682,-0.0016749333590269089,-0.0010469015687704086
1782831605710249700,5.604249755859375,-0.0000730147585272789,-0.0007300432771444321,0.0002503246068954468
1782831605720179000,5.614178955078125,0.0002366863191127777,-0.0007031001150608063,-0.002739878371357918
1782831605730108000,5.62410791015625,-0.00029354915022850037,0.00008732639253139496,0.00001063477247953415
1782831605740036600,5.63403662109375,0.0006101271137595177,0.0005062343552708626,0.0004026144742965698
1782831605749965600,5.643965576171875,0.0007363604381680489,0.00010276492685079575,0.001408490352332592
1782831605759894800,5.653894775390625,0.0006294446066021919,0.00008356757462024689,0.00027480442076921463
1782831605769823700,5.66382373046875,-0.0012195883318781853,0.0011363150551915169,0.0013067787513136864
1782831605779752700,5.673752685546875,0.001482049934566021,0.00018097646534442902,0.0005486682057380676
1782831605789681700,5.683681640625,0.0016213329508900642,-0.0006387447938323021,0.0005191070958971977
1782831605799611000,5.69361083984375,-0.0003392565995454788,-0.000742865726351738,0.0017984574660658836
1782831605809539800,5.703539794921875,0.0027404222637414932,0.0005604857578873634,-0.0011161062866449356
1782831605819468800,5.71346875,-0.0007682712748646736,0.001092325896024704,-0.0011570765636861324
1782831605829397800,5.723397705078125,0.002495165914297104,-0.00044032279402017593,0.0017862487584352493
1782831605839327000,5.733326904296875,-0.0007654149085283279,0.0006716065108776093,-0.0008431347087025642
1782831605849255700,5.743255615234375,-0.0006210710853338242,-0.0003909952938556671,0.0007001673802733421
1782831605859184600,5.7531845703125,0.0017018523067235947,-0.00050384271889925,-0.000997074879705906
1782831605869113600,5.763113525390625,-0.0003493139520287514,0.0007598269730806351,0.0004905667155981064
1782831605879042800,5.773042724609375,0.0003511514514684677,-0.0006297528743743896,0.0008180951699614525
1782831605888971800,5.7829716796875,0.0006867088377475739,-0.0017677219584584236,-0.0006005708128213882
1782831605898900700,5.792900634765625,0.0028384551405906677,0.0032151350751519203,0.0010657645761966705
1782831605908829700,5.80282958984375,-0.0003557400777935982,0.0001562284305691719,-0.00003172457218170166
1782831605918759000,5.812759033203125,0.00179959274828434,0.0013102870434522629,-0.0026045809499919415
1782831605928687900,5.82268798828125,-0.0010396037250757217,0.000782182440161705,-0.0005238535813987255
1782831605938616800,5.832616943359375,0.0008092587813735008,-0.000545283779501915,0.0006277700886130333
1782831605948545800,5.8425458984375,0.0007978072389960289,-0.0018742009997367859,0.001924728974699974
1782831605958474800,5.852474853515625,-0.000003868713974952698,-0.0001305239275097847,0.0012498702853918076
1782831605968403700,5.86240380859375,-0.0007362384349107742,-0.0004098890349268913,0.0009334860369563103
1782831605978332700,5.872332763671875,0.0014144554734230042,0.00032134540379047394,-0.0010651526972651482
1782831605988261600,5.88226171875,-0.0010569579899311066,-0.001302916556596756,0.0007553845643997192
1782831605998190800,5.89219091796875,-0.00137222558259964,-0.0008339732885360718,-0.00020693708211183548
1782831606008119800,5.902119873046875,-0.0011157626286149025,-0.0009325109422206879,-0.0023672934621572495
1782831606018048800,5.912048828125,0.0006216904148459435,0.00042578205466270447,-0.000531164463609457
1782831606027978800,5.921978759765625,-0.002505393698811531,-0.0018834443762898445,-0.000257125124335289
1782831606037907700,5.93190771484375,-0.0014374060556292534,0.0005517732352018356,0.0004819156602025032
1782831606047836700,5.941836669921875,0.0013067154213786125,0.0005541704595088959,0.0009554261341691017
1782831606057765600,5.951765625,0.0008037658408284187,0.0013465797528624535,0.002089289017021656
1782831606067697000,5.96169677734375,0.0016594398766756058,0.0015468494966626167,0.0016349535435438156
1782831606077625900,5.9716259765625,0.0009960541501641273,0.0006101541221141815,-0.0014194268733263016
1782831606087554800,5.981554931640625,-0.0012061139568686485,-0.0001882612705230713,0.00012067891657352448
1782831606097483800,5.99148388671875,0.0016054781153798103,0.00004053674638271332,-0.0009192498400807381
1782831606107412700,6.001412841796875,-0.0006291801109910011,-0.00023110583424568176,-0.0005634515546262264
1782831606117341700,6.011341796875,-0.0021288562566041946,0.0016093840822577477,0.0004207789897918701
1782831606127270700,6.021270751953125,0.0013034259900450706,-0.0011965231969952583,-0.00015020277351140976
1782831606137199900,6.031199951171875,-0.00038080010563135147,-0.0019422564655542374,-0.00006528478115797043
1782831606147128800,6.04112890625,-0.0014708321541547775,-0.0011052247136831284,-0.001238140743225813
1782831606157057800,6.051057861328125,0.0013464298099279404,-0.0009083934128284454,0.0011054016649723053
1782831606166986800,6.06098681640625,0.0011624060571193695,-0.001888170838356018,-0.0003385641612112522
1782831606176916000,6.070916015625,0.0005522957071661949,-0.001135312020778656,0.000029704533517360687
1782831606186845000,6.080844970703125,0.0013033067807555199,-0.00003595929592847824,-0.001689898781478405
1782831606196774000,6.09077392578125,-0.0013599656522274017,-0.0023427270352840424,0.0018047243356704712
1782831606206702600,6.10070263671875,0.0007218271493911743,0.001300211064517498,-0.00035749608650803566
1782831606216631800,6.1106318359375,-0.0008171675726771355,0.0009847981855273247,-0.0011710734106600285
1782831606226560800,6.120560791015625,0.0010004397481679916,-0.0007446594536304474,0.00042229611426591873
1782831606236489700,6.13048974609375,-0.0001110956072807312,-0.001873084343969822,0.0011829091235995293
1782831606246418700,6.140418701171875,-0.0010032542049884796,0.00008194241672754288,-0.00041179219260811806
1782831606256347600,6.15034765625,0.0003198757767677307,0.0031184395775198936,0.0010662935674190521
1782831606266276900,6.16027685546875,0.0011766143143177032,-0.00024912692606449127,-0.0025899605825543404
1782831606276205800,6.170205810546875,-0.0009058034047484398,0.0004669260233640671,0.00005186162889003754
1782831606286134800,6.180134765625,0.00071686040610075,0.0009806500747799873,-0.001213406678289175
1782831606296063700,6.190063720703125,-0.000965380109846592,0.001199190504848957,-0.0020292126573622227
1782831606305993000,6.199992919921875,-0.0004516560584306717,-0.0009763455018401146,-0.0018409271724522114
1782831606315921700,6.209921630859375,-0.0013663088902831078,0.0008521946147084236,0.0006170999258756638
1782831606325850600,6.2198505859375,-0.00017188116908073425,0.0003957292065024376,-0.00046733953058719635
1782831606335779600,6.229779541015625,0.0006910897791385651,-0.00027296412736177444,-0.0003117895685136318
1782831606345709800,6.239709716796875,0.000004527159035205841,-0.00012329407036304474,0.0012469589710235596
1782831606355638800,6.249638671875,0.0012599006295204163,0.0010916078463196754,0.0005818195641040802
1782831606365567700,6.259567626953125,-0.0001438520848751068,-0.0018794145435094833,0.00010538008064031601
1782831606375497000,6.2694970703125,-0.0010941559448838234,-0.00003424938768148422,0.00002919137477874756
1782831606385426000,6.279426025390625,-0.0012835068628191948,0.00033699534833431244,-0.0006003803573548794
1782831606395354600,6.289354736328125,-0.001344475895166397,0.00022328831255435944,-0.0006257337518036366
1782831606405283600,6.29928369140625,-0.0012677768245339394,-0.0012252051383256912,-0.0015956568531692028
1782831606415212800,6.309212890625,-0.0006881793960928917,-0.000912143848836422,0.0007209284231066704
1782831606425141800,6.319141845703125,-0.0002543507143855095,0.0006607193499803543,-0.001845826394855976
1782831606435070700,6.32907080078125,0.00028813909739255905,-0.00021616090089082718,0.0005471939221024513
1782831606444999700,6.338999755859375,-0.001054360531270504,0.002945277839899063,0.0007868781685829163
1782831606454929000,6.348928955078125,0.0010832753032445908,-0.0005296617746353149,0.0019090445712208748
1782831606464857900,6.35885791015625,-0.0011098384857177734,-0.00031794048845767975,0.00019476749002933502
1782831606474786800,6.368786865234375,0.000477413646876812,0.0012415340170264244,0.0019594505429267883
1782831606484715800,6.3787158203125,0.0009980611503124237,0.0015784241259098053,0.000379929319024086
1782831606494645000,6.38864501953125,0.0001485748216509819,-0.0019704410806298256,0.002048475667834282
1782831606504571000,6.39857080078125,0.0006825383752584457,-0.0011872053146362305,0.0003171544522047043
1782831606514500000,6.4085,0.000443517230451107,0.0016451552510261536,-0.001659040804952383
1782831606524429000,6.418428955078125,-0.000053960829973220825,0.00038894172757864,0.0002741478383541107
1782831606534358000,6.42835791015625,-0.00036289356648921967,0.0004550982266664505,0.00007051043212413788
1782831606544287000,6.438286865234375,0.0012565748766064644,-0.00027354247868061066,-0.0007627923041582108
1782831606554216200,6.44821630859375,0.002383175306022167,0.0020688744261860847,8.204951882362366e-7
1782831606564145200,6.458145263671875,0.000014026649296283722,-0.0009346380829811096,-0.00009372178465127945
1782831606574074000,6.46807421875,0.0003725392743945122,-0.001246684230864048,-0.0029868418350815773
1782831606584003000,6.478003173828125,-0.0013345470651984215,0.0012119458988308907,-0.0004445882514119148
1782831606593932000,6.48793212890625,-0.00022628158330917358,0.0013542752712965012,-0.00024101603776216507
1782831606603861000,6.497861083984375,0.0010938476771116257,-0.001999177038669586,-0.00011158641427755356
1782831606613790000,6.5077900390625,-0.000010810792446136475,-0.0005009099841117859,-0.0009290617890655994
1782831606623719000,6.517718994140625,-0.001390327699482441,-0.0009158309549093246,-0.0008939080871641636
1782831606633648000,6.527648193359375,0.002811967395246029,0.00003780517727136612,0.002063887193799019
1782831606643577000,6.5375771484375,-0.0003087250515818596,0.0010029347613453865,-0.00044108182191848755
1782831606653506000,6.547506103515625,0.00025769229978322983,0.00033301860094070435,-0.0019960314966738224
1782831606663435000,6.55743505859375,0.002135220915079117,0.00006110966205596924,-0.0004351525567471981
1782831606673364200,6.5673642578125,-0.00024005305022001266,-0.00047380849719047546,-0.0003507970832288265
1782831606683293200,6.577293212890625,-0.0010350067168474197,-0.0008106986060738564,-0.000729498453438282
1782831606693222100,6.58722216796875,0.0016713831573724747,0.00007779337465763092,0.0020964685827493668
1782831606703151000,6.597151123046875,-0.0009675435721874237,-0.0006244825199246407,-0.0006638979539275169
1782831606713080000,6.607080078125,-0.00022596586495637894,0.0010724719613790512,0.00006619002670049667
1782831606723009000,6.617009033203125,0.0019924473017454147,-0.0009158439934253693,0.002666766755282879
1782831606732938000,6.62693798828125,-0.0008467696607112885,0.001281069591641426,0.0018179267644882202
1782831606742867000,6.636866943359375,0.003337589092552662,-0.002075844444334507,-0.0009954366832971573
1782831606752796200,6.646796142578125,-0.0031252624467015266,0.00009171012789011002,-0.0013346141204237938
1782831606762726100,6.65672607421875,0.0005634818226099014,-0.0008768811821937561,0.0008478462696075439
1782831606772655000,6.666655029296875,-0.0011439686641097069,0.0005403589457273483,-0.002235128078609705
1782831606782584000,6.676583984375,-0.0020720800384879112,-0.00008974503725767136,0.0003425450995564461
1782831606792513000,6.686512939453125,0.00018001627177000046,-0.00007269158959388733,-0.0003050025552511215
1782831606802442000,6.69644189453125,0.0005057211965322495,-0.0012215794995427132,0.0007096622139215469
1782831606812371000,6.706370849609375,0.0006641615182161331,-0.000214490108191967,-0.0004612468183040619
1782831606822300000,6.7162998046875,-0.0003398498520255089,-0.0005742833018302917,0.0003084065392613411
1782831606832229000,6.72622900390625,0.0016606580466032028,-0.0016757231205701828,-0.0006004646420478821
1782831606842158000,6.736157958984375,-0.0013215495273470879,-0.001395558938384056,-0.000599399209022522
1782831606852087000,6.746087158203125,0.003486298955976963,-0.0013815807178616524,-0.0001655006781220436
1782831606862016000,6.75601611328125,-0.0006210943683981895,0.00061845313757658,-0.001426507718861103
1782831606871945200,6.7659453125,0.00005339179188013077,0.0015900395810604095,0.0006225332617759705
1782831606881874200,6.775874267578125,0.0015676654875278473,0.0011908318847417831,-0.0015889555215835571
1782831606891803100,6.78580322265625,-0.0007795020937919617,0.0000448860228061676,-0.00011625140905380249
1782831606901731800,6.79573193359375,0.0025430582463741302,0.0006515542045235634,0.0038768919184803963
1782831606911661000,6.8056611328125,-0.0011566346511244774,0.0015591448172926903,0.00200615543872118
1782831606921590000,6.815590087890625,-0.0008410504087805748,0.0009032087400555611,-0.000677512027323246
1782831606931519000,6.82551904296875,0.0016485825181007385,0.0003879573196172714,-0.00041002361103892326
1782831606941448000,6.835447998046875,-0.00043534114956855774,0.00006172060966491699,-0.001515501644462347
1782831606951377200,6.845377197265625,-0.00024378765374422073,-0.0021187420934438705,-0.003220414277166128
1782831606961306000,6.85530615234375,0.00019403640180826187,-0.0005306992679834366,-0.00023367907851934433
1782831606971235000,6.865235107421875,0.0005545932799577713,0.0013539977371692657,0.001029408536851406
1782831606981164000,6.8751640625,0.0012057358399033546,-0.0013994444161653519,0.000620613805949688
1782831606991093200,6.88509326171875,-0.0022814376279711723,-0.001097375527024269,-0.0003736177459359169
1782831607001022200,6.895022216796875,-0.0003525093197822571,-0.002028682269155979,0.0012152241542935371
1782831607010951200,6.904951171875,0.0021084249019622803,0.0012738695368170738,-0.0003025466576218605
1782831607020880000,6.9148798828125,-0.0006141243502497673,-0.0008694427087903023,-0.001764355693012476
1782831607030809000,6.92480908203125,-0.0002664346247911453,-0.000454009510576725,0.0004652682691812515
1782831607040738000,6.934738037109375,-0.0012885555624961853,0.0008490756154060364,-0.0015827030874788761
1782831607050667000,6.9446669921875,0.0002490077167749405,0.00007342640310525894,-0.00001393631100654602
1782831607060596000,6.954595947265625,-0.001437838189303875,-0.0000035390257835388184,-0.00040835002437233925
1782831607070525200,6.964525146484375,0.001469518058001995,0.001307065598666668,0.0020988481119275093
1782831607080454100,6.9744541015625,0.0001296820119023323,0.0012327628210186958,0.0016498388722538948
1782831607090383000,6.984383056640625,0.0009674495086073875,0.0007382072508335114,0.0020592855289578438
1782831607100312000,6.99431201171875,-0.0003100689500570297,0.00038161035627126694,0.0004944121465086937
1782831607110241300,7.0042412109375,0.0005093049257993698,0.0011381786316633224,0.0018158983439207077
1782831607120170200,7.014170166015625,-0.0009258724749088287,-0.0019857091829180717,-0.002010531723499298
1782831607130099000,7.024098876953125,-0.0022299187257885933,-0.002853824757039547,0.00072469562292099
1782831607140028000,7.03402783203125,-0.0003755595535039902,-0.0014625899493694305,0.0008258959278464317
1782831607149957000,7.04395703125,-0.0014139851555228233,-0.0017735622823238373,-0.0010082037188112736
1782831607159886000,7.053885986328125,-0.0007790876552462578,0.0001883888617157936,-0.0005392213352024555
1782831607169816000,7.063816162109375,0.0015158243477344513,0.0012452555820345879,0.0016080290079116821
1782831607179745000,7.0737451171875,0.000004480592906475067,0.000680665485560894,0.0005134698003530502
1782831607189674200,7.08367431640625,0.00005113333463668823,-0.0009559933096170425,-0.0010325307957828045
1782831607199603200,7.093603271484375,0.0008468860760331154,-0.0014390908181667328,0.0011408748105168343
1782831607209532000,7.103531982421875,-0.0014601629227399826,-0.00035839248448610306,-0.00018008984625339508
1782831607219460900,7.1134609375,-0.0012420499697327614,0.0018291277810931206,-0.0001832861453294754
1782831607229390000,7.12339013671875,0.001368287019431591,0.0019608624279499054,-0.001912523526698351
1782831607239319000,7.133319091796875,-0.0015888866037130356,0.0022934917360544205,-0.0011223633773624897
1782831607249248000,7.143248046875,0.0007332004606723785,0.00011737551540136337,-0.0003867931663990021
1782831607259177000,7.153177001953125,0.0020866189152002335,0.0018028905615210533,0.000721881166100502
1782831607269106200,7.163106201171875,0.0004850141704082489,0.000221913680434227,0.0020662620663642883
1782831607279035100,7.17303515625,0.000504455529153347,-0.0003322893753647804,0.001305130310356617
1782831607288964000,7.182964111328125,-0.00022094976156949997,-0.0008987151086330414,-0.0019672000780701637
1782831607298893000,7.19289306640625,0.0008943825960159302,0.0002323295921087265,-0.000247064046561718
1782831607308822300,7.202822265625,0.0023701442405581474,0.000522061251103878,-0.000329446978867054
1782831607318751000,7.2127509765625,-0.0009398981928825378,0.0014957133680582047,0.0008513983339071274
1782831607328680000,7.222679931640625,-0.0002629319205880165,-0.0010808473452925682,0.0007996149361133575
1782831607338609000,7.23260888671875,0.0010619908571243286,-0.002187124453485012,0.0007609985768795013
1782831607348538000,7.2425380859375,0.0023376643657684326,-0.0015962468460202217,0.0003962786868214607
1782831607358467000,7.252467041015625,0.0015554940328001976,-0.0006771907210350037,-0.0000031962990760803223
1782831607368396000,7.26239599609375,0.002054738812148571,0.0006546508520841599,0.0021404121071100235
1782831607378325000,7.272324951171875,-0.0007895175367593765,0.000428016297519207,0.0006482433527708054
1782831607388254200,7.282254150390625,0.0012432467192411423,-0.00025546178221702576,0.0014169737696647644
1782831607398183200,7.29218310546875,-0.0007778257131576538,0.001747768372297287,0.0018683802336454391
1782831607408112000,7.302112060546875,0.0012534605339169502,-0.0011189868673682213,-0.0010049249976873398
1782831607418041000,7.312041015625,-0.00029596593230962753,0.002591063268482685,-0.0016898899339139462
1782831607427970000,7.321969970703125,-0.00005525071173906326,-0.0012671006843447685,-0.0025374293327331543
1782831607437899000,7.33189892578125,0.0032300250604748726,0.0012202924117445946,-0.001190135721117258
1782831607447828000,7.341827880859375,0.00008772499859333038,0.0018875794485211372,-0.002454746048897505
1782831607457757000,7.3517568359375,0.0014877496287226677,0.001163732260465622,-0.001083218026906252
1782831607467686100,7.36168603515625,-0.00021439697593450546,0.00202145054936409,0.00034395791590213776
1782831607477615000,7.371614990234375,0.0015672575682401657,0.002899761311709881,-0.0011474122293293476
1782831607487544000,7.3815439453125,0.0007234727963805199,-0.0006254548206925392,-0.0009255269542336464
1782831607497473000,7.39147314453125,0.0005053598433732986,-0.00016419589519500732,-0.0014355224557220936
1782831607507401500,7.4014013671875,-0.0011622505262494087,-0.002018769271671772,-0.0007227929309010506
1782831607517330400,7.411330322265625,0.0002268543466925621,0.0018593259155750275,-0.0006969603709876537
1782831607527259400,7.42125927734375,0.0006200708448886871,-0.0002756314352154732,-0.0007640551775693893
1782831607537188400,7.431188232421875,-0.0016923518851399422,-0.0027212128043174744,-0.00008894409984350204
1782831607547117600,7.44111767578125,0.001085297204554081,0.0003389902412891388,-0.0009386991150677204
1782831607557046500,7.451046630859375,0.0004970049485564232,-0.0021462710574269295,-0.000733635388314724
1782831607566975200,7.460975341796875,-0.0005980534479022026,-0.0008631078526377678,0.000009024515748023987
1782831607576905500,7.470905517578125,0.001199847087264061,-0.0018655210733413696,-0.0006165513768792152
1782831607586834400,7.48083447265625,-0.0009753704071044922,-0.0009783543646335602,0.0009265374392271042
1782831607596763400,7.490763427734375,-0.0003021238371729851,0.0018581785261631012,0.0028472095727920532
1782831607606692400,7.5006923828125,-0.001548641361296177,0.000876392237842083,-0.00035497918725013733
1782831607616621600,7.51062158203125,0.001447947695851326,0.0002332385629415512,-0.0009009274654090405
1782831607626550500,7.520550537109375,-0.0013696299865841866,-0.0011371336877346039,0.0015614237636327744
1782831607636479500,7.5304794921875,-0.001282012090086937,0.0007071048021316528,-0.001165386289358139
1782831607646408200,7.540408203125,-0.0002786759287118912,0.0009902771562337875,-0.00023073935881257057
1782831607656337400,7.55033740234375,-0.0010360786691308022,0.002964211627840996,0.002270767465233803
1782831607666266400,7.560266357421875,-0.001353205181658268,0.0017103850841522217,-0.0007132901810109615
1782831607676195300,7.5701953125,-0.0012362925335764885,-0.000365549698472023,0.0008803457021713257
1782831607686124300,7.580124267578125,0.0013173473998904228,-0.00032066646963357925,-0.0004025222733616829
1782831607696053500,7.590053466796875,0.0006265239790081978,-0.0005880482494831085,-0.0021413001231849194
1782831607705982500,7.599982421875,0.000365355983376503,-0.00042727403342723846,-0.0012650205753743649
1782831607715911400,7.609911376953125,-0.00004237424582242966,0.0003860555589199066,-0.0010261349380016327
1782831607725840400,7.61984033203125,0.003312104381620884,0.00022744294255971909,-0.002614318858832121
1782831607735769600,7.62976953125,-0.00020752940326929092,-0.0008735079318284988,-0.00157169159501791
1782831607745698600,7.639698486328125,0.0008273720741271973,0.00019927788525819778,-0.0019565196707844734
1782831607755627500,7.64962744140625,0.0021696053445339203,-0.002992786467075348,-0.00003318488597869873
1782831607765556200,7.65955615234375,-0.0002482617273926735,0.0010651163756847382,0.0007465463131666183
1782831607775485400,7.6694853515625,-0.0001393388956785202,0.00266860518604517,-0.0031035859137773514
1782831607785414400,7.679414306640625,-0.0008648373186588287,-0.0019450662657618523,0.00005864351987838745
1782831607795343400,7.68934326171875,-0.00038040895015001297,0.004094449803233147,0.0011063311249017715
1782831607805272300,7.699272216796875,0.0005958834663033485,-0.0001815473660826683,0.0009710537269711494
1782831607815201300,7.709201171875,0.00041079428046941757,0.0026653725653886795,-0.0019941101782023907
1782831607825130500,7.719130615234375,-0.00026716198772192,0.0008010789752006531,-0.00042167771607637405
1782831607835059500,7.7290595703125,-0.00035691075026988983,0.000016777776181697845,-0.00022433744743466377
1782831607844988400,7.738988525390625,0.0019468292593955994,0.0014533773064613342,0.0010238438844680786
1782831607854917400,7.74891748046875,-0.001690782606601715,-0.0011567873880267143,-0.0010704658925533295
1782831607864846600,7.7588466796875,0.0017255404964089394,0.0008750902488827705,0.001957000233232975
1782831607874775300,7.768775390625,-0.0014737145975232124,0.00022128410637378693,-0.0026630517095327377
1782831607884704300,7.778704345703125,0.00016889721155166626,-0.0015150178223848343,-0.00032114284113049507
1782831607894633200,7.78863330078125,-0.000007404014468193054,0.0007926113903522491,0.00023705605417490005
1782831607904562400,7.7985625,-0.001006576232612133,-0.0006262157112360001,-0.0024436241947114468
1782831607914491400,7.808491455078125,-0.0006885947659611702,0.00196264311671257,-0.002129371277987957
1782831607924420400,7.81842041015625,-0.0004974231123924255,-0.0012731840834021568,0.0011266404762864113
1782831607934349300,7.828349365234375,0.000593140721321106,0.0013364478945732117,0.001343422569334507
1782831607944278500,7.838278564453125,0.0005047619342803955,0.0007808152586221695,-0.001109603326767683
1782831607954207500,7.84820751953125,0.0007838616147637367,-0.000051422975957393646,0.0009330408647656441
1782831607964136400,7.858136474609375,0.0010528946295380592,0.0004890169948339462,0.0004096822813153267
1782831607974066400,7.86806640625,0.0018449192866683006,-0.0011261897161602974,0.0005761301144957542
1782831607983995400,7.877995361328125,-0.0019969074055552483,0.00002712942659854889,0.0006548156961798668
1782831607993924400,7.88792431640625,-0.0014855805784463882,0.0007104966789484024,-0.0030621583573520184
1782831608003853300,7.897853271484375,0.0016484353691339493,0.00021089613437652588,-0.0019764783792197704
1782831608013782500,7.907782470703125,-0.0015713265165686607,0.0007046470418572426,-0.0011679427698254585
1782831608023711500,7.91771142578125,0.0026363730430603027,0.003074970096349716,-0.00018841633573174477
1782831608033640400,7.927640380859375,0.002446223981678486,0.0021239547058939934,-0.0017591486684978008
1782831608043569400,7.9375693359375,0.0004284987226128578,0.0006124367937445641,0.00018026866018772125
1782831608053498600,7.94749853515625,-0.001134243793785572,0.000882747583091259,-0.0009624939411878586
1782831608063427300,7.95742724609375,0.0009824130684137344,0.0004015769809484482,-0.00021203747019171715
1782831608073356300,7.967356201171875,-0.0001275930553674698,0.00029558315873146057,0.0001040799543261528
1782831608083285200,7.97728515625,0.0009358962997794151,-0.0010523423552513123,0.002004575915634632
1782831608093214500,7.98721435546875,-0.004589364863932133,-0.00011038221418857574,0.0018328018486499786
1782831608103143400,7.997143310546875,0.0010908637195825577,-0.000641590915620327,0.00004169344902038574
1782831608113072400,8.007072265625,0.0011838078498840332,-0.0006796736270189285,-0.001897354144603014
1782831608123001300,8.01700146484375,-0.0008840961381793022,0.0025550099089741707,-0.0006419038400053978
1782831608132930600,8.0269306640625,-0.00014640018343925476,-0.0010157562792301178,0.0022233910858631134
1782831608142859500,8.036859619140625,-0.003253275528550148,0.0004827287048101425,0.00403900071978569
1782831608152788500,8.04678857421875,0.0004258807748556137,-0.0007987841963768005,0.00019339565187692642
1782831608162717400,8.056717529296876,0.0024595316499471664,0.0008719461038708687,-0.000027203001081943512
1782831608172646400,8.066646484375,-0.00014690402895212173,-0.000695323571562767,0.00018931180238723755
1782831608182575400,8.076575439453125,-0.0010284129530191422,0.003416101448237896,-0.0009568547829985619
1782831608192504300,8.08650439453125,0.0005231443792581558,0.00045972689986228943,-0.0009344844147562981
1782831608202433300,8.096433349609375,-0.0012468229979276657,0.0015106508508324623,0.0019822726026177406
1782831608212362200,8.1063623046875,0.0005324343219399452,0.0033937711268663406,-0.0007365490309894085
1782831608222291500,8.11629150390625,-0.000793183222413063,0.0007906239479780197,0.0012469757348299026
1782831608232220400,8.126220458984376,0.0005479846149682999,-0.0010344404727220535,0.00015348196029663086
1782831608242149400,8.1361494140625,-0.00033526401966810226,0.0003604777157306671,0.0010963007807731628
1782831608252078300,8.146078369140625,-0.0009688297286629677,0.0015815366059541702,-0.0027426457963883877
1782831608262007600,8.156007568359374,-0.00006039254367351532,0.003601997159421444,-0.0008226451463997364
1782831608271936500,8.1659365234375,-0.0006545437499880791,0.0010355086997151375,0.0004575364291667938
1782831608281865500,8.175865478515625,-0.0016248999163508415,0.0000967876985669136,-0.0011504152789711952
1782831608291794200,8.185794189453125,0.000086979940533638,0.00055644940584898,0.0007183244451880455
1782831608301723400,8.195723388671874,0.0009210333228111267,0.0013951212167739868,-0.0007888185791671276
1782831608311652400,8.20565234375,-0.00021613668650388718,0.000215873122215271,-0.00013794191181659698
1782831608321581300,8.215581298828125,0.000331156887114048,0.00013632327318191528,0.0019558342173695564
1782831608331510300,8.22551025390625,-0.0006978884339332581,-0.0019835522398352623,0.0005728546530008316
1782831608341439500,8.235439453125,0.00048207398504018784,-0.0030636098235845566,-0.000914192758500576
1782831608351368400,8.245368408203126,0.001961992122232914,0.0003369804471731186,-0.0005405512638390064
1782831608361297400,8.25529736328125,0.000370868481695652,0.0006798487156629562,0.00004090927541255951
1782831608371226400,8.265226318359375,0.002650533802807331,0.000929919071495533,0.0031858356669545174
1782831608381155600,8.275155517578124,0.0009355861693620682,-0.00005719345062971115,-0.0009504556655883789
1782831608391085300,8.285085205078126,0.0006122784689068794,-0.0005834344774484634,-0.0012356801889836788
1782831608401014300,8.29501416015625,0.0025142962113022804,0.00012865755707025528,-0.0015991614200174809
1782831608410943500,8.304943603515625,0.0016485024243593216,0.00025675538927316666,0.0003606583923101425
1782831608420872400,8.31487255859375,0.000715416856110096,0.0005945451557636261,0.0006600134074687958
1782831608430801400,8.324801513671876,0.001324215903878212,0.00045739300549030304,0.00219133123755455
1782831608440730400,8.33473046875,-0.00034741684794425964,-0.00034699495881795883,-0.0005511566996574402
1782831608450659600,8.34465966796875,0.0009479448199272156,0.0009251972660422325,0.0005961330607533455
1782831608460588500,8.354588623046874,0.0035400893539190292,-0.0008649583905935287,-0.0018100454472005367
1782831608470517500,8.364517578125,-0.00022029411047697067,0.000818425789475441,0.00039531849324703217
1782831608480446500,8.374446533203125,0.0005410173907876015,0.001211371272802353,-0.0009533907286822796
1782831608490375200,8.384375244140625,-0.0009684618562459946,-0.0010507171973586082,-0.00001542549580335617
1782831608500304400,8.394304443359376,0.0012019490823149681,-0.0008450094610452652,0.0012417901307344437
1782831608510233300,8.4042333984375,-0.0003520054742693901,-0.002245299518108368,0.0015118345618247986
1782831608520162300,8.414162353515625,-0.0012535657733678818,0.000433153472840786,-0.0009395889937877655
1782831608530091500,8.424091552734374,-0.0020991191267967224,0.0004243645817041397,-0.0010493113659322262
1782831608540020500,8.4340205078125,-0.002542024478316307,-0.0003228290006518364,-0.0018204613588750362
1782831608549949400,8.443949462890625,-0.0023028720170259476,-0.0010232403874397278,0.0007324451580643654
1782831608559878400,8.45387841796875,0.00016449205577373505,-0.0018603717908263206,-0.0007657664828002453
1782831608569807600,8.4638076171875,-0.0012794733047485352,0.00025737378746271133,0.0011186860501766205
1782831608579736600,8.473736572265626,0.0002401815727353096,0.0004920782521367073,0.0002766633406281471
1782831608589665500,8.48366552734375,0.0008503114804625511,0.0007418831810355186,-0.00224721385166049
1782831608599594200,8.49359423828125,0.0013881735503673553,0.0014767181128263474,0.000995689071714878
1782831608609523500,8.5035234375,-0.00019321218132972717,0.0008716480806469917,0.0004417514428496361
1782831608619452400,8.513452392578126,0.0002841288223862648,0.0019106920808553696,-0.0017009074799716473
1782831608629381400,8.52338134765625,0.0027139969170093536,0.0027535827830433846,0.0003033876419067383
1782831608639310300,8.533310302734375,0.0008082548156380653,-0.0012177405878901482,0.0003114501014351845
1782831608649239600,8.543239501953124,0.00005964003503322601,0.00013940688222646713,-0.0006422284059226513
1782831608659168500,8.55316845703125,0.0008597597479820251,-0.001653381623327732,-0.0018314276821911335
1782831608669097500,8.563097412109375,0.0035953596234321594,0.0011282898485660553,-0.002050872426480055
1782831608679026400,8.5730263671875,-0.002098201774060726,0.000005103647708892822,-0.001445540226995945
1782831608688955600,8.58295556640625,-0.000925346277654171,0.00010284129530191422,0.0003861822187900543
1782831608698884600,8.592884521484375,-0.0004184432327747345,-0.00042947474867105484,0.00021164584904909134
1782831608708813300,8.602813232421875,-0.0006453441455960274,-0.0009280182421207428,-0.003505328204482794
1782831608718742300,8.6127421875,0.000499652698636055,0.0003324327990412712,-0.000636260025203228
1782831608728671500,8.62267138671875,-0.00021593831479549408,-0.0016803843900561333,-0.000907103531062603
1782831608738600400,8.632600341796875,0.0014215903356671333,-0.0003479393199086189,-0.0019153379835188389
1782831608748529400,8.642529296875,0.0005941465497016907,-0.0014779185876250267,0.000572587363421917
1782831608758458400,8.652458251953124,0.00041548628360033035,-0.0020797550678253174,0.0007129516452550888
1782831608768387600,8.6623876953125,0.0027814386412501335,-0.0022978680208325386,-0.00016722362488508224
1782831608778317600,8.672317626953125,-0.0012962128967046738,0.0025185681879520416,-0.0018906756304204464
1782831608788246300,8.682246337890625,0.0011467048898339272,0.000656486488878727,-0.00117588322609663
1782831608798175200,8.69217529296875,0.0027992725372314453,0.0007248949259519577,-0.00041999155655503273
1782831608808104400,8.7021044921875,0.0020117759704589844,-0.0004460969939827919,0.0013672560453414917
1782831608818033400,8.712033447265625,-0.0001508491113781929,0.0011661238968372345,0.0003594113513827324
1782831608827962400,8.72196240234375,0.00017219316214323044,0.002688121050596237,-0.0009444719180464745
1782831608837891300,8.731891357421874,-0.0001470828428864479,0.0008255625143647194,0.0003298567607998848
1782831608847820500,8.741820556640626,-0.0003404282033443451,0.0016524745151400566,-0.0006648334674537182
1782831608857749500,8.75174951171875,0.0005839681252837181,-0.00047625787556171417,-0.001537105068564415
1782831608867678500,8.761678466796875,0.0003711814060807228,0.0007453346624970436,-0.001292893197387457
1782831608877607400,8.771607421875,0.0022095898166298866,-0.0009947456419467926,0.001985013484954834
1782831608887536600,8.78153662109375,-0.0005630273371934891,0.0004215231165289879,0.002087811939418316
1782831608897465300,8.79146533203125,-0.0005094436928629875,0.0009925644844770432,-0.0006411764770746231
1782831608907394300,8.801394287109375,-0.002215730957686901,-0.00010146200656890869,0.003085118718445301
1782831608917323300,8.8113232421875,0.0021941261366009712,-0.0021129483357071877,0.0004031183198094368
1782831608927252500,8.82125244140625,-0.0007151104509830475,-0.00015419349074363708,-0.000985187478363514
1782831608937181400,8.831181396484375,0.0011857617646455765,0.000544223003089428,-0.0005116742104291916
1782831608947110400,8.8411103515625,0.00007389113306999207,-0.000839555636048317,-0.0009329863823950291
1782831608957039400,8.851039306640626,0.0014506559818983078,-0.000006780028343200684,-0.0015366310253739357
1782831608966968600,8.860968505859375,-0.0013717617839574814,0.0012049581855535507,-0.0006093182601034641
1782831608976897500,8.8708974609375,0.0001005055382847786,0.0012234728783369064,0.0008386094123125076
1782831608986826500,8.880826416015625,-0.00045609474182128906,-0.0000098375603556633,0.0019584689289331436
1782831608996755500,8.89075537109375,-0.0018843356519937515,0.0004129568114876747,-0.0007605841383337975
1782831609006684400,8.900684326171875,-0.0007953690364956856,-0.0007234131917357445,0.004140697419643402
1782831609016613400,8.91061328125,-0.0002778777852654457,0.0029348814859986305,-0.0013409103266894817
1782831609026542300,8.920542236328124,0.001730678603053093,0.0031942734494805336,-0.00024874787777662277
1782831609036471300,8.93047119140625,-0.00026130490005016327,-0.000003201887011528015,0.0011841943487524986
1782831609046400500,8.940400390625,0.0013967789709568024,0.0008687172085046768,-0.0019735158421099186
1782831609056329500,8.95032958984375,-0.001359475776553154,-0.00009059254080057144,-0.0008632536046206951
1782831609066258400,8.960258544921874,-0.00002176966518163681,0.002967781387269497,0.0018025711178779602
1782831609076187400,8.9701875,-0.0027384674176573753,0.0013999193906784058,0.0002517635002732277
1782831609086116600,8.98011669921875,-0.0008505526930093765,0.0006760722026228905,0.0003284625709056854
1782831609096045600,8.990045654296875,0.000005024485290050507,-0.0006788503378629684,0.0001092664897441864
1782831609105974500,8.999974609375,-0.0004876600578427315,-0.0022754156962037086,0.0006315121427178383
1782831609115903500,9.009903564453126,-0.00033775530755519867,-0.0005094269290566444,0.0010815197601914406
1782831609125832400,9.01983251953125,-0.0008059395477175713,0.0024935537949204445,-0.001488963607698679
1782831609135761400,9.029761474609375,0.0009584194049239159,0.0009178463369607925,-0.003067574929445982
1782831609145690400,9.0396904296875,-0.0005771592259407043,0.00038042105734348297,-0.001220140140503645
1782831609155619300,9.049619384765625,0.0031928159296512604,0.000047130510210990906,0.000873195007443428
1782831609165548300,9.05954833984375,0.0005413731560111046,0.00027243420481681824,-0.0009108567610383034
1782831609175477500,9.0694775390625,0.0012878375127911568,-0.0006779655814170837,0.0008029546588659286
1782831609185407500,9.079407470703124,0.0001978054642677307,-0.001796226017177105,-0.001195215154439211
1782831609195336400,9.08933642578125,0.001261044293642044,0.0019922852516174316,0.001576462760567665
1782831609205265400,9.099265380859375,0.001321764662861824,-0.001820828765630722,0.0020156176760792732
1782831609215194400,9.1091943359375,0.00012100115418434143,0.0005449587479233742,0.0031047742813825607
1782831609225123300,9.119123291015624,0.001828087493777275,0.0010586827993392944,-0.0006377664394676685
1782831609235052300,9.12905224609375,-0.00032015983015298843,0.0012016324326395988,-0.0013490072451531887
1782831609244981500,9.1389814453125,0.000021523796021938324,-0.0000737551599740982,-0.0016792393289506435
1782831609254910500,9.148910400390625,0.0009568464010953903,-0.00025304872542619705,-0.0008924482390284538
1782831609264839400,9.15883935546875,-0.0029236450791358948,-0.0005036517977714539,0.0012705707922577858
1782831609274768400,9.168768310546875,-0.0011182818561792374,-0.00045367609709501266,-0.0014095199294388294
1782831609284697600,9.178697509765625,0.0007062498480081558,-0.0021687522530555725,-0.0005996525287628174
1782831609294626600,9.18862646484375,0.0017458787187933922,0.00009571295231580734,0.0009601535275578499
1782831609304555500,9.198555419921876,0.00034052785485982895,-0.0005306629464030266,0.0008887806907296181
1782831609314484500,9.208484375,0.00025047268718481064,-0.00019834842532873154,0.0007112696766853333
1782831609324413400,9.218413330078125,0.0009820424020290375,0.0016900990158319473,0.0006018141284584999
1782831609334342400,9.22834228515625,0.0017338115721940994,-0.0031248945742845535,-0.00018043164163827896
1782831609344271400,9.238271240234376,-0.00019351858645677567,-0.0005469545722007751,-0.0006989492103457451
1782831609354200300,9.248200439453125,-0.000703682191669941,-0.003214677795767784,-0.001928148791193962
1782831609364129500,9.258129638671875,0.0005328226834535599,0.001786205917596817,0.00022688135504722595
1782831609374058500,9.26805859375,0.00039531849324703217,0.0002459641546010971,-0.00012689828872680664
1782831609383987500,9.277987548828126,0.0024368977174162865,0.0019298810511827469,-0.0019066892564296722
1782831609393916400,9.28791650390625,-0.001926126889884472,0.000457029789686203,-0.0012318664230406284
1782831609403845600,9.297845703125,-0.00003208685666322708,-0.0000471062958240509,0.00028586946427822113
1782831609413774600,9.307774658203124,0.0011154748499393463,-0.0007991725578904152,-0.0016683549620211124
1782831609423701500,9.317701416015625,-0.00039506983011960983,0.00202750600874424,-0.00039057014510035515
1782831609433630500,9.32763037109375,0.0011526895686984062,0.0009291153401136398,-0.0010310192592442036
1782831609443559400,9.337559326171874,0.000012323260307312012,-0.00046797841787338257,-0.000864571426063776
1782831609453488400,9.34748828125,-0.0016650725156068802,0.0007518334314227104,0.0021403618156909943
1782831609463417600,9.35741748046875,0.0003884909674525261,0.0017063096165657043,0.0005834773182868958
1782831609473346600,9.3673466796875,-0.00029761437326669693,-0.0018084896728396416,0.0006876923143863678
1782831609483275500,9.377275634765626,-0.0007311766967177391,-0.00018555857241153717,0.00018115900456905365
1782831609493204500,9.38720458984375,0.0009387899190187454,-0.002100171521306038,-0.0012259846553206444
1782831609503133400,9.397133544921875,-0.00047428347170352936,-0.0006098663434386253,0.00018309429287910461
1782831609513062700,9.407062744140624,0.0005989791825413704,-0.0028585856780409813,-0.000578966923058033
1782831609522991600,9.41699169921875,0.0000050943344831466675,-0.0023235566914081573,-0.0004037306644022465
1782831609532920800,9.4269208984375,0.00007766671478748322,-0.0021679988130927086,0.0003872327506542206
1782831609542849800,9.436849853515625,0.0014324169605970383,0.002371625043451786,-0.0003677736967802048
1782831609552778800,9.44677880859375,-0.0006804279983043671,-0.0007043816149234772,-0.0005002128891646862
1782831609562707700,9.456707763671876,-0.001924123615026474,0.001101774163544178,0.0009866300970315933
1782831609572637000,9.466636962890625,0.0023654093965888023,0.0002929316833615303,0.0012076105922460556
1782831609582566000,9.47656591796875,-0.0007156012579798698,-0.0013382546603679657,0.0010677948594093323
1782831609592494800,9.486494873046874,-0.0004204697906970978,-0.0003232555463910103,-0.0025471006520092487
1782831609602423600,9.496423583984376,0.002382507547736168,0.003978813998401165,-0.0016637304797768593
1782831609612352800,9.506352783203125,-0.0012158583849668503,-0.00003822147846221924,-0.0011309548281133175
1782831609622281700,9.51628173828125,0.00095328688621521,-0.0015780609101057053,-0.0007607755251228809
1782831609632210700,9.526210693359374,-0.0002104649320244789,0.00025292206555604935,-0.00036874040961265564
1782831609642139600,9.5361396484375,-0.0008943649008870125,0.00042709242552518845,0.001079753041267395
1782831609652068900,9.54606884765625,0.0016364892944693565,-0.0020899437367916107,0.00006643403321504593
1782831609661997800,9.555997802734375,-0.0012493124231696129,-0.0006204107776284218,-0.0007713963277637959
1782831609671926800,9.5659267578125,-0.00018603820353746414,-0.0007797041907906532,-0.0020534167997539043
1782831609681855700,9.575855712890625,0.0031114881858229637,-0.00041431840509176254,0.00020281318575143814
1782831609691785700,9.58578564453125,-0.00024280231446027756,0.00012723542749881744,-0.0013766433112323284
1782831609701714700,9.595714599609375,0.0007561501115560532,0.0004385588690638542,0.00008969288319349289
1782831609711643600,9.6056435546875,0.001546771265566349,-0.0010724235326051712,-0.0010065576061606407
1782831609721572900,9.61557275390625,0.0011773910373449326,0.0016133738681674004,-0.0029850201681256294
1782831609731501800,9.625501708984375,-0.0004215613007545471,0.0020005423575639725,-0.000038892962038517
1782831609741430800,9.6354306640625,-0.00009212829172611237,-0.00030815228819847107,0.002217070199549198
1782831609751359700,9.64535986328125,0.0007674749940633774,0.0021913722157478333,-0.0005352557636797428
1782831609761289000,9.6552890625,0.0007525617256760597,-0.00004861224442720413,0.0010892720893025398
1782831609771218000,9.665218017578125,-0.0003766082227230072,0.0009837504476308823,-0.0018156804144382477
1782831609781147000,9.67514697265625,-0.00012334156781435013,0.002117457799613476,-0.0015850504860281944
1782831609791075600,9.68507568359375,0.000834289938211441,0.0018932847306132317,-0.000889219343662262
1782831609801004800,9.6950048828125,0.0005746316164731979,0.0006716921925544739,-0.0007137167267501354
1782831609810933800,9.704933837890625,0.0033197375014424324,0.0003481656312942505,-0.002785426564514637
1782831609820862700,9.71486279296875,-0.0000731293112039566,-0.00003746058791875839,-0.00202083308249712
1782831609830791700,9.724791748046876,0.00029506999999284744,-0.000395091250538826,0.0010394668206572533
1782831609840721000,9.734720947265625,-0.0008498234674334526,-0.001225464977324009,0.002002200111746788
1782831609850649900,9.74464990234375,-0.0020656781271100044,0.001430007629096508,0.0005140649154782295
1782831609860578800,9.754578857421874,0.001245962455868721,-0.0032598190009593964,-0.0006497367285192013
1782831609870507800,9.7645078125,0.000010747462511062622,-0.000652155838906765,-0.0002254825085401535
1782831609880436700,9.774436767578125,-0.0009650345891714096,-0.0018215496093034744,0.0011819982901215553
1782831609890366000,9.784365966796875,0.002083148807287216,0.001103169284760952,0.0028541162610054016
1782831609900294700,9.794294677734374,-0.00023966003209352493,0.0044457027688622475,0.0011108117178082466
1782831609910223600,9.8042236328125,-0.0011464199051260948,0.011145041324198246,0.00029498524963855743
1782831609920152600,9.814152587890625,-0.0006630569696426392,0.006703953258693218,-0.0015963921323418617
1782831609930081800,9.824081787109375,0.0005860105156898499,0.007532251067459583,0.0005734032019972801
1782831609940010800,9.8340107421875,0.001320776529610157,0.0013997890055179596,0.0008463775739073753
1782831609949939700,9.843939697265625,0.0013960329815745354,-0.004295302554965019,0.0010970253497362137
1782831609959868700,9.85386865234375,0.00035926420241594315,-0.00863598845899105,0.002079731784760952
1782831609969798000,9.8637978515625,0.0013695117086172104,-0.007718097884207964,-0.00362478569149971
1782831609979726800,9.873726806640626,0.0025197314098477364,-0.0029885899275541306,0.0027199294418096542
1782831609989655800,9.88365576171875,-0.0003308672457933426,0.00020897481590509415,-0.0015640207566320896
1782831609999584800,9.893584716796875,0.0007988456636667252,0.0007314868271350861,-0.0019728164188563824
1782831610009513700,9.903513671875,0.0008861543610692024,0.000554155558347702,-0.00028977170586586
