time,seconds_elapsed,z,y,x
1782831380592404200,0.086404296875,0.03405716790258884,-0.12792159264460204,0.23056272315811366
1782831380602333200,0.096333251953125,-0.0782441001534462,-0.24162951262816784,0.3229785565270111
1782831380612262100,0.10626220703125,-0.056335050684213635,-0.2536260937616229,0.33059732443504036
1782831380622191000,0.116191162109375,0.027207740399241447,-0.09617752398997545,0.24620686701368538
1782831380632120000,0.1261201171875,0.06359831968545913,-0.03231456201896071,0.15671492173485457
1782831380642049300,0.13604931640625,0.10717676464915275,-0.10148585953116417,0.11422083794176578
1782831380651979300,0.145979248046875,0.12693243547677993,-0.15978768024370074,0.17052194982375948
1782831380661908200,0.155908203125,0.1463660347431898,-0.19985855547785758,0.24185294612050054
1782831380671837400,0.16583740234375,0.1909264764815569,-0.2508350017383694,0.26351631373297424
1782831380681766100,0.17576611328125,0.1551806248396635,-0.24982260982543228,0.21493381340429185
1782831380691695000,0.185695068359375,0.09535597847402096,-0.20745500195622443,0.1821773528367281
1782831380701624000,0.1956240234375,0.17892507304251193,-0.1420142692744732,0.23548326495811342
1782831380711553300,0.20555322265625,0.06457271767556667,-0.16481354558169842,0.250852172068879
1782831380721482200,0.215482177734375,-0.08602057937383652,-0.25587781821116806,0.27497148146610706
1782831380731411200,0.2254111328125,-0.17344868745803832,-0.29037454657480116,0.3011893705777824
1782831380741341200,0.235341064453125,-0.20364976445436475,-0.2547340550035238,0.30005353494826703
1782831380751270400,0.2452705078125,-0.2295107664197683,-0.21243936624005436,0.2955235999010503
1782831380761199400,0.255199462890625,-0.13297814538180827,-0.16170213556289673,0.2735936537742615
1782831380771128000,0.265128173828125,-0.1570107628762722,-0.13939268859922885,0.2571884989509359
1782831380781057000,0.27505712890625,-0.17332476881742476,-0.20043679375723003,0.1410666131608188
1782831380790986200,0.284986328125,-0.03470423363447189,-0.22358576028496024,0.02915445402022451
1782831380800915200,0.294915283203125,0.048240591555833816,-0.2607740658201277,0.11163169823139905
1782831380810844200,0.30484423828125,0.0973667337745428,-0.3534462120376527,0.2092790755782276
1782831380820773000,0.314773193359375,0.19653028783798215,-0.3739474405355751,0.1629421622192487
1782831380830702300,0.324702392578125,0.2884235586374998,-0.37489948056340217,0.12531718229986727
1782831380840632300,0.33463232421875,0.32062779214978215,-0.4075063035272062,0.1781183232368901
1782831380850561000,0.34456103515625,0.21480478019714355,-0.43575317771583794,0.2863651282703504
1782831380860490200,0.354490234375,0.07818857057392596,-0.4971316293947398,0.4085955966012552
1782831380870419200,0.364419189453125,-0.012816811475157737,-0.5033467045173049,0.40973271087240426
1782831380880348200,0.37434814453125,-0.11161737744510174,-0.4827810324810445,0.23309834258295595
1782831380890277000,0.384277099609375,-0.24434943911135196,-0.46429684289395806,0.0141579604184255
1782831380900206300,0.394206298828125,-0.37677813391685483,-0.509873037546128,-0.008059935804270207
1782831380910135300,0.40413525390625,-0.4812228432536125,-0.5882146067246794,0.10584949810076505
1782831380920064300,0.414064208984375,-0.45512744801044464,-0.603122252999246,0.1671188268493861
1782831380929994000,0.423993896484375,-0.48058396082818505,-0.5980915653556585,0.1989938649399206
1782831380939923200,0.433923095703125,-0.41811259934604167,-0.6119971949808299,0.21660587480235843
1782831380949852200,0.44385205078125,-0.3167442287147045,-0.6384685839295386,0.24734021842516957
1782831380959781000,0.453781005859375,-0.24361001892089842,-0.6761340054571628,0.20023776405379176
1782831380969710000,0.4637099609375,-0.04633154306411743,-0.7074287229090929,0.19906630912162362
1782831380979639300,0.473639404296875,0.04753448911309242,-0.6772273536518216,0.2642394038431346
1782831380989569000,0.483569091796875,0.19624737924337385,-0.6477554677128792,0.31463352017104623
1782831380999498000,0.493498046875,0.2654530174165964,-0.6332553793258965,0.33236363998781887
1782831381009427000,0.503427001953125,0.2522767249792814,-0.6454103658914566,0.339901268951036
1782831381019356000,0.51335595703125,0.3666536302655935,-0.6143669928520917,0.32887071983814237
1782831381029286000,0.523285888671875,0.31431086408793923,-0.5860908925689756,0.3630783655947074
1782831381039214800,0.53321484375,0.37613340627253056,-0.580602378155291,0.42466651450153436
1782831381049144000,0.54314404296875,0.4433686211556196,-0.6334776437744498,0.48165144392922515
1782831381059073000,0.553072998046875,0.507887562817335,-0.6790826261296868,0.4891855657611042
1782831381069002000,0.563001953125,0.5519979227006435,-0.6964857424817978,0.503656574184075
1782831381078931000,0.572930908203125,0.4965940153867006,-0.7156950314730406,0.468938092828542
1782831381088860200,0.582860107421875,0.4713841708064079,-0.6743889153555035,0.4510032076872885
1782831381098788900,0.592788818359375,0.35541093623936176,-0.6571056259907782,0.47635176661852746
1782831381108717800,0.6027177734375,0.34017537318468094,-0.6501595331799238,0.45070290956646203
1782831381118647800,0.612647705078125,0.237864753267169,-0.6226402426134795,0.46128925857581193
1782831381128577000,0.622576904296875,0.05656418326497078,-0.6303994053728879,0.4700497803974896
1782831381138506000,0.632506103515625,0.15089491034448146,-0.6091507925737649,0.4236840062702074
1782831381148435000,0.64243505859375,0.1371200674921274,-0.5678137698613107,0.3916317119166255
1782831381158364000,0.652364013671875,0.036408699464797974,-0.5534815123219042,0.3974079572305083
1782831381168293000,0.662293212890625,-0.01789922930598259,-0.5651487153705209,0.41398846862073985
1782831381178221800,0.672221923828125,-0.0966436801970005,-0.6580334083601832,0.3702243648918345
1782831381188150800,0.68215087890625,0.00836859989464283,-0.8603671217799186,0.29951475189644844
1782831381198079700,0.692079833984375,0.03180266697406769,-1.020492582610622,0.3018582462826744
1782831381208009000,0.702009033203125,-0.025986089649796484,-1.002137426230684,0.36637433840017763
1782831381217939000,0.71193896484375,-0.06567629500329494,-0.887263969599083,0.4550438248476013
1782831381227868000,0.721867919921875,-0.09018997401297092,-0.8111207872476428,0.3834092424944043
1782831381237797000,0.731797119140625,-0.14127134195268154,-0.8139232774477452,0.26634393837433307
1782831381247726000,0.74172607421875,-0.17140461440980434,-0.845528814414516,0.1298216906448826
1782831381257654800,0.75165478515625,-0.10537468366324901,-0.8289145834177732,0.09444657201152294
1782831381267583700,0.761583740234375,-0.06901333047151566,-0.792728659858182,0.13527067676577717
1782831381277513000,0.771512939453125,-0.11853870114088058,-0.7838011839717626,0.20026618643067776
1782831381287442000,0.78144189453125,-0.10714987664222717,-0.887082037160918,0.15751659350655972
1782831381297371000,0.791370849609375,-0.15420271971821783,-0.992400898983702,0.09672850893624127
1782831381307300900,0.80130078125,-0.18308920698463915,-1.0973994428109377,0.025834954208694395
1782831381317230000,0.81122998046875,-0.16476853739619254,-1.0525867068119346,-0.008237557393498718
1782831381327159000,0.821158935546875,-0.13137713992595673,-0.9800386994082481,-0.03543521479014307
1782831381337087700,0.831087646484375,-0.013332359781861305,-0.9736624423746019,-0.009970153339765966
1782831381347016700,0.8410166015625,0.061143327748775476,-0.9843766555473208,0.0880774753710255
1782831381356946000,0.85094580078125,0.05061491947174072,-1.0390887081395834,0.1549010772459209
1782831381366875000,0.860875,0.08798924909830093,-1.098067770526558,0.11892916176319121
1782831381376803800,0.870803955078125,0.21153964092135427,-1.1212805960707366,0.0036953473865985868
1782831381386732800,0.88073291015625,0.15031681819558143,-1.1342637040235102,-0.12107910633869469
1782831381396662000,0.890662109375,0.18188567641377448,-1.0806818245049565,-0.1887210023265332
1782831381406592000,0.900592041015625,0.3090904990911484,-0.9475912317246198,-0.14257661586496978
1782831381416521000,0.91052099609375,0.30550387277603147,-0.8786940749786794,-0.09962799323741346
1782831381426450000,0.920449951171875,0.22854805886745452,-0.8406305940441787,0.00278480841293931
1782831381436379000,0.93037890625,0.2718622999370098,-0.8394798896390944,0.11435330521501601
1782831381446307800,0.940307861328125,0.2421294249743223,-0.8617538268979639,0.15653740974348038
1782831381456236800,0.95023681640625,0.13228197981119155,-0.9378556543257087,0.21572288142275065
1782831381466166000,0.960166015625,0.06184884566962719,-0.9719747084833681,0.2383826761940494
1782831381476095000,0.970094970703125,-0.07671148375868797,-0.9080626466736197,0.24926746016070245
1782831381486024000,0.98002392578125,-0.21178572463691234,-0.8403072073087096,0.24544417554549872
1782831381495954000,0.989953857421875,-0.29632571006417274,-0.8847898345705121,0.1362990699654445
1782831381505883000,0.9998828125,-0.39407179854512214,-0.9187756908025592,0.02458254299480468
1782831381515811800,1.009811767578125,-0.4570101930171251,-0.9230289643328636,0.0213729880974628
1782831381525740800,1.01974072265625,-0.5010463186204434,-0.8703998554944992,0.05640444439230487
1782831381535670000,1.029669921875,-0.5067629427015781,-0.7867562343850731,0.17294305775715038
1782831381545599000,1.039598876953125,-0.5652221459329128,-0.7800296295437962,0.3176442462943494
1782831381555528000,1.04952783203125,-0.5465723905205726,-0.7602024278499185,0.4098209006125107
1782831381565457000,1.059456787109375,-0.5878337907135486,-0.726160968973115,0.4342906308826059
1782831381575385900,1.0693857421875,-0.6737661072820424,-0.757680581222102,0.4521711554881185
1782831381585315000,1.079315185546875,-0.8283481817066669,-0.7913473615676164,0.4419440682452172
1782831381595244800,1.089244873046875,-0.9959346991330384,-0.770200455577299,0.44157779221609234
1782831381605173800,1.099173828125,-0.9601508535683154,-0.6439955306574702,0.37091351619977503
1782831381615103000,1.10910302734375,-1.1135071855902672,-0.5230530563104897,0.23929840279947964
1782831381625032000,1.119031982421875,-1.109722990876436,-0.4756385403152555,0.19841891459617764
1782831381634961000,1.1289609375,-0.9909387905418873,-0.38946474314108487,0.2535910589808598
1782831381644889900,1.138889892578125,-0.7842191171228885,-0.3445523461598903,0.32257198502011597
1782831381654819000,1.148819091796875,-0.3822586111545562,-0.30978593400940296,0.3407402405258268
1782831381664748000,1.158748046875,-0.008228899163007735,-0.2764016969323158,0.35155550292022525
1782831381674677000,1.168677001953125,0.20672785672545432,-0.27098383660204706,0.36481300736758854
1782831381684607000,1.17860693359375,0.49931964095830916,-0.39504005905538797,0.3474062012210488
1782831381694536000,1.188535888671875,0.7450929753929376,-0.46793636844009157,0.3372232819134369
1782831381704465000,1.19846484375,0.9329711702197789,-0.4038120521191507,0.3361292030664161
1782831381714393900,1.208393798828125,1.0573585973888635,-0.2907723137207329,0.3296897080708295
1782831381724323000,1.218322998046875,1.0147522123277186,-0.11686346140503882,0.35318325025252995
1782831381734252000,1.228251953125,0.8366273497521877,-0.07679507038891314,0.3038286330401897
1782831381744181000,1.238180908203125,0.6199041687130927,-0.042909678856655954,0.18992120842915028
1782831381754110000,1.24810986328125,0.45821547715365885,0.11224018551856278,0.0638623226501979
1782831381764039000,1.258038818359375,0.21723639125823974,0.17505780315510927,0.012986943877674639
1782831381773969000,1.267968994140625,-0.016342647513747213,0.17421185385026036,0.07256367989685386
1782831381783897900,1.27789794921875,-0.13349720081984995,0.17653949308022857,0.12008828693674876
1782831381793826800,1.287826904296875,-0.2567746209204197,0.23973529637940227,0.1600072960774414
1782831381803756000,1.297756103515625,-0.29254794509112836,0.25138869009837506,0.12847884293487294
1782831381813685000,1.30768505859375,-0.2971113074839115,0.23990305416174232,0.0945269255050458
1782831381823614000,1.317614013671875,-0.21005495532155036,0.30907625137008726,0.05229423259450122
1782831381833543000,1.32754296875,-0.197200149923563,0.3553725039251148,0.018764065974391994
1782831381843472100,1.33747216796875,-0.21313187854886054,0.37820531717576084,0.027879940572381016
1782831381853400800,1.34740087890625,-0.1750613833516836,0.4652838811699301,-0.029643333515711127
1782831381863329800,1.357329833984375,-0.1340484049618244,0.5230906118419021,-0.18385021795239298
1782831381873260000,1.367260009765625,-0.15617548109591006,0.5119705212820321,-0.23514917416553943
1782831381883189000,1.37718896484375,-0.2120750629723072,0.5057250510212034,-0.15679715665820984
1782831381893118000,1.387117919921875,-0.17819792781174182,0.49600226003862913,-0.07426778040099889
1782831381903047000,1.397046875,-0.04538695569038391,0.4667062421232462,-0.10960059426259249
1782831381912976100,1.40697607421875,0.0779302118986845,0.43200186235830185,-0.1938815268948674
1782831381922905000,1.416905029296875,0.24733342335820196,0.3634006928842515,-0.2201073801172897
1782831381932833800,1.426833740234375,0.32545886556804177,0.2675120688382536,-0.23932258739266543
1782831381942762800,1.4367626953125,0.3562316049724817,0.2028838215831667,-0.17994371203314513
1782831381952692000,1.44669189453125,0.3799555949091911,0.1506366247344762,-0.18723200587779282
1782831381962622000,1.4566220703125,0.49687107876241204,0.16660568969547748,-0.2506684129998088
1782831381972551000,1.466551025390625,0.5683581058710813,0.16848558515794573,-0.200776766301319
1782831381982480000,1.47647998046875,0.5376081628203392,0.13215192369073628,-0.16155176730677484
1782831381992407600,1.486407470703125,0.5067950914055108,0.08832688355483115,-0.15026611092165112
1782831382002336800,1.496336669921875,0.4670353279471397,0.04597513084188103,-0.1585284008976072
1782831382012265700,1.506265625,0.4483171834737062,0.07757942569963634,-0.11155340883079916
1782831382022194700,1.516194580078125,0.44378889239430425,0.04301481973156333,-0.11855167022030799
1782831382032123600,1.52612353515625,0.4853098203063011,-0.055303661809861654,-0.1479902384115383
1782831382042052900,1.536052978515625,0.46598728019893165,-0.20927958703488111,-0.11652253901287912
1782831382051982600,1.545982666015625,0.4853782093673944,-0.3787506030336022,-0.07038801635820419
1782831382061911600,1.55591162109375,0.4662433007866144,-0.4494092164941132,-0.07631057480759919
1782831382071840800,1.5658408203125,0.3592547521859407,-0.4663632739044726,-0.09610405689496547
1782831382081769700,1.575769775390625,0.26771453260779376,-0.447173785592243,-0.173657215642184
1782831382091698700,1.58569873046875,0.17112813555598258,-0.42346492015942927,-0.25770207449626176
1782831382101627600,1.595627685546875,0.08405541678071021,-0.45218284592591224,-0.3418231403917074
1782831382111556900,1.605556884765625,0.007604629784822464,-0.4875752810202539,-0.3392058705653995
1782831382121485800,1.61548583984375,-0.09778174431622028,-0.5268607049651444,-0.35123324869591743
1782831382131414500,1.62541455078125,-0.07567161931693553,-0.5415946751732379,-0.4170750364592299
1782831382141343500,1.635343505859375,-0.15950433325767516,-0.5710674378950148,-0.44221039103120563
1782831382151273700,1.645273681640625,-0.13694471092522142,-0.6039894642878323,-0.4757972745409235
1782831382161202700,1.65520263671875,-0.17711071709692477,-0.6589120908908546,-0.5293421830499544
1782831382171131600,1.665131591796875,-0.15730594643056392,-0.723264663009718,-0.5235867247957736
1782831382181060900,1.675060791015625,-0.13366203599274157,-0.7710723430410027,-0.4229031946234405
1782831382190989800,1.68498974609375,-0.10154781885147095,-0.7611554907910525,-0.3533361757919192
1782831382200918800,1.694918701171875,-0.04184124590754509,-0.7379246181335299,-0.40891456288993355
1782831382210847700,1.70484765625,-0.061032853111624714,-0.8091784940734505,-0.47255938859824087
1782831382220776400,1.7147763671875,-0.050774493947625156,-0.8473513536665588,-0.49113308309968556
1782831382230705700,1.72470556640625,-0.03711713999509811,-0.82756601835303,-0.49374026992339637
1782831382240635600,1.7346357421875,-0.021502222234010694,-0.7985359578974545,-0.5432495662407949
1782831382250564600,1.744564697265625,-0.04775836099684238,-0.7948474786430597,-0.6307797829926014
1782831382260493800,1.754493896484375,0.006105331137776375,-0.822069028371945,-0.6421143930859864
1782831382270422800,1.7644228515625,-0.04312310241162777,-0.8851466851841658,-0.5734703343182802
1782831382280351700,1.774351806640625,-0.07721300354003906,-0.9785672386161982,-0.5363563726609573
1782831382290280700,1.78428076171875,-0.06602759265899658,-1.01821630824171,-0.571127789780125
1782831382300209700,1.794209716796875,-0.19559154568314552,-1.0173411328423767,-0.6247428409159184
1782831382310138600,1.804138671875,-0.3554863395631313,-1.0930905666358768,-0.6475549767047166
1782831382320067600,1.814067626953125,-0.5084259074777364,-1.133748959434405,-0.6447768902935087
1782831382329997800,1.823997802734375,-0.5756009166061878,-1.0508434433411806,-0.6817017956521362
1782831382339926800,1.8339267578125,-0.6177963827788829,-0.974515040615946,-0.7378046450156718
1782831382349855700,1.843855712890625,-0.7153291207700967,-0.9667989132806658,-0.7692897704731673
1782831382359784700,1.85378466796875,-0.8299638002097606,-0.9950590853422879,-0.775874190364778
1782831382369713700,1.863713623046875,-0.8515846803873777,-1.0130951658356935,-0.8014324099913239
1782831382379642600,1.873642578125,-0.8915104480624199,-1.033747200981155,-0.7976058374404906
1782831382389571600,1.883571533203125,-0.8783195425778627,-1.004054365767911,-0.8331883152142167
1782831382399500500,1.89350048828125,-0.7295826870501041,-0.8905246518954634,-0.8550479725837707
1782831382409429800,1.9034296875,-0.7169231119632721,-0.84926069441922,-0.816080309351161
1782831382419359700,1.91335986328125,-0.7136041966736316,-0.813055408572033,-0.7822540275949984
1782831382429288700,1.923288818359375,-0.5850637414783239,-0.8054698488138615,-0.7293488782942295
1782831382439217700,1.9332177734375,-0.605571107456088,-0.8208225354421883,-0.6174298875540495
1782831382449146600,1.943146728515625,-0.5315636219590902,-0.734444009476155,-0.4878456954594701
1782831382459075600,1.95307568359375,-0.4955529819011688,-0.6394888668879867,-0.29295334755424407
1782831382469004500,1.963004638671875,-0.474478045168519,-0.5953383941899985,-0.14205938705783336
1782831382478933500,1.97293359375,-0.5420885231047868,-0.5109090295303612,-0.0476727650726214
1782831382488862700,1.98286279296875,-0.5972223813056945,-0.42846426281668243,0.024778357827849685
1782831382498791700,1.992791748046875,-0.6539204200834036,-0.39051980515196916,0.07741554037481546
1782831382508721700,2.0027216796875,-0.6058130995184183,-0.2963586624857038,0.11026585323829204
1782831382518651000,2.01265087890625,-0.6117109253853559,-0.21821334653161464,0.20884455661848186
1782831382528579600,2.02257958984375,-0.6409545555263757,-0.21763949216641484,0.3735775112446397
1782831382538508500,2.032508544921875,-0.560738278517127,-0.17596556564979254,0.4978231918554753
1782831382548437500,2.0424375,-0.4029483479619026,-0.11083631007000803,0.5046116098865866
1782831382558366700,2.05236669921875,-0.17547464032769203,-0.057335459898412225,0.4397577006494626
1782831382568295700,2.062295654296875,-0.04525017756819725,-0.03926730376631021,0.4469770209111273
1782831382578224600,2.072224609375,0.09952537311315536,-0.05940327914841473,0.5308444773716852
1782831382588153600,2.082153564453125,0.318128961071372,0.00885419145449996,0.5909931315273046
1782831382598083800,2.092083740234375,0.48017070385217664,0.1176395603440702,0.6021784328104928
1782831382608012800,2.1020126953125,0.5404571225106716,0.12573562690764664,0.5257599041163921
1782831382617941500,2.11194140625,0.7060001514106988,0.11839286292940378,0.6075350644728168
1782831382627870500,2.121870361328125,0.8005009743601084,0.1702634815506637,0.6878707666106522
1782831382637799700,2.131799560546875,0.8434118953257799,0.19585238857641815,0.7511462110172957
1782831382647728600,2.141728759765625,0.8820686659783125,0.1964779731288552,0.8222014956451952
1782831382657657600,2.15165771484375,0.801163822183013,0.22342706259191034,0.8540811733782291
1782831382667586600,2.161586669921875,0.7420213128626346,0.2985783112965524,0.878388954552263
1782831382677515800,2.171515869140625,0.6120452719062567,0.26182489004731174,0.9388157315295189
1782831382687445800,2.18144580078125,0.4705617485076189,0.2000267516516149,0.9904796485975385
1782831382697374500,2.19137451171875,0.40312312000691886,0.22698051728978752,0.9607876171018928
1782831382707303700,2.2013037109375,0.2805892117500305,0.2160810837432742,0.9021287265799939
1782831382717232600,2.211232666015625,0.10572072062194347,0.18812851632609962,0.8482175420418381
1782831382727161600,2.22116162109375,0.03132569711208343,0.2098391206137836,0.8198667690873146
1782831382737090600,2.231090576171875,-0.08868249205946922,0.19592406557314096,0.8360119943328201
1782831382747019800,2.241019775390625,-0.2431049920082092,0.12815576672665774,0.8735890799898653
1782831382756948700,2.25094873046875,-0.3063742258697748,0.10314517104551195,0.9154197314381599
1782831382766877700,2.260877685546875,-0.26652210795283315,0.15491042959615586,0.9114926211223006
1782831382776807700,2.2708076171875,-0.20988661301732062,0.18547573679499327,0.863729364754632
1782831382786736600,2.280736572265625,-0.15649755265712736,0.17285028317347167,0.8376455138187855
1782831382796665600,2.29066552734375,-0.1182066927075386,0.07613353774026035,0.815661280221492
1782831382806594600,2.300594482421875,0.07348258484005928,-0.06445851671136915,0.7532176835291087
1782831382816523800,2.310523681640625,0.3180027043431997,-0.05360387215465307,0.7241643883284181
1782831382826452700,2.32045263671875,0.5016793558269739,-0.09547098315581679,0.7570147377245128
1782831382836381700,2.330381591796875,0.7138754148304463,-0.14718407312780618,0.7867354107927531
1782831382846310700,2.340310546875,0.7802665801048279,-0.1282432258144021,0.7720036325417459
1782831382856239600,2.350239501953125,0.7489812150031327,-0.0925236776575446,0.7484742883943021
1782831382866168800,2.3601689453125,0.7493857041507959,-0.12053082480616867,0.7104036470666527
1782831382876098600,2.3700986328125,0.6710200234442949,-0.08986008447147906,0.7514752968411892
1782831382886027500,2.380027587890625,0.538209051322937,-0.039504838849231595,0.7936547617271542
1782831382895956700,2.389956787109375,0.4579284769058227,-0.001320508014038205,0.7632290091294794
1782831382905885700,2.3998857421875,0.36620296388864515,0.015753303318470715,0.6691016226023435
1782831382915814700,2.409814697265625,0.2764373527675867,-0.025369272925704716,0.5964343362005428
1782831382925743600,2.41974365234375,0.26967794163525105,-0.07271605744697153,0.6193994340613485
1782831382935672800,2.4296728515625,0.22369360457360743,-0.11724902665652334,0.7276755382545292
1782831382945601800,2.439601806640625,0.24284312620162962,-0.20289711945615707,0.8059435307402163
1782831382955531500,2.449531494140625,0.17511106771230697,-0.24406777262575924,0.8472300653744489
1782831382965460700,2.459460693359375,0.1754629498898983,-0.24621304102614522,0.9061540365733206
1782831382975389700,2.4693896484375,0.1825736586779356,-0.21490677926689386,0.8272502304021269
1782831382985318700,2.479318603515625,0.15992869614958763,-0.21305326035469768,0.7819936961583793
1782831382995251700,2.489251708984375,0.08606266494989395,-0.30011691904067994,0.7953947372622787
1782831383005180700,2.4991806640625,0.02922667900621891,-0.3337895446050912,0.7837658203974366
1782831383015109600,2.509109619140625,-0.0341243879199028,-0.24858159678839145,0.7125376634206623
1782831383025038600,2.51903857421875,-0.13077917403280734,-0.2025481598880142,0.6740895670827478
1782831383034967600,2.528967529296875,-0.3707189800083637,-0.1967850663166493,0.6493319963146
1782831383044896500,2.538896484375,-0.5351572625368833,-0.18235190568603574,0.5824564815893769
1782831383054826500,2.548826416015625,-0.6894003142654895,-0.15987126687392592,0.49714189506042744
1782831383064755700,2.558755615234375,-0.7619786437422037,-0.16788666941672561,0.43395606516599655
1782831383074684700,2.5686845703125,-0.858324217775464,-0.1720395513124764,0.3430835522489622
1782831383084613600,2.578613525390625,-0.8224702295839786,-0.23951653906218706,0.40271168966181575
1782831383094542600,2.58854248046875,-0.7648983305811882,-0.319863895105198,0.34431400735937057
1782831383104471800,2.598471923828125,-0.6785334678143262,-0.24049875503256915,0.3401991924516857
1782831383114400500,2.608400390625,-0.6869038212746381,-0.254339721923694,0.37004166526868937
1782831383124329500,2.61832958984375,-0.6903980931311845,-0.2779427158292383,0.41286388503760096
1782831383134258400,2.628258544921875,-0.8121773836284876,-0.27094460057020187,0.333251236477308
1782831383144188700,2.638188720703125,-0.9626467620372772,-0.28694427986517546,0.2297751529769972
1782831383154117600,2.64811767578125,-1.2643337068736553,-0.2912771945029497,0.1871326371565461
1782831383164046600,2.658046630859375,-1.5533347731381655,-0.1903041067995131,0.2510931046852842
1782831383173975800,2.667975830078125,-1.8001532327115535,-0.12845730695649982,0.38382184188328683
1782831383183904800,2.67790478515625,-2.0954811639100313,-0.15493658695071935,0.4625580364026129
1782831383193833500,2.68783349609375,-2.151877004870772,-0.05659245951138436,0.4650375051934272
1782831383203762400,2.697762451171875,-1.9563439113765955,0.09824015560820698,0.39870033512860537
1782831383213691400,2.70769140625,-1.6082979509472846,0.18436894459687173,0.33560941697601226
1782831383223620600,2.71762060546875,-1.1576011788606644,0.21148732621222732,0.3370447835413739
1782831383233550600,2.727550537109375,-0.6314344475090503,0.19054069203436375,0.3625305955188349
1782831383243479600,2.7374794921875,-0.15523849250674246,0.13290128075331448,0.3781638161215931
1782831383253408800,2.74740869140625,0.25880583448708055,0.021660773796588182,0.32762009872253983
1782831383263337700,2.757337646484375,0.5762129110246896,-0.10836107906289398,0.2575477059184573
1782831383273266400,2.767266357421875,0.7840028440237045,-0.21978578348010777,0.2555202734777704
1782831383283195400,2.7771953125,0.8727204073965549,-0.2491590313501656,0.2908559368835762
1782831383293124600,2.78712451171875,0.9111006991952657,-0.16315511085018514,0.22009817389752714
1782831383303053600,2.797053466796875,0.8999410072773695,-0.042953371867910026,0.08174436335936189
1782831383312982500,2.806982421875,0.8607564133584499,0.018080065765604374,-0.07766812689639628
1782831383322912800,2.816912841796875,0.8329606439381837,0.05808335565626621,-0.22947039787676185
1782831383332841700,2.826841796875,0.7597498617768287,0.12312186421267687,-0.3700337011579424
1782831383342770700,2.836770751953125,0.8133663011521101,0.16648038281537592,-0.5046366347299889
1782831383352699400,2.846699462890625,0.809022718989849,0.10645933709479868,-0.5586271681146696
1782831383362628600,2.856628662109375,0.7609247507750988,-0.008029796394333244,-0.6135606449052691
1782831383372557600,2.8665576171875,0.727301882636547,-0.03270231922753155,-0.6610951340183615
1782831383382486500,2.876486572265625,0.6365373236060142,0.03885638487786054,-0.6805939074754714
1782831383392415500,2.88641552734375,0.47481180716753,0.10024272760227322,-0.6913144773237406
1782831383402344700,2.8963447265625,0.2790145097792148,0.1551939957778901,-0.7624222958564758
1782831383412274700,2.906274658203125,0.1515548355579376,0.2715274419594556,-0.7931301533311605
1782831383422203600,2.91620361328125,-0.019799509969353674,0.35164347346462305,-0.7694319554228335
1782831383432132600,2.926132568359375,-0.22223872959017751,0.34389885068722065,-0.8038121447347104
1782831383442061600,2.9360615234375,-0.2659112825781107,0.2506708241526037,-0.7617914506070316
1782831383451990500,2.945990478515625,-0.24822715732753275,0.15020773179791866,-0.6324534152932465
1782831383461919500,2.95591943359375,-0.19148820201754568,0.039620939509570595,-0.4656465039372444
1782831383471848400,2.965848388671875,-0.11207973425984381,-0.08879106700047851,-0.3961929554175585
1782831383481777700,2.975777587890625,0.1312245797127485,-0.10560535061396657,-0.4246703504264355
1782831383491706600,2.98570654296875,0.4621826272189617,-0.05585165108144283,-0.5038789116978645
1782831383501636600,2.99563671875,0.603741553941369,-0.03812544025480747,-0.49560683098025615
1782831383511565600,3.005565673828125,0.732249860432744,-0.20676307416930795,-0.40700858313813804
1782831383521494500,3.01549462890625,0.8565402569681405,-0.30735395762212575,-0.3563948327101767
1782831383531423500,3.025423583984375,0.9055524174183607,-0.2932027557380497,-0.3571564647324383
1782831383541352400,3.0353525390625,0.9204203162044287,-0.34681707622148095,-0.37525384695902464
1782831383551281700,3.04528173828125,0.9745932204186916,-0.27966084485873577,-0.4035385689400136
1782831383561210600,3.055210693359375,0.9147311646521091,-0.23054836583919822,-0.3990922570556402
1782831383571139600,3.0651396484375,0.7982891435295343,-0.3327898660432547,-0.3432292443299666
1782831383581068500,3.075068603515625,0.604601385641098,-0.4001583519171923,-0.2896284774478525
1782831383590997800,3.084997802734375,0.36859891911447046,-0.4837451282728463,-0.32176545441020277
1782831383600927500,3.094927490234375,0.20760639312565327,-0.5969667260441929,-0.35451102825757114
1782831383610856400,3.1048564453125,0.19070552720725537,-0.5666417304072529,-0.36127084124870595
1782831383620785400,3.114785400390625,0.19958967540860176,-0.43514016038402914,-0.34070604599528015
1782831383630714600,3.124714599609375,0.11408347529768943,-0.42582419663667676,-0.31418139248937366
1782831383640643600,3.1346435546875,0.06559738454818725,-0.49191615976877506,-0.26827636774163693
1782831383650572500,3.144572509765625,-0.05363339051008224,-0.5233809000253677,-0.1979636816419661
1782831383660501500,3.15450146484375,-0.24129940389096735,-0.5123709187764675,-0.18071608464512973
1782831383670430700,3.1644306640625,-0.11374737521111965,-0.5208767351847141,-0.2328611728262156
1782831383680360400,3.1743603515625,-0.09895546427071093,-0.5550096717372537,-0.30774704859293994
1782831383690289400,3.184289306640625,-0.058740942782163616,-0.6145269326541573,-0.26142909566275774
1782831383700218600,3.194218505859375,-0.06968903777599335,-0.7355995361868292,-0.1910163467220962
1782831383710147600,3.204147705078125,-0.024854455271363256,-0.8014636088471859,-0.14616919699683784
1782831383720076500,3.21407666015625,0.07420096224248408,-0.7928054514214397,-0.12651874010935424
1782831383730005500,3.224005615234375,0.12554302694499492,-0.8356759673114865,-0.1597623266067356
1782831383739934700,3.233934814453125,0.12497019549310207,-0.9044758011627941,-0.16701719310581684
1782831383749863700,3.24386376953125,0.04220481852293014,-0.929008477133885,-0.19661935436092315
1782831383759792600,3.253792724609375,0.017544424518942833,-0.9050237904343753,-0.23312932224310934
1782831383769721600,3.2637216796875,-0.05116144743859768,-0.8768510043952613,-0.2713365955624729
1782831383779651600,3.273651611328125,-0.16238368808627127,-0.8341593522034585,-0.33358934585787353
1782831383789580500,3.28358056640625,-0.216100080704689,-0.823067830150947,-0.37514439523518084
1782831383799509500,3.293509521484375,-0.3552595450699329,-0.8837437595836818,-0.36201800635419784
1782831383809438700,3.303438720703125,-0.4537766179233789,-0.9659840897664427,-0.34684608312025667
1782831383819367700,3.31336767578125,-0.5141676660001278,-1.0250978113837539,-0.3446042224776
1782831383829296600,3.323296630859375,-0.6045727440685034,-1.0547074983581899,-0.3214860164143145
1782831383839225600,3.3332255859375,-0.7447077754676341,-1.02609383668378,-0.29739954984076317
1782831383849154800,3.34315478515625,-0.84525781545341,-0.9697506757583468,-0.3137252462197095
1782831383859083800,3.353083740234375,-0.9174678961396217,-0.9301073052212595,-0.255620993905887
1782831383869013500,3.363013427734375,-1.0031634813427925,-0.8805852955527603,-0.20672741833403704
1782831383878942500,3.3729423828125,-0.9968541520655154,-0.8075197670809924,-0.23831249703466892
1782831383888871700,3.38287158203125,-1.0213263300210238,-0.7310377081640065,-0.2803870402414351
1782831383898800600,3.392800537109375,-0.9783166248559951,-0.7454663387499749,-0.2812050055608153
1782831383908729600,3.4027294921875,-0.9820639946907758,-0.8150563731309026,-0.2394135170791298
1782831383918658600,3.412658447265625,-0.9366478129059076,-0.8028172884784638,-0.14584186473861335
1782831383928587800,3.422587890625,-0.9909434667170047,-0.6775492060173303,-0.04472447319366037
1782831383938516700,3.432516845703125,-1.1524456957936287,-0.5776227778226137,0.03379756711833179
1782831383948445400,3.442445556640625,-1.2660849344551564,-0.42969921143911777,0.06747793759778141
1782831383958375700,3.452375732421875,-1.413303202113509,-0.23765249875597655,0.01425875391177833
1782831383968304600,3.4623046875,-1.5741425833672285,-0.07201675007119775,0.059156866639293725
1782831383978233600,3.472233642578125,-1.5929624346494673,0.024616993253678082,0.1469747777586803
1782831383988162600,3.48216259765625,-1.5678028589516877,0.028409809665381907,0.2515956839125603
1782831383998088400,3.49208837890625,-1.4111860638290643,0.0410858974955976,0.36552838909532875
1782831384008017400,3.502017333984375,-1.0879968967586755,0.1430735690690577,0.43620077535286544
1782831384017946400,3.5119462890625,-0.7066565694928169,0.30540092385821044,0.45702181038968265
1782831384027875000,3.521875,-0.3832365162760019,0.3959403688959777,0.40937421629093584
1782831384037804300,3.53180419921875,0.0337234059035778,0.47671851757168765,0.39444731732662763
1782831384047734300,3.541734375,0.3408072413474321,0.47586591933034356,0.47207113015726204
1782831384057663200,3.551663330078125,0.5274310521990061,0.4081556342814117,0.5995413257725537
1782831384067592400,3.561592529296875,0.6905640973478555,0.41141478220783173,0.6197146374903619
1782831384077521400,3.571521484375,0.8914531649172306,0.49862581347525115,0.5468152958983555
1782831384087450400,3.581450439453125,0.9231640619546174,0.5319312131624668,0.41800168631747364
1782831384097379300,3.59137939453125,0.9273831409543752,0.5177768694732338,0.4029470327876508
1782831384107308300,3.601308349609375,0.8115186274588108,0.5481926121335476,0.4797594196375459
1782831384117237200,3.6112373046875,0.7942641257971524,0.6532353604286909,0.5463123878775165
1782831384127166200,3.621166259765625,0.8226087612718344,0.7810420214567333,0.516570525890775
1782831384137095200,3.63109521484375,0.8329980533391237,0.8845099216505885,0.49839770380780096
1782831384147025400,3.641025390625,0.8196487424224614,0.9028994917567819,0.4988519869139418
1782831384156954400,3.650954345703125,0.7797299890100956,0.8168542893983424,0.5279354580571874
1782831384166883300,3.66088330078125,0.8234528108805418,0.7392978061828762,0.5943291075496002
1782831384176812300,3.670812255859375,0.8398340368390083,0.7051151122044772,0.6272403568200766
1782831384186741200,3.6807412109375,0.7647703202873468,0.6240795547015965,0.6861750686086714
1782831384196670200,3.690670166015625,0.6729816789060831,0.5153733885280788,0.7236315235607326
1782831384206599200,3.70059912109375,0.4779670563280582,0.4879087507583201,0.7447453309990465
1782831384216528400,3.7105283203125,0.2788824078321457,0.4736342878207564,0.6770614225003868
1782831384226457300,3.720457275390625,0.12436872246861456,0.4749887711696326,0.6105124363157898
1782831384236387300,3.73038720703125,-0.0683358696013689,0.47186735121347007,0.604277706644684
1782831384246316300,3.74031640625,-0.22872341543436048,0.41677769748046994,0.5583715859184041
1782831384256245200,3.750245361328125,-0.4373433695167303,0.2918174388594925,0.571489608829841
1782831384266174200,3.76017431640625,-0.4038280534058809,0.20036329012960194,0.5686599383618682
1782831384276103200,3.770103271484375,-0.26891163343787194,0.21966420292705297,0.546554489537701
1782831384286032100,3.7800322265625,-0.18925474387705324,0.13855346129611135,0.5234158982735126
1782831384295961300,3.78996142578125,-0.029402035573124884,-0.025884967362880706,0.5819260279744863
1782831384305890300,3.799890380859375,0.1349941613793373,-0.029766046579927204,0.6278193257518112
1782831384315819300,3.8098193359375,0.3784977973163128,-0.024755159615352747,0.5862300453113392
1782831384325749500,3.81974951171875,0.540264230287075,-0.09104688310325146,0.5546049633938819
1782831384335678500,3.829678466796875,0.6101613578557967,-0.199124322919175,0.665829834390059
1782831384345607200,3.839607177734375,0.648386166831851,-0.29629378055594857,0.7685607986114918
1782831384355536100,3.8495361328125,0.7438561270743608,-0.28766777183413506,0.7131601792331784
1782831384365465300,3.85946533203125,0.7975970696121454,-0.29369247548375277,0.5728497547345236
1782831384375394300,3.869394287109375,0.8356780862033366,-0.4039575615370646,0.5196413847034796
1782831384385323300,3.8793232421875,0.6864999166488647,-0.47866263737678527,0.6166353761754929
1782831384395252200,3.889252197265625,0.44934418843388557,-0.5891130534017458,0.7287899292372166
1782831384405181400,3.899181396484375,0.3634253158688545,-0.5989905234893783,0.6535583087727427
1782831384415110400,3.9091103515625,0.18346330099403857,-0.5027338333159684,0.5226981053929776
1782831384425040100,3.9190400390625,0.09952478859126568,-0.5894902526836842,0.46207419840842484
1782831384434969000,3.928968994140625,0.07870587244629859,-0.6788765821635723,0.5143839390993118
1782831384444898300,3.938898193359375,0.01852700581550598,-0.7174493277944624,0.6167996268264949
1782831384454827300,3.9488271484375,-0.07853519205451011,-0.8228943002149463,0.6771892135985196
1782831384464756200,3.958756103515625,-0.1472714591503143,-0.8339868451807647,0.5867622159592807
1782831384474685200,3.968685302734375,-0.19547581034898756,-0.8550547676507383,0.4685875258252024
1782831384484614400,3.978614501953125,-0.24179274036586285,-0.9785022105559706,0.44520179139953103
1782831384494543400,3.98854345703125,-0.2815402288645506,-1.0852502283990382,0.505866322655417
1782831384504472300,3.998472412109375,-0.3136784114032984,-1.082700470850989,0.5154734879016876
1782831384514402300,4.00840234375,-0.364614233392477,-1.0263469346620142,0.4585515407076105
1782831384524331300,4.018331298828125,-0.3401110757768154,-0.8866429881565272,0.36136874866522845
1782831384534260200,4.02826025390625,-0.2814087114393711,-0.7437801392287016,0.29314503420144317
1782831384544189200,4.038189208984375,-0.37389644100069996,-0.7055212818525731,0.3529026432128623
1782831384554118400,4.048118408203125,-0.4327747464269399,-0.8304450078554451,0.38919052930958564
1782831384564047400,4.05804736328125,-0.5176765509039163,-0.8544345168605446,0.35260143177658315
1782831384573976300,4.067976318359375,-0.566657731693983,-0.7812363019198179,0.2604162653584033
1782831384583905300,4.0779052734375,-0.5986234802752732,-0.7434279647901654,0.285798690026626
1782831384593834500,4.08783447265625,-0.7207891397416591,-0.6887814517147839,0.28829357558228075
1782831384603763500,4.097763427734375,-0.7422714882314205,-0.615964052785188,0.26789116781633343
1782831384613693200,4.107693115234375,-0.798532304635644,-0.6104693278264254,0.28790019235052167
1782831384623622400,4.117622314453125,-0.7143062074631452,-0.5816225880485028,0.32866544305700807
1782831384633551400,4.12755126953125,-0.6322510245889424,-0.39045821115784346,0.3556332372205332
1782831384643480300,4.137480224609375,-0.6382037955135107,-0.3361045070165768,0.39771804609298705
1782831384653409300,4.1474091796875,-0.6745330000013112,-0.37525574665516614,0.42282117889579385
1782831384663338200,4.157338134765625,-0.8191746951699257,-0.34855602884329856,0.41177963346485047
1782831384673267500,4.167267333984375,-1.053545761102438,-0.34810090548694134,0.46065669629331674
1782831384683196400,4.177196533203125,-1.4222539858102798,-0.4300014457887038,0.5394762947797775
1782831384693125000,4.187125,-1.7617542362123726,-0.41910153731815514,0.6449964513283223
1782831384703055400,4.197055419921875,-1.972413587167859,-0.3307774302423,0.700970413615182
1782831384712984300,4.206984375,-2.084951586589217,-0.16776998423449693,0.5687327113371342
1782831384722913300,4.216913330078125,-2.109336670783162,0.0632847967568785,0.4005206824235618
1782831384732842200,4.22684228515625,-1.8740198484331367,0.1852882513988763,0.27372170060072093
1782831384742771500,4.236771484375,-1.4184499173521994,0.21704536219816653,0.28080137492967766
1782831384752700400,4.246700439453125,-0.9663613986462354,0.23428126875720917,0.3590894786216318
1782831384762629400,4.25662939453125,-0.5393412702232598,0.2040219587676227,0.39826760626714675
1782831384772558300,4.266558349609375,-0.11318915680646896,0.17171802774053066,0.40505909303817894
1782831384782487300,4.2764873046875,0.29885142914950846,0.18479966416433452,0.34998774214684963
1782831384792417300,4.286417236328125,0.7313181325405835,0.26455774907730517,0.2941416074907407
1782831384802346200,4.29634619140625,0.9906003523677587,0.3317644319856539,0.3236880565032363
1782831384812275500,4.306275390625,1.1586696848750113,0.2986141497949138,0.34983762961905446
1782831384822204400,4.316204345703125,1.3231985682964325,0.3714778355516493,0.26837372716888785
1782831384832133400,4.32613330078125,1.4046008402198553,0.543083233230561,0.13996519125755877
1782831384842062300,4.336062255859375,1.4083102161318062,0.6035585255246609,0.037429786140844225
1782831384851991300,4.3459912109375,1.2962608770102262,0.6641057870764285,-0.04429762608371675
1782831384861920300,4.355920166015625,1.04294896376431,0.6913344971984624,-0.15412709719873963
1782831384871849200,4.36584912109375,0.7221312020003795,0.6427160122409462,-0.18144198776688425
1782831384881778200,4.375778076171875,0.430322092577815,0.6401234384644776,-0.25231884708795693
1782831384891708400,4.38570849609375,0.15252514189481733,0.70622650751248,-0.3360046268386766
1782831384901637400,4.395637451171875,-0.14503624744415283,0.7619370696227997,-0.4366238596031442
1782831384911566300,4.40556640625,-0.39455344458222386,0.7947702486883849,-0.5169567852620035
1782831384921495300,4.415495361328125,-0.6637117462575435,0.7858472297813743,-0.5342278361996635
1782831384931424300,4.42542431640625,-0.9670184012502431,0.6842253958456218,-0.4972278197782114
1782831384941353200,4.435353271484375,-1.1422229924648999,0.6091133831728249,-0.4644305522762239
1782831384951282200,4.4452822265625,-1.1990712533682584,0.5914710512373597,-0.5364082124460489
1782831384961211100,4.455211181640625,-1.1085866803228854,0.5439372927766293,-0.6531184560507536
1782831384971140400,4.465140380859375,-0.9276105199694633,0.45822636387385424,-0.6981964919224382
1782831384981070300,4.4750703125,-0.6971013901621103,0.31385997851528225,-0.6805623432934284
1782831384990999300,4.484999267578125,-0.3572001577436924,0.19970022311098873,-0.6513153521515429
1782831385000927700,4.494927734375,-0.04603285237848759,0.17355338994152844,-0.6171969555810094
1782831385010856700,4.504856689453125,0.3499935873657465,0.0827401694636792,-0.6078129680987447
1782831385020785700,4.51478564453125,0.6959259166419506,-0.02502966570779681,-0.6374845413282513
1782831385030714600,4.524714599609375,0.9985685547679662,-0.10377360514216125,-0.6258528479844332
1782831385040643600,4.5346435546875,1.2345447178095579,-0.21933007560186088,-0.5700766732919961
1782831385050572500,4.544572509765625,1.431593476563692,-0.2780065748456865,-0.5621025526076555
1782831385060501500,4.55450146484375,1.458345289888978,-0.2601206434126943,-0.4938897248640656
1782831385070430700,4.5644306640625,1.3832581924617289,-0.3279401609897613,-0.43519978161677714
1782831385080360700,4.574360595703125,1.2639473379045725,-0.3641990036550909,-0.43655419190041717
1782831385090289700,4.58428955078125,1.0534241805493831,-0.34519458958618343,-0.46479405182637273
1782831385100219000,4.594218994140625,0.86890640206635,-0.3979917484678328,-0.4865900693751871
1782831385110147800,4.60414794921875,0.7492360665470361,-0.38976832919754084,-0.5196522348910569
1782831385120076500,4.61407666015625,0.6312292803257703,-0.29966347618475553,-0.4684896184086799
1782831385130005500,4.624005615234375,0.40404841815829273,-0.2988061287030577,-0.35339835430793465
1782831385139934700,4.633934814453125,0.23792554354369638,-0.34689131050147115,-0.32062172773517666
1782831385149863700,4.64386376953125,0.046669981238245964,-0.3365913041528314,-0.29787323176711794
1782831385159792600,4.653792724609375,-0.0298632233440876,-0.3462451215524226,-0.3424852575622499
1782831385169722600,4.66372265625,-0.021329788276553154,-0.29849618597105143,-0.3689968323908746
1782831385179651800,4.67365185546875,-0.10633505312800406,-0.30222536256201565,-0.34383572232313453
1782831385189580800,4.683580810546875,-0.11617664818465709,-0.4602667105950415,-0.32008418679237366
1782831385199509500,4.693509521484375,-0.022913842597603797,-0.5505404904339463,-0.3444864413168281
1782831385209438500,4.7034384765625,0.05444821402430534,-0.5750909943226724,-0.3641358022257685
1782831385219367700,4.71336767578125,0.18619184917509554,-0.6171529703088104,-0.34149763476438816
1782831385229296600,4.723296630859375,0.22181612026393413,-0.6561693680539726,-0.2885031997449696
1782831385239225600,4.7332255859375,0.2443693128556013,-0.7571005893770605,-0.29069515683129427
1782831385249154600,4.743154541015625,0.29640754312872886,-0.7797105536572635,-0.34047311402224
1782831385259083800,4.753083740234375,0.3158276983916759,-0.7490078107491135,-0.39822168476618824
1782831385269013800,4.763013671875,0.38009003494381904,-0.7959992059614509,-0.42036527364365756
1782831385278942500,4.7729423828125,0.435115172073245,-0.8715009486041962,-0.4274260788753628
1782831385288871700,4.78287158203125,0.4452326614618301,-0.8887238860838115,-0.4469203222878277
1782831385298800600,4.792800537109375,0.44559272694587704,-0.9045952628239988,-0.486956345404312
1782831385308729600,4.8027294921875,0.3473340127676725,-0.9425431545548141,-0.526578453957662
1782831385318658600,4.812658447265625,0.11927461419999599,-1.0131809444230049,-0.5132582230050117
1782831385328587800,4.822587890625,-0.0941127004146576,-1.0477949424907564,-0.5380533493045717
1782831385338516700,4.832516845703125,-0.29238661704957486,-0.9792734141241759,-0.6080475805722176
1782831385348445700,4.84244580078125,-0.549147209444642,-0.9016831017043441,-0.6748495186045765
1782831385358375700,4.852375732421875,-0.776786336773634,-0.8546002288162707,-0.7439274387449025
1782831385368304600,4.8623046875,-0.802985776913166,-0.8241795907851308,-0.7923966514248401
1782831385378233600,4.872233642578125,-0.887591813313961,-0.8310292374841869,-0.7620029014006257
1782831385388162600,4.88216259765625,-0.9565531213372945,-0.8612317757852375,-0.678993267345801
1782831385398091800,4.892091796875,-0.9301935221999883,-0.8448536185666918,-0.5975215834479779
1782831385408020700,4.902020751953125,-0.9274240574866532,-0.7415602712221443,-0.5455001581791789
1782831385417949700,4.91194970703125,-1.0064502479285,-0.6562692482318728,-0.5466989395096897
1782831385427878700,4.921878662109375,-1.0420926391959189,-0.6237516379214822,-0.48897521094605323
1782831385437807600,4.9318076171875,-1.0677940666854382,-0.5710721140701324,-0.5082151142712682
1782831385447736800,4.94173681640625,-1.153178101721406,-0.5428084348771721,-0.42981596968658264
1782831385457666600,4.95166650390625,-1.2100894909888504,-0.4908773182403296,-0.3299107304103672
1782831385467595500,4.961595458984375,-1.2388590738773346,-0.31734058717265723,-0.2537677672546357
1782831385477524700,4.971524658203125,-1.3684563446491955,-0.16352577079348266,-0.20429763390384614
1782831385487453700,4.98145361328125,-1.4323837501585484,-0.042366584955900906,-0.16027970154434443
1782831385497382700,4.991382568359375,-1.5697159990966318,0.0585173631593585,-0.08563990949317812
1782831385507311600,5.0013115234375,-1.6187889498233794,0.05962108661755919,-0.02379647065103054
1782831385517240800,5.01124072265625,-1.5464298160552978,0.052629108838364476,-0.0034382308203727003
1782831385527169800,5.021169677734375,-1.4630921921551228,0.09604849078282714,0.02076755128391087
1782831385537098800,5.0310986328125,-1.1966443184822797,0.17729878701493143,0.024832754896208644
1782831385547028700,5.04102880859375,-0.8708598742216825,0.33480310556180776,-0.025845804396271703
1782831385556957700,5.050957763671875,-0.5334954668045043,0.44177828322425483,-0.02474105802476406
1782831385566886700,5.06088671875,-0.21229016702771186,0.5026193400908261,0.041439825499802824
1782831385576815600,5.070815673828125,0.020229133558273313,0.5102957930028438,0.03291566971726716
1782831385586744800,5.080744873046875,0.22001579284369943,0.4807970190569758,0.021652809685841202
1782831385596673800,5.090673828125,0.36231180166900157,0.46530667752362787,0.04016227984465658
1782831385606602800,5.100602783203125,0.5361287379175425,0.5124412805989385,0.019757716654241083
1782831385616531700,5.11053173828125,0.7820078708142042,0.6614095337297767,-0.014231062187254428
1782831385626460700,5.120460693359375,0.9791408007204532,0.8052206963583827,-0.035772593518346545
1782831385636389600,5.1303896484375,1.1293903988987206,0.8901458817109466,-0.03597483809217811
1782831385646319600,5.140319580078125,1.28651806615293,0.9602123014319688,-0.08257182715944945
1782831385656248600,5.15024853515625,1.4242945517271757,1.0184816081143915,-0.13347740014083684
1782831385666177800,5.160177734375,1.4468687871068715,0.9843009599626064,-0.19164726503677665
1782831385676106800,5.170106689453125,1.3736603430330752,0.9004945495069027,-0.23106004168838262
1782831385686035700,5.18003564453125,1.2430290530383585,0.8249546668108553,-0.2093788826908916
1782831385695964700,5.189964599609375,0.9925012175530195,0.6817622206024825,-0.12766506060026586
1782831385705893600,5.1998935546875,0.7780360445737838,0.5659948838710784,-0.0814670077227056
1782831385715822600,5.209822509765625,0.5248024572610854,0.6349629138961433,-0.048179143692180515
1782831385725751600,5.21975146484375,0.24132979902923105,0.6787169346224516,-0.074668798949942
1782831385735680500,5.229680419921875,0.021471827095746993,0.7123381953258067,-0.07986782889775931
1782831385745610800,5.23961083984375,-0.23167057480216025,0.7463725668746978,-0.09463307102695107
1782831385755539700,5.249539794921875,-0.5227390949904919,0.6153331344705074,-0.06115918290503323
1782831385765468700,5.25946875,-0.6248533155530691,0.4136746899638325,-0.0391213924895972
1782831385775398000,5.26939794921875,-0.5749760627061128,0.35008199630156156,-0.009561097614839673
1782831385785326600,5.27932666015625,-0.44513621535003184,0.31038141568452116,-0.013206906771287321
1782831385795255600,5.289255615234375,-0.22333178552389144,0.20784714307896793,-0.10574095969237386
1782831385805184500,5.2991845703125,0.02740355523228645,0.17216273930072784,-0.12884659853503108
1782831385815113700,5.30911376953125,0.27334114031791684,0.07535648895315826,-0.12518529954850674
1782831385825042700,5.319042724609375,0.5463631316840648,-0.03779525845237076,-0.1342535721451044
1782831385834972700,5.32897265625,0.7985662069052457,-0.12516703323945402,-0.13365801740474997
1782831385844901600,5.338901611328125,0.8691764511793851,-0.23436010614708064,-0.16214125763252377
1782831385854830800,5.348830810546875,0.843572054323554,-0.38803120320662854,-0.1853288756702095
1782831385864759800,5.358759765625,0.8910194496750831,-0.4322818483434617,-0.22409692467749118
1782831385874688500,5.3686884765625,0.8450257602632045,-0.33255101578608154,-0.27963446830846367
1782831385884617500,5.378617431640625,0.6352648194521665,-0.39273247623275964,-0.2675620454598218
1782831385894546700,5.388546630859375,0.4966407771378755,-0.4994308827804401,-0.21936054380536077
1782831385904475600,5.3984755859375,0.34210487994253636,-0.488312838047184,-0.23947986031360924
1782831385914404600,5.408404541015625,0.11895137359499931,-0.510078241262026,-0.18030768650732934
1782831385924333600,5.41833349609375,-0.03920563670694828,-0.5422957726472989,-0.1631318761050701
1782831385934263800,5.428263916015625,-0.07556114467978477,-0.4379373898871243,-0.2116155557017773
1782831385944192800,5.43819287109375,-0.12280454189181327,-0.37177082714885473,-0.2616708685293794
1782831385954121500,5.44812158203125,-0.1810562398523092,-0.46354799728803336,-0.2462596566468477
1782831385964050700,5.45805078125,-0.18437573966383933,-0.5734871758552268,-0.1906005324628204
1782831385973979600,5.467979736328125,-0.2301952415525913,-0.7126734916947781,-0.16605660444535314
1782831385983908600,5.47790869140625,-0.18231120834946632,-0.7940436879795044,-0.21045674105547368
1782831385993837800,5.487837890625,-0.13858604839146135,-0.8179621045097708,-0.3031999797478318
1782831386003766800,5.497766845703125,-0.1331774673461914,-0.8740843161609023,-0.3371942384820431
1782831386013696000,5.507696044921875,-0.23125088808536529,-0.8833351787827909,-0.23531594556719063
1782831386023625000,5.517625,-0.29420331108272074,-0.8175963399372994,-0.09153824681676924
1782831386033554700,5.5275546875,-0.492536848950386,-0.608585194580257,0.01830086890943348
1782831386043483600,5.537483642578125,-0.7519248672395944,-0.41774409482721236,0.10991225402764976
1782831386053412900,5.547412841796875,-0.8893103076696396,-0.19012611988410352,0.22422493497133253
1782831386063341800,5.557341796875,-1.0700094046473503,0.08370656681042164,0.34451216027997433
1782831386073270800,5.567270751953125,-1.2379063031971453,0.20815233657062052,0.44046880806088445
1782831386083199700,5.57719970703125,-1.1717635597258806,0.3196375390034169,0.4201663170054555
1782831386093129000,5.58712890625,-1.0810229660928248,0.4174817175639793,0.49918607770651574
1782831386103058000,5.597057861328125,-0.9300783713877201,0.37549408545568586,0.47254700404070316
1782831386112987000,5.60698681640625,-0.8146557564407586,0.2560543803544715,0.45674182440452277
1782831386122916900,5.616916748046875,-0.6986486196041107,0.11031846020836382,0.4693577064801007
1782831386132845800,5.626845703125,-0.7106114445984363,-0.04901376788541675,0.42336226350255307
1782831386142774800,5.63677490234375,-0.8286684997022151,-0.2710303426248953,0.41402145757488906
1782831386152703700,5.646703857421875,-0.9745774383276701,-0.4213490970492363,0.387946447532624
1782831386162633000,5.656633056640625,-1.2681962275207042,-0.5027431491335853,0.2382097673125565
1782831386172562000,5.66656201171875,-1.6142390314340591,-0.5636487226037308,0.04360862090624869
1782831386182491000,5.676490966796875,-1.847210167440772,-0.5683417757907882,-0.059178530481830235
1782831386192419800,5.686419921875,-2.093373962497711,-0.5264260398749262,-0.07422635241206735
1782831386202349000,5.69634912109375,-2.1563971126437185,-0.47383806676454837,-0.11504421008862555
1782831386212278000,5.706278076171875,-2.070633722901344,-0.4082100678823888,-0.14563351921755818
1782831386222207700,5.716207763671875,-1.784889028084278,-0.3291021905064583,-0.13613828991316257
1782831386232136700,5.72613671875,-1.2377046431452035,-0.18996811631079763,-0.13176233985126018
1782831386242066000,5.73606591796875,-0.5485755470365286,-0.05203322530444711,-0.1327805404504761
1782831386251995000,5.745994873046875,0.0890489872843027,0.09613963966500014,-0.07201755378879607
1782831386261923800,5.755923828125,0.471113537171483,0.17220544593129306,0.01900766547191888
1782831386271852800,5.765852783203125,0.8342652967959642,0.13596804791279135,-0.00437025097347796
1782831386281782000,5.775781982421875,1.0983253985494374,0.14885112955719232,-0.11155139953680336
1782831386291711000,5.7857109375,1.3026847725778818,0.13349840639624744,-0.25773773033153263
1782831386301639700,5.7956396484375,1.5459019927889108,0.12185060216784477,-0.33118411134704945
1782831386311568600,5.805568603515625,1.6735206569641827,0.1961288308976218,-0.37677681874260305
1782831386321499000,5.815498779296875,1.738522998228669,0.28467326619327066,-0.45849707057401534
1782831386331427800,5.825427734375,1.7458844669073819,0.3486905784757808,-0.516086359103024
1782831386341356800,5.835356689453125,1.7349445552200078,0.4573036595383659,-0.552441355619207
1782831386351286000,5.8452861328125,1.5964742421627043,0.5779010102421045,-0.5999127163682133
1782831386361215000,5.855215087890625,1.378660927799344,0.6295169234499335,-0.6924556832481176
1782831386371144000,5.86514404296875,1.1498474959939717,0.6504702796295285,-0.7130707473840564
1782831386381072600,5.87507275390625,0.8888122950196266,0.6840430250160395,-0.6770020204633473
1782831386391001900,5.885001953125,0.7408797416120767,0.7538774626120924,-0.7242306584976613
1782831386400930800,5.894930908203125,0.4621761974781751,0.8325690873373299,-0.809662478198111
1782831386410859800,5.90485986328125,0.03550795123279094,0.7371738728314637,-0.7794136165373027
1782831386420790000,5.9147900390625,-0.3740636142611503,0.6259407454635948,-0.7024363214492797
1782831386430719000,5.924718994140625,-0.7110211944431066,0.6625839112713933,-0.7200301380679011
1782831386440648000,5.93464794921875,-0.8839940810829401,0.6714820879980922,-0.7078326275348663
1782831386450577000,5.944576904296875,-1.0960896023213862,0.6192891055546701,-0.5318571980781853
1782831386460505600,5.954505615234375,-1.3531693436682224,0.5041083730721846,-0.38998226420916615
1782831386470434800,5.964434814453125,-1.38838503395617,0.37687702771406617,-0.3903693638306111
1782831386480367900,5.974367919921875,-1.2126035196363925,0.2714947452662512,-0.4891298169858753
1782831386490296800,5.984296875,-0.9051362378329038,0.19426796892918646,-0.5606920282226056
1782831386500225800,5.994225830078125,-0.6052087038844823,0.0008582242645323276,-0.5098138547047972
1782831386510154800,6.00415478515625,-0.1740986757993698,-0.2727573856132105,-0.4547986544474959
1782831386520084000,6.014083984375,0.2996826192766428,-0.48348275100961324,-0.4847979983266443
1782831386530013000,6.024012939453125,0.7138964576184749,-0.5853442754527554,-0.5617384685356169
1782831386539942000,6.03394189453125,1.025251394510269,-0.7163096562400459,-0.5622494867976755
1782831386549870800,6.043870849609375,1.3282973527401685,-0.9186601746641099,-0.5446758361842483
1782831386559799800,6.0537998046875,1.5472750347077846,-0.9741565825670957,-0.473183256117627
1782831386569729800,6.063729736328125,1.6365566617041825,-0.9810754220448433,-0.3961534271247685
1782831386579658800,6.07365869140625,1.5996294913232325,-0.9437162169221788,-0.32361075348332524
1782831386589588000,6.083587890625,1.503789528724551,-0.8666401376347989,-0.36907968836873767
1782831386599517000,6.093516845703125,1.4443155954927205,-0.8269369997344911,-0.4803352467641234
1782831386609446000,6.10344580078125,1.1903110238075256,-0.8314400833074003,-0.44750469804704185
1782831386619374800,6.113374755859375,0.9905851547986269,-0.9387808794118463,-0.313210428565368
1782831386629303800,6.1233037109375,0.7245815177619457,-1.0360776166900991,-0.2804569636724889
1782831386639232800,6.133232666015625,0.45822424498200415,-1.0640805991202593,-0.3176666042566299
1782831386649161700,6.14316162109375,0.2855184848457575,-1.0605838430456818,-0.39089441061802205
1782831386659090700,6.153090576171875,0.08751403280198573,-1.0182923691526056,-0.38165348486825823
1782831386669021000,6.16302099609375,-0.11569500214755535,-1.048098017090559,-0.2812884460605681
1782831386678950000,6.172949951171875,-0.24409108043611047,-1.155349381345883,-0.17801782200448213
1782831386688878800,6.18287890625,-0.31725100919306276,-1.2218923031158744,-0.08353928395211696
1782831386698808000,6.19280810546875,-0.3981085067152977,-1.2490538662858306,-0.1234123715918511
1782831386708737000,6.202737060546875,-0.5038181214213371,-1.2430547720015048,-0.16722630581185222
1782831386718665700,6.212665771484375,-0.4981675483137369,-1.2810333511315286,-0.21178177911415694
1782831386728594700,6.2225947265625,-0.3766927937209606,-1.2702876468420028,-0.22342238641679285
1782831386738524000,6.23252392578125,-0.39408056637346744,-1.276038757714629,-0.20418832831047473
1782831386748452900,6.242452880859375,-0.4666659101128578,-1.361647395286709,-0.15260273717567324
1782831386758381800,6.2523818359375,-0.44647710856497286,-1.3713504586555063,-0.21490487957075238
1782831386768311800,6.262311767578125,-0.5551800598680973,-1.2760219527103005,-0.2921959167830646
1782831386778241000,6.272240966796875,-0.6931617126256228,-1.2600224195457994,-0.33685061267614363
1782831386788170000,6.282169921875,-0.6652642363965511,-1.1622378987506032,-0.35888153495937586
1782831386798098700,6.2920986328125,-0.8229203114390373,-1.0873317839134484,-0.35186347289085385
1782831386808027600,6.302027587890625,-0.9329571416944265,-1.1266268524695187,-0.3343921136081219
1782831386817956900,6.311956787109375,-1.0087941807061434,-1.0400869984619319,-0.37069494154565036
1782831386827885800,6.3218857421875,-1.1190163044005632,-0.9632551031939685,-0.40512291552200913
1782831386837814800,6.331814697265625,-1.2354793683111667,-0.8925185291264206,-0.426741311481595
1782831386847743700,6.34174365234375,-1.348621178844571,-0.8447755848944186,-0.4918697633437812
1782831386857673000,6.3516728515625,-1.497389014032483,-0.7902658499412238,-0.5189108419392258
1782831386867603000,6.36160302734375,-1.5783879658520221,-0.7282710929948836,-0.47244602788425977
1782831386877531600,6.37153173828125,-1.718944437533617,-0.6274995922781527,-0.4027713839598
1782831386887460900,6.3814609375,-1.9545324780404567,-0.5704333412425592,-0.3999110991578549
1782831386897389800,6.391389892578125,-1.9969640910565851,-0.5304177033269778,-0.4240077948644757
1782831386907318800,6.40131884765625,-2.0804881774395705,-0.4363003998024389,-0.422563733536005
1782831386917247700,6.411247802734375,-2.162265712416172,-0.48796800666488704,-0.29220899546034634
1782831386927177000,6.421177001953125,-2.126544995215535,-0.5915636979568749,-0.17034385331049562
1782831386937106000,6.43110595703125,-1.967775405973196,-0.546265114669688,-0.14217592610958962
1782831386947035000,6.441034912109375,-1.6707845099985599,-0.4446161735313013,-0.12401775360647588
1782831386956963800,6.4509638671875,-1.3066349715083836,-0.3847648583544418,-0.04810995091348886
1782831386966893800,6.460893798828125,-0.885909559315443,-0.31521292749419805,0.07303096861504017
1782831386976822800,6.47082275390625,-0.3872726399242878,-0.24247429288923739,0.1429600987572223
1782831386986751700,6.480751708984375,0.1244938101530075,-0.12249010564778,0.20430515962317586
1782831386996681000,6.490680908203125,0.4969751236587763,-0.05266458201054483,0.27568551148697734
1782831387006610200,6.500610107421875,0.8296417286485434,-0.0025741248043254015,0.3306073343724012
1782831387016539100,6.5105390625,1.0882336281239986,0.07858553400225937,0.355135845625028
1782831387026468000,6.520468017578125,1.2332102543354033,0.1979007724735886,0.35813889989852904
1782831387036397000,6.53039697265625,1.339161861103773,0.33147571470476683,0.39337344101741906
1782831387046326300,6.540326171875,1.44323481451869,0.39627201200313866,0.4237371612295508
1782831387056255000,6.5502548828125,1.5741770701587199,0.46636020516455173,0.36225846404656764
1782831387066185000,6.56018505859375,1.704751661530137,0.6327334743436426,0.2803586909297854
1782831387076114200,6.5701142578125,1.6883832950532436,0.6747693660404532,0.28255671243071556
1782831387086043100,6.580043212890625,1.6851672556161879,0.6518965130403638,0.30765878578759726
1782831387095972000,6.58997216796875,1.7002105109691619,0.7567506799608469,0.3306867562841624
1782831387105901000,6.599901123046875,1.6547306162983177,0.9003527298834174,0.3378117127932608
1782831387115830300,6.609830322265625,1.5945236926168203,0.9537309765886515,0.3177795631118119
1782831387125759200,6.61975927734375,1.4734598569124937,0.9887737945277243,0.3578235503390431
1782831387135688200,6.629688232421875,1.3184984277814626,0.9697615624785423,0.4195237082529813
1782831387145617000,6.639616943359375,1.1974234861612318,0.9416882182259112,0.46984673210605976
1782831387155546000,6.649546142578125,0.9864923325270414,0.9337639280326664,0.519808521431312
1782831387165476000,6.65947607421875,0.819450004979968,0.9284150412853807,0.5394141893289983
1782831387175405000,6.669405029296875,0.6185784730672836,0.9140601335227488,0.5645681390035897
1782831387185334300,6.679334228515625,0.3129839993983507,0.8617973007135092,0.5897112019579858
1782831387195263200,6.68926318359375,-0.03012859628200531,0.7576787545911967,0.6933000251177698
1782831387205192200,6.699192138671875,-0.33901042105853557,0.7282152711544185,0.8355266219686717
1782831387215121200,6.70912109375,-0.5333271245002746,0.7205476591359824,0.9783190360087901
1782831387225049900,6.7190498046875,-0.7797551234513521,0.6828320417910814,1.0238382397767156
1782831387234979000,6.72897900390625,-0.9123463153421878,0.6567047170396894,1.0144115091312675
1782831387244908000,6.738907958984375,-0.9000479747831821,0.6739604608103632,0.9813716285124421
1782831387254837000,6.7488369140625,-0.9443471352368593,0.6432066453021019,1.0468429024629293
1782831387264767200,6.758767333984375,-0.8194260395824908,0.5379639905206859,1.0748175355814398
1782831387274696200,6.7686962890625,-0.5554208828866481,0.4835484731895849,0.9526303949356079
1782831387284625200,6.778625244140625,-0.253467396068573,0.4484839183427393,0.8048042975772172
1782831387294554000,6.78855419921875,0.025027473750710485,0.31624475475996733,0.7453240076698362
1782831387304483000,6.798483154296875,0.38071021266877647,0.13171123071853072,0.7318431793279946
1782831387314412000,6.808412109375,0.6443003588229418,-0.02027487239614129,0.6650534431900829
1782831387324341000,6.818341064453125,0.7963795105159283,-0.13826927405986933,0.5953689354587346
1782831387334270000,6.82827001953125,0.9619669630795716,-0.25680406621061264,0.5304321337111294
1782831387344199200,6.83819921875,1.0567524481892585,-0.3217991740167141,0.35728995491899546
1782831387354128100,6.848128173828125,1.0006476991295814,-0.3849452929552644,0.2840706241250038
1782831387364058000,6.85805810546875,0.9031301587074995,-0.5450196446532384,0.2834454048987478
1782831387373987000,6.867987060546875,0.8838105412095785,-0.6441439992174506,0.22848156950250267
1782831387383916000,6.877916015625,0.8183592871338129,-0.6547689997367561,0.22030345067866144
1782831387393845000,6.887844970703125,0.7075041262328624,-0.7231424248695373,0.24122991885133085
1782831387403774000,6.89777392578125,0.5133733007520437,-0.7757656154237688,0.23015951265208423
1782831387413703200,6.907703125,0.3740092537254095,-0.7964568135358393,0.1685832003135234
1782831387423632100,6.917632080078125,0.1294920568317175,-0.8847709106743336,0.09660802436172962
1782831387433561000,6.92756103515625,0.03349661141037941,-1.0102212178345769,0.11064064136743545
1782831387443490000,6.937489990234375,-0.06441314319968224,-1.0500453517660497,0.1305379126228392
1782831387453419300,6.947419189453125,-0.29753450133204457,-1.1343280014313757,0.15026315177958458
1782831387463349000,6.957348876953125,-0.4660720358729362,-1.2664780254259704,0.1224152137806639
1782831387473278000,6.96727783203125,-0.5047755682766437,-1.2610326195016504,0.04437810744140297
1782831387483207000,6.97720703125,-0.513383822146058,-1.2042769322525708,0.007342215988971293
1782831387493136100,6.98713623046875,-0.6047217971503734,-1.2072617932822554,0.05483662882000208
1782831387503065000,6.997065185546875,-0.6193915430158377,-1.1982877748403697,0.09439809322729706
1782831387512994000,7.006994140625,-0.7225514732390642,-1.1898258706390856,0.08382354425359517
1782831387522923000,7.016923095703125,-0.6741033764123916,-1.2115880589835346,0.016815087331086397
1782831387532852200,7.026852294921875,-0.692096129220724,-1.1731953460946678,-0.05140314723998308
1782831387542781200,7.03678125,-0.6955331179320812,-1.1908855357598513,-0.04160064208470285
1782831387552710100,7.046710205078125,-0.7066483861863613,-1.1945336099386215,0.012811112386733292
1782831387562640100,7.05664013671875,-0.7320347563773393,-1.123133457395807,-0.04252425973564386
1782831387572569000,7.066569091796875,-0.8196779685169457,-1.0293891519021243,-0.11682378698177635
1782831387582498000,7.076498046875,-0.8673188406139611,-0.887679491597414,-0.10358721572458743
1782831387592427000,7.086427001953125,-0.9281395122796297,-0.7212637715160847,-0.038725159713625903
1782831387602356200,7.096356201171875,-1.1180050815314053,-0.6464155243460089,0.07460187119357288
1782831387612285200,7.10628515625,-1.2445628384768963,-0.6046555635137483,0.14615005390495062
1782831387622214100,7.116214111328125,-1.4322791207402943,-0.43903607184402643,0.12203395937811583
1782831387632143000,7.12614306640625,-1.5566957740038632,-0.3814452124124393,0.022753354806266723
1782831387642072300,7.136072265625,-1.7603823633372782,-0.4197150295739993,0.03463471206221729
1782831387652001000,7.1460009765625,-2.0834224773257968,-0.47615818027518686,0.183479740672186
1782831387661931000,7.155930908203125,-2.425134558558464,-0.5138750031964853,0.27873576590307053
1782831387671860000,7.16585986328125,-2.6734780357420442,-0.4075406807208434,0.21674634271897375
1782831387681789200,7.1757890625,-2.6765005984336137,-0.1986904432802461,0.16575433356314898
1782831387691718100,7.18571826171875,-2.5263082834005353,0.010029811105132102,0.15582169922217726
1782831387701647000,7.195647216796875,-2.148887759926915,0.18809784719320014,0.17871997892446814
1782831387711576000,7.205576171875,-1.5852017375200986,0.3215856043312698,0.22927209882568567
1782831387721505300,7.21550537109375,-1.0596084221422672,0.3614227804074064,0.23570969412513076
1782831387731434000,7.22543408203125,-0.46566170150637626,0.2522633175084367,0.13000771473627537
1782831387741363000,7.235363037109375,0.0048363341152668,0.09651935969758778,0.06634473231676966
1782831387751292000,7.2452919921875,0.5640910960763692,-0.0160799414569512,0.13036924152504653
1782831387761221000,7.25522119140625,0.9633861822277306,-0.05140022463053465,0.22848069271966814
1782831387771151000,7.265151123046875,1.2146025844991206,-0.009239866303838789,0.1980157771553844
1782831387781080000,7.275080078125,1.4520277773052452,0.0923649434318766,0.08558196876086294
1782831387791009300,7.28500927734375,1.6390543237388133,0.20055369813516735,0.06009900632761418
1782831387800938200,7.294938232421875,1.8486434151142834,0.3182950383532792,-0.024883279507048425
1782831387810867000,7.304866943359375,2.0540239488840104,0.45614086283668875,-0.03757668379824609
1782831387820796000,7.3147958984375,2.181957670357823,0.5027755535658449,-0.08803681456707417
1782831387830725000,7.32472509765625,2.2891396957039833,0.540522442831844,-0.2330170209750533
1782831387840654000,7.334654052734375,2.364355387946963,0.5747898194190114,-0.3212892517331987
1782831387850583000,7.3445830078125,2.2817928400725127,0.5677876125067473,-0.35193295793049034
1782831387860512000,7.354511962890625,2.055916630762815,0.5320236406862735,-0.31872853439971804
1782831387870442200,7.364442138671875,1.7540478996187447,0.4778035363294184,-0.32207565287053586
1782831387880371200,7.37437109375,1.2310749958723783,0.4506934841509908,-0.3029453473996371
1782831387890300200,7.384300048828125,0.6280477276802062,0.48744442118220027,-0.23586473855637013
1782831387900228900,7.394228759765625,0.033551556468009947,0.6377051252763718,-0.21735351483188567
1782831387910158000,7.404157958984375,-0.6761953802555799,0.7733155188579112,-0.26546912830118086
1782831387920087000,7.414087158203125,-1.2209516612648963,0.7686181548219174,-0.36896194374058394
1782831387930016000,7.42401611328125,-1.613239499002695,0.7413030085254461,-0.4076471367700025
1782831387939945000,7.433945068359375,-1.8567115707576274,0.6441677454192191,-0.3841984566433355
1782831387949874200,7.443874267578125,-1.8264409356564282,0.5157856956560164,-0.30770573020186276
1782831387959803100,7.45380322265625,-1.5915671808987855,0.3691744539801031,-0.2424886136755347
1782831387969733000,7.463733154296875,-1.2100281161904334,0.2535935797315091,-0.16270605190843343
1782831387979662000,7.473662109375,-0.829955616903305,0.06854381326362491,-0.12974592199493198
1782831387989591000,7.483591064453125,-0.2614145556807518,0.0559345070593059,-0.1783387610545382
1782831387999519700,7.493519775390625,0.2089595613002777,0.07559928473308682,-0.19131854453906416
1782831388009449000,7.503448974609375,0.6443120492607355,-0.11719576209932565,-0.15461977608650923
1782831388019378000,7.5133779296875,0.972669558879733,-0.3591653203368187,-0.10263481037057935
1782831388029307000,7.523306884765625,1.1862795763343572,-0.5278724392909556,-0.1353404175337404
1782831388039235800,7.53323583984375,1.4070324512809513,-0.6656666066523641,-0.1951567344624549
1782831388049165000,7.5431650390625,1.5389391680389641,-0.7380412302505225,-0.3228695066619664
1782831388059094000,7.553093994140625,1.4700111777633427,-0.8096692732650786,-0.35045901292040943
1782831388069023700,7.563023681640625,1.3081558974653482,-0.8985192308459431,-0.33228586204387245
1782831388078953000,7.572952880859375,1.125287055233121,-0.8683994754575193,-0.31573760895542796
1782831388088882000,7.5828818359375,0.9293559023320674,-0.7667086679387837,-0.3678736005146056
1782831388098811000,7.592810791015625,0.6191776080042123,-0.7713439265239983,-0.41327958969902245
1782831388108739800,7.60273974609375,0.4302940355271101,-0.7952125125631689,-0.49622616845499723
1782831388118669000,7.6126689453125,0.3314437851965427,-0.751055171732977,-0.5371354307420552
1782831388128598000,7.622597900390625,0.08866846353411674,-0.8206815195363014,-0.5301303742855787
1782831388138527000,7.63252685546875,-0.08430909928083419,-0.9803710731677711,-0.530897778461501
1782831388148456000,7.6424560546875,-0.1257972939670086,-0.9699345809578895,-0.5237298961261287
1782831388158385200,7.65238525390625,-0.19172434886097908,-0.8936299244344234,-0.5342868729105219
1782831388168313900,7.66231396484375,-0.348023164075613,-0.9023363049160689,-0.5091639759613201
1782831388178243800,7.672243896484375,-0.27579905486404893,-0.8867949638478457,-0.48930005898624657
1782831388188172800,7.6821728515625,-0.25916239283978937,-0.8539693105015903,-0.46874026870150115
1782831388198102000,7.69210205078125,-0.23446458943486212,-0.911457403678447,-0.47653117830604313
1782831388208031000,7.702031005859375,-0.12578443448543547,-0.9522245175484567,-0.46512573146615177
1782831388217960000,7.7119599609375,-0.11337503476738929,-1.00669282451272,-0.44350408410355446
1782831388227889000,7.721888916015625,-0.08792553621232509,-1.020223264149949,-0.41955746439211067
1782831388237818000,7.731818115234375,-0.09499883559942245,-0.9813620569664985,-0.40472836324647066
1782831388247747000,7.7417470703125,-0.1612368561387062,-0.9448849684406071,-0.3730054835103452
1782831388257675800,7.75167578125,-0.23169629376530645,-0.9433598777651786,-0.37914771259240804
1782831388267604700,7.761604736328125,-0.3585112403422594,-0.972435969319567,-0.39891163979172706
1782831388277535000,7.771534912109375,-0.45309915705323217,-0.9765107444778084,-0.3777657567147165
1782831388287464000,7.7814638671875,-0.5755050550162791,-0.9333533014051616,-0.3406652755934745
1782831388297393000,7.791392822265625,-0.7713818473815918,-0.8915183391079307,-0.40017164979018266
1782831388307322000,7.801322021484375,-0.9474614678651094,-0.7990335321560501,-0.5129357861176133
1782831388317251000,7.8112509765625,-1.0208341625899076,-0.6949391706269235,-0.6261114258553833
1782831388327180000,7.821179931640625,-0.9919219563603401,-0.6291179872602224,-0.6835142519015819
1782831388337108700,7.831108642578125,-1.2508908724546433,-0.5664505917493253,-0.6980627825401723
1782831388347038000,7.841037841796875,-1.3738392067313194,-0.5947481001466512,-0.6637153264541179
1782831388356967000,7.850966796875,-1.5221061066597699,-0.7131639055602252,-0.6779390821177512
1782831388366895900,7.860895751953125,-1.6667285126060247,-0.8120944545853882,-0.7601729825597257
1782831388376824800,7.870824951171875,-1.6533996599555014,-0.7767261310189962,-0.8185062213238328
1782831388386755000,7.880755126953125,-1.8402169475525616,-0.7598039300516247,-0.7957044607985764
1782831388396684000,7.89068408203125,-2.065314573705196,-0.8445959174785762,-0.6516292404063045
1782831388406613000,7.900613037109375,-2.1117828948915003,-0.8237383498236537,-0.5039122659781947
1782831388416541700,7.910541748046875,-2.1351813061356544,-0.6477316484458744,-0.3556468638870865
1782831388426471000,7.920470947265625,-2.126967020019889,-0.46117286565452814,-0.22833266255110501
1782831388436399900,7.93039990234375,-1.92932964772284,-0.22072481789588927,-0.1404644094839692
1782831388446328800,7.940328857421875,-1.556599327892065,0.08695223420076072,-0.06376867128368467
1782831388456257800,7.9502578125,-0.9528870000451802,0.4054758206129074,0.009533113629370928
1782831388466187000,7.96018701171875,-0.28470073872208596,0.646090822436288,0.07256557959299534
1782831388476116000,7.970115966796875,0.21428630928099154,0.7206617139697075,0.12123327398709952
1782831388486046000,7.9800458984375,0.583463320544362,0.6908568697493523,0.14522351364456115
1782831388495975000,7.989974853515625,0.9932646031409501,0.6649566317521035,0.194069231486693
1782831388505903900,7.99990380859375,1.2415034509062766,0.6505025013986975,0.3440595211416483
1782831388515832800,8.009832763671875,1.3563584950983523,0.5898671231720596,0.43434426076598465
1782831388525761800,8.01976171875,1.545595703318715,0.620247356127575,0.4404773566935211
1782831388535691000,8.02969091796875,1.7432792528450487,0.7756438156750053,0.482098822370544
1782831388545620000,8.039619873046876,1.9580162285029887,0.85664612849541,0.5839896094407886
1782831388555549000,8.049548828125,2.03453540455997,0.7871141079120337,0.6724767250586301
1782831388565478000,8.059477783203125,2.0243992104709148,0.6449390951178967,0.7076675001010299
1782831388575407000,8.069406982421874,1.9557512061804532,0.5652998142790049,0.7075101906474679
1782831388585336800,8.0793369140625,1.6869342652887105,0.45601197576001284,0.6200558521434665
1782831388595265800,8.089265869140625,1.3840829528480767,0.3441914038930088,0.5500795218586921
1782831388605194800,8.09919482421875,1.0755085865855216,0.35202034395299847,0.5763594068232923
1782831388615124000,8.1091240234375,0.74831486004889,0.4104762592487037,0.6047029828520492
1782831388625053000,8.119052978515626,0.32204701129794117,0.48901656586974857,0.6766160898856818
1782831388634982000,8.12898193359375,-0.1611158601075411,0.5350423309203237,0.6965098540097474
1782831388644910800,8.138910888671875,-0.6814350344747304,0.5399990765448659,0.6145598850756884
1782831388654840000,8.148840087890624,-1.009952703091502,0.5178420436639338,0.4268901819003746
1782831388664769000,8.15876904296875,-1.1140905384361743,0.49519415852613746,0.49412199924997985
1782831388674698000,8.168697998046875,-1.1557254481166601,0.42444735532552,0.6194431270726025
1782831388684627000,8.178626953125,-0.8978536796092986,0.3893519304163754,0.5112239772310481
1782831388694557000,8.188556884765624,-0.6059270812869072,0.43612851383425294,0.3719663497209549
1782831388704486000,8.19848583984375,-0.3640332186341286,0.41696291785426437,0.29366339551974086
1782831388714414800,8.208414794921875,-0.0296715001642704,0.31777203739248217,0.19338808082211761
1782831388724344000,8.218343994140625,0.4604723161697387,0.3348038362141698,0.29083935107495634
1782831388734273000,8.22827294921875,0.8842553623676299,0.3244715350311249,0.4736814879633486
1782831388744202000,8.238201904296876,1.214840484908223,0.24492460865080354,0.5308945635911076
1782831388754131000,8.248130859375,1.4049205736935138,0.19573497274182736,0.47744069436639547
1782831388764060000,8.258059814453125,1.418825764927268,0.12471782816722989,0.4152841709870845
1782831388773988900,8.26798876953125,1.4442296707749367,-0.01116400276683271,0.4340914550486952
1782831388783917800,8.277917724609376,1.4247165765315293,-0.1283141721587628,0.5357165769200771
1782831388793848000,8.28784814453125,1.225353695616126,-0.2624793353680521,0.5948340613970533
1782831388803777000,8.297777099609375,1.0747072070747614,-0.4031396327503025,0.49312305134050544
1782831388813706000,8.3077060546875,0.947626303038001,-0.32212358366549015,0.4689289962066337
1782831388823635000,8.317635009765626,0.8561480427801609,-0.24613500735387206,0.49447716936320063
1782831388833564200,8.327564208984375,0.8237649455696344,-0.2345961068600416,0.5044130185745657
1782831388843492900,8.337492919921875,0.7209785248339176,-0.21447547517754137,0.436860846696794
1782831388853421800,8.347421875,0.5270101964384317,-0.25695173105299474,0.4544922553794458
1782831388863350800,8.357350830078126,0.47920390464663504,-0.2603350168157369,0.41687085565663873
1782831388873279700,8.36727978515625,0.4358750505298376,-0.19956527161970733,0.4234347076842561
1782831388883209000,8.377208984375,0.20990531771779058,-0.24617833503894507,0.4370570999212563
1782831388893139000,8.387138916015624,0.00888707081079483,-0.3458169592682272,0.46586632070038464
1782831388903068000,8.39706787109375,-0.15506488950550557,-0.3244301070421934,0.41289227088186886
1782831388912997000,8.4069970703125,-0.3478910621285438,-0.33786395443715156,0.32231611056290566
1782831388922925800,8.41692578125,-0.6005483108580112,-0.4589396997749805,0.23021606514491139
1782831388932854800,8.426854736328124,-0.7868132252693176,-0.520054970473051,0.148082665935345
1782831388942783700,8.43678369140625,-0.9228624486595391,-0.5381530102867633,0.0798670617127791
1782831388952713000,8.446712890625,-0.9330769686818122,-0.5503586310610175,-0.0008647270705550909
1782831388962642000,8.456641845703125,-1.0242834262609481,-0.5659366508778184,0.04890486415084451
1782831388972571000,8.46657080078125,-1.1619336551070212,-0.630438276078552,0.024824388926662503
1782831388982499800,8.476499755859376,-1.2852157513827085,-0.646097763633728,-0.027187757057137787
1782831388992429000,8.486428955078125,-1.3590233303934336,-0.6760559717848896,-0.05357508445158601
1782831389002362600,8.496362548828126,-1.3045686866283417,-0.7022847841493784,-0.058128546504862606
1782831389012291600,8.50629150390625,-1.2621131082147359,-0.7389660169452429,-0.04517524916846305
1782831389022220500,8.516220458984375,-1.1243103191554547,-0.7969321028973907,-0.04131660097893327
1782831389032149800,8.526149658203124,-0.9527414540946483,-0.9150142193771899,-0.07728110034018755
1782831389042078700,8.53607861328125,-0.8187064931362867,-1.0112101558066904,-0.12067914723567665
1782831389052007700,8.546007568359375,-1.1376420944154262,-1.066779628945887,-0.16918306590281426
1782831389061936600,8.5559365234375,-1.5015145695298908,-1.139766831484437,-0.3529213844459504
1782831389071865900,8.565865966796874,-1.5503735852450131,-1.1134116893265396,-0.6001006036231294
1782831389081794800,8.575794921875,-1.8529735532730818,-1.0780018647059797,-0.7726067860666662
1782831389091723800,8.585723876953125,-2.0397797349542377,-1.1370534078072756,-0.8146949194073677
1782831389101652700,8.59565283203125,-2.1538556114673613,-1.147546671705693,-0.7678875024598092
1782831389111582700,8.605582763671874,-2.169954513353109,-0.9900872882790863,-0.7747146450661122
1782831389121511700,8.61551171875,-1.8790262784183025,-0.7065600503157824,-0.7759615033220499
1782831389131440600,8.625440673828125,-1.4397680151909589,-0.41574835443273184,-0.6392115112513304
1782831389141369900,8.635369873046875,-0.9589116671621799,-0.27093904761224985,-0.37076121171489357
1782831389151298800,8.645298828125,-0.4040297134578228,-0.26541597334183753,-0.0776905944565311
1782831389161227800,8.655227783203125,0.12284019772708415,-0.1007860406987369,0.15022267363872377
1782831389171156700,8.66515673828125,0.35130993066132066,0.163846819441393,0.3278000949319452
1782831389181086000,8.6750859375,0.5441355187624692,0.33181327609606087,0.40398762788176534
1782831389191014700,8.6850146484375,0.7419102537035942,0.37103725217729805,0.3918665801184252
1782831389200943600,8.694943603515625,0.8464210140138864,0.34378735313676295,0.4152817233016714
1782831389210873600,8.70487353515625,0.9021329643636942,0.2756494172602892,0.4247739934640005
1782831389220802800,8.714802734375,1.0927046360582113,0.2958247017394751,0.36418709402158855
1782831389230731800,8.724731689453124,1.1685855142116546,0.375962360554561,0.3425854300010949
1782831389240660700,8.73466064453125,1.214122692027688,0.41556810249499976,0.21497845626361667
1782831389250589700,8.744589599609375,1.3267600601702927,0.43874614898674186,0.07742291996367276
1782831389260519000,8.754518798828125,1.2455512649923561,0.32144875314384697,0.04638232340328395
1782831389270447600,8.764447509765626,1.0297025287002324,0.14409056409187615,0.03951451999302953
1782831389280376600,8.77437646484375,0.8661562265753745,0.1422716050364077,0.03574574204403907
1782831389290305500,8.784305419921875,0.7462298704683781,0.19053207033649086,0.023210049065202472
1782831389300234800,8.79423486328125,0.6115776543945074,0.266434721930325,-0.07669120815563947
1782831389310163700,8.804163818359376,0.37005496314167974,0.3652238897234201,-0.17850812627207488
1782831389320093700,8.81409375,0.24114801272153852,0.3760845986947417,-0.2993156491277739
1782831389330023000,8.82402294921875,0.15522446398139,0.4495573927931487,-0.4488309782147407
1782831389339951900,8.833951904296875,0.04749707971215248,0.5739567295957356,-0.6310127149656415
1782831389349880600,8.843880615234376,-0.18309329863786697,0.5757012351755052,-0.6564797491773963
1782831389359809500,8.8538095703125,-0.43156712420284743,0.4106287463966757,-0.6265659646898508
1782831389369738800,8.86373876953125,-0.43132454761862754,0.38677448114380236,-0.6086810196375474
1782831389379667700,8.873667724609374,-0.48678866068720816,0.47630328783430154,-0.5362897736981511
1782831389389596700,8.8835966796875,-0.5076648599773645,0.42000747318193316,-0.4032407915698364
1782831389399525600,8.893525634765625,-0.2849737104445696,0.35538068723157046,-0.3502166555318981
1782831389409454800,8.903454833984375,-0.004404372438788414,0.3389533571090549,-0.31487591409217563
1782831389419384800,8.913384765625,0.24554478637576102,0.2811980643633753,-0.3076476433390751
1782831389429313500,8.9233134765625,0.54031099203825,0.1308080348011106,-0.36596217740271236
1782831389439242500,8.933242431640625,0.8538350896626711,0.0058732759475708,-0.2923161456292495
1782831389449171700,8.943171630859375,0.9385603685289621,-0.20736717754229902,-0.2284074813529849
1782831389459100700,8.9531005859375,1.1054968976140023,-0.44834567891582844,-0.29250571338459846
1782831389469029600,8.963029541015626,1.2879291019946335,-0.5196270273845642,-0.32770079927593465
1782831389478958600,8.97295849609375,1.3869886111617087,-0.5816740259747952,-0.32918190467916425
1782831389488887800,8.9828876953125,1.3239520170122385,-0.7531417687486857,-0.3368410411302
1782831389498816800,8.992816650390624,1.2136211722463368,-0.8981791852366179,-0.4226338761627674
1782831389508745700,9.002745849609376,1.145288809776306,-0.8992790362372994,-0.563914278204739
1782831389518674700,9.0126748046875,1.0142010081857442,-0.9260855754245072,-0.6527843287255615
1782831389528604700,9.022604736328125,0.8190496074855327,-0.9977544619061052,-0.6446869469877332
1782831389538533600,9.03253369140625,0.608329466253519,-0.9714419167809187,-0.6219457575432956
1782831389548462600,9.042462646484376,0.5051245278447866,-0.8967531710214912,-0.6423470327980816
1782831389558391800,9.052391845703125,0.2891483657807112,-0.8453102762930095,-0.6630340661916881
1782831389568320800,9.06232080078125,0.16133154868483543,-0.865818811314553,-0.7415803641621023
1782831389578249700,9.072249755859374,0.0083393738001585,-0.8958651361405849,-0.7713665036819874
1782831389588178700,9.0821787109375,0.057012511554360386,-0.94288626890406,-0.716176604444906
1782831389598108000,9.09210791015625,0.13180676351487636,-0.9495838668465614,-0.5831064699307084
1782831389608036900,9.102036865234375,0.13048106786906719,-1.0084043046057223,-0.5287050907228141
1782831389617965800,9.1119658203125,0.20713643752634525,-1.0729304066605865,-0.5538784026850014
1782831389627894500,9.12189453125,0.13292261580228804,-1.1388050737801938,-0.579565070996806
1782831389637824800,9.13182470703125,0.04949906718432903,-1.3017457381621003,-0.5263166612163186
1782831389647753700,9.141753662109375,-0.17995441609025,-1.2805464443974197,-0.5353212209269405
1782831389657682700,9.1516826171875,-0.44513504630625245,-1.1912342761322856,-0.5199105205010622
1782831389667611600,9.161611572265626,-0.7307996616244316,-1.1600563899930565,-0.5723083048015832
1782831389677540900,9.171540771484375,-0.9964403105676174,-1.0920797821581363,-0.629622794977203
1782831389687469800,9.1814697265625,-1.275717855197191,-1.1051021992079912,-0.6543030627254396
1782831389697398800,9.191398681640624,-1.565012351450324,-1.1816110730666667,-0.6679930768385529
1782831389707327500,9.201327392578126,-1.832773061287403,-1.0231285571373998,-0.6784834911927581
1782831389717256700,9.211256591796875,-2.0614292567044497,-0.9875991977903992,-0.6797683433715254
1782831389727185700,9.221185546875,-2.489941669511795,-0.8228951769977807,-0.5909927662011235
1782831389737114600,9.231114501953124,-2.8086925618737935,-0.5177772347994148,-0.4407310391936451
1782831389747044900,9.241044921875,-3.148182290881872,-0.2387977963335812,-0.25659082531873134
1782831389756973800,9.250973876953125,-3.5139041932553052,-0.03994279187507927,0.03565693124942481
1782831389766902800,9.26090283203125,-3.699689215195179,0.14938655160814523,0.3497227710677311
1782831389776831700,9.270831787109374,-3.4500685576826333,0.3155303959455341,0.5318919040653854
1782831389786760700,9.2807607421875,-3.0857506768882272,0.4971959268026054,0.7258158818624914
1782831389796689700,9.290689697265625,-2.5904490393996236,0.7047914332080633,0.8494802554540336
1782831389806618600,9.30061865234375,-1.9393390005618332,0.8435947045467793,0.9153750155135989
1782831389816547600,9.310547607421874,-1.2926982160925864,0.8752658540956676,0.9954892934530973
1782831389826476800,9.320476806640626,-0.6958353157490491,0.7677351614423096,1.066968867907673
1782831389836402700,9.330402587890624,-0.20731413218080996,0.6697783528201282,1.1310459840860216
1782831389846332000,9.340331787109376,0.15585633214414119,0.6235968126859516,1.1560942814290522
1782831389856260900,9.3502607421875,0.4126601791590452,0.6100812783569097,1.0894419810004532
1782831389866189800,9.36018994140625,0.7060749702125787,0.657673927398026,1.0100764756016434
1782831389876118800,9.370118896484374,0.9203086725234985,0.6849944805219769,0.9893057825125753
1782831389886047500,9.380047607421876,1.119997716653347,0.6510653229132294,0.8905081391520797
1782831389895977700,9.389977783203125,1.428154149764776,0.6458567214194685,0.7702820694461464
1782831389905906700,9.39990673828125,1.7083856341183186,0.6349244085166603,0.6966993121672421
1782831389915835600,9.409835693359375,1.887054102051258,0.5831398607436568,0.7066499205563217
1782831389925764900,9.419764892578126,2.008521842381358,0.43664800766371187,0.7782008066814392
1782831389935693800,9.42969384765625,2.197619349870086,0.2860816716864705,0.86927450472638
1782831389945622800,9.439622802734375,2.1639473818928003,0.2445192427203059,0.938893399875611
1782831389955551700,9.4495517578125,2.058737533402443,0.2492760087933391,0.9950465911868959
1782831389965480700,9.459480712890626,1.8833926569342612,0.29392171766236425,1.0234458794582635
1782831389975409700,9.46940966796875,1.6415420489013195,0.3943201472830027,0.9926203869532794
1782831389985338600,9.479338623046875,1.3319190503686666,0.48055429634228347,0.9773218416649848
1782831389995268900,9.489268798828125,0.9003238691151142,0.4841972559545189,0.9521719105783849
1782831390005194200,9.4991943359375,0.4899900870770216,0.38250323356539007,0.8615446411266923
1782831390015123200,9.509123291015625,0.20992460694015025,0.2495688542600721,0.7233044835634529
1782831390025052200,9.51905224609375,0.04063011655211449,0.17128712550997732,0.6738410722143948
1782831390034981400,9.5289814453125,-0.1902501846551895,0.11722425754144787,0.7583516123514622
1782831390044910000,9.53891015625,-0.4200976356834173,0.0426662985548377,0.8451910338275134
1782831390054839000,9.548839111328125,-0.5280705191463232,0.030404563679173588,0.8827579634167253
1782831390064768000,9.55876806640625,-0.5300520483523607,0.013305690970644353,0.889238703738153
1782831390074697200,9.568697265625,-0.4280699297368526,-0.028500337493047118,0.8883600212074816
1782831390084626200,9.578626220703125,-0.2359294012904167,-0.06631590808108448,0.9360483126427978
1782831390094555100,9.58855517578125,-0.07256722356081008,-0.0752757518671453,0.9338641735367477
1782831390104485400,9.5984853515625,0.1878805329144001,-0.05907755432538688,0.9306622356902807
1782831390114414300,9.608414306640626,0.2895563620597124,-0.14777970093339682,0.7543084013752639
1782831390124343000,9.618343017578125,0.505731846088171,-0.20586941326521335,0.7687138702813535
1782831390134272000,9.62827197265625,0.6510597699552774,-0.2936975535176694,0.8620780173510313
1782831390144201200,9.638201171875,0.746589935952425,-0.40035087881460785,0.9618186406500637
1782831390154130200,9.648130126953125,0.8217951068013906,-0.4225961014356464,0.955142377756536
1782831390164059100,9.65805908203125,0.8542904322147369,-0.3391320746768266,0.9135084909893572
1782831390173988000,9.667988037109374,0.868320711132884,-0.2743619347330183,0.8454299571499228
1782831390183917300,9.677917236328126,0.8497966279268264,-0.24615356592386958,0.9068261636812239
1782831390193846300,9.68784619140625,0.7021686104238033,-0.3565317569628358,0.8453852412253617
1782831390203775200,9.697775146484375,0.6738420951277018,-0.44049196974076327,0.8148523019261658
1782831390213705000,9.707705078125,0.6102700789272785,-0.4587259839590639,0.8284113831359893
1782831390223634200,9.71763427734375,0.5609995598018169,-0.5588849057354033,0.8096852014865725
1782831390233563100,9.727563232421875,0.4400952985733747,-0.5997981500778347,0.7866375033762305
1782831390243492000,9.7374921875,0.30530455081164837,-0.6339869084708393,0.7697016392096877
1782831390253421000,9.747421142578125,0.2258744557440281,-0.6926205184210091,0.743854811900109
1782831390263350300,9.757350341796876,0.046080783173441886,-0.6974949195243417,0.6877993818748742
1782831390273279200,9.767279296875,-0.07483926014602184,-0.7213602906931191,0.6432342639613896
1782831390283208200,9.777208251953125,-0.10196282939314842,-0.6936314490292221,0.6359983944237232
1782831390293137200,9.78713720703125,-0.13922726890444756,-0.6560419422820211,0.6369857980258763
1782831390303066400,9.79706640625,-0.22835049046874045,-0.6519543076422065,0.6224001502472907
1782831390312995000,9.8069951171875,-0.3698790220528841,-0.6323056773856282,0.5866814788732677
1782831390322925000,9.816925048828125,-0.5335141715049744,-0.5513675889078528,0.5074601311855018
1782831390332854300,9.826854248046875,-0.6437462320715188,-0.5110878932286054,0.45644488728456195
1782831390342783200,9.836783203125,-0.728515934601426,-0.5279022499073297,0.47383894354738293
1782831390352712200,9.846712158203125,-0.7207078911989927,-0.5521892074890434,0.4888703623320907
1782831390362641200,9.85664111328125,-0.7166220831900835,-0.5705010361839086,0.4972960992414504
1782831390372570400,9.8665703125,-0.7191103928744792,-0.5900363422591239,0.5201993108471855
1782831390382499300,9.876499267578126,-0.734620096695423,-0.5685247676748783,0.5154308543363586
1782831390392428000,9.886427978515625,-0.7086988889753818,-0.519702138447389,0.4480400105001405
1782831390402357000,9.89635693359375,-0.6603788024425506,-0.4840243836056441,0.4409876808358356
1782831390412286200,9.9062861328125,-0.5897662200808524,-0.4324728408709168,0.5216279919434339
1782831390422215200,9.916215087890626,-0.7721037319153546,-0.39176534823365505,0.5589228631256148
1782831390432145200,9.926145263671875,-0.9990583841115236,-0.4922078361917287,0.5504157680757343
1782831390442074000,9.93607421875,-1.2823720523893833,-0.5731405909072608,0.4599832540111616
1782831390452003300,9.94600341796875,-1.5161346310347317,-0.48006359021589157,0.4330905343778431
1782831390461932300,9.955932373046876,-1.8076544021219014,-0.45601197576001284,0.4305554264096543
1782831390471861200,9.965861328125,-2.1005548139125105,-0.4230853462573141,0.4925513158671558
1782831390481790000,9.9757900390625,-2.3703601813197133,-0.3386928795419633,0.4539424760095775
1782831390491719200,9.98571923828125,-2.450706222188473,-0.24783055922538041,0.36338520305417477
1782831390501648100,9.995648193359376,-2.313776708832383,-0.12665318014398216,0.3308739859519526
1782831390511577000,10.0055771484375,-1.9821698420286178,0.032097923593595624,0.30047713065519926
1782831390521506000,10.015506103515625,-1.5037556264549492,0.15726963300816713,0.24246990897506474
1782831390531435300,10.025435302734374,-0.9229682471215724,0.20236936925500632,0.21418953437563032
1782831390541365200,10.035365234375,-0.43565527029931544,0.1530108065199107,0.21157193575575947
1782831390551294200,10.045294189453125,-0.042350364473462104,0.03551854569204151,0.18843615750316528
1782831390561223200,10.05522314453125,0.36760055572688577,-0.07196531214490533,0.1305372915683314
1782831390571152100,10.065152099609374,0.7017021619558333,-0.14988208004012704,0.048656807673908765
1782831390581081000,10.0750810546875,0.9949088632166385,-0.10763802548535167,-0.054143714652396736
1782831390591010000,10.085010009765625,1.283293843409419,-0.05049925720281899,-0.08615509247370064
1782831390600939300,10.094939208984375,1.3739169481426476,-0.04546498936265707,0.00426912868656218
1782831390610868200,10.1048681640625,1.3621400011092424,-0.027969372421503064,-0.06461714133918285
1782831390620797200,10.114797119140626,3.284401025620103,0.2918889697257429,-0.07890088356174528
1782831390630726100,10.12472607421875,1.3662667256504297,0.4601720911141485,0.1784467880062759
1782831390640656100,10.13465625,0.6377396851330995,-0.2998804068710655,0.23986126084662973
1782831390650585000,10.144585205078124,1.070724274918437,-0.31371662452183663,-0.2867260340046137
1782831390660514000,10.15451416015625,0.5123731837987899,0.3095801823042333,-0.34091815437600015
1782831390670443000,10.164443115234375,0.364750426992774,0.17534173466302452,-0.3890924026973545
1782831390680372200,10.174372314453125,0.44154783546924586,0.26009207490533587,-0.40839528825618326
1782831390690301200,10.18430126953125,1.038707672932744,0.7299649643659591,-0.36851350585334003
1782831390700230100,10.194230224609376,0.9496277059882878,1.0438753578942268,-0.25168701545782385
1782831390710159000,10.2041591796875,0.007326981887221336,0.8720636239882558,-0.22460776027645915
1782831390720088300,10.21408837890625,-0.6082926413744688,0.6387821799233555,-0.12916015799622982
