time,seconds_elapsed,z,y,x
1782831380592404200,0.086404296875,0.05193672329187393,-0.056404028087854385,0.18500372767448425
1782831380602333200,0.096333251953125,0.04750655218958855,0.0029210811480879784,0.0913773849606514
1782831380612262100,0.10626220703125,0.04637438803911209,0.08938522636890411,0.008932167664170265
1782831380622191000,0.116191162109375,0.055717289447784424,0.18567422032356262,-0.06414523720741272
1782831380632120000,0.1261201171875,0.08898614346981049,0.26215577125549316,-0.1342926323413849
1782831380642049300,0.13604931640625,0.11137321591377258,0.28825074434280396,-0.19853127002716064
1782831380651979300,0.145979248046875,0.12215743213891983,0.24849139153957367,-0.2283288538455963
1782831380661908200,0.155908203125,0.13752441108226776,0.17583584785461426,-0.2176775485277176
1782831380671837400,0.16583740234375,0.16321349143981934,0.07377034425735474,-0.1739295870065689
1782831380681766100,0.17576611328125,0.1860753893852234,-0.019494617357850075,-0.08328810334205627
1782831380691695000,0.185695068359375,0.1795080006122589,-0.019700054079294205,0.024734701961278915
1782831380701624000,0.1956240234375,0.1577363908290863,0.016590841114521027,0.10217835754156113
1782831380711553300,0.20555322265625,0.1476481556892395,0.04108577221632004,0.1115107387304306
1782831380721482200,0.215482177734375,0.15112172067165375,0.03949320316314697,0.07938289642333984
1782831380731411200,0.2254111328125,0.16815192997455597,0.016537057235836983,0.02436858043074608
1782831380741341200,0.235341064453125,0.185875803232193,-0.013763590715825558,-0.0033522634766995907
1782831380751270400,0.2452705078125,0.19380782544612885,0.00007462874054908752,-0.011477166786789894
1782831380761199400,0.255199462890625,0.18277248740196228,0.04138851538300514,-0.00904117338359356
1782831380771128000,0.265128173828125,0.18757502734661102,0.08197210729122162,-0.02098451927304268
1782831380781057000,0.27505712890625,0.19818851351737976,0.1367245763540268,-0.03452376276254654
1782831380790986200,0.284986328125,0.20544543862342834,0.1774870902299881,-0.04524951055645943
1782831380800915200,0.294915283203125,0.20607207715511322,0.1625310331583023,-0.04785940796136856
1782831380810844200,0.30484423828125,0.2050386369228363,0.1163807362318039,-0.04484604299068451
1782831380820773000,0.314773193359375,0.22089803218841553,0.06629466265439987,-0.04815315827727318
1782831380830702300,0.324702392578125,0.24131818115711212,0.009332393296062946,-0.056761812418699265
1782831380840632300,0.33463232421875,0.25401827692985535,-0.06923086196184158,-0.06932554394006729
1782831380850561000,0.34456103515625,0.2523547112941742,-0.1587601602077484,-0.07216248661279678
1782831380860490200,0.354490234375,0.23422791063785553,-0.22162353992462158,-0.04053158685564995
1782831380870419200,0.364419189453125,0.2215903103351593,-0.23558996617794037,0.001607211772352457
1782831380880348200,0.37434814453125,0.21527782082557678,-0.21463435888290405,0.04338128864765167
1782831380890277000,0.384277099609375,0.20692653954029083,-0.1829836666584015,0.06281989812850952
1782831380900206300,0.394206298828125,0.1896199882030487,-0.15971028804779053,0.0694732740521431
1782831380910135300,0.40413525390625,0.1584661304950714,-0.13299986720085144,0.06266164779663086
1782831380920064300,0.414064208984375,0.12464399635791779,-0.11923079937696457,0.042225610464811325
1782831380929994000,0.423993896484375,0.10311666131019592,-0.10492969304323196,-0.0005297092720866203
1782831380939923200,0.433923095703125,0.08121456205844879,-0.07348096370697021,-0.058120302855968475
1782831380949852200,0.44385205078125,0.0633605346083641,-0.03924953565001488,-0.11146274954080582
1782831380959781000,0.453781005859375,0.04537913575768471,0.010843193158507347,-0.13354888558387756
1782831380969710000,0.4637099609375,0.025868911296129227,0.03705110773444176,-0.12454533576965332
1782831380979639300,0.473639404296875,0.008172737434506416,0.035963207483291626,-0.0934438705444336
1782831380989569000,0.483569091796875,-0.0008061304688453674,0.033710379153490067,-0.06888293474912643
1782831380999498000,0.493498046875,-0.007348185405135155,0.018174298107624054,-0.029663894325494766
1782831381009427000,0.503427001953125,-0.00471839401870966,0.04683233052492142,0.014247773215174675
1782831381019356000,0.51335595703125,0.006380596198141575,0.05503673106431961,0.038866832852363586
1782831381029286000,0.523285888671875,0.014218674041330814,0.05850934609770775,0.042955584824085236
1782831381039214800,0.53321484375,0.024791955947875977,0.059342119842767715,0.015713045373558998
1782831381049144000,0.54314404296875,0.033553920686244965,0.05285302922129631,-0.009073992259800434
1782831381059073000,0.553072998046875,0.036146510392427444,0.06681758165359497,-0.027990158647298813
1782831381069002000,0.563001953125,0.040345530956983566,0.0891953632235527,-0.0372406542301178
1782831381078931000,0.572930908203125,0.030824197456240654,0.13441717624664307,-0.052019331604242325
1782831381088860200,0.582860107421875,0.022784169763326645,0.16131286323070526,-0.08159147202968597
1782831381098788900,0.592788818359375,0.02359563671052456,0.16576647758483887,-0.10055185109376907
1782831381108717800,0.6027177734375,0.03951128572225571,0.14736129343509674,-0.11125922203063965
1782831381118647800,0.612647705078125,0.043457552790641785,0.09903424978256226,-0.10756675153970718
1782831381128577000,0.622576904296875,0.05071956664323807,0.10081566870212555,-0.07312148064374924
1782831381138506000,0.632506103515625,0.06842905282974243,0.1267271637916565,-0.02815401181578636
1782831381148435000,0.64243505859375,0.09084895253181458,0.12477235496044159,0.0007395516149699688
1782831381158364000,0.652364013671875,0.09721390157938004,0.10560185462236404,0.0019717966206371784
1782831381168293000,0.662293212890625,0.08644626289606094,0.058659009635448456,-0.022444793954491615
1782831381178221800,0.672221923828125,0.06773275882005692,0.04827507585287094,-0.03872496262192726
1782831381188150800,0.68215087890625,0.05637432634830475,0.033703695982694626,-0.04123293235898018
1782831381198079700,0.692079833984375,0.059361062943935394,-0.012648356147110462,-0.035612329840660095
1782831381208009000,0.702009033203125,0.06234346330165863,-0.08224442601203918,-0.02309027686715126
1782831381217939000,0.71193896484375,0.06735153496265411,-0.1500232070684433,-0.004344819579273462
1782831381227868000,0.721867919921875,0.06936448067426682,-0.1935247778892517,0.007068356033414602
1782831381237797000,0.731797119140625,0.06773436069488525,-0.20463600754737854,0.0005928804166615009
1782831381247726000,0.74172607421875,0.06773681193590164,-0.17616160213947296,-0.00720978481695056
1782831381257654800,0.75165478515625,0.0646962821483612,-0.14032717049121857,-0.020149018615484238
1782831381267583700,0.761583740234375,0.06421197950839996,-0.10600341856479645,-0.055783711373806
1782831381277513000,0.771512939453125,0.07578767836093903,-0.053760457783937454,-0.1016627848148346
1782831381287442000,0.78144189453125,0.08180834352970123,0.003156791441142559,-0.14265643060207367
1782831381297371000,0.791370849609375,0.08608511090278625,0.051844701170921326,-0.17830443382263184
1782831381307300900,0.80130078125,0.09104588627815247,0.09868121892213821,-0.19553275406360626
1782831381317230000,0.81122998046875,0.10415104031562805,0.1326700747013092,-0.22620384395122528
1782831381327159000,0.821158935546875,0.12464842200279236,0.15857763588428497,-0.2520914375782013
1782831381337087700,0.831087646484375,0.13399292528629303,0.14770741760730743,-0.2646367847919464
1782831381347016700,0.8410166015625,0.12308039516210556,0.09061148017644882,-0.23453794419765472
1782831381356946000,0.85094580078125,0.08930512517690659,0.02669348195195198,-0.1531325727701187
1782831381366875000,0.860875,0.046111203730106354,0.01685836911201477,-0.037136390805244446
1782831381376803800,0.870803955078125,0.008512960746884346,0.002880500629544258,0.06491008400917053
1782831381386732800,0.88073291015625,-0.021099857985973358,-0.005000520497560501,0.14752013981342316
1782831381396662000,0.890662109375,-0.05626237392425537,0.0128122977912426,0.20408648252487183
1782831381406592000,0.900592041015625,-0.07942947745323181,0.003864344209432602,0.2190885990858078
1782831381416521000,0.91052099609375,-0.09354822337627411,-0.04679457098245621,0.1916753500699997
1782831381426450000,0.920449951171875,-0.09699755907058716,-0.09122570604085922,0.12448219954967499
1782831381436379000,0.93037890625,-0.08210036903619766,-0.127862811088562,0.03349956497550011
1782831381446307800,0.940307861328125,-0.042191896587610245,-0.16501997411251068,-0.06619307398796082
1782831381456236800,0.95023681640625,0.0066073318012058735,-0.18504002690315247,-0.16114702820777893
1782831381466166000,0.960166015625,0.031588662415742874,-0.21054354310035706,-0.21155545115470886
1782831381476095000,0.970094970703125,0.022460944950580597,-0.22694487869739532,-0.20569702982902527
1782831381486024000,0.98002392578125,-0.00025462545454502106,-0.22473487257957458,-0.15003006160259247
1782831381495954000,0.989953857421875,-0.03262081742286682,-0.19730883836746216,-0.0748428925871849
1782831381505883000,0.9998828125,-0.07285764068365097,-0.1616658866405487,0.010244244709610939
1782831381515811800,1.009811767578125,-0.10421902686357498,-0.12241649627685547,0.08722744137048721
1782831381525740800,1.01974072265625,-0.12310314178466797,-0.08259480446577072,0.14589594304561615
1782831381535670000,1.029669921875,-0.1284387856721878,-0.06916502118110657,0.15993507206439972
1782831381545599000,1.039598876953125,-0.12993107736110687,-0.07351801544427872,0.12772047519683838
1782831381555528000,1.04952783203125,-0.12616004049777985,-0.10491961240768433,0.06451539695262909
1782831381565457000,1.059456787109375,-0.12361937761306763,-0.17345763742923737,-0.008262665942311287
1782831381575385900,1.0693857421875,-0.12175196409225464,-0.27005741000175476,-0.08662271499633789
1782831381585315000,1.079315185546875,-0.14321891963481903,-0.3772251605987549,-0.1189550906419754
1782831381595244800,1.089244873046875,-0.1900695115327835,-0.38706207275390625,-0.09389607608318329
1782831381605173800,1.099173828125,-0.2282230108976364,-0.34399235248565674,-0.041705045849084854
1782831381615103000,1.10910302734375,-0.24736288189888,-0.24338608980178833,0.01501256413757801
1782831381625032000,1.119031982421875,-0.2588385343551636,-0.1113673746585846,0.06254712492227554
1782831381634961000,1.1289609375,-0.268293559551239,0.0313333123922348,0.09424593299627304
1782831381644889900,1.138889892578125,-0.2805967926979065,0.19186101853847504,0.10292471200227737
1782831381654819000,1.148819091796875,-0.2911714017391205,0.34010374546051025,0.08859370648860931
1782831381664748000,1.158748046875,-0.30731475353240967,0.4177911579608917,0.04274885356426239
1782831381674677000,1.168677001953125,-0.3121052384376526,0.4427715837955475,-0.01215567346662283
1782831381684607000,1.17860693359375,-0.3132634460926056,0.4101550877094269,-0.042314641177654266
1782831381694536000,1.188535888671875,-0.3118298649787903,0.31414520740509033,-0.03829113766551018
1782831381704465000,1.19846484375,-0.3021421432495117,0.168097123503685,0.00024134432896971703
1782831381714393900,1.208393798828125,-0.2917725741863251,-0.00974210724234581,0.05719676986336708
1782831381724323000,1.218322998046875,-0.2881060242652893,-0.15235218405723572,0.10422453284263611
1782831381734252000,1.228251953125,-0.2813975214958191,-0.22491294145584106,0.13464796543121338
1782831381744181000,1.238180908203125,-0.2885424792766571,-0.2278948426246643,0.13997647166252136
1782831381754110000,1.24810986328125,-0.2896791398525238,-0.19255203008651733,0.12118280678987503
1782831381764039000,1.258038818359375,-0.2924625873565674,-0.14081095159053802,0.07906977087259293
1782831381773969000,1.267968994140625,-0.29173851013183594,-0.0697474256157875,0.023241398856043816
1782831381783897900,1.27789794921875,-0.29383519291877747,-0.011909128166735172,-0.03365597128868103
1782831381793826800,1.287826904296875,-0.286437451839447,0.036603812128305435,-0.08340302109718323
1782831381803756000,1.297756103515625,-0.2694360613822937,0.05356770008802414,-0.10081949084997177
1782831381813685000,1.30768505859375,-0.2517244517803192,0.07365672290325165,-0.07978105545043945
1782831381823614000,1.317614013671875,-0.23229265213012695,0.07798023521900177,-0.03527683764696121
1782831381833543000,1.32754296875,-0.22137370705604553,0.07337350398302078,0.02611808106303215
1782831381843472100,1.33747216796875,-0.2119693011045456,0.06046563386917114,0.08943333476781845
1782831381853400800,1.34740087890625,-0.19445210695266724,0.05346418172121048,0.1446414589881897
1782831381863329800,1.357329833984375,-0.16328036785125732,0.055816713720560074,0.17917832732200623
1782831381873260000,1.367260009765625,-0.1319754421710968,0.0456857793033123,0.18776249885559082
1782831381883189000,1.37718896484375,-0.11319073289632797,0.0360075980424881,0.17762164771556854
1782831381893118000,1.387117919921875,-0.09479015320539474,0.08575570583343506,0.14244236052036285
1782831381903047000,1.397046875,-0.0783107653260231,0.16030749678611755,0.07904687523841858
1782831381912976100,1.40697607421875,-0.06338774412870407,0.24309346079826355,0.0015193256549537182
1782831381922905000,1.416905029296875,-0.04693232476711273,0.26994699239730835,-0.06798277795314789
1782831381932833800,1.426833740234375,-0.0379050076007843,0.24387463927268982,-0.1132647693157196
1782831381942762800,1.4367626953125,-0.022838059812784195,0.1833021491765976,-0.11090442538261414
1782831381952692000,1.44669189453125,-0.0007700398564338684,0.11868560314178467,-0.043004464358091354
1782831381962622000,1.4566220703125,0.026810454204678535,0.03891487419605255,0.05232791230082512
1782831381972551000,1.466551025390625,0.06305341422557831,-0.05364196002483368,0.1425696611404419
1782831381982480000,1.47647998046875,0.0976155623793602,-0.10481566935777664,0.19481748342514038
1782831381992407600,1.486407470703125,0.1382244974374771,-0.10947779566049576,0.2235093116760254
1782831382002336800,1.496336669921875,0.17047084867954254,-0.06875383853912354,0.21090297400951385
1782831382012265700,1.506265625,0.2034463733434677,-0.016556143760681152,0.16685669124126434
1782831382022194700,1.516194580078125,0.23421980440616608,0.023982953280210495,0.10122933983802795
1782831382032123600,1.52612353515625,0.24791111052036285,0.017986048012971878,0.03801468387246132
1782831382042052900,1.536052978515625,0.25645655393600464,-0.008121538907289505,-0.013148829340934753
1782831382051982600,1.545982666015625,0.26198288798332214,-0.04858507588505745,-0.05562944337725639
1782831382061911600,1.55591162109375,0.2690989673137665,-0.08973849564790726,-0.09622540324926376
1782831382071840800,1.5658408203125,0.27818751335144043,-0.11066774278879166,-0.12869413197040558
1782831382081769700,1.575769775390625,0.27457648515701294,-0.10405158251523972,-0.1544400453567505
1782831382091698700,1.58569873046875,0.2650543749332428,-0.07003901898860931,-0.1732022762298584
1782831382101627600,1.595627685546875,0.25093644857406616,-0.01913420855998993,-0.18078643083572388
1782831382111556900,1.605556884765625,0.23307915031909943,0.016207534819841385,-0.17794856429100037
1782831382121485800,1.61548583984375,0.21272559463977814,0.04657187685370445,-0.17188575863838196
1782831382131414500,1.62541455078125,0.18616802990436554,0.051441729068756104,-0.17021594941616058
1782831382141343500,1.635343505859375,0.15995346009731293,0.06756392121315002,-0.18178898096084595
1782831382151273700,1.645273681640625,0.1316741406917572,0.08501268923282623,-0.21478714048862457
1782831382161202700,1.65520263671875,0.11799432337284088,0.10262137651443481,-0.2523525655269623
1782831382171131600,1.665131591796875,0.10949297994375229,0.09736829251050949,-0.2777884006500244
1782831382181060900,1.675060791015625,0.10570251941680908,0.0762082040309906,-0.2777467966079712
1782831382190989800,1.68498974609375,0.10375656187534332,0.066035196185112,-0.2710705101490021
1782831382200918800,1.694918701171875,0.10507720708847046,0.07341984659433365,-0.2420613020658493
1782831382210847700,1.70484765625,0.09893568605184555,0.09064117819070816,-0.19405436515808105
1782831382220776400,1.7147763671875,0.0974658653140068,0.11490995436906815,-0.1381964385509491
1782831382230705700,1.72470556640625,0.10635603219270706,0.13926295936107635,-0.09006858617067337
1782831382240635600,1.7346357421875,0.13239285349845886,0.1627192497253418,-0.06635179370641708
1782831382250564600,1.744564697265625,0.16133421659469604,0.1937996745109558,-0.06204812973737717
1782831382260493800,1.754493896484375,0.18705809116363525,0.19861264526844025,-0.07351623475551605
1782831382270422800,1.7644228515625,0.20344771444797516,0.16313214600086212,-0.0837494283914566
1782831382280351700,1.774351806640625,0.20419535040855408,0.12753768265247345,-0.07805006951093674
1782831382290280700,1.78428076171875,0.18939484655857086,0.09077860414981842,-0.07419993728399277
1782831382300209700,1.794209716796875,0.1867428570985794,0.050431445240974426,-0.08368532359600067
1782831382310138600,1.804138671875,0.20844416320323944,0.0016561858355998993,-0.10183316469192505
1782831382320067600,1.814067626953125,0.24419665336608887,-0.04650845751166344,-0.10683577507734299
1782831382329997800,1.823997802734375,0.28855639696121216,-0.06867155432701111,-0.10054965317249298
1782831382339926800,1.8339267578125,0.3318205177783966,-0.09401197731494904,-0.08434265851974487
1782831382349855700,1.843855712890625,0.3636426329612732,-0.11539103090763092,-0.049265358597040176
1782831382359784700,1.85378466796875,0.37643635272979736,-0.10689643770456314,0.004555863793939352
1782831382369713700,1.863713623046875,0.3754781186580658,-0.07634545117616653,0.0804586187005043
1782831382379642600,1.873642578125,0.3559483289718628,-0.024494169279932976,0.17939412593841553
1782831382389571600,1.883571533203125,0.33090129494667053,0.07174527645111084,0.27469348907470703
1782831382399500500,1.89350048828125,0.2932429909706116,0.1658284217119217,0.32967063784599304
1782831382409429800,1.9034296875,0.24650396406650543,0.22202938795089722,0.31685659289360046
1782831382419359700,1.91335986328125,0.20570947229862213,0.2622095048427582,0.24085089564323425
1782831382429288700,1.923288818359375,0.18365636467933655,0.2583937346935272,0.1284164935350418
1782831382439217700,1.9332177734375,0.1849038153886795,0.22220812737941742,0.014470543712377548
1782831382449146600,1.943146728515625,0.18349073827266693,0.17897410690784454,-0.06745655089616776
1782831382459075600,1.95307568359375,0.1803666055202484,0.12359879165887833,-0.11739075183868408
1782831382469004500,1.963004638671875,0.18501782417297363,0.07444614917039871,-0.14753614366054535
1782831382478933500,1.97293359375,0.20048074424266815,0.0038060443475842476,-0.15300559997558594
1782831382488862700,1.98286279296875,0.2263088822364807,-0.08003319054841995,-0.1261521428823471
1782831382498791700,1.992791748046875,0.25015535950660706,-0.11993025243282318,-0.06532182544469833
1782831382508721700,2.0027216796875,0.2710278630256653,-0.13021564483642578,0.003065491560846567
1782831382518651000,2.01265087890625,0.29275810718536377,-0.12926839292049408,0.06500988453626633
1782831382528579600,2.02257958984375,0.3200794756412506,-0.10317820310592651,0.10605213046073914
1782831382538508500,2.032508544921875,0.33848798274993896,-0.04402802139520645,0.1263362169265747
1782831382548437500,2.0424375,0.3627461791038513,0.04436575621366501,0.13493824005126953
1782831382558366700,2.05236669921875,0.4003520607948303,0.0941123515367508,0.14239415526390076
1782831382568295700,2.062295654296875,0.4459163546562195,0.09615445882081985,0.16861669719219208
1782831382578224600,2.072224609375,0.48343005776405334,0.08646387606859207,0.22757616639137268
1782831382588153600,2.082153564453125,0.4933737814426422,0.07842326164245605,0.2907596528530121
1782831382598083800,2.092083740234375,0.5097050070762634,0.041418254375457764,0.34466490149497986
1782831382608012800,2.1020126953125,0.5150430202484131,0.014849761500954628,0.38328179717063904
1782831382617941500,2.11194140625,0.5050585269927979,-0.0189730953425169,0.4099408984184265
1782831382627870500,2.121870361328125,0.47710469365119934,-0.04838504642248154,0.40135622024536133
1782831382637799700,2.131799560546875,0.4380355179309845,-0.024870846420526505,0.35229429602622986
1782831382647728600,2.141728759765625,0.4089508652687073,0.008034639991819859,0.2548564374446869
1782831382657657600,2.15165771484375,0.38558515906333923,0.040546972304582596,0.13118578493595123
1782831382667586600,2.161586669921875,0.3714320659637451,0.05820639431476593,0.016671180725097656
1782831382677515800,2.171515869140625,0.3453845977783203,0.040392596274614334,-0.08183301985263824
1782831382687445800,2.18144580078125,0.29756009578704834,0.02069958671927452,-0.15415409207344055
1782831382697374500,2.19137451171875,0.24971717596054077,-0.009059160947799683,-0.20238320529460907
1782831382707303700,2.2013037109375,0.22368690371513367,-0.08040124922990799,-0.2312614619731903
1782831382717232600,2.211232666015625,0.20309869945049286,-0.1550733596086502,-0.23566998541355133
1782831382727161600,2.22116162109375,0.17837898433208466,-0.2270548790693283,-0.22663761675357819
1782831382737090600,2.231090576171875,0.1636643409729004,-0.2834266722202301,-0.20989538729190826
1782831382747019800,2.241019775390625,0.14531277120113373,-0.2832338809967041,-0.176425039768219
1782831382756948700,2.25094873046875,0.13206847012043,-0.20387423038482666,-0.13142959773540497
1782831382766877700,2.260877685546875,0.12232156097888947,-0.08623600751161575,-0.09982693195343018
1782831382776807700,2.2708076171875,0.1284327358007431,0.040025047957897186,-0.08812147378921509
1782831382786736600,2.280736572265625,0.13698947429656982,0.12425071001052856,-0.11190216988325119
1782831382796665600,2.29066552734375,0.1486896574497223,0.18026983737945557,-0.13315053284168243
1782831382806594600,2.300594482421875,0.1490670144557953,0.21530184149742126,-0.127823144197464
1782831382816523800,2.310523681640625,0.1465557962656021,0.19108164310455322,-0.09052637219429016
1782831382826452700,2.32045263671875,0.13459527492523193,0.1600656807422638,-0.04708249494433403
1782831382836381700,2.330381591796875,0.11473456025123596,0.10279059410095215,-0.02737017720937729
1782831382846310700,2.340310546875,0.09505140036344528,0.04221352934837341,-0.05078788474202156
1782831382856239600,2.350239501953125,0.08490797877311707,-0.00010138005018234253,-0.09610816836357117
1782831382866168800,2.3601689453125,0.0839921161532402,-0.03620345890522003,-0.1318669617176056
1782831382876098600,2.3700986328125,0.07980569452047348,-0.08919215202331543,-0.12725210189819336
1782831382886027500,2.380027587890625,0.06999754160642624,-0.10129515081644058,-0.0900472030043602
1782831382895956700,2.389956787109375,0.0656960979104042,-0.06696859747171402,-0.05989949405193329
1782831382905885700,2.3998857421875,0.05972955375909805,-0.023358004167675972,-0.054049860686063766
1782831382915814700,2.409814697265625,0.039806924760341644,0.026010211557149887,-0.07093789428472519
1782831382925743600,2.41974365234375,-0.0026201605796813965,0.031355977058410645,-0.12041410058736801
1782831382935672800,2.4296728515625,-0.03915982320904732,0.011761421337723732,-0.17631684243679047
1782831382945601800,2.439601806640625,-0.06166886165738106,-0.012261888943612576,-0.23212072253227234
1782831382955531500,2.449531494140625,-0.0816371887922287,-0.01946774125099182,-0.2410094290971756
1782831382965460700,2.459460693359375,-0.09122110903263092,0.0014029191806912422,-0.22139312326908112
1782831382975389700,2.4693896484375,-0.08369745314121246,0.03167203068733215,-0.18922831118106842
1782831382985318700,2.479318603515625,-0.07571142911911011,0.03266352415084839,-0.15012139081954956
1782831382995251700,2.489251708984375,-0.06206472963094711,0.001390146091580391,-0.10716620832681656
1782831383005180700,2.4991806640625,-0.05000779777765274,-0.04400663077831268,-0.049201976507902145
1782831383015109600,2.509109619140625,-0.028203193098306656,-0.07886825501918793,0.009250348433852196
1782831383025038600,2.51903857421875,0.006811784580349922,-0.13899391889572144,0.04738415405154228
1782831383034967600,2.528967529296875,0.044820740818977356,-0.18281926214694977,0.06778249889612198
1782831383044896500,2.538896484375,0.07615230232477188,-0.20944447815418243,0.08026447147130966
1782831383054826500,2.548826416015625,0.08724665641784668,-0.21106505393981934,0.09725550562143326
1782831383064755700,2.558755615234375,0.08813083171844482,-0.1846345067024231,0.10189766436815262
1782831383074684700,2.5686845703125,0.05586320161819458,-0.11151015758514404,0.12032733857631683
1782831383084613600,2.578613525390625,0.021456226706504822,-0.00525082228705287,0.1472202092409134
1782831383094542600,2.58854248046875,-0.022092517465353012,0.07845305651426315,0.17126362025737762
1782831383104471800,2.598471923828125,-0.04017990827560425,0.07865838706493378,0.17036986351013184
1782831383114400500,2.608400390625,-0.05007178336381912,0.020306121557950974,0.15562932193279266
1782831383124329500,2.61832958984375,-0.0666441023349762,-0.07141660898923874,0.13648200035095215
1782831383134258400,2.628258544921875,-0.10451298952102661,-0.16752152144908905,0.13156114518642426
1782831383144188700,2.638188720703125,-0.14712995290756226,-0.3060160279273987,0.12132582813501358
1782831383154117600,2.64811767578125,-0.19743163883686066,-0.4590763449668884,0.09140966832637787
1782831383164046600,2.658046630859375,-0.2566877603530884,-0.5833724737167358,0.03521137312054634
1782831383173975800,2.667975830078125,-0.2977115511894226,-0.6279359459877014,-0.04008663445711136
1782831383183904800,2.67790478515625,-0.31899020075798035,-0.5353738069534302,-0.10569600015878677
1782831383193833500,2.68783349609375,-0.3252454698085785,-0.30482640862464905,-0.12998756766319275
1782831383203762400,2.697762451171875,-0.29990413784980774,0.00019076839089393616,-0.1050739660859108
1782831383213691400,2.70769140625,-0.26188722252845764,0.26555705070495605,-0.05101858079433441
1782831383223620600,2.71762060546875,-0.2176923155784607,0.45333948731422424,0.00814380869269371
1782831383233550600,2.727550537109375,-0.18743206560611725,0.5437607169151306,0.04971561208367348
1782831383243479600,2.7374794921875,-0.170152947306633,0.5564261674880981,0.05667765066027641
1782831383253408800,2.74740869140625,-0.16088297963142395,0.5054305195808411,0.041026320308446884
1782831383263337700,2.757337646484375,-0.1610632836818695,0.4078541100025177,0.04137492924928665
1782831383273266400,2.767266357421875,-0.16656585037708282,0.2794126868247986,0.060275718569755554
1782831383283195400,2.7771953125,-0.15635421872138977,0.15531550347805023,0.09287600964307785
1782831383293124600,2.78712451171875,-0.13559114933013916,0.09476534277200699,0.12441641092300415
1782831383303053600,2.797053466796875,-0.11049512028694153,0.11786267906427383,0.13072997331619263
1782831383312982500,2.806982421875,-0.0822628065943718,0.20293325185775757,0.11299758404493332
1782831383322912800,2.816912841796875,-0.05359334126114845,0.2773795425891876,0.09217778593301773
1782831383332841700,2.826841796875,-0.03001059964299202,0.33403754234313965,0.0915544182062149
1782831383342770700,2.836770751953125,-0.015194102190434933,0.33968478441238403,0.10619514435529709
1782831383352699400,2.846699462890625,-0.014707895927131176,0.2590509057044983,0.11729878187179565
1782831383362628600,2.856628662109375,-0.038555704057216644,0.12815919518470764,0.1173136979341507
1782831383372557600,2.8665576171875,-0.09084167331457138,-0.015172787010669708,0.1094597801566124
1782831383382486500,2.876486572265625,-0.15151220560073853,-0.13636206090450287,0.07822968810796738
1782831383392415500,2.88641552734375,-0.18405982851982117,-0.22484524548053741,0.025648437440395355
1782831383402344700,2.8963447265625,-0.19144530594348907,-0.24601709842681885,-0.04194312542676926
1782831383412274700,2.906274658203125,-0.19045472145080566,-0.21662306785583496,-0.1108204647898674
1782831383422203600,2.91620361328125,-0.17101924121379852,-0.1564369648694992,-0.18865588307380676
1782831383432132600,2.926132568359375,-0.1437617689371109,-0.0426328144967556,-0.2700318992137909
1782831383442061600,2.9360615234375,-0.11512238532304764,0.08044438064098358,-0.3236088156700134
1782831383451990500,2.945990478515625,-0.10384000837802887,0.17763321101665497,-0.33057960867881775
1782831383461919500,2.95591943359375,-0.08788394927978516,0.21992580592632294,-0.28903934359550476
1782831383471848400,2.965848388671875,-0.07346807420253754,0.25545161962509155,-0.19881775975227356
1782831383481777700,2.975777587890625,-0.05681026726961136,0.28196629881858826,-0.08424670249223709
1782831383491706600,2.98570654296875,-0.038812678307294846,0.2724727392196655,-0.01384824514389038
1782831383501636600,2.99563671875,-0.007411612197756767,0.2346276342868805,-0.013199765235185623
1782831383511565600,3.005565673828125,0.032307859510183334,0.18595898151397705,-0.053280867636203766
1782831383521494500,3.01549462890625,0.0663185566663742,0.12415873259305954,-0.10024677962064743
1782831383531423500,3.025423583984375,0.10451491922140121,0.04848146811127663,-0.11440468579530716
1782831383541352400,3.0353525390625,0.14985337853431702,0.001679607667028904,-0.08670168370008469
1782831383551281700,3.04528173828125,0.18538329005241394,-0.051537130028009415,-0.044622406363487244
1782831383561210600,3.055210693359375,0.2110135406255722,-0.08130382001399994,-0.03232951834797859
1782831383571139600,3.0651396484375,0.2034130096435547,-0.08999066054821014,-0.08164513856172562
1782831383581068500,3.075068603515625,0.17482984066009521,-0.08037291467189789,-0.18956947326660156
1782831383590997800,3.084997802734375,0.15588362514972687,-0.05874788761138916,-0.31109368801116943
1782831383600927500,3.094927490234375,0.14362215995788574,-0.02126389555633068,-0.38392794132232666
1782831383610856400,3.1048564453125,0.1319521814584732,0.017578788101673126,-0.39123889803886414
1782831383620785400,3.114785400390625,0.13274100422859192,0.03301180899143219,-0.3669210374355316
1782831383630714600,3.124714599609375,0.1507466733455658,0.03868843987584114,-0.33297309279441833
1782831383640643600,3.1346435546875,0.18836355209350586,0.04312446713447571,-0.3017624616622925
1782831383650572500,3.144572509765625,0.23343244194984436,0.015507828444242477,-0.25513410568237305
1782831383660501500,3.15450146484375,0.2769716680049896,0.05746407061815262,-0.176626518368721
1782831383670430700,3.1644306640625,0.31300440430641174,0.10822926461696625,-0.07995688915252686
1782831383680360400,3.1743603515625,0.3421841263771057,0.14720728993415833,-0.01448094379156828
1782831383690289400,3.184289306640625,0.3726113438606262,0.15645557641983032,0.008227961137890816
1782831383700218600,3.194218505859375,0.41251668334007263,0.1330685019493103,-0.006361367180943489
1782831383710147600,3.204147705078125,0.4446255564689636,0.1084769070148468,-0.031174704432487488
1782831383720076500,3.21407666015625,0.469862699508667,0.08441391587257385,-0.0625683143734932
1782831383730005500,3.224005615234375,0.4887646436691284,0.0826481506228447,-0.10144699364900589
1782831383739934700,3.233934814453125,0.49887266755104065,0.07155262678861618,-0.14433400332927704
1782831383749863700,3.24386376953125,0.5016166567802429,0.07090127468109131,-0.17160984873771667
1782831383759792600,3.253792724609375,0.5120083093643188,0.07818794995546341,-0.1740724742412567
1782831383769721600,3.2637216796875,0.5374720692634583,0.07634277641773224,-0.16755717992782593
1782831383779651600,3.273651611328125,0.5680097341537476,0.08727505803108215,-0.14436715841293335
1782831383789580500,3.28358056640625,0.5967615842819214,0.08441898226737976,-0.10530518740415573
1782831383799509500,3.293509521484375,0.6204504370689392,0.0579700693488121,-0.05754938721656799
1782831383809438700,3.303438720703125,0.6253249645233154,0.017986372113227844,-0.015351062640547752
1782831383819367700,3.31336767578125,0.6130281090736389,-0.04120664298534393,0.011825695633888245
1782831383829296600,3.323296630859375,0.6058511734008789,-0.10801480710506439,0.011054040864109993
1782831383839225600,3.3332255859375,0.6082783937454224,-0.12717598676681519,-0.022747332230210304
1782831383849154800,3.34315478515625,0.6167669892311096,-0.08605562895536423,-0.04843612015247345
1782831383859083800,3.353083740234375,0.6287054419517517,-0.019778873771429062,-0.05926293507218361
1782831383869013500,3.363013427734375,0.651170015335083,0.06918275356292725,-0.051820989698171616
1782831383878942500,3.3729423828125,0.6757698655128479,0.15108613669872284,-0.03360150381922722
1782831383888871700,3.38287158203125,0.6859896183013916,0.20789019763469696,-0.02041054144501686
1782831383898800600,3.392800537109375,0.6784638166427612,0.2097165882587433,-0.0208267942070961
1782831383908729600,3.4027294921875,0.6503294706344604,0.14925694465637207,-0.023851478472352028
1782831383918658600,3.412658447265625,0.6219965815544128,0.04888000339269638,-0.03169155865907669
1782831383928587800,3.422587890625,0.6122496724128723,-0.0886317640542984,-0.03209569305181503
1782831383938516700,3.432516845703125,0.6116155982017517,-0.21473777294158936,-0.017964161932468414
1782831383948445400,3.442445556640625,0.63609379529953,-0.3116973042488098,0.0018387711606919765
1782831383958375700,3.452375732421875,0.6710235476493835,-0.36952462792396545,0.03021129034459591
1782831383968304600,3.4623046875,0.7005007863044739,-0.3709269165992737,0.05896364524960518
1782831383978233600,3.472233642578125,0.7264665961265564,-0.3446292579174042,0.09558583796024323
1782831383988162600,3.48216259765625,0.7513983845710754,-0.273521363735199,0.13481774926185608
1782831383998088400,3.49208837890625,0.7881377935409546,-0.18677130341529846,0.20043882727622986
1782831384008017400,3.502017333984375,0.8227640986442566,-0.0944640263915062,0.28734907507896423
1782831384017946400,3.5119462890625,0.8614803552627563,-0.00953449122607708,0.37311965227127075
1782831384027875000,3.521875,0.8819653391838074,0.09780219197273254,0.4256085455417633
1782831384037804300,3.53180419921875,0.8808060884475708,0.17059436440467834,0.41436442732810974
1782831384047734300,3.541734375,0.8696176409721375,0.17762216925621033,0.35131001472473145
1782831384057663200,3.551663330078125,0.8573346138000488,0.12222468852996826,0.2764352262020111
1782831384067592400,3.561592529296875,0.8251178860664368,0.05490624159574509,0.22515374422073364
1782831384077521400,3.571521484375,0.7869247198104858,-0.014410517178475857,0.18975260853767395
1782831384087450400,3.581450439453125,0.7502308487892151,-0.05527091771364212,0.1578735113143921
1782831384097379300,3.59137939453125,0.7134770750999451,-0.07160009443759918,0.13587847352027893
1782831384107308300,3.601308349609375,0.6735636591911316,-0.04657719284296036,0.13971449434757233
1782831384117237200,3.6112373046875,0.6485661268234253,0.01947612687945366,0.17472147941589355
1782831384127166200,3.621166259765625,0.6217612028121948,0.0885227844119072,0.2063136249780655
1782831384137095200,3.63109521484375,0.6004093289375305,0.14854377508163452,0.19199274480342865
1782831384147025400,3.641025390625,0.5780462026596069,0.2035081535577774,0.1191544160246849
1782831384156954400,3.650954345703125,0.5533610582351685,0.24175485968589783,0.00749952020123601
1782831384166883300,3.66088330078125,0.5244958996772766,0.2487490177154541,-0.12419332563877106
1782831384176812300,3.670812255859375,0.4927413761615753,0.2042500078678131,-0.24034710228443146
1782831384186741200,3.6807412109375,0.45787522196769714,0.11561692506074905,-0.32694658637046814
1782831384196670200,3.690670166015625,0.4257676303386688,0.0027947621420025826,-0.3775189518928528
1782831384206599200,3.70059912109375,0.40817221999168396,-0.08664807677268982,-0.385617733001709
1782831384216528400,3.7105283203125,0.4025779664516449,-0.13721032440662384,-0.36343279480934143
1782831384226457300,3.720457275390625,0.3882550597190857,-0.14421145617961884,-0.324268102645874
1782831384236387300,3.73038720703125,0.3762945234775543,-0.10188958048820496,-0.3054307699203491
1782831384246316300,3.74031640625,0.3684326410293579,-0.07651969790458679,-0.3094180226325989
1782831384256245200,3.750245361328125,0.3684549927711487,-0.038258325308561325,-0.3025156557559967
1782831384266174200,3.76017431640625,0.36187806725502014,0.011967507191002369,-0.2702043354511261
1782831384276103200,3.770103271484375,0.3464391827583313,0.03031216189265251,-0.22429701685905457
1782831384286032100,3.7800322265625,0.3283552825450897,0.04458018019795418,-0.17445456981658936
1782831384295961300,3.78996142578125,0.30204805731773376,0.05329404026269913,-0.12506438791751862
1782831384305890300,3.799890380859375,0.27688923478126526,0.11166095733642578,-0.10845351219177246
1782831384315819300,3.8098193359375,0.26770132780075073,0.18674185872077942,-0.14642992615699768
1782831384325749500,3.81974951171875,0.26640161871910095,0.23722222447395325,-0.22669734060764313
1782831384335678500,3.829678466796875,0.2608907222747803,0.25819405913352966,-0.295392781496048
1782831384345607200,3.839607177734375,0.25376227498054504,0.2596498727798462,-0.3390014171600342
1782831384355536100,3.8495361328125,0.2496945559978485,0.2345471978187561,-0.35569092631340027
1782831384365465300,3.85946533203125,0.24540181457996368,0.19998522102832794,-0.34998664259910583
1782831384375394300,3.869394287109375,0.21946236491203308,0.1416763812303543,-0.349454790353775
1782831384385323300,3.8793232421875,0.1945675015449524,0.05355297029018402,-0.3348781168460846
1782831384395252200,3.889252197265625,0.1945485919713974,-0.00011585187166929245,-0.2998461127281189
1782831384405181400,3.899181396484375,0.2161748856306076,-0.042092882096767426,-0.25633785128593445
1782831384415110400,3.9091103515625,0.250198096036911,-0.07387743890285492,-0.20863984525203705
1782831384425040100,3.9190400390625,0.27015992999076843,-0.08818729221820831,-0.1518937349319458
1782831384434969000,3.928968994140625,0.26489195227622986,-0.09913207590579987,-0.10512835532426834
1782831384444898300,3.938898193359375,0.2547542154788971,-0.1016707494854927,-0.07840487360954285
1782831384454827300,3.9488271484375,0.2392791211605072,-0.09593936055898666,-0.07270144671201706
1782831384464756200,3.958756103515625,0.2132849395275116,-0.07123099267482758,-0.07213318347930908
1782831384474685200,3.968685302734375,0.16640877723693848,-0.05406772345304489,-0.07157738506793976
1782831384484614400,3.978614501953125,0.08909086883068085,-0.06163093447685242,-0.061022885143756866
1782831384494543400,3.98854345703125,0.009046630002558231,-0.0704348161816597,-0.04371766373515129
1782831384504472300,3.998472412109375,-0.03654560446739197,-0.08934373408555984,-0.01932363584637642
1782831384514402300,4.00840234375,-0.04433508962392807,-0.08397373557090759,0.02026691660284996
1782831384524331300,4.018331298828125,-0.02477365732192993,-0.049220625311136246,0.07389259338378906
1782831384534260200,4.02826025390625,-0.02296377345919609,-0.03139369189739227,0.12815023958683014
1782831384544189200,4.038189208984375,-0.035360515117645264,-0.03849445655941963,0.16477856040000916
1782831384554118400,4.048118408203125,-0.0618555024266243,-0.07374405860900879,0.17803257703781128
1782831384564047400,4.05804736328125,-0.0896366685628891,-0.11309906840324402,0.1610373556613922
1782831384573976300,4.067976318359375,-0.11965130269527435,-0.14399147033691406,0.1506374329328537
1782831384583905300,4.0779052734375,-0.14741510152816772,-0.1679396629333496,0.15323808789253235
1782831384593834500,4.08783447265625,-0.18808983266353607,-0.14168035984039307,0.17888405919075012
1782831384603763500,4.097763427734375,-0.23534369468688965,-0.09435489773750305,0.20461112260818481
1782831384613693200,4.107693115234375,-0.27583813667297363,-0.03660425543785095,0.22817157208919525
1782831384623622400,4.117622314453125,-0.3176916539669037,0.006276440806686878,0.23664800822734833
1782831384633551400,4.12755126953125,-0.34876328706741333,0.0038942424580454826,0.20926645398139954
1782831384643480300,4.137480224609375,-0.36488965153694153,-0.034164898097515106,0.15133759379386902
1782831384653409300,4.1474091796875,-0.37912797927856445,-0.11023116856813431,0.06715159863233566
1782831384663338200,4.157338134765625,-0.39823123812675476,-0.22291146218776703,-0.05058860778808594
1782831384673267500,4.167267333984375,-0.4327596426010132,-0.36471065878868103,-0.17415820062160492
1782831384683196400,4.177196533203125,-0.4820883572101593,-0.49218037724494934,-0.2670291066169739
1782831384693125000,4.187125,-0.5380679965019226,-0.5276662111282349,-0.3098919093608856
1782831384703055400,4.197055419921875,-0.5693165063858032,-0.4505046010017395,-0.29566237330436707
1782831384712984300,4.206984375,-0.5690286159515381,-0.2756308317184448,-0.2472309172153473
1782831384722913300,4.216913330078125,-0.5369126200675964,-0.038778744637966156,-0.16954383254051208
1782831384732842200,4.22684228515625,-0.49008333683013916,0.20141467452049255,-0.05006297305226326
1782831384742771500,4.236771484375,-0.44291558861732483,0.3552776873111725,0.08044783025979996
1782831384752700400,4.246700439453125,-0.40121766924858093,0.39215606451034546,0.1747381091117859
1782831384762629400,4.25662939453125,-0.3655756413936615,0.353992760181427,0.2384437918663025
1782831384772558300,4.266558349609375,-0.3288951516151428,0.30879491567611694,0.2693718671798706
1782831384782487300,4.2764873046875,-0.2974802255630493,0.2836437225341797,0.28871095180511475
1782831384792417300,4.286417236328125,-0.2905839681625366,0.2798953354358673,0.3049714267253876
1782831384802346200,4.29634619140625,-0.29284152388572693,0.2799587547779083,0.30879783630371094
1782831384812275500,4.306275390625,-0.29642000794410706,0.3113744556903839,0.30206137895584106
1782831384822204400,4.316204345703125,-0.3034462034702301,0.3478572368621826,0.2876777648925781
1782831384832133400,4.32613330078125,-0.3129257261753082,0.38552552461624146,0.25593501329421997
1782831384842062300,4.336062255859375,-0.31510770320892334,0.3893400728702545,0.20249058306217194
1782831384851991300,4.3459912109375,-0.32133257389068604,0.35208749771118164,0.11811790615320206
1782831384861920300,4.355920166015625,-0.31884491443634033,0.24801547825336456,0.02422497048974037
1782831384871849200,4.36584912109375,-0.29531267285346985,0.1119156926870346,-0.027153532952070236
1782831384881778200,4.375778076171875,-0.26184698939323425,-0.03288573771715164,-0.029158558696508408
1782831384891708400,4.38570849609375,-0.22133177518844604,-0.15352214872837067,0.0039599803276360035
1782831384901637400,4.395637451171875,-0.17239321768283844,-0.22791637480258942,0.04828064143657684
1782831384911566300,4.40556640625,-0.13250918686389923,-0.2756732404232025,0.0800769180059433
1782831384921495300,4.415495361328125,-0.09690576046705246,-0.3212554454803467,0.07640128582715988
1782831384931424300,4.42542431640625,-0.0618194118142128,-0.3234240710735321,0.058554112911224365
1782831384941353200,4.435353271484375,-0.026398612186312675,-0.26906847953796387,0.05208496376872063
1782831384951282200,4.4452822265625,0.01274879090487957,-0.1619846671819687,0.06411127001047134
1782831384961211100,4.455211181640625,0.05119558051228523,-0.011047955602407455,0.09707973897457123
1782831384971140400,4.465140380859375,0.08502145111560822,0.13962598145008087,0.1303284913301468
1782831384981070300,4.4750703125,0.10507132112979889,0.2554239332675934,0.16644495725631714
1782831384990999300,4.484999267578125,0.11627151072025299,0.32076379656791687,0.19141794741153717
1782831385000927700,4.494927734375,0.1398516595363617,0.3486427366733551,0.19151030480861664
1782831385010856700,4.504856689453125,0.165868878364563,0.34140321612358093,0.17229239642620087
1782831385020785700,4.51478564453125,0.1771181970834732,0.29905033111572266,0.14756467938423157
1782831385030714600,4.524714599609375,0.16192379593849182,0.25179973244667053,0.1216377466917038
1782831385040643600,4.5346435546875,0.13079899549484253,0.21618470549583435,0.0971997082233429
1782831385050572500,4.544572509765625,0.10776424407958984,0.18896666169166565,0.055582497268915176
1782831385060501500,4.55450146484375,0.08369068801403046,0.14532440900802612,0.0037125754170119762
1782831385070430700,4.5644306640625,0.07042548805475235,0.09639520943164825,-0.06065256521105766
1782831385080360700,4.574360595703125,0.051031261682510376,0.031788457185029984,-0.13348796963691711
1782831385090289700,4.58428955078125,0.034113265573978424,-0.018211858347058296,-0.19475051760673523
1782831385100219000,4.594218994140625,0.018013564869761467,-0.03265339136123657,-0.22780799865722656
1782831385110147800,4.60414794921875,-0.0070688845589756966,-0.01844702661037445,-0.22149312496185303
1782831385120076500,4.61407666015625,-0.02697126567363739,0.004069867543876171,-0.20541568100452423
1782831385130005500,4.624005615234375,-0.04133342579007149,0.031868476420640945,-0.20895156264305115
1782831385139934700,4.633934814453125,-0.04191755875945091,0.05304030328989029,-0.22954651713371277
1782831385149863700,4.64386376953125,-0.01667957939207554,0.06798489391803741,-0.24815215170383453
1782831385159792600,4.653792724609375,0.025756755843758583,0.09973222017288208,-0.23964855074882507
1782831385169722600,4.66372265625,0.0650748685002327,0.10467025637626648,-0.2011680006980896
1782831385179651800,4.67365185546875,0.09807606041431427,0.0869448259472847,-0.14193937182426453
1782831385189580800,4.683580810546875,0.1195339486002922,0.09513404965400696,-0.0739147812128067
1782831385199509500,4.693509521484375,0.13245120644569397,0.08904591202735901,-0.008277777582406998
1782831385209438500,4.7034384765625,0.13901802897453308,0.08327724039554596,0.04334120824933052
1782831385219367700,4.71336767578125,0.1349930763244629,0.08078016340732574,0.06710173189640045
1782831385229296600,4.723296630859375,0.13377521932125092,0.08104407787322998,0.06651610136032104
1782831385239225600,4.7332255859375,0.13496333360671997,0.09996186196804047,0.05540905520319939
1782831385249154600,4.743154541015625,0.14605486392974854,0.12493352591991425,0.04910322651267052
1782831385259083800,4.753083740234375,0.16223624348640442,0.1451038271188736,0.044863469898700714
1782831385269013800,4.763013671875,0.17030802369117737,0.14429421722888947,0.03549393638968468
1782831385278942500,4.7729423828125,0.17676319181919098,0.11926241964101791,0.014112880453467369
1782831385288871700,4.78287158203125,0.1781160831451416,0.07045865803956985,-0.002697791438549757
1782831385298800600,4.792800537109375,0.16772128641605377,0.0017617912963032722,-0.017519477754831314
1782831385308729600,4.8027294921875,0.14764371514320374,-0.0830625519156456,-0.027578502893447876
1782831385318658600,4.812658447265625,0.127444788813591,-0.14959388971328735,-0.04065921530127525
1782831385328587800,4.822587890625,0.12030965089797974,-0.19072988629341125,-0.039578769356012344
1782831385338516700,4.832516845703125,0.12667270004749298,-0.2201366275548935,-0.01631113700568676
1782831385348445700,4.84244580078125,0.13816212117671967,-0.22318407893180847,0.02924143522977829
1782831385358375700,4.852375732421875,0.13690118491649628,-0.16592055559158325,0.10361280292272568
1782831385368304600,4.8623046875,0.10944798588752747,-0.10237275063991547,0.17610086500644684
1782831385378233600,4.872233642578125,0.07708779722452164,-0.0384090393781662,0.22647720575332642
1782831385388162600,4.88216259765625,0.04978986084461212,0.019085410982370377,0.2290136069059372
1782831385398091800,4.892091796875,0.028214428573846817,0.06141338869929314,0.19504611194133759
1782831385408020700,4.902020751953125,0.016897859051823616,0.06455139815807343,0.13195182383060455
1782831385417949700,4.91194970703125,0.005681452341377735,0.06061559170484543,0.0634298324584961
1782831385427878700,4.921878662109375,-0.007755260914564133,0.04888969287276268,-0.002941467799246311
1782831385437807600,4.9318076171875,-0.026423674076795578,0.00010641850531101227,-0.05333314090967178
1782831385447736800,4.94173681640625,-0.052935175597667694,-0.0604671835899353,-0.08882641792297363
1782831385457666600,4.95166650390625,-0.08580291271209717,-0.08878505229949951,-0.10272292047739029
1782831385467595500,4.961595458984375,-0.11315757036209106,-0.09290177375078201,-0.10495837777853012
1782831385477524700,4.971524658203125,-0.11569549888372421,-0.06862100958824158,-0.09894189983606339
1782831385487453700,4.98145361328125,-0.11055053770542145,-0.06151862069964409,-0.10182956606149673
1782831385497382700,4.991382568359375,-0.10746225714683533,-0.059826187789440155,-0.12315595149993896
1782831385507311600,5.0013115234375,-0.10593573749065399,-0.04046980291604996,-0.1571219116449356
1782831385517240800,5.01124072265625,-0.09939832240343094,-0.023052562028169632,-0.18184565007686615
1782831385527169800,5.021169677734375,-0.0807063952088356,0.02281958982348442,-0.1507985144853592
1782831385537098800,5.0310986328125,-0.036403436213731766,0.08723649382591248,-0.07003481686115265
1782831385547028700,5.04102880859375,0.01754394918680191,0.15178325772285461,0.03999341279268265
1782831385556957700,5.050957763671875,0.05973730981349945,0.2033221274614334,0.13697315752506256
1782831385566886700,5.06088671875,0.08540458977222443,0.23369626700878143,0.1912534385919571
1782831385576815600,5.070815673828125,0.09551481157541275,0.2382698953151703,0.19560278952121735
1782831385586744800,5.080744873046875,0.09820753335952759,0.22266243398189545,0.17495369911193848
1782831385596673800,5.090673828125,0.10869108885526657,0.18245969712734222,0.16982397437095642
1782831385606602800,5.100602783203125,0.1308475285768509,0.15881694853305817,0.2049047350883484
1782831385616531700,5.11053173828125,0.16491305828094482,0.14846199750900269,0.26910361647605896
1782831385626460700,5.120460693359375,0.2133684754371643,0.14755040407180786,0.33779293298721313
1782831385636389600,5.1303896484375,0.26403966546058655,0.15006929636001587,0.3925960958003998
1782831385646319600,5.140319580078125,0.28574684262275696,0.14866288006305695,0.42710080742836
1782831385656248600,5.15024853515625,0.27229467034339905,0.1194024458527565,0.4191240966320038
1782831385666177800,5.160177734375,0.22758258879184723,0.04940258339047432,0.3500422239303589
1782831385676106800,5.170106689453125,0.146036759018898,-0.057617396116256714,0.2215290665626526
1782831385686035700,5.18003564453125,0.03760908171534538,-0.19355791807174683,0.04716258496046066
1782831385695964700,5.189964599609375,-0.07346373051404953,-0.32088473439216614,-0.12895113229751587
1782831385705893600,5.1998935546875,-0.19317707419395447,-0.39689692854881287,-0.27305319905281067
1782831385715822600,5.209822509765625,-0.28205111622810364,-0.41615936160087585,-0.35720953345298767
1782831385725751600,5.21975146484375,-0.34470412135124207,-0.36069315671920776,-0.38424623012542725
1782831385735680500,5.229680419921875,-0.39546582102775574,-0.2553306818008423,-0.3918081820011139
1782831385745610800,5.23961083984375,-0.4296743869781494,-0.145326167345047,-0.3959169089794159
1782831385755539700,5.249539794921875,-0.4498617649078369,-0.02705281227827072,-0.3885475993156433
1782831385765468700,5.25946875,-0.46005579829216003,0.07227937132120132,-0.35376885533332825
1782831385775398000,5.26939794921875,-0.45672276616096497,0.12619535624980927,-0.2814374566078186
1782831385785326600,5.27932666015625,-0.4275851249694824,0.15210790932178497,-0.19048945605754852
1782831385795255600,5.289255615234375,-0.38903161883354187,0.16515474021434784,-0.11337204277515411
1782831385805184500,5.2991845703125,-0.3440050184726715,0.1626146137714386,-0.06018897891044617
1782831385815113700,5.30911376953125,-0.3155289888381958,0.1573631465435028,-0.027179565280675888
1782831385825042700,5.319042724609375,-0.3098388612270355,0.1526871770620346,-0.010413900949060917
1782831385834972700,5.32897265625,-0.3369614779949188,0.1154516413807869,-0.03000098094344139
1782831385844901600,5.338901611328125,-0.3758428394794464,0.04001307860016823,-0.06636618077754974
1782831385854830800,5.348830810546875,-0.4106656014919281,-0.03744471073150635,-0.10762486606836319
1782831385864759800,5.358759765625,-0.4537944495677948,-0.10276992619037628,-0.13765227794647217
1782831385874688500,5.3686884765625,-0.4997222125530243,-0.15545672178268433,-0.16874408721923828
1782831385884617500,5.378617431640625,-0.5399069786071777,-0.1637340933084488,-0.19709903001785278
1782831385894546700,5.388546630859375,-0.5800624489784241,-0.16205377876758575,-0.21813800930976868
1782831385904475600,5.3984755859375,-0.6130473017692566,-0.18669813871383667,-0.22540684044361115
1782831385914404600,5.408404541015625,-0.6371438503265381,-0.20299486815929413,-0.19638316333293915
1782831385924333600,5.41833349609375,-0.6358500719070435,-0.16842864453792572,-0.13280312716960907
1782831385934263800,5.428263916015625,-0.610835075378418,-0.11585471034049988,-0.05087929964065552
1782831385944192800,5.43819287109375,-0.5735383033752441,-0.07856379449367523,0.0075629702769219875
1782831385954121500,5.44812158203125,-0.5473865866661072,-0.06302054226398468,0.025439441204071045
1782831385964050700,5.45805078125,-0.5429854393005371,-0.0793374702334404,0.009183773770928383
1782831385973979600,5.467979736328125,-0.5592667460441589,-0.07364299893379211,-0.013086515478789806
1782831385983908600,5.47790869140625,-0.600652813911438,-0.0734374076128006,-0.017853572964668274
1782831385993837800,5.487837890625,-0.6658205389976501,-0.09236373752355576,-0.0028627743013203144
1782831386003766800,5.497766845703125,-0.7398364543914795,-0.14259281754493713,0.02364366687834263
1782831386013696000,5.507696044921875,-0.8305569291114807,-0.18328003585338593,0.043311312794685364
1782831386023625000,5.517625,-0.919449508190155,-0.18873950839042664,0.030330535024404526
1782831386033554700,5.5275546875,-0.9803966283798218,-0.15805965662002563,-0.01893708109855652
1782831386043483600,5.537483642578125,-1.0154485702514648,-0.07141265273094177,-0.07414893805980682
1782831386053412900,5.547412841796875,-1.0234334468841553,0.016909899190068245,-0.1232786700129509
1782831386063341800,5.557341796875,-0.9932523369789124,0.07821746915578842,-0.13774575293064117
1782831386073270800,5.567270751953125,-0.9208452105522156,0.16566774249076843,-0.11619352549314499
1782831386083199700,5.57719970703125,-0.851392924785614,0.22498831152915955,-0.05590488389134407
1782831386093129000,5.58712890625,-0.7810859680175781,0.2402065396308899,0.014276131987571716
1782831386103058000,5.597057861328125,-0.7193735837936401,0.2218586802482605,0.05463553965091705
1782831386112987000,5.60698681640625,-0.6857536435127258,0.16256673634052277,0.0815134346485138
1782831386122916900,5.616916748046875,-0.6730740666389465,0.05204075947403908,0.08519338816404343
1782831386132845800,5.626845703125,-0.6917067170143127,-0.09354641288518906,0.0764065608382225
1782831386142774800,5.63677490234375,-0.727337121963501,-0.24188394844532013,0.05975141003727913
1782831386152703700,5.646703857421875,-0.7623704671859741,-0.38665664196014404,0.020130561664700508
1782831386162633000,5.656633056640625,-0.7772037386894226,-0.501119077205658,-0.03780970349907875
1782831386172562000,5.66656201171875,-0.7884085178375244,-0.5590149760246277,-0.07993458956480026
1782831386182491000,5.676490966796875,-0.8025312423706055,-0.581103503704071,-0.10965466499328613
1782831386192419800,5.686419921875,-0.8290138244628906,-0.5335129499435425,-0.1106935665011406
1782831386202349000,5.69634912109375,-0.8563242554664612,-0.4193365275859833,-0.07817211002111435
1782831386212278000,5.706278076171875,-0.8808125257492065,-0.26548343896865845,-0.004801621660590172
1782831386222207700,5.716207763671875,-0.9099003672599792,-0.09726513177156448,0.12077254801988602
1782831386232136700,5.72613671875,-0.9365373849868774,0.046730756759643555,0.2799604535102844
1782831386242066000,5.73606591796875,-0.9581212401390076,0.14624004065990448,0.4134815037250519
1782831386251995000,5.745994873046875,-0.977416455745697,0.18122275173664093,0.4544235169887543
1782831386261923800,5.755923828125,-0.9776870012283325,0.19731490314006805,0.4024503231048584
1782831386271852800,5.765852783203125,-0.9689368605613708,0.20891164243221283,0.2893395721912384
1782831386281782000,5.775781982421875,-0.9670308828353882,0.20129713416099548,0.17073464393615723
1782831386291711000,5.7857109375,-0.9805027842521667,0.22316360473632812,0.10799603909254074
1782831386301639700,5.7956396484375,-1.0059373378753662,0.23026332259178162,0.1221667155623436
1782831386311568600,5.805568603515625,-1.0122967958450317,0.2074504941701889,0.19352559745311737
1782831386321499000,5.815498779296875,-1.0081191062927246,0.18670819699764252,0.3021671175956726
1782831386331427800,5.825427734375,-0.9987025260925293,0.15887469053268433,0.4069817364215851
1782831386341356800,5.835356689453125,-0.9920973777770996,0.14674213528633118,0.46915990114212036
1782831386351286000,5.8452861328125,-0.9754535555839539,0.11364513635635376,0.4634888172149658
1782831386361215000,5.855215087890625,-0.9655434489250183,0.0712694451212883,0.40668198466300964
1782831386371144000,5.86514404296875,-0.9730892181396484,-0.014185799285769463,0.3248816728591919
1782831386381072600,5.87507275390625,-0.9894365072250366,-0.07412583380937576,0.23979820311069489
1782831386391001900,5.885001953125,-1.0068598985671997,-0.11100200563669205,0.11854134500026703
1782831386400930800,5.894930908203125,-1.0134304761886597,-0.1422233134508133,-0.04578074440360069
1782831386410859800,5.90485986328125,-1.0198291540145874,-0.17256121337413788,-0.2166803777217865
1782831386420790000,5.9147900390625,-1.0440404415130615,-0.1755114644765854,-0.34484848380088806
1782831386430719000,5.924718994140625,-1.0674755573272705,-0.1403055191040039,-0.4071480929851532
1782831386440648000,5.93464794921875,-1.062798261642456,-0.10613741725683212,-0.4051179587841034
1782831386450577000,5.944576904296875,-1.0044028759002686,-0.11416538059711456,-0.37040451169013977
1782831386460505600,5.954505615234375,-0.8917697668075562,-0.09573151171207428,-0.31252017617225647
1782831386470434800,5.964434814453125,-0.7361546158790588,-0.02098299190402031,-0.21554993093013763
1782831386480367900,5.974367919921875,-0.5755153894424438,0.08946815133094788,-0.09716656059026718
1782831386490296800,5.984296875,-0.4358349144458771,0.16945964097976685,0.029739312827587128
1782831386500225800,5.994225830078125,-0.32798832654953003,0.21197807788848877,0.1445351243019104
1782831386510154800,6.00415478515625,-0.2545345425605774,0.24773955345153809,0.24354128539562225
1782831386520084000,6.014083984375,-0.212515726685524,0.24733182787895203,0.3038541376590729
1782831386530013000,6.024012939453125,-0.21184609830379486,0.21624693274497986,0.3130297362804413
1782831386539942000,6.03394189453125,-0.23046238720417023,0.175606831908226,0.26840686798095703
1782831386549870800,6.043870849609375,-0.2615872919559479,0.14284385740756989,0.18524523079395294
1782831386559799800,6.0537998046875,-0.2895382344722748,0.1046019196510315,0.07272107899188995
1782831386569729800,6.063729736328125,-0.30532306432724,0.06235614791512489,-0.0464453399181366
1782831386579658800,6.07365869140625,-0.30154457688331604,0.025793612003326416,-0.15910957753658295
1782831386589588000,6.083587890625,-0.2704929709434509,0.014462688006460667,-0.23427103459835052
1782831386599517000,6.093516845703125,-0.2390780746936798,-0.025392580777406693,-0.2773292660713196
1782831386609446000,6.10344580078125,-0.22102782130241394,-0.0786958783864975,-0.272254079580307
1782831386619374800,6.113374755859375,-0.22824126482009888,-0.13091886043548584,-0.2280871719121933
1782831386629303800,6.1233037109375,-0.25948619842529297,-0.1460517942905426,-0.15474891662597656
1782831386639232800,6.133232666015625,-0.288067489862442,-0.0970323234796524,-0.07777450233697891
1782831386649161700,6.14316162109375,-0.29586008191108704,-0.019280165433883667,-0.05004512518644333
1782831386659090700,6.153090576171875,-0.2799530029296875,0.04508364200592041,-0.08377086371183395
1782831386669021000,6.16302099609375,-0.2402290403842926,0.09149528294801712,-0.15839031338691711
1782831386678950000,6.172949951171875,-0.19394491612911224,0.13143950700759888,-0.24113446474075317
1782831386688878800,6.18287890625,-0.13210435211658478,0.13101421296596527,-0.30322185158729553
1782831386698808000,6.19280810546875,-0.05458372086286545,0.08872801065444946,-0.33387935161590576
1782831386708737000,6.202737060546875,0.027138754725456238,0.047852784395217896,-0.3063003420829773
1782831386718665700,6.212665771484375,0.11022165417671204,0.035088784992694855,-0.24923944473266602
1782831386728594700,6.2225947265625,0.17412862181663513,-0.003814494237303734,-0.17816448211669922
1782831386738524000,6.23252392578125,0.2266773283481598,-0.0659569650888443,-0.10536165535449982
1782831386748452900,6.242452880859375,0.2623033821582794,-0.10091154277324677,-0.021755898371338844
1782831386758381800,6.2523818359375,0.28624120354652405,-0.11281852424144745,0.06256750971078873
1782831386768311800,6.262311767578125,0.31408217549324036,-0.1223437488079071,0.14157769083976746
1782831386778241000,6.272240966796875,0.335216224193573,-0.09681975841522217,0.21272297203540802
1782831386788170000,6.282169921875,0.36186569929122925,-0.08300591260194778,0.2400781661272049
1782831386798098700,6.2920986328125,0.3985302448272705,-0.0707780048251152,0.22257959842681885
1782831386808027600,6.302027587890625,0.4444960653781891,-0.052524030208587646,0.17481282353401184
1782831386817956900,6.311956787109375,0.48864251375198364,-0.03004295751452446,0.1319734752178192
1782831386827885800,6.3218857421875,0.5217637419700623,-0.038172271102666855,0.10223335772752762
1782831386837814800,6.331814697265625,0.5444434881210327,-0.07400216907262802,0.09354425966739655
1782831386847743700,6.34174365234375,0.5612046718597412,-0.15433958172798157,0.09581727534532547
1782831386857673000,6.3516728515625,0.5559737086296082,-0.23488421738147736,0.10370076447725296
1782831386867603000,6.36160302734375,0.5386492013931274,-0.2883092761039734,0.1046232134103775
1782831386877531600,6.37153173828125,0.523365318775177,-0.3275216817855835,0.08555817604064941
1782831386887460900,6.3814609375,0.530472993850708,-0.30426567792892456,0.09062696248292923
1782831386897389800,6.391389892578125,0.5337476134300232,-0.25115904211997986,0.11989670246839523
1782831386907318800,6.40131884765625,0.5362359285354614,-0.19086574018001556,0.13303008675575256
1782831386917247700,6.411247802734375,0.5174177885055542,-0.11388228833675385,0.12430530786514282
1782831386927177000,6.421177001953125,0.4876861274242401,-0.03008325956761837,0.09218630939722061
1782831386937106000,6.43110595703125,0.45916980504989624,0.06448053568601608,0.06060441955924034
1782831386947035000,6.441034912109375,0.43165668845176697,0.15303833782672882,0.058524493128061295
1782831386956963800,6.4509638671875,0.41341668367385864,0.23817425966262817,0.08830822259187698
1782831386966893800,6.460893798828125,0.39812323451042175,0.3074473738670349,0.13675697147846222
1782831386976822800,6.47082275390625,0.3756594657897949,0.36235934495925903,0.19686159491539001
1782831386986751700,6.480751708984375,0.36497968435287476,0.3668471872806549,0.24286724627017975
1782831386996681000,6.490680908203125,0.35850635170936584,0.3426206707954407,0.26170748472213745
1782831387006610200,6.500610107421875,0.36786314845085144,0.31712448596954346,0.25581344962120056
1782831387016539100,6.5105390625,0.3928409516811371,0.281296968460083,0.23286046087741852
1782831387026468000,6.520468017578125,0.4292702078819275,0.2627624273300171,0.20488065481185913
1782831387036397000,6.53039697265625,0.4779168367385864,0.2514818012714386,0.1819830685853958
1782831387046326300,6.540326171875,0.5336380004882812,0.241581991314888,0.18662001192569733
1782831387056255000,6.5502548828125,0.5846657752990723,0.22825820744037628,0.2012689858675003
1782831387066185000,6.56018505859375,0.627005934715271,0.17093709111213684,0.22121188044548035
1782831387076114200,6.5701142578125,0.6648446321487427,0.0814889669418335,0.2462535798549652
1782831387086043100,6.580043212890625,0.6803668141365051,-0.002927732653915882,0.28815996646881104
1782831387095972000,6.58997216796875,0.6780322790145874,-0.06705132871866226,0.3202095031738281
1782831387105901000,6.599901123046875,0.6742344498634338,-0.07700489461421967,0.31741470098495483
1782831387115830300,6.609830322265625,0.6615388989448547,-0.06415380537509918,0.26684820652008057
1782831387125759200,6.61975927734375,0.6413982510566711,-0.06296609342098236,0.17101208865642548
1782831387135688200,6.629688232421875,0.6184234619140625,-0.07934772968292236,0.07167752087116241
1782831387145617000,6.639616943359375,0.5864813327789307,-0.13144844770431519,-0.008796356618404388
1782831387155546000,6.649546142578125,0.5420086979866028,-0.18783022463321686,-0.06518639624118805
1782831387165476000,6.65947607421875,0.48488348722457886,-0.22771458327770233,-0.11053302139043808
1782831387175405000,6.669405029296875,0.42139267921447754,-0.27041786909103394,-0.17248427867889404
1782831387185334300,6.679334228515625,0.35341939330101013,-0.3120702803134918,-0.25788334012031555
1782831387195263200,6.68926318359375,0.28561875224113464,-0.32820558547973633,-0.3551403880119324
1782831387205192200,6.699192138671875,0.21031251549720764,-0.30310752987861633,-0.439696341753006
1782831387215121200,6.70912109375,0.14750079810619354,-0.25275248289108276,-0.495581716299057
1782831387225049900,6.7190498046875,0.09945546835660934,-0.17208199203014374,-0.5173898339271545
1782831387234979000,6.72897900390625,0.07780662924051285,-0.042275797575712204,-0.4988787770271301
1782831387244908000,6.738907958984375,0.07539540529251099,0.06813965737819672,-0.46946045756340027
1782831387254837000,6.7488369140625,0.09339970350265503,0.16830754280090332,-0.42784401774406433
1782831387264767200,6.758767333984375,0.14468775689601898,0.2576334476470947,-0.38315650820732117
1782831387274696200,6.7686962890625,0.21558509767055511,0.3197202682495117,-0.333743691444397
1782831387284625200,6.778625244140625,0.2904200553894043,0.31260251998901367,-0.2753960192203522
1782831387294554000,6.78855419921875,0.35374709963798523,0.25413787364959717,-0.21333637833595276
1782831387304483000,6.798483154296875,0.40285351872444153,0.1620613932609558,-0.14587286114692688
1782831387314412000,6.808412109375,0.43056532740592957,0.05400016903877258,-0.08756852895021439
1782831387324341000,6.818341064453125,0.4303900897502899,-0.012649141252040863,-0.05188138037919998
1782831387334270000,6.82827001953125,0.41980960965156555,-0.026561228558421135,-0.047501277178525925
1782831387344199200,6.83819921875,0.39195987582206726,-0.022546015679836273,-0.08993447571992874
1782831387354128100,6.848128173828125,0.350886732339859,-0.017509179189801216,-0.16131064295768738
1782831387364058000,6.85805810546875,0.30889981985092163,0.006518521346151829,-0.22688502073287964
1782831387373987000,6.867987060546875,0.27127334475517273,0.016050774604082108,-0.27283066511154175
1782831387383916000,6.877916015625,0.24749159812927246,-0.0006048809736967087,-0.2963457703590393
1782831387393845000,6.887844970703125,0.2426169365644455,-0.05469661206007004,-0.2952248454093933
1782831387403774000,6.89777392578125,0.24281366169452667,-0.09486827999353409,-0.2712201178073883
1782831387413703200,6.907703125,0.24076062440872192,-0.15772873163223267,-0.23137816786766052
1782831387423632100,6.917632080078125,0.2310875505208969,-0.2117779701948166,-0.1739766001701355
1782831387433561000,6.92756103515625,0.19983161985874176,-0.25446152687072754,-0.11847391724586487
1782831387443490000,6.937489990234375,0.14769531786441803,-0.2829348146915436,-0.08623014390468597
1782831387453419300,6.947419189453125,0.09273327142000198,-0.2703244686126709,-0.07134120911359787
1782831387463349000,6.957348876953125,0.03182731568813324,-0.19499269127845764,-0.0620206817984581
1782831387473278000,6.96727783203125,-0.028681568801403046,-0.08505447208881378,-0.05271266773343086
1782831387483207000,6.97720703125,-0.07795894891023636,-0.0028334567323327065,-0.040377456694841385
1782831387493136100,6.98713623046875,-0.1164778470993042,0.0584794357419014,-0.036712948232889175
1782831387503065000,6.997065185546875,-0.1418849676847458,0.08435194194316864,-0.04400954023003578
1782831387512994000,7.006994140625,-0.1784437745809555,0.12973833084106445,-0.03539447858929634
1782831387522923000,7.016923095703125,-0.22186973690986633,0.15663759410381317,-0.018421951681375504
1782831387532852200,7.026852294921875,-0.2759374976158142,0.1535014659166336,0.007685017306357622
1782831387542781200,7.03678125,-0.3391016125679016,0.11180178076028824,0.03600626438856125
1782831387552710100,7.046710205078125,-0.394889771938324,0.05143750458955765,0.05852728709578514
1782831387562640100,7.05664013671875,-0.4325433075428009,-0.031183037906885147,0.08513779193162918
1782831387572569000,7.066569091796875,-0.4547271728515625,-0.10692759603261948,0.12322339415550232
1782831387582498000,7.076498046875,-0.46490684151649475,-0.1499299257993698,0.17490921914577484
1782831387592427000,7.086427001953125,-0.47216662764549255,-0.20360806584358215,0.2148507833480835
1782831387602356200,7.096356201171875,-0.4720870852470398,-0.2234255075454712,0.2220669537782669
1782831387612285200,7.10628515625,-0.478159099817276,-0.2272372841835022,0.19315406680107117
1782831387622214100,7.116214111328125,-0.48490193486213684,-0.21653050184249878,0.13973566889762878
1782831387632143000,7.12614306640625,-0.5104432702064514,-0.24318449199199677,0.07516253739595413
1782831387642072300,7.136072265625,-0.5808894634246826,-0.3293876051902771,0.0007800995372235775
1782831387652001000,7.1460009765625,-0.6729221940040588,-0.4305855929851532,-0.0752401053905487
1782831387661931000,7.155930908203125,-0.7472822666168213,-0.5000530481338501,-0.13303855061531067
1782831387671860000,7.16585986328125,-0.7891034483909607,-0.4666021466255188,-0.15684694051742554
1782831387681789200,7.1757890625,-0.7885749936103821,-0.34314411878585815,-0.12946809828281403
1782831387691718100,7.18571826171875,-0.7371330857276917,-0.19986070692539215,-0.039273492991924286
1782831387701647000,7.195647216796875,-0.6657830476760864,-0.06138323247432709,0.09418840706348419
1782831387711576000,7.205576171875,-0.5909526944160461,0.0510847233235836,0.21679875254631042
1782831387721505300,7.21550537109375,-0.5232665538787842,0.1320039927959442,0.30999913811683655
1782831387731434000,7.22543408203125,-0.47010719776153564,0.13007958233356476,0.3770836293697357
1782831387741363000,7.235363037109375,-0.46281591057777405,0.09074413031339645,0.44092267751693726
1782831387751292000,7.2452919921875,-0.503125786781311,0.037261731922626495,0.49818411469459534
1782831387761221000,7.25522119140625,-0.5635555386543274,0.021966302767395973,0.5305908918380737
1782831387771151000,7.265151123046875,-0.5994005799293518,0.0810977965593338,0.520932674407959
1782831387781080000,7.275080078125,-0.6149913668632507,0.19393831491470337,0.49344921112060547
1782831387791009300,7.28500927734375,-0.5907262563705444,0.32653552293777466,0.466998428106308
1782831387800938200,7.294938232421875,-0.5546570420265198,0.4471220374107361,0.4671095609664917
1782831387810867000,7.304866943359375,-0.5142284035682678,0.5230265855789185,0.4810512363910675
1782831387820796000,7.3147958984375,-0.463681161403656,0.5354848504066467,0.5046802759170532
1782831387830725000,7.32472509765625,-0.4258163273334503,0.4862408936023712,0.5153619647026062
1782831387840654000,7.334654052734375,-0.40734153985977173,0.3462943136692047,0.5140694975852966
1782831387850583000,7.3445830078125,-0.4253003001213074,0.13285551965236664,0.46833160519599915
1782831387860512000,7.354511962890625,-0.46951043605804443,-0.11111564189195633,0.3761623203754425
1782831387870442200,7.364442138671875,-0.515260636806488,-0.35056018829345703,0.21515372395515442
1782831387880371200,7.37437109375,-0.5546233057975769,-0.5491641163825989,0.025082912296056747
1782831387890300200,7.384300048828125,-0.5819013118743896,-0.6591782569885254,-0.159220889210701
1782831387900228900,7.394228759765625,-0.5926522612571716,-0.6926957964897156,-0.3167378008365631
1782831387910158000,7.404157958984375,-0.5858684182167053,-0.6387838125228882,-0.4290856719017029
1782831387920087000,7.414087158203125,-0.5682222247123718,-0.49528971314430237,-0.49139031767845154
1782831387930016000,7.42401611328125,-0.5454580783843994,-0.30229735374450684,-0.4835694134235382
1782831387939945000,7.433945068359375,-0.5214731693267822,-0.0757298618555069,-0.41251546144485474
1782831387949874200,7.443874267578125,-0.49110308289527893,0.13668999075889587,-0.28749123215675354
1782831387959803100,7.45380322265625,-0.46428054571151733,0.2961024343967438,-0.15009988844394684
1782831387969733000,7.463733154296875,-0.4100431203842163,0.3790287375450134,-0.030334601178765297
1782831387979662000,7.473662109375,-0.31495997309684753,0.4314579963684082,0.061656367033720016
1782831387989591000,7.483591064453125,-0.211457297205925,0.43207213282585144,0.11742189526557922
1782831387999519700,7.493519775390625,-0.09518114477396011,0.38666030764579773,0.13288260996341705
1782831388009449000,7.503448974609375,0.00132648553699255,0.31683090329170227,0.12380814552307129
1782831388019378000,7.5133779296875,0.05981867015361786,0.24251174926757812,0.10374204814434052
1782831388029307000,7.523306884765625,0.07393103092908859,0.17582033574581146,0.09277807921171188
1782831388039235800,7.53323583984375,0.06664849072694778,0.11189663410186768,0.09072823822498322
1782831388049165000,7.5431650390625,0.045963190495967865,0.026575084775686264,0.08255898952484131
1782831388059094000,7.553093994140625,0.024711988866329193,-0.07150398939847946,0.05717061087489128
1782831388069023700,7.563023681640625,0.014181051403284073,-0.1341916024684906,0.026581009849905968
1782831388078953000,7.572952880859375,0.011867918074131012,-0.1558590829372406,-0.015600407496094704
1782831388088882000,7.5828818359375,0.019931171089410782,-0.16604115068912506,-0.0633988231420517
1782831388098811000,7.592810791015625,0.04572679102420807,-0.1561475694179535,-0.11030746251344681
1782831388108739800,7.60273974609375,0.0639026015996933,-0.12489165365695953,-0.13596196472644806
1782831388118669000,7.6126689453125,0.0673791766166687,-0.12093497812747955,-0.13564802706241608
1782831388128598000,7.622597900390625,0.05668339505791664,-0.11959753930568695,-0.11000658571720123
1782831388138527000,7.63252685546875,0.03772910684347153,-0.08256558328866959,-0.06512919068336487
1782831388148456000,7.6424560546875,0.013709792867302895,-0.0197053961455822,-0.01897980272769928
1782831388158385200,7.65238525390625,0.017374088987708092,0.024303212761878967,-0.006281003821641207
1782831388168313900,7.66231396484375,0.047013476490974426,0.0925150215625763,-0.017370672896504402
1782831388178243800,7.672243896484375,0.08215072005987167,0.12951815128326416,-0.0261707566678524
1782831388188172800,7.6821728515625,0.11487750709056854,0.14449577033519745,-0.02911621332168579
1782831388198102000,7.69210205078125,0.12804089486598969,0.18583686649799347,-0.029632989317178726
1782831388208031000,7.702031005859375,0.13738512992858887,0.21575453877449036,-0.029875602573156357
1782831388217960000,7.7119599609375,0.14111723005771637,0.23391419649124146,-0.026295922696590424
1782831388227889000,7.721888916015625,0.15364767611026764,0.23757444322109222,-0.01773679070174694
1782831388237818000,7.731818115234375,0.18210779130458832,0.20911693572998047,-0.00699624652042985
1782831388247747000,7.7417470703125,0.21616217494010925,0.17282870411872864,0.008982453495264053
1782831388257675800,7.75167578125,0.25175416469573975,0.11866319179534912,0.037584856152534485
1782831388267604700,7.761604736328125,0.2709830105304718,0.04808064177632332,0.06904664635658264
1782831388277535000,7.771534912109375,0.27881401777267456,-0.029939325526356697,0.08528660237789154
1782831388287464000,7.7814638671875,0.2954241633415222,-0.1019354909658432,0.08238215744495392
1782831388297393000,7.791392822265625,0.3420224189758301,-0.14279457926750183,0.07569319009780884
1782831388307322000,7.801322021484375,0.4021611213684082,-0.11686445027589798,0.0881277546286583
1782831388317251000,7.8112509765625,0.4578767418861389,-0.011194312013685703,0.12043347954750061
1782831388327180000,7.821179931640625,0.48754623532295227,0.044479332864284515,0.14844806492328644
1782831388337108700,7.831108642578125,0.49859750270843506,0.060936570167541504,0.16485102474689484
1782831388347038000,7.841037841796875,0.5053004026412964,0.014151487499475479,0.16275885701179504
1782831388356967000,7.850966796875,0.49535998702049255,-0.07331499457359314,0.13412970304489136
1782831388366895900,7.860895751953125,0.47124215960502625,-0.09783445298671722,0.09324884414672852
1782831388376824800,7.870824951171875,0.42823976278305054,-0.11454413831233978,0.01902162842452526
1782831388386755000,7.880755126953125,0.38144350051879883,-0.14769968390464783,-0.06229560077190399
1782831388396684000,7.89068408203125,0.32262787222862244,-0.16596755385398865,-0.12622018158435822
1782831388406613000,7.900613037109375,0.24906283617019653,-0.15232151746749878,-0.16749490797519684
1782831388416541700,7.910541748046875,0.18659666180610657,-0.12021377682685852,-0.17460210621356964
1782831388426471000,7.920470947265625,0.1623198240995407,-0.04926236718893051,-0.14041990041732788
1782831388436399900,7.93039990234375,0.16859249770641327,0.03817972168326378,-0.06310885399580002
1782831388446328800,7.940328857421875,0.1938219517469406,0.16115038096904755,0.04977907985448837
1782831388456257800,7.9502578125,0.22667713463306427,0.27603232860565186,0.17985059320926666
1782831388466187000,7.96018701171875,0.2641584575176239,0.31700852513313293,0.2915393114089966
1782831388476116000,7.970115966796875,0.2997020483016968,0.3061896562576294,0.3599478602409363
1782831388486046000,7.9800458984375,0.3037330210208893,0.28753766417503357,0.39347386360168457
1782831388495975000,7.989974853515625,0.27722981572151184,0.2701290249824524,0.38713112473487854
1782831388505903900,7.99990380859375,0.26347753405570984,0.24708762764930725,0.3374581038951874
1782831388515832800,8.009832763671875,0.29180559515953064,0.24008998274803162,0.26553764939308167
1782831388525761800,8.01976171875,0.34827765822410583,0.24533748626708984,0.19746114313602448
1782831388535691000,8.02969091796875,0.4049709439277649,0.25248008966445923,0.16469046473503113
1782831388545620000,8.039619873046876,0.460433691740036,0.22658267617225647,0.1610342115163803
1782831388555549000,8.049548828125,0.4944908022880554,0.1488727331161499,0.16360464692115784
1782831388565478000,8.059477783203125,0.5034638047218323,0.022086821496486664,0.1647290289402008
1782831388575407000,8.069406982421874,0.48172008991241455,-0.12903068959712982,0.13972021639347076
1782831388585336800,8.0793369140625,0.42942652106285095,-0.2921905815601349,0.10607463121414185
1782831388595265800,8.089265869140625,0.3469715416431427,-0.4462420642375946,0.08353544771671295
1782831388605194800,8.09919482421875,0.2576344907283783,-0.5601097941398621,0.05771476775407791
1782831388615124000,8.1091240234375,0.18141642212867737,-0.6293090581893921,0.013395227491855621
1782831388625053000,8.119052978515626,0.13308271765708923,-0.6390615701675415,-0.06444178521633148
1782831388634982000,8.12898193359375,0.10618893802165985,-0.575203537940979,-0.17618846893310547
1782831388644910800,8.138910888671875,0.09315861761569977,-0.4373556971549988,-0.29766830801963806
1782831388654840000,8.148840087890624,0.03884877264499664,-0.2772917151451111,-0.3875121772289276
1782831388664769000,8.15876904296875,-0.07084842771291733,-0.15981487929821014,-0.42516446113586426
1782831388674698000,8.168697998046875,-0.1805068403482437,-0.007651739753782749,-0.4269833564758301
1782831388684627000,8.178626953125,-0.26700499653816223,0.2183867245912552,-0.4100256860256195
1782831388694557000,8.188556884765624,-0.29961493611335754,0.42497047781944275,-0.3889818489551544
1782831388704486000,8.19848583984375,-0.25113582611083984,0.526082456111908,-0.34741681814193726
1782831388714414800,8.208414794921875,-0.16277672350406647,0.5461881756782532,-0.26778465509414673
1782831388724344000,8.218343994140625,-0.08749528229236603,0.4737038314342499,-0.15001380443572998
1782831388734273000,8.22827294921875,-0.014080229215323925,0.3436213433742523,-0.00048081763088703156
1782831388744202000,8.238201904296876,0.05956496298313141,0.18281061947345734,0.12578949332237244
1782831388754131000,8.248130859375,0.12655888497829437,0.00825390312820673,0.20491407811641693
1782831388764060000,8.258059814453125,0.1627512276172638,-0.13920266926288605,0.23770771920681
1782831388773988900,8.26798876953125,0.1502687782049179,-0.23447927832603455,0.234253391623497
1782831388783917800,8.277917724609376,0.09463133662939072,-0.2658763825893402,0.16990849375724792
1782831388793848000,8.28784814453125,0.04553138092160225,-0.2405456155538559,0.05787475407123566
1782831388803777000,8.297777099609375,0.0010675098747015,-0.15589970350265503,-0.08427492529153824
1782831388813706000,8.3077060546875,-0.04100760072469711,-0.03565827012062073,-0.205267071723938
1782831388823635000,8.317635009765626,-0.06908157467842102,0.09245255589485168,-0.268779456615448
1782831388833564200,8.327564208984375,-0.07332966476678848,0.16197364032268524,-0.2775437831878662
1782831388843492900,8.337492919921875,-0.06481553614139557,0.14833718538284302,-0.23746562004089355
1782831388853421800,8.347421875,-0.04035057872533798,0.08739157021045685,-0.1588672697544098
1782831388863350800,8.357350830078126,-0.02353910729289055,0.017732858657836914,-0.04929070547223091
1782831388873279700,8.36727978515625,-0.011019909754395485,-0.07932409644126892,0.03869999200105667
1782831388883209000,8.377208984375,0.0034194840118288994,-0.1696617156267166,0.09765758365392685
1782831388893139000,8.387138916015624,0.0014350609853863716,-0.22760334610939026,0.10657525062561035
1782831388903068000,8.39706787109375,-0.009625579230487347,-0.23729538917541504,0.06501661986112595
1782831388912997000,8.4069970703125,-0.013018503785133362,-0.20450086891651154,-0.020241960883140564
1782831388922925800,8.41692578125,-0.027193712070584297,-0.13945023715496063,-0.11396180093288422
1782831388932854800,8.426854736328124,-0.05243636667728424,-0.07238508015871048,-0.19311198592185974
1782831388942783700,8.43678369140625,-0.08091621100902557,-0.007307548075914383,-0.22627046704292297
1782831388952713000,8.446712890625,-0.12744362652301788,0.022551437839865685,-0.22481614351272583
1782831388962642000,8.456641845703125,-0.16901583969593048,0.018154291436076164,-0.20454788208007812
1782831388972571000,8.46657080078125,-0.19668030738830566,0.014312664046883583,-0.1768229752779007
1782831388982499800,8.476499755859376,-0.20963232219219208,0.02104140818119049,-0.1324496567249298
1782831388992429000,8.486428955078125,-0.21548980474472046,0.05624939128756523,-0.07703212648630142
1782831389002362600,8.496362548828126,-0.22357594966888428,0.09207822382450104,-0.02508343942463398
1782831389012291600,8.50629150390625,-0.23325477540493011,0.11977933347225189,0.008188566192984581
1782831389022220500,8.516220458984375,-0.2341378927230835,0.13948538899421692,0.014870170503854752
1782831389032149800,8.526149658203124,-0.22655977308750153,0.1476929485797882,-0.00926940143108368
1782831389042078700,8.53607861328125,-0.21472948789596558,0.04188502952456474,-0.05842123553156853
1782831389052007700,8.546007568359375,-0.19934529066085815,-0.1362239569425583,-0.10267430543899536
1782831389061936600,8.5559365234375,-0.18636557459831238,-0.2543375492095947,-0.1120036244392395
1782831389071865900,8.565865966796874,-0.18478982150554657,-0.3650316596031189,-0.10258940607309341
1782831389081794800,8.575794921875,-0.20037969946861267,-0.46361497044563293,-0.0845065489411354
1782831389091723800,8.585723876953125,-0.23642601072788239,-0.5145870447158813,-0.05066743493080139
1782831389101652700,8.59565283203125,-0.2849788963794708,-0.4899767339229584,0.0010772529058158398
1782831389111582700,8.605582763671874,-0.3400930166244507,-0.3529137074947357,0.07976274192333221
1782831389121511700,8.61551171875,-0.393416166305542,-0.1583562046289444,0.16703054308891296
1782831389131440600,8.625440673828125,-0.46354570984840393,0.011802210472524166,0.22594524919986725
1782831389141369900,8.635369873046875,-0.5399046540260315,0.10698971152305603,0.2513379454612732
1782831389151298800,8.645298828125,-0.5985845327377319,0.13139183819293976,0.2508328855037689
1782831389161227800,8.655227783203125,-0.625859797000885,0.09224522858858109,0.20787183940410614
1782831389171156700,8.66515673828125,-0.6118670105934143,0.03600824996829033,0.13271303474903107
1782831389181086000,8.6750859375,-0.567365288734436,0.010265869088470936,0.05472049489617348
1782831389191014700,8.6850146484375,-0.5105685591697693,-0.005254517309367657,-0.00491864699870348
1782831389200943600,8.694943603515625,-0.46224090456962585,-0.024282537400722504,-0.030369412153959274
1782831389210873600,8.70487353515625,-0.42315664887428284,-0.0035522999241948128,0.0019615492783486843
1782831389220802800,8.714802734375,-0.407299667596817,0.05191602185368538,0.07342694699764252
1782831389230731800,8.724731689453124,-0.3960692882537842,0.11210109293460846,0.19008930027484894
1782831389240660700,8.73466064453125,-0.39235204458236694,0.1534072607755661,0.3087994456291199
1782831389250589700,8.744589599609375,-0.4101202189922333,0.15150785446166992,0.37699243426322937
1782831389260519000,8.754518798828125,-0.41910597681999207,0.07806292921304703,0.36554694175720215
1782831389270447600,8.764447509765626,-0.42471304535865784,-0.035555534064769745,0.3042926490306854
1782831389280376600,8.77437646484375,-0.44144222140312195,-0.13088952004909515,0.24310413002967834
1782831389290305500,8.784305419921875,-0.4548839330673218,-0.1784532070159912,0.20975157618522644
1782831389300234800,8.79423486328125,-0.4678229093551636,-0.21398189663887024,0.18323102593421936
1782831389310163700,8.804163818359376,-0.4892677962779999,-0.22133170068264008,0.16125436127185822
1782831389320093700,8.81409375,-0.495911568403244,-0.1899050623178482,0.1375357061624527
1782831389330023000,8.82402294921875,-0.5088937282562256,-0.14845874905586243,0.0836678147315979
1782831389339951900,8.833951904296875,-0.5361953973770142,-0.09087881445884705,-0.03395681455731392
1782831389349880600,8.843880615234376,-0.5620273947715759,-0.03285433351993561,-0.18868069350719452
1782831389359809500,8.8538095703125,-0.5794018507003784,0.04807673394680023,-0.32195407152175903
1782831389369738800,8.86373876953125,-0.5994472503662109,0.1052917093038559,-0.39730748534202576
1782831389379667700,8.873667724609374,-0.5960037708282471,0.1292273998260498,-0.410696804523468
1782831389389596700,8.8835966796875,-0.5591123700141907,0.1779167354106903,-0.3736400902271271
1782831389399525600,8.893525634765625,-0.5016070008277893,0.248831644654274,-0.30246153473854065
1782831389409454800,8.903454833984375,-0.4336557686328888,0.3200443387031555,-0.22902897000312805
1782831389419384800,8.913384765625,-0.33735692501068115,0.36235904693603516,-0.15525302290916443
1782831389429313500,8.9233134765625,-0.24405722320079803,0.40019649267196655,-0.10945311933755875
1782831389439242500,8.933242431640625,-0.16026698052883148,0.3731566071510315,-0.10725707560777664
1782831389449171700,8.943171630859375,-0.06007377430796623,0.3174116909503937,-0.11580762267112732
1782831389459100700,8.9531005859375,0.027449682354927063,0.23988306522369385,-0.1127961203455925
1782831389469029600,8.963029541015626,0.06950768828392029,0.16414502263069153,-0.10409896820783615
1782831389478958600,8.97295849609375,0.07496557384729385,0.09062472730875015,-0.10811128467321396
1782831389488887800,8.9828876953125,0.07368049770593643,0.0324506014585495,-0.14282366633415222
1782831389498816800,8.992816650390624,0.07078510522842407,0.007097307592630386,-0.20370405912399292
1782831389508745700,9.002745849609376,0.07484084367752075,-0.01503673754632473,-0.26389309763908386
1782831389518674700,9.0126748046875,0.08580934256315231,-0.053755637258291245,-0.29144081473350525
1782831389528604700,9.022604736328125,0.0944465696811676,-0.10493074357509613,-0.2635853886604309
1782831389538533600,9.03253369140625,0.1079368144273758,-0.11495114862918854,-0.19142143428325653
1782831389548462600,9.042462646484376,0.11899776756763458,-0.0916733592748642,-0.11639949679374695
1782831389558391800,9.052391845703125,0.13940688967704773,-0.0026936912909150124,-0.08137759566307068
1782831389568320800,9.06232080078125,0.17275185883045197,0.1013348400592804,-0.0972001925110817
1782831389578249700,9.072249755859374,0.22429201006889343,0.18295754492282867,-0.127467542886734
1782831389588178700,9.0821787109375,0.2533772587776184,0.22261646389961243,-0.13415780663490295
1782831389598108000,9.09210791015625,0.26671862602233887,0.21718548238277435,-0.10418978333473206
1782831389608036900,9.102036865234375,0.2681472599506378,0.21816501021385193,-0.048758022487163544
1782831389617965800,9.1119658203125,0.25591030716896057,0.18676342070102692,-0.025366412475705147
1782831389627894500,9.12189453125,0.2536559998989105,0.1572778970003128,-0.02035127952694893
1782831389637824800,9.13182470703125,0.2862493693828583,0.08474856615066528,-0.025929003953933716
1782831389647753700,9.141753662109375,0.347316712141037,-0.0028508035466074944,-0.010240580886602402
1782831389657682700,9.1516826171875,0.4320555627346039,-0.0693424791097641,0.020840905606746674
1782831389667611600,9.161611572265626,0.539298415184021,-0.09778094291687012,0.060071200132369995
1782831389677540900,9.171540771484375,0.6725776195526123,-0.12650153040885925,0.10405915975570679
1782831389687469800,9.1814697265625,0.7880399227142334,-0.17754898965358734,0.16745752096176147
1782831389697398800,9.191398681640624,0.8361768126487732,-0.2414856255054474,0.23376862704753876
1782831389707327500,9.201327392578126,0.8397411704063416,-0.2849462628364563,0.30785083770751953
1782831389717256700,9.211256591796875,0.7859429121017456,-0.35619834065437317,0.36933284997940063
1782831389727185700,9.221185546875,0.670324444770813,-0.4201355278491974,0.3897459805011749
1782831389737114600,9.231114501953124,0.5643578171730042,-0.4325607717037201,0.35891109704971313
1782831389747044900,9.241044921875,0.48549389839172363,-0.4063112437725067,0.27386099100112915
1782831389756973800,9.250973876953125,0.4142862856388092,-0.33064576983451843,0.15844997763633728
1782831389766902800,9.26090283203125,0.357139527797699,-0.1866367757320404,0.05123935639858246
1782831389776831700,9.270831787109374,0.3325428366661072,-0.035486139357089996,-0.006586660631000996
1782831389786760700,9.2807607421875,0.34162506461143494,0.0894487053155899,-0.006402305793017149
1782831389796689700,9.290689697265625,0.3783729374408722,0.19484277069568634,0.045956239104270935
1782831389806618600,9.30061865234375,0.4057885408401489,0.2490306943655014,0.11190450191497803
1782831389816547600,9.310547607421874,0.4255366623401642,0.2467547506093979,0.1785450577735901
1782831389826476800,9.320476806640626,0.42797213792800903,0.19429713487625122,0.22429630160331726
1782831389836402700,9.330402587890624,0.41626808047294617,0.11196285486221313,0.24216105043888092
1782831389846332000,9.340331787109376,0.41404101252555847,0.056534189730882645,0.24337443709373474
1782831389856260900,9.3502607421875,0.4284076988697052,0.056532327085733414,0.22673608362674713
1782831389866189800,9.36018994140625,0.4538298547267914,0.09440316259860992,0.2132391780614853
1782831389876118800,9.370118896484374,0.48234620690345764,0.14768236875534058,0.20905214548110962
1782831389886047500,9.380047607421876,0.516603946685791,0.2530122697353363,0.21796484291553497
1782831389895977700,9.389977783203125,0.5403367280960083,0.38712695240974426,0.2360924482345581
1782831389905906700,9.39990673828125,0.5509039759635925,0.49458232522010803,0.2421976625919342
1782831389915835600,9.409835693359375,0.5294370055198669,0.49651554226875305,0.2336619645357132
1782831389925764900,9.419764892578126,0.4830828309059143,0.4045082628726959,0.22422339022159576
1782831389935693800,9.42969384765625,0.43678349256515503,0.2534806728363037,0.18991334736347198
1782831389945622800,9.439622802734375,0.4093424677848816,0.08467990159988403,0.13540756702423096
1782831389955551700,9.4495517578125,0.40711233019828796,-0.04780677333474159,0.06116076931357384
1782831389965480700,9.459480712890626,0.4226623773574829,-0.12718695402145386,-0.008197790011763573
1782831389975409700,9.46940966796875,0.4518316984176636,-0.14883100986480713,-0.07764104753732681
1782831389985338600,9.479338623046875,0.4853166937828064,-0.14347705245018005,-0.1463320404291153
1782831389995268900,9.489268798828125,0.511426568031311,-0.15484288334846497,-0.20953071117401123
1782831390005194200,9.4991943359375,0.5165620446205139,-0.21034488081932068,-0.22351950407028198
1782831390015123200,9.509123291015625,0.47840645909309387,-0.30284208059310913,-0.18955780565738678
1782831390025052200,9.51905224609375,0.4123082756996155,-0.40875816345214844,-0.1246783435344696
1782831390034981400,9.5289814453125,0.3481806814670563,-0.4897579252719879,-0.08486462384462357
1782831390044910000,9.53891015625,0.3006466329097748,-0.4858471155166626,-0.07368592917919159
1782831390054839000,9.548839111328125,0.27034464478492737,-0.39960891008377075,-0.09734359383583069
1782831390064768000,9.55876806640625,0.2515319287776947,-0.26310616731643677,-0.13592593371868134
1782831390074697200,9.568697265625,0.2316886931657791,-0.08969017118215561,-0.16184301674365997
1782831390084626200,9.578626220703125,0.20353661477565765,0.05290219187736511,-0.14849165081977844
1782831390094555100,9.58855517578125,0.16638045012950897,0.17233723402023315,-0.10333190113306046
1782831390104485400,9.5984853515625,0.16549451649188995,0.22074183821678162,-0.059094201773405075
1782831390114414300,9.608414306640626,0.17527204751968384,0.22537866234779358,-0.04215569794178009
1782831390124343000,9.618343017578125,0.16503390669822693,0.14810015261173248,-0.04143431410193443
1782831390134272000,9.62827197265625,0.13955117762088776,0.03717576339840889,-0.0447922945022583
1782831390144201200,9.638201171875,0.1134202629327774,-0.05274525284767151,-0.05101095512509346
1782831390154130200,9.648130126953125,0.08876685053110123,-0.06359204649925232,-0.06631560623645782
1782831390164059100,9.65805908203125,0.09365010261535645,-0.01942196674644947,-0.08686818182468414
1782831390173988000,9.667988037109374,0.11109966039657593,0.03709377348423004,-0.10435822606086731
1782831390183917300,9.677917236328126,0.15330882370471954,0.03119492158293724,-0.12353522330522537
1782831390193846300,9.68784619140625,0.20368970930576324,0.013153867796063423,-0.13109193742275238
1782831390203775200,9.697775146484375,0.22972472012043,-0.02430526539683342,-0.10700087994337082
1782831390213705000,9.707705078125,0.2414218634366989,-0.05290601775050163,-0.057321205735206604
1782831390223634200,9.71763427734375,0.24331283569335938,-0.07871964573860168,-0.009206137619912624
1782831390233563100,9.727563232421875,0.22210873663425446,-0.11504356563091278,0.020981593057513237
1782831390243492000,9.7374921875,0.19469010829925537,-0.12262197583913803,0.030965479090809822
1782831390253421000,9.747421142578125,0.15392829477787018,-0.11548283696174622,0.014965208247303963
1782831390263350300,9.757350341796876,0.1130388081073761,-0.10071174055337906,-0.015268348157405853
1782831390273279200,9.767279296875,0.08111469447612762,-0.07508360594511032,-0.047883015125989914
1782831390283208200,9.777208251953125,0.049578290432691574,-0.05913836508989334,-0.06021680310368538
1782831390293137200,9.78713720703125,0.016616346314549446,-0.0514274463057518,-0.06513433158397675
1782831390303066400,9.79706640625,-0.008189481683075428,-0.043898917734622955,-0.04614024609327316
1782831390312995000,9.8069951171875,-0.020483963191509247,-0.034741904586553574,-0.028033949434757233
1782831390322925000,9.816925048828125,-0.020836733281612396,-0.023694811388850212,0.0019060377962887287
1782831390332854300,9.826854248046875,-0.024972088634967804,-0.007394934073090553,0.029671089723706245
1782831390342783200,9.836783203125,-0.042678847908973694,0.02374773472547531,0.05062470957636833
1782831390352712200,9.846712158203125,-0.07131928950548172,0.04040314629673958,0.05238133296370506
1782831390362641200,9.85664111328125,-0.11481063812971115,0.029760366305708885,0.04427151754498482
1782831390372570400,9.8665703125,-0.15720205008983612,0.011639686301350594,0.022733470425009727
1782831390382499300,9.876499267578126,-0.1880931407213211,0.00241285003721714,-0.006538374815136194
1782831390392428000,9.886427978515625,-0.19632336497306824,0.009328014217317104,-0.03369409590959549
1782831390402357000,9.89635693359375,-0.20093801617622375,0.028007633984088898,-0.0407169908285141
1782831390412286200,9.9062861328125,-0.22209471464157104,-0.006365519016981125,-0.06815420836210251
1782831390422215200,9.916215087890626,-0.23972785472869873,-0.06316250562667847,-0.12438493221998215
1782831390432145200,9.926145263671875,-0.24415430426597595,-0.11848249286413193,-0.1858016848564148
1782831390442074000,9.93607421875,-0.2742672264575958,-0.14051787555217743,-0.22294723987579346
1782831390452003300,9.94600341796875,-0.3338724970817566,-0.17251256108283997,-0.22103163599967957
1782831390461932300,9.955932373046876,-0.41630181670188904,-0.21323075890541077,-0.1869339793920517
1782831390471861200,9.965861328125,-0.48600366711616516,-0.2283037304878235,-0.17283333837985992
1782831390481790000,9.9757900390625,-0.5122252702713013,-0.18974366784095764,-0.18695582449436188
1782831390491719200,9.98571923828125,-0.4970790445804596,-0.09019923210144043,-0.19169650971889496
1782831390501648100,9.995648193359376,-0.45257800817489624,0.044020600616931915,-0.14710156619548798
1782831390511577000,10.0055771484375,-0.37979835271835327,0.1889122724533081,-0.04661250486969948
1782831390521506000,10.015506103515625,-0.30305513739585876,0.32726606726646423,0.09909962117671967
1782831390531435300,10.025435302734374,-0.2357354760169983,0.39993226528167725,0.23927749693393707
1782831390541365200,10.035365234375,-0.18241998553276062,0.3751877248287201,0.33379828929901123
1782831390551294200,10.045294189453125,-0.15495774149894714,0.3332589268684387,0.37546849250793457
1782831390561223200,10.05522314453125,-0.13903950154781342,0.321871280670166,0.36295732855796814
1782831390571152100,10.065152099609374,-0.13161034882068634,0.35052236914634705,0.311970055103302
1782831390581081000,10.0750810546875,-0.1281317174434662,0.41648080945014954,0.2421189695596695
1782831390591010000,10.085010009765625,-0.13500401377677917,0.45222657918930054,0.18088383972644806
1782831390600939300,10.094939208984375,-0.12570595741271973,0.4593440890312195,0.11887061595916748
1782831390610868200,10.1048681640625,-0.11373584717512131,0.6922473311424255,0.28685614466667175
1782831390620797200,10.114797119140626,-0.17914515733718872,0.4550427496433258,0.4282054305076599
1782831390630726100,10.12472607421875,-0.17969003319740295,0.07002609223127365,0.4362151622772217
1782831390640656100,10.13465625,-0.1483781784772873,-0.04925954341888428,0.3958277404308319
1782831390650585000,10.144585205078124,-0.19160714745521545,-0.12564192712306976,0.28415927290916443
1782831390660514000,10.15451416015625,-0.22591036558151245,-0.13566479086875916,0.16831718385219574
1782831390670443000,10.164443115234375,-0.23451636731624603,-0.14332272112369537,0.07869435846805573
1782831390680372200,10.174372314453125,-0.24109220504760742,-0.12972478568553925,0.06761036068201065
1782831390690301200,10.18430126953125,-0.25983554124832153,-0.21946345269680023,0.07807205617427826
1782831390700230100,10.194230224609376,-0.20982491970062256,-0.5337340235710144,0.024772394448518753
1782831390710159000,10.2041591796875,-0.10538773238658905,-0.8472906351089478,-0.09555748105049133
1782831390720088300,10.21408837890625,-0.026230216026306152,-0.9764070510864258,-0.2519189417362213
