time,seconds_elapsed,z,y,x
1782831983976075500,0.071075439453125,0.13772446312606335,-0.18362185255661606,0.9754985717605799
1782831983986004500,0.08100439453125,0.1412421158581972,-0.09081628921777009,0.8793428942762315
1782831983995933400,0.090933349609375,0.06937456499934196,-0.00710983200520277,0.8025864753972739
1782831984005862400,0.1008623046875,-0.029364041650295256,-0.02068593741506338,0.7877711835812777
1782831984015791400,0.110791259765625,-0.13587269777953623,-0.09874766673892736,0.8529862908136099
1782831984025720300,0.12072021484375,-0.2276993330836296,-0.1002871512658894,0.9178428669318556
1782831984035649500,0.1306494140625,-0.18762626589238643,0.027723434836417434,0.8097285291716456
1782831984045578500,0.14057861328125,-0.03196633310317993,0.0970588368691504,0.6669738898586481
1782831984055507500,0.150507568359375,-0.05531622903048992,0.08357815465778112,0.7587405386038124
1782831984065436400,0.1604365234375,-0.036705636584758755,0.0678977704450488,0.8612209621302783
1782831984075365600,0.17036572265625,0.11510638860464095,0.04713409161865711,0.6869182881914079
1782831984085294600,0.180294677734375,0.1532540406912565,0.0005832067154347896,0.6264357624389231
1782831984095223600,0.1902236328125,0.16991759072244167,-0.03925649011135101,0.7559267963573336
1782831984105151500,0.2001513671875,0.11806523841023445,-0.1306134620770812,0.9215576496712863
1782831984115080400,0.21008056640625,0.3709551268517971,-0.2835340330302715,0.7465811681240797
1782831984125009700,0.220009765625,0.46969548706710335,-0.23208441630005835,0.6417388377718627
1782831984134938400,0.2299384765625,0.5680097308248281,0.005673223330825567,0.44257652092985805
1782831984144867300,0.239867431640625,0.6654594667077064,0.25298311968296766,0.2794022669877857
1782831984154796300,0.24979638671875,0.7873591687142848,0.28076895223110915,0.22095015108436344
1782831984164725500,0.2597255859375,0.925762846276164,0.198077663410455,0.25160657063275577
1782831984174654500,0.269654541015625,1.0099106175154446,-0.12846022956594824,0.3181037535648793
1782831984184583400,0.27958349609375,1.1631237416744231,-0.5092337167292833,0.321974165257439
1782831984194512400,0.289512451171875,1.4993758039355276,-0.660034080658108,0.3209842043720186
1782831984204441600,0.299441650390625,1.6115005463808774,-0.48435237345099447,0.2245022175427526
1782831984214370600,0.30937060546875,1.525641879570484,-0.06933510977178811,0.08270349071510136
1782831984224299500,0.319299560546875,1.3662655566066502,0.06854746652543545,0.04234218116700649
1782831984234228500,0.329228515625,1.0334610044509172,0.032862551290541886,0.029190730910003182
1782831984244157400,0.339157470703125,0.9435136070221662,-0.02365282439664006,0.017884689323976636
1782831984254085600,0.349085693359375,0.648524113997817,0.04025594947747886,0.006736176387220621
1782831984264014600,0.3590146484375,0.06385200218558311,0.1062981551837176,-0.003304302242398262
1782831984273943600,0.368943603515625,-0.5393839403212071,0.08440868719778954,-0.06465922691524029
1782831984283872300,0.378872314453125,-1.105435522815585,0.07789755173809826,-0.07510419469252229
1782831984293801500,0.388801513671875,-1.4259709605067967,-0.04411123666614294,-0.03674468995351344
1782831984303730400,0.39873046875,-1.8953829544574021,-0.11442512834221125,-0.03839852157514542
1782831984313659400,0.408659423828125,-1.9854671300083397,-0.15018106298670172,-0.24875278863683342
1782831984323588400,0.41858837890625,-1.6826485507935285,-0.1360384828004986,-0.2111042086461559
1782831984333517600,0.428517578125,-1.4509306297183036,-0.11988653555326163,-0.09650847297739237
1782831984343446500,0.438446533203125,-1.364354754549265,-0.14324797578789292,0.003853460557758808
1782831984353375500,0.44837548828125,-0.9687877490103244,-0.24094883688762783,0.16374993493817747
1782831984363304400,0.458304443359375,-0.45441608487069607,-0.38725042809247967,0.24773360165692865
1782831984373233700,0.468233642578125,-0.26291736145913597,-0.412043216304481,0.4879706370133906
1782831984383162600,0.47816259765625,-0.05201075774431228,-0.49493784567750987,0.4520539588492363
1782831984393091300,0.48809130859375,0.39991643292009826,-0.4990203657507896,0.5617433639064431
1782831984403019500,0.49801953125,0.7813309944659471,-0.4214118600871414,0.5821126365877688
1782831984412948500,0.507948486328125,1.0505588542461395,-0.3278589124470949,0.4805182751808315
1782831984422877400,0.51787744140625,1.270130410453677,-0.4044808182261884,0.38365737203657624
1782831984432806400,0.527806396484375,1.529545316749811,-0.5409418372876942,0.3223503781586885
1782831984442735400,0.5377353515625,1.9242203418850898,-0.6281327756151557,0.27363263407777993
1782831984452664300,0.547664306640625,2.097980579510331,-0.5422076925050467,0.3278399885509163
1782831984462593500,0.557593505859375,2.086366714084148,-0.39410423950999973,0.4173284632310271
1782831984472522500,0.5675224609375,2.1260949133604763,-0.34031872717812656,0.5136637350659817
1782831984482451500,0.577451416015625,2.120021730926633,-0.30133382054977115,0.5404515695527196
1782831984492380400,0.58738037109375,1.8806284529179333,-0.05037248901799321,0.41959710228275504
1782831984502309600,0.5973095703125,1.710425030991435,0.20969649727270007,0.41445754743721336
1782831984512238600,0.607238525390625,1.730543105390668,0.2164131652418524,0.45355603397525845
1782831984522167600,0.61716748046875,1.8853958134502171,0.025827245826274155,0.5205392468586564
1782831984532096500,0.627096435546875,1.9710048894137142,-0.09630794543661177,0.505089675727114
1782831984542025500,0.637025390625,1.8670868342995643,0.0493240028783679,0.5196281598957255
1782831984551953700,0.64695361328125,1.8599813862085341,0.14053301774077118,0.4733904691275209
1782831984561882400,0.65688232421875,2.1508938390523196,0.048581660078465934,0.3144294854989275
1782831984571811300,0.666811279296875,2.0444985801696776,-0.01436345639526844,0.2841873823724687
1782831984581740300,0.676740234375,1.7819938911646604,-0.07780768149755894,0.29677855013189836
1782831984591669500,0.68666943359375,1.8098218092888592,-0.14093005423434077,0.2514564581049606
1782831984601598500,0.696598388671875,1.8319488854229449,0.014324220363423228,0.16602845606310293
1782831984611527400,0.70652734375,1.7582997118443249,0.2617874806463718,0.13578578668106348
1782831984621456400,0.716456298828125,1.5237299084693192,0.4153320287168026,0.14205511274151503
1782831984631385600,0.726385498046875,0.8540899412065744,0.4453777690209448,0.23611977276336402
1782831984641314600,0.736314453125,-0.006419803914427757,0.2076370805248618,0.507512884286046
1782831984651243500,0.746243408203125,-0.379551105761528,0.04934643390588462,0.41326804539170114
1782831984661172500,0.75617236328125,-0.6961591408759356,0.4668775070369243,-0.008010689835064113
1782831984671101700,0.766101806640625,-1.265604457461834,0.9034605597056448,-0.36885398985408246
1782831984681030400,0.776030517578125,-2.300094804960489,0.86539773635827,-0.4608827966667711
1782831984690959400,0.78595947265625,-4.031222432240844,0.5021305336605757,-0.38898872312717137
1782831984700887600,0.795887451171875,-6.0467778265208,0.03571859830878675,-0.27371362689211964
1782831984710816300,0.805816162109375,-7.915417735481261,-0.04018514926359057,0.1700149866823107
1782831984720745500,0.815745361328125,-9.72369231532812,0.21148067727573214,0.6575403641462325
1782831984730674400,0.82567431640625,-11.351945843589306,0.30486915506906803,0.7856254767894745
1782831984740603400,0.835603271484375,-12.587019553709029,0.6537865645706653,0.5305160126022994
1782831984750532400,0.845532470703125,-13.225004153513908,0.8795926312536001,-0.06246032863147556
1782831984760461600,0.855461669921875,-13.4871248116374,0.6235960089683532,-0.324341259714961
1782831984770390500,0.865390625,-13.46538059734106,0.1405082486256957,0.004882730540260672
1782831984780319500,0.875319580078125,-13.08547877844572,-0.28143070407547055,0.5124876039586961
1782831984790248400,0.88524853515625,-12.535249618983269,-0.5676012230891734,0.9596610242247581
1782831984800177700,0.895177734375,-11.659932765352725,-0.7156741348154843,1.0891611182324588
1782831984810106600,0.905106689453125,-9.911298122954369,-0.7490173092298209,0.9611940790109336
1782831984820035600,0.91503564453125,-7.708582326728105,-0.6468035738155246,0.8977324643824249
1782831984829964300,0.92496435546875,-5.060073897069692,-0.41090719801187514,0.7582131537288427
1782831984839893200,0.934893310546875,-2.0158505778342484,-0.10311002666689455,0.5738336877379566
1782831984849821400,0.944821533203125,0.1575204659640789,0.0344396644141525,0.6304661869987845
1782831984859750400,0.95475048828125,1.481778772446513,-0.18093546301685273,0.6727237586222589
1782831984869679400,0.964679443359375,2.3253315375477075,-0.5666597775205969,0.6218002846579999
1782831984879608300,0.9746083984375,2.9313123948484656,-0.7189369360037148,0.45266566100679334
1782831984889538300,0.984538330078125,3.3250755658358333,-0.685801339925453,0.45788748730830847
1782831984899467300,0.99446728515625,3.712085755431652,-0.5414475217875093,0.5133939782138913
1782831984909396200,1.004396240234375,3.9982308477431534,-0.40008448296338317,0.5260300993598997
1782831984919325200,1.0143251953125,4.276945497792959,-0.2260898885929957,0.4019967097928747
1782831984929254400,1.02425439453125,4.686441075441241,-0.06255235429648309,0.18374505881117656
1782831984939183400,1.034183349609375,5.21837996045351,0.045236368238553405,0.14182450972287916
1782831984949112000,1.044112060546875,5.958159631869196,0.16072254994101823,0.1484626599625684
1782831984959041000,1.054041015625,6.977177100425958,0.322669380979985,0.02352264041202143
1782831984968970200,1.06397021484375,7.778892126750946,0.5091248495273292,0.1409602484432049
1782831984978899200,1.073899169921875,7.834340457728505,0.6801717365406453,0.48150129486881194
1782831984988828200,1.083828125,7.514144627255201,0.5504272393178195,0.7395897018015384
1782831984998757000,1.093757080078125,7.049985147005319,0.4028965447094291,0.6592446838460863
1782831985008685000,1.10368505859375,6.737346015521884,0.23423589524552224,0.4674774822240695
1782831985018614300,1.1136142578125,6.537134408822656,-0.14543328393772242,0.3069691960882395
1782831985028543200,1.123543212890625,6.1327446298807855,-0.360383975411579,0.03775193076729774
1782831985038472200,1.13347216796875,5.859935404482483,-0.1788229278422892,-0.34964586990661917
1782831985048401200,1.143401123046875,5.932796642553806,0.14775317825265227,-0.5313515866436064
1782831985058330400,1.153330322265625,6.266330678027868,0.40789150345250963,-0.47252475567627694
1782831985068259300,1.16325927734375,6.702303928235173,0.5120313115585595,-0.4058942652206868
1782831985078188300,1.173188232421875,7.037011099141836,0.5979824789579957,-0.37591472202055154
1782831985088117200,1.1831171875,7.246655720096826,0.7146351471565663,-0.45721846547294404
1782831985098046200,1.193046142578125,7.326700732192396,0.8075191825591027,-0.6663364687379449
1782831985107975200,1.20297509765625,7.250918638238311,0.7775390548370779,-0.7567267145633697
1782831985117904100,1.212904052734375,7.009006655406951,0.6506199172332883,-0.824076714932546
1782831985127833000,1.2228330078125,6.507477521705627,0.5399158552408218,-0.7549277023173868
1782831985137762300,1.23276220703125,6.161772571444511,0.5201826885059475,-0.8236231990113854
1782831985147691300,1.242691162109375,6.386820513236522,0.7550304320394993,-1.0159284165002405
1782831985157619200,1.252619140625,6.684745475190877,1.138121694625914,-0.9181566821213811
1782831985167548200,1.262548095703125,6.859822056111693,1.460408798290044,-0.7784535393334925
1782831985177477000,1.27247705078125,7.054415238407254,1.5704909289918838,-0.9448543541066348
1782831985187406300,1.28240625,7.358803258895874,1.5424248181976377,-1.381131994087994
1782831985197335300,1.292335205078125,7.33881611739993,1.6158808072917163,-1.9514057243220506
1782831985207264300,1.30226416015625,6.1921168563038105,1.6914608028024434,-2.5838790133595464
1782831985217193200,1.312193115234375,3.662002750879526,1.627976026494056,-3.0767960937991736
1782831985227122400,1.322122314453125,0.21730068866610525,1.2778108819536864,-2.333058916929364
1782831985237051100,1.332051025390625,-3.2484996911555526,0.6578121668249368,-0.10485372852906584
1782831985246980000,1.34197998046875,-5.483992552345991,0.4057521533362567,2.1549141806095835
1782831985256909000,1.351908935546875,-7.208054479023814,0.6070747900173068,3.3067811997324226
1782831985266838300,1.36183837890625,-9.615656888023018,0.738741852800548,1.5936340503007174
1782831985276767200,1.371767333984375,-12.689430126869677,0.5371276858270168,0.19108415126129985
1782831985286696200,1.3816962890625,-15.024627809393404,-0.1477162803083658,-0.19191212651804088
1782831985296625200,1.391625244140625,-16.361408328318596,-0.8720474765710532,1.0843253686390817
1782831985306553000,1.401552978515625,-16.57953319284916,-0.6634697541952133,3.972604239055514
1782831985316482300,1.411482421875,-16.613395714962483,0.008931859800592065,6.117878484660387
1782831985326411300,1.421411376953125,-17.82522182048559,0.22959734872467816,7.284580669343471
1782831985336340200,1.43134033203125,-19.149349778586625,-0.5858239852610975,7.00212741728723
1782831985346269200,1.441269287109375,-18.433856407165525,-1.6573758701100945,5.914465451571345
1782831985356198400,1.451198486328125,-15.41914267553091,-1.9045820138268172,4.87108774100095
1782831985366127400,1.46112744140625,-11.932889290267228,-1.3252929102271795,4.008648196861148
1782831985376056300,1.471056396484375,-9.064237057471274,-0.8594980107951908,3.4174721099823713
1782831985385985000,1.480985107421875,-5.963220422390103,-1.0515091407082975,2.4905992566376924
1782831985395914200,1.490914306640625,-3.0001877781540154,-1.366795717960596,1.5225981279604135
1782831985405843200,1.50084326171875,-1.465560628095269,-1.4829453320078552,0.7388299694754182
1782831985415772200,1.510772216796875,-1.3354519006699324,-1.7846337381489574,0.04714373622983694
1782831985425701000,1.520701171875,-1.5653893680691717,-2.361434824325144,-0.3430272554844618
1782831985435630300,1.53063037109375,-1.2291723771214484,-2.738630306871235,-0.15617606561779976
1782831985445559300,1.540559326171875,0.30777649388313294,-2.5184143152803182,0.42884120637029405
1782831985455487200,1.5504873046875,1.9950041891604662,-1.7295476646125316,1.0060350912563503
1782831985465416200,1.560416259765625,3.3470810614168642,-1.0083690871618687,1.0963700266979635
1782831985475345200,1.57034521484375,4.606405415695906,0.01701400743667036,0.9207149152368307
1782831985485274400,1.5802744140625,5.536932115373015,1.0222423488873988,0.7500309432517737
1782831985495203300,1.590203369140625,6.367898955145478,1.2809361743673682,0.3278490486402064
1782831985505132300,1.60013232421875,6.811513660016655,0.6023027533099055,-0.3769217071060091
1782831985515061200,1.610061279296875,6.975016707521677,-0.3547742092384025,-0.7399351542383432
1782831985524990200,1.619990234375,7.121193941694497,-0.9699128805827348,-0.8815385776896029
1782831985534919200,1.629919189453125,7.388866973248124,-0.8444014178197831,-0.8755483242988585
1782831985544848100,1.63984814453125,7.893933633425831,-0.5534462948780506,-1.1485805447980761
1782831985554777000,1.649777099609375,8.459149349617958,-0.3536554708741605,-1.2273105287723243
1782831985564706300,1.659706298828125,8.746455302402376,-0.38298626784197987,-1.187650572426617
1782831985574635300,1.66963525390625,8.763976930567623,-0.36233255219608546,-1.3781981325931847
1782831985584564200,1.679564208984375,8.538502872318029,-0.32112368590794504,-1.6410861218273638
1782831985594493200,1.6894931640625,7.956896577817201,-0.36689708363264795,-1.8240087400734424
1782831985604422100,1.699422119140625,5.975950140103698,-0.7898423638321459,-1.1732143430560826
1782831985614350300,1.709350341796875,4.205084376674891,-1.6106545970760284,0.9018626229897141
1782831985624279300,1.719279296875,6.274321092259884,-2.0106231985747813,0.7905477356225251
1782831985634208300,1.729208251953125,7.909836720478534,-1.7792418159775434,-1.581116806294024
1782831985644137200,1.73913720703125,8.537116970917582,-1.1336733369149268,-2.6835560699030756
1782831985654066400,1.74906640625,8.891376399034261,-0.47360601157434284,-2.8306770146667954
1782831985663995400,1.758995361328125,7.609579516184329,0.08472747082337737,-2.351401798349619
1782831985673924000,1.768924072265625,5.445271484285593,-0.004714315170794725,-1.98330322997272
1782831985683853000,1.77885302734375,4.210467238757014,-0.18085209558233617,-1.2507263295426965
1782831985693782000,1.788781982421875,4.184638970017433,-0.014793956767022609,-0.8731810106456279
1782831985703711200,1.798711181640625,4.547961410033703,0.22368775935471055,-1.496072378475964
1782831985713640200,1.80864013671875,5.182034973874688,0.6680002372317015,-1.9127663431957362
1782831985723569200,1.818569091796875,5.335144637659192,1.4012524065747856,-2.003575910411775
1782831985733498000,1.828498046875,4.988597975876927,2.1044782709665597,-2.492455405898392
1782831985743427300,1.83842724609375,4.499651260372996,2.147004430398345,-3.0251611836299297
1782831985753356300,1.848356201171875,2.589806649842858,1.3918172003619371,-2.783471319116652
1782831985763285200,1.85828515625,-2.2518699954956767,0.829955616903305,-1.4187822180464862
1782831985773213200,1.868213134765625,-7.900712333780526,0.8467432317055761,0.11510025112479924
1782831985783142100,1.87814208984375,-9.851303965240715,1.478762931756675,1.3744064852252602
1782831985793071400,1.8880712890625,-7.997435508954524,2.1660839555300773,2.123999110125005
1782831985803000300,1.898000244140625,-8.501485685566067,1.5658957101561128,1.9246686701744793
1782831985812929300,1.90792919921875,-11.01366198323965,-0.47306730158776045,1.438493757471442
1782831985822858000,1.91785791015625,-12.717933752298354,-1.7658812530145047,2.5221032329261304
1782831985832787200,1.927787109375,-14.195817855393885,-2.1035176092408596,4.06164738112092
1782831985842716200,1.937716064453125,-15.152757345700262,-2.695051569646597,4.636351348887383
1782831985852645000,1.94764501953125,-15.61618032836914,-3.073669193950295,4.000040819774568
1782831985862574000,1.957573974609375,-16.470510508072376,-3.184128049010038,3.208688489770889
1782831985872503300,1.96750341796875,-17.717695511746406,-3.3339889401316642,2.3716378000400957
1782831985882432500,1.9774326171875,-17.275984010148047,-3.698464057314396,1.1341532293863594
1782831985892361500,1.987361572265625,-14.699909533059596,-3.790889243033528,0.22417831935063004
1782831985902290700,1.997290771484375,-11.314527090299128,-2.9044603360190986,0.593199555530399
1782831985912219600,2.0072197265625,-7.868138097912072,-1.975684133271128,1.2655072806976735
1782831985922147600,2.017147705078125,-5.016695943114161,-1.3483774332165717,1.6126022240124642
1782831985932076500,2.02707666015625,-2.2102748333036897,-0.33392420383542776,1.7668896994046865
1782831985942005500,2.037005615234375,-0.47858781857490534,0.5990320610761642,1.1706392318710683
1782831985951934500,2.0469345703125,1.0846206983238458,0.6221731365583837,0.5597426916085183
1782831985961863400,2.056863525390625,2.2389070535480973,0.1957994893454015,0.14374372341558336
1782831985971792400,2.06679248046875,2.997285042449832,-0.11453574910983443,0.3647096565909683
1782831985981721300,2.076721435546875,3.6047055771648884,-0.3700607352953404,0.451691336081922
1782831985991650600,2.086650634765625,4.340545571044087,-0.3301009922854602,0.34447855027131735
1782831986001579500,2.09657958984375,5.4283250256598,0.016093348927795886,0.336312523744069
1782831986011508500,2.106508544921875,5.931233046498894,0.4608002329498529,0.4099938094940036
1782831986021437400,2.1164375,5.993109364697337,0.7435372703835368,0.30180622383449224
1782831986031366700,2.12636669921875,6.409155679163336,0.6881136354558169,0.00037442280296236274
1782831986041295600,2.136295654296875,6.717094085609912,0.5964689325898885,0.07505237774031702
1782831986051224600,2.146224609375,6.582982552284002,0.7197435762114822,0.4453417478594929
1782831986061153500,2.156153564453125,6.771617118436097,0.8135660615079104,0.6606925445668399
1782831986071082500,2.16608251953125,7.842602674639225,0.8882550995282829,0.6473604770459235
1782831986081010700,2.1760107421875,8.713066827541589,0.9155800365664064,0.7284308136012405
1782831986090939600,2.185939697265625,8.281701947912573,0.9177170485951006,0.6560385082159191
1782831986100868400,2.195868408203125,7.461100434809922,1.151601938445866,0.9418074606914073
1782831986110797300,2.20579736328125,7.287582189247011,1.5924404566019772,1.2374696653455495
1782831986120726500,2.2157265625,7.254383684000373,1.7837372277006507,0.8083481807291507
1782831986130655500,2.225655517578125,7.514189635440707,1.8420408019788561,0.5400150778315961
1782831986140584400,2.23558447265625,6.9487757663279766,2.044786018808931,1.085597069075331
1782831986150513400,2.245513427734375,6.057543550685048,1.9585446362912653,0.9659734222419559
1782831986160442600,2.255442626953125,6.0223565019696945,1.6398285229817031,0.4039347286507487
1782831986170371600,2.26537158203125,6.400238797736168,1.3694807192608713,-0.059502282543480396
1782831986180300500,2.275300537109375,6.939007236507535,1.0943678930953145,-0.5980920037470757
1782831986190229500,2.2852294921875,7.273502810490131,0.7959946028515696,-0.8572378838434815
1782831986200158700,2.29515869140625,6.592698475134372,0.5609830470584333,-1.223443697276339
1782831986210087400,2.30508740234375,4.998137957638502,0.6451945311836897,-0.9718133073765783
1782831986220016400,2.315016357421875,4.075657201772928,0.9311420550964772,-0.4570926836688071
1782831986229945300,2.3249453125,4.994800337648392,1.0320131437301636,-0.1774045124117285
1782831986239874600,2.33487451171875,6.192488027703762,0.8558237792618573,-0.2906842701110989
1782831986249802500,2.344802490234375,6.952579250264168,0.7812522301413118,-0.4194523965824395
1782831986259731500,2.3547314453125,6.1594789075493805,1.2076894441097974,-0.4381480369631201
1782831986269660400,2.364660400390625,3.243212106141448,1.5881474355831742,-0.3762463651277125
1782831986279589400,2.37458935546875,0.34727906771004197,1.6690207151964307,-0.4333558342505246
1782831986289518600,2.3845185546875,-2.310975679937005,1.4795865230992435,-0.6052171794518828
1782831986299447600,2.394447509765625,-4.501184461289644,1.480462429150939,-0.4403469352468848
1782831986309376500,2.40437646484375,-5.818272437751292,0.7628706241458654,-0.9688594990722834
1782831986319305500,2.414305419921875,-8.570829855427146,-0.9323764191970229,-0.5209652171857655
1782831986329234700,2.424234619140625,-11.157879900038242,-2.0689903396084905,1.070180815691501
1782831986339163600,2.43416357421875,-12.466806781876086,-2.9720152843758463,2.306897616843134
1782831986349092600,2.444092529296875,-15.38361543507576,-3.5336017041549086,2.9945109015613793
1782831986359021300,2.454021240234375,-17.37969689807892,-4.498042656132578,2.0853779953077436
1782831986368950500,2.463950439453125,-17.37959636031389,-4.968894912019372,1.3586075891993938
1782831986378879500,2.47387939453125,-17.34429474530816,-5.306375054770708,1.1767992158055305
1782831986388808400,2.483808349609375,-17.059126389074326,-5.689778159785271,1.740444760071486
1782831986398737400,2.4937373046875,-16.313237879389522,-5.94653466052711,2.5328917534440754
1782831986408666600,2.50366650390625,-16.002942096161842,-5.57468813779354,3.9007191525399683
1782831986418594600,2.513594482421875,-15.692662679547071,-4.861356912842393,3.6571857059866186
1782831986428523500,2.5235234375,-13.753853840339183,-3.582609480690956,0.8681181742981076
1782831986438452500,2.533452392578125,-10.677232226324081,-1.8123140644960105,-1.265980889558792
1782831986448381400,2.54338134765625,-5.38268789460063,-0.32072891443669793,-2.5029402672946452
1782831986458310700,2.553310546875,-1.0446090059310198,1.1335099630467593,-0.43870011788792906
1782831986468239600,2.563239501953125,1.4527549225360155,1.672667108874768,1.720656502148509
1782831986478168600,2.57316845703125,1.7316145340144633,0.9753712190538644,1.4954136223062873
1782831986488097500,2.58309765625,0.2147153483480215,-0.10055537374801933,1.442697638902068
1782831986498026500,2.593026611328125,-0.40536476145386696,-0.2666364550475031,0.7202408582091331
1782831986507955500,2.60295556640625,0.3452846790224314,0.46364721987880764,0.06630275633856654
1782831986517884400,2.612884521484375,2.131873496761918,0.18379611314497887,-0.02506882867440581
1782831986527813400,2.6228134765625,3.8446769473224878,-0.4699879672076553,-0.16949165692795068
1782831986537742600,2.63274267578125,5.105867095473409,-0.7971032216805964,-0.651728170736134
1782831986547671600,2.642671630859375,6.8923121208280325,-1.6934927470214665,-0.4614845984848216
1782831986557600500,2.6526005859375,8.013015355402231,-1.4843144284039735,-0.3843299375358969
1782831986567529500,2.662529541015625,9.676573421278595,0.27920838838350026,1.143491112704575
1782831986577457400,2.67245751953125,10.011150828325748,1.1849654980611055,3.3757679344579574
1782831986587386600,2.68238671875,9.439232399624586,-0.03725936147738248,3.4616426756203174
1782831986597315600,2.692315673828125,8.56099293654561,-1.324334440458566,1.6385928437069057
1782831986607244500,2.70224462890625,9.65151964404285,-0.2552850399497896,0.2063179607503116
1782831986617173500,2.712173583984375,10.617232223391532,0.14527210202664137,-0.05985949848331511
1782831986627102700,2.722102783203125,9.474545705068111,0.07126585863865911,-0.08278057453930378
1782831986637031700,2.73203173828125,9.397678738486766,0.5690436039172113,-0.44264637129567563
1782831986646960400,2.74196044921875,9.66744377388358,1.0328598967526108,0.1650247771795839
1782831986656889300,2.751889404296875,9.608426936769485,1.375099874316901,0.5567736857350916
1782831986666818300,2.761818359375,9.810185188388823,1.5350579426914452,1.160452622769028
1782831986676747500,2.77174755859375,9.12213687325418,1.474818870306015,-0.4243122577037662
1782831986686676500,2.781676513671875,9.761654089453815,1.3489835824161767,0.14024616362340747
1782831986696605400,2.79160546875,10.599958432507515,1.1118753466047346,1.4061270268738268
1782831986706534400,2.801534423828125,9.55959188645184,0.7521592605173587,0.2406866057548672
1782831986716463600,2.811463623046875,9.685885439503192,1.057642967288196,0.268162714766711
1782831986726392600,2.821392578125,8.79704625647664,1.3057068968780339,0.055542000610381365
1782831986736321500,2.831321533203125,8.20962455369532,1.9675683390937744,0.05956628769040107
1782831986746250500,2.84125048828125,7.634740845447778,2.272436544314772,-0.7062197855107486
1782831986756179500,2.851179443359375,6.558239740693569,1.7788034245602786,-0.9224822902355343
1782831986766107600,2.861107666015625,6.433842376652359,1.1743053531631826,-0.336051205926761
1782831986776036600,2.87103662109375,3.640368426698446,0.7429236685298383,-0.7832334670864045
1782831986785965600,2.880965576171875,2.453387424096465,0.22953502407819032,-0.31086583820059893
1782831986795894300,2.890894287109375,1.0088362662822008,-0.12062515202611684,-0.45021768333278595
1782831986805823500,2.900823486328125,-1.8755811064004897,0.030760464444756507,-0.18398776325955987
1782831986815752400,2.91075244140625,-4.208825316768884,0.22981398715004323,0.03649024026840925
1782831986825681400,2.920681396484375,-6.692887280592322,0.18994652553349733,-0.18276669703200457
1782831986835610400,2.9306103515625,-8.109561420443654,-0.3208604318618774,0.0981511621505022
1782831986845539600,2.94053955078125,-9.814608850049972,-1.7242406442455946,1.3794324966937304
1782831986855468500,2.950468505859375,-12.365981432080268,-3.6070299284592267,2.2537312593229113
1782831986865397500,2.9603974609375,-13.966444451618194,-4.2510196138978005,3.0677398039013144
1782831986875326500,2.970326416015625,-15.366318263316154,-4.221856647777557,3.3437416878610846
1782831986885255000,2.9802548828125,-17.887336623615024,-4.122958466652036,3.320777576380968
1782831986895184100,2.99018408203125,-19.327899004054068,-3.968500310868025,3.786547414436936
1782831986905113000,3.000113037109375,-20.10916628563404,-3.3915015101626516,3.4920080032676455
1782831986915042000,3.0100419921875,-20.830377450180052,-3.0957094685837623,3.095950876124203
1782831986924970800,3.019970703125,-21.215378638041017,-3.238373433938622,3.092250560301542
1782831986934900000,3.02989990234375,-20.600730490159986,-2.6413252401560543,2.3111783629022535
1782831986944829000,3.039828857421875,-17.69974601355791,-1.2250247559227048,1.0593341352455317
1782831986954756900,3.0497568359375,-14.43078162652254,-0.16440861804261803,0.2204327030815184
1782831986964685800,3.059685791015625,-10.879532914257048,0.4067620610311627,-0.06422068936750293
1782831986974614800,3.06961474609375,-7.793029373174905,0.22971958686485885,0.15480360822081565
1782831986984544000,3.0795439453125,-4.668381102615594,-0.48394401184581215,0.9781282626770437
1782831986994473000,3.089472900390625,-2.3827906238257883,-0.789658385567367,0.7998445562779903
1782831987004402000,3.09940185546875,-0.23228490730822085,-0.568509789301455,0.9603525136202573
1782831987014331000,3.109330810546875,2.0391852761924265,-0.47370822983980176,1.2444437421418726
1782831987024260000,3.119260009765625,3.8708968457281587,-0.2114546660516411,0.634604748108238
1782831987034189000,3.12918896484375,5.588360689315199,0.03346519335880875,0.5922714809000492
1782831987044118000,3.139117919921875,7.261859718969464,0.14615524153672158,0.16318711342364547
1782831987054047000,3.149046875,8.148336264517903,0.5176783775348216,-0.45952655975222584
1782831987063976000,3.158975830078125,9.344970061606169,0.7191701602376998,-0.4653973514817655
1782831987073905000,3.16890478515625,10.052913748300075,0.9388492684729397,-0.7476236629143357
1782831987083833900,3.178833740234375,10.7755581605196,0.9723878923941403,-1.1098032165057956
1782831987093762800,3.1887626953125,10.85006365866661,0.916881255358085,-1.4349517009504138
1782831987103692000,3.198692138671875,10.99185931675434,0.8777645390436053,-1.3609765102878213
1782831987113621000,3.20862109375,10.976561209857463,0.9560914221096783,-1.4519761932484805
1782831987123550000,3.218550048828125,10.929710611355304,1.1704855026140808,-1.0644373036034405
1782831987133479000,3.22847900390625,10.7748497199893,1.1049351720780134,-1.1497409668795764
1782831987143408000,3.238408203125,10.11631216149926,1.1800771414976565,-1.3773426848076282
1782831987153336000,3.248336181640625,9.856920051556825,1.364485833583027,-1.4307159630768
1782831987163265000,3.25826513671875,9.34235783328116,1.6876920979186891,-1.582789415681362
1782831987173194000,3.268194091796875,9.043923168238997,2.090277457787096,-1.282707421823591
1782831987183123000,3.278123046875,8.94158390674889,2.1924361020132896,-1.2286099209330976
1782831987193052200,3.28805224609375,9.015731092977523,2.1622391166701913,-1.0970718913570046
1782831987202981000,3.297981201171875,9.470343577203154,1.9755285043179989,-0.8567235045805573
1782831987212909800,3.307909912109375,9.654201430472732,1.7637541778579353,-1.0449956671610474
1782831987222838800,3.3178388671875,9.75136942680478,1.7667396234095096,-1.448527660229802
1782831987232768000,3.32776806640625,9.482572944179177,1.9170295535981654,-1.3227192603468894
1782831987242697000,3.337697021484375,9.302078429862856,1.8468731905713676,-1.3682827416479586
1782831987252626000,3.3476259765625,9.212748287549614,1.60737864414528,-1.2386945309653878
1782831987262555000,3.357554931640625,9.021512598988414,1.0131828441191464,-1.35056296056211
1782831987272484000,3.367484130859375,8.71619811130464,0.5495838472962379,-1.420692435581982
1782831987282413000,3.3774130859375,7.997419142341613,0.09277443754822015,-1.338342945936322
1782831987292342000,3.387342041015625,7.11391605964601,-0.3334539559751749,-1.275535484367609
1782831987302271000,3.39727099609375,5.863802016782761,-0.6567610503368079,-1.0423821236617863
1782831987312200200,3.4072001953125,4.2204117096662515,-1.0517330125920474,-0.9157811120964586
1782831987322129000,3.41712890625,1.5879998438060283,-1.3584624816402793,-0.8768376334570348
1782831987332057900,3.427057861328125,-1.4638894800126552,-1.4059297507360577,-0.4393525173820555
1782831987341986800,3.43698681640625,-4.087378034704924,-1.4589846107058226,-0.1618587874293327
1782831987351915000,3.4469150390625,-6.866659793177247,-1.3589447121992706,-0.41119565956443543
1782831987361844000,3.456843994140625,-9.684503045234084,-1.2526353780344128,0.5055047593340277
1782831987371773000,3.46677294921875,-12.963372155690193,-2.0696403279498217,2.0605439983025193
1782831987381702000,3.476701904296875,-16.369902600419522,-4.047468633642793,4.445720932742953
1782831987391630800,3.486630859375,-20.593068577229975,-5.83010199175477,6.188323893761634
1782831987401560000,3.49656005859375,-24.204974295032024,-5.134333896023035,6.332791985929012
1782831987411489000,3.506489013671875,-26.647492534589766,-3.579119592748582,5.356096240273118
1782831987421418000,3.51641796875,-28.26123822954893,-2.5835259621381756,4.20003907598406
1782831987431347000,3.526346923828125,-28.377850346541404,-2.6443273445814848,3.8052141209840773
1782831987441276200,3.536276123046875,-26.93503054256439,-3.121681821969151,3.0756025001004335
1782831987451205000,3.546205078125,-24.74404142448902,-3.59809989528954,2.558634097465873
1782831987461134000,3.556134033203125,-21.287950537776947,-4.1667692590668794,2.1391788513392207
1782831987471062800,3.566062744140625,-16.90141419993043,-3.7851536219909785,1.5923782050207256
1782831987480991700,3.57599169921875,-12.138767252165078,-3.010205898821354,1.2118008249513805
1782831987490921000,3.5859208984375,-7.1512716845721,-2.2990761294372377,0.9684780985392629
1782831987500850000,3.595849853515625,-2.698404387205839,-1.8827235255010424,0.8900107110239565
1782831987510779000,3.60577880859375,1.0475070654600858,-1.7064409297913312,0.7429157774843275
1782831987520707800,3.615707763671875,4.255045800673962,-1.676158165860921,0.47222909719794987
1782831987530637000,3.625636962890625,6.225934370231628,-1.0689120378647,-0.09520750991404056
1782831987540566000,3.63556591796875,7.776947422423959,-1.363720548298955,-0.4377727008447051
1782831987550494000,3.645493896484375,9.052769322517515,-1.1871561399731785,-1.1810703172534704
1782831987560423000,3.6554228515625,9.412571187192201,0.10996369195394218,-2.0266705164037644
1782831987570351900,3.665351806640625,10.18050552446842,1.0325308839939533,-2.173271821207553
1782831987580281000,3.675281005859375,11.038139421892165,1.5071535983301698,-2.0995093965128064
1782831987590210000,3.6852099609375,11.337868218398093,1.2859208309121428,-2.113551365868747
1782831987600139000,3.695138916015625,11.623030729413031,0.8928488570593297,-1.2268426189996302
1782831987610068000,3.70506787109375,11.8130213863492,0.8391403554864227,-1.0059292927943169
1782831987619997000,3.714996826171875,11.76000174382329,0.7813171851363032,-0.9188862385049462
1782831987629926000,3.72492578125,11.576876881003379,0.926335385467112,-1.220362024808675
1782831987639854800,3.734854736328125,11.143713427519797,1.327119833393395,-1.9073280976645648
1782831987649783800,3.74478369140625,10.321899031496047,1.4714911871880292,-1.944514941895008
1782831987659713000,3.754713134765625,9.44237654286921,1.4508976042315362,-1.8820126007527112
1782831987669642000,3.76464208984375,8.686654036912321,1.2668420364327728,-1.6368234959468244
1782831987679571000,3.774571044921875,7.827161944401264,1.1133046487554907,-1.4100358708806335
1782831987689500000,3.7845,7.16764764983356,1.0426569950804114,-1.2416273695468902
1782831987699429000,3.79442919921875,6.538833613955974,0.9848079596366732,-1.2247573371581733
1782831987709358000,3.804358154296875,6.017599078309535,1.0107296057481319,-1.4637019946165382
1782831987719287000,3.814287109375,5.953182427978516,1.0892766343709082,-1.6150601385585963
1782831987729215700,3.8242158203125,5.947118597894907,1.111756250269711,-1.6922328100882469
1782831987739145000,3.83414501953125,6.231147136443853,1.1098480785608291,-1.5215465730808675
1782831987749074000,3.844073974609375,6.6804077382475135,0.7356225517362356,-1.2086477677479386
1782831987759003000,3.8540029296875,7.406797766736149,0.28577298932978884,-1.03040176301077
1782831987768930800,3.863930908203125,8.010991740620137,0.05149464318202808,-0.9708443892791867
1782831987778859800,3.87385986328125,8.210680200228095,-0.10709518731292336,-1.283193305644393
1782831987788789000,3.8837890625,8.08250682477951,-0.07113112634308635,-1.6915489194773137
1782831987798718000,3.893718017578125,8.12622204786539,-0.03263794875442982,-1.7161986459568142
1782831987808647000,3.90364697265625,7.66595840601027,-0.3718025739939883,-1.7617687031291425
1782831987818576000,3.913575927734375,6.844972862026095,-0.5862339177688584,-1.7345022182799874
1782831987828505000,3.923505126953125,6.002291619062423,-0.7556421341970563,-1.5436030681967734
1782831987838434000,3.93343408203125,4.538084159141778,-0.7525497211396693,-1.2641845076613127
1782831987848363000,3.943363037109375,2.858386859369278,-0.856705384401977,-0.7227616088584065
1782831987858292000,3.9532919921875,0.3732745097100735,-0.7242038435559719,-0.4317445265963673
1782831987868221000,3.963220947265625,-2.3412083211153742,-0.2199729035500437,-0.6724148388035595
1782831987878150000,3.97314990234375,-5.420614012891054,0.4641868431808427,-1.1555784408614038
1782831987888078600,3.98307861328125,-9.181749922695756,0.7605508028961717,-0.973313482806459
1782831987898007600,3.993007568359375,-12.815429665410518,0.25051424535140393,-0.725901368188858
1782831987907936800,4.002936767578125,-16.23265919880867,-1.2054094434138387,0.006631181642785668
1782831987917865700,4.01286572265625,-18.655295510810614,-2.2346124250940975,0.42274296256043015
1782831987927794700,4.022794677734375,-21.044478466022014,-3.0410926199942825,0.23890235268659887
1782831987937723600,4.0327236328125,-23.40009934337139,-3.899629019215703,0.6741011844553053
1782831987947652900,4.04265283203125,-24.889351228177546,-4.122496986620128,0.8239156060867011
1782831987957581800,4.052581787109375,-25.783536448407173,-3.9948499731332063,0.4099989240605384
1782831987967510800,4.0625107421875,-26.448539988040924,-4.033501483088732,-0.17214372407300396
1782831987977438700,4.072438720703125,-26.814081273150443,-4.238085898044705,-0.8166653426975011
1782831987987367700,4.08236767578125,-25.42329093161821,-3.850953251112997,-1.337212042210251
1782831987997297000,4.092296875,-21.50105319023132,-2.4078762575045225,-1.771162700548768
1782831988007225900,4.102225830078125,-16.401549784570932,-1.4181769456297157,-1.2808249690778553
1782831988017154800,4.11215478515625,-10.302633190011978,-0.9811572551093996,0.08076777341216802
1782831988027083500,4.12208349609375,-4.547586146980524,-0.8449886431232094,1.1635254543431102
1782831988037012700,4.1320126953125,0.2622358089357614,-0.8896005958531051,1.752756690764427
1782831988046941700,4.141941650390625,3.878145501682162,-0.8698081732116639,2.332919216197729
1782831988056870700,4.15187060546875,6.450386099696159,-0.5194129462424666,2.2462058322541414
1782831988066799600,4.161799560546875,7.92314160773158,0.27635003981031475,1.8970050027012824
1782831988076728800,4.171728759765625,8.79357536549568,1.121969089791551,1.4991902182355523
1782831988086657800,4.18165771484375,9.65800549893081,1.8315061100915073,0.2873838037936017
1782831988096586800,4.191586669921875,9.96511856046915,2.4928610640898343,-0.1332403765145689
1782831988106515700,4.201515625,10.713398933726548,2.5413971314609047,-0.10124591329544783
1782831988116445000,4.21144482421875,11.06715041232109,2.2437261442676184,0.18876341669615357
1782831988126374000,4.221373779296875,11.207945368933677,2.083253842760622,0.3429604738585651
1782831988136302600,4.231302490234375,11.175829398226737,2.114086057267338,0.5833405709475279
1782831988146231600,4.2412314453125,10.965102242732048,2.3150270011544225,0.95529559555687
1782831988156160800,4.251160888671875,10.901550684797764,2.625038706743717,0.9269058788314462
1782831988166089700,4.26108984375,11.049260535365342,2.74057062728405,1.0029800875999033
1782831988176018700,4.271018798828125,11.22608425221443,2.514716045284271,1.0876321550995112
1782831988185947600,4.28094775390625,10.8936479488492,2.228083461716771,0.7903077893868088
1782831988195876900,4.290876953125,10.552041666078567,2.167134487496316,0.7838238341949879
1782831988205805800,4.300805908203125,10.121745876985788,1.943832220327854,0.5775172716215252
1782831988215733800,4.310733642578125,9.552513326367736,1.920417442470789,0.32555392344035206
1782831988225662700,4.320662841796875,9.269823342946172,1.9204723875284193,-0.02683843216281384
1782831988235591700,4.330591796875,8.845652758735417,1.9889460581652818,-0.35005569281652565
1782831988245521000,4.34052099609375,8.738796896603702,1.8393227751918135,-0.5085406564312055
1782831988255449900,4.350449951171875,8.823858860078454,1.5329729531109333,-0.569623997621052
1782831988265378800,4.36037890625,8.990089871242642,1.1929161648046225,-0.540527995789796
1782831988275307800,4.370307861328125,9.239823341479896,0.9721457542013376,-0.4756648072676733
1782831988285236700,4.38023681640625,9.453325806906818,0.9426215535532683,-0.5442226125240326
1782831988295165700,4.390165771484375,9.624334699997306,0.9769622145723551,-0.2760054641563445
1782831988305094700,4.4000947265625,9.816799638092517,1.1226460392050444,-0.5281344512280076
1782831988315023600,4.410023681640625,9.890250658750533,0.9455242161922156,-0.7137837910242378
1782831988324952800,4.419952880859375,9.833631530427931,0.6074553137674927,-0.17578918616957961
1782831988334881800,4.4298818359375,9.636633040556312,-0.00016308160722255705,0.07831015112698078
1782831988344810800,4.439810791015625,8.981482201895117,-0.4858594170130789,-0.604612491557002
1782831988354739700,4.44973974609375,7.668108862042427,-1.104476541590318,-0.25679814792647954
1782831988364669000,4.4596689453125,5.769487071794271,-1.8132623051315544,-0.5291937510225921
1782831988374598000,4.469597900390625,2.9566473271131515,-1.9281024440154433,-0.3549711565826088
1782831988384526800,4.47952685546875,-1.2780045048296451,-1.534181744378805,-0.5586429867383093
1782831988394455600,4.48945556640625,-5.8672278995782134,-0.5782596144214273,-0.484464163262397
1782831988404384800,4.499384765625,-11.976180150461197,0.1396698250401765,-0.45911483714617785
1782831988414313700,4.509313720703125,-17.49746753745675,-0.42806883375830945,0.7990121971070766
1782831988424242700,4.51924267578125,-23.226865759968756,-1.8268926249466835,2.2872651340037584
1782831988434170600,4.529170654296875,-27.10000600070953,-1.8443432337023318,2.7743054313644766
1782831988444099600,4.539099609375,-28.66735702424049,-0.2151868200509809,2.7935879317224024
1782831988454028800,4.54902880859375,-28.84509142619371,1.060485131911561,3.4161198185905812
1782831988463957800,4.558957763671875,-27.967513641893863,0.081138424222311,4.183606119838356
1782831988473886700,4.56888671875,-26.300525017046926,-1.2739140206456183,4.476714036899804
1782831988483815700,4.578815673828125,-23.730606724500653,-1.590222342161089,3.5117154510393735
1782831988493745000,4.588744873046875,-20.889652645969388,-1.7014485283315182,2.00758602283597
1782831988503673900,4.598673828125,-18.111319566524028,-2.1372420380577446,0.8901624675195664
1782831988513602800,4.608602783203125,-15.482890632820128,-2.6407541622698307,-0.15276676863096653
1782831988523531800,4.61853173828125,-12.480236756813525,-2.5082211303070188,-0.8840934498041868
1782831988533460700,4.628460693359375,-8.520468618455528,-1.5365215855032204,-1.5191734142087399
1782831988543389700,4.6383896484375,-4.62833024725616,-0.5300007565565407,-1.913247989232838
1782831988553318700,4.648318603515625,-1.1703075156986713,-0.3208684690378606,-1.4621930513583123
1782831988563247600,4.65824755859375,1.7090742009043693,-0.4556688614107668,-0.9344537369277328
1782831988573176800,4.6681767578125,3.474821306145191,-0.4742795999869704,-0.7564693788014352
1782831988583105800,4.678105712890625,4.437679080584645,-0.28412014408884567,0.004875058690458536
1782831988593034800,4.68803466796875,4.800587094581127,0.3341372620642185,0.13871771194711327
1782831988602963700,4.697963623046875,4.6581449552834036,1.547323988416046,-0.29112843368202446
1782831988612893000,4.707892822265625,5.075415258586406,2.4763898217603564,-0.2823629434242844
1782831988622822000,4.71782177734375,6.296047770899534,2.828979563099146,-0.3982423622280359
1782831988632750800,4.727750732421875,7.54766052788794,2.3812569845177234,-0.5354312571726739
1782831988642679800,4.7376796875,9.378422249352932,1.5087527040898798,-0.1869583035029471
1782831988652608500,4.7476083984375,10.41357661371827,0.7723575605459511,-0.17515154585316775
1782831988662537700,4.757537841796875,10.944615919542311,0.014853104217379585,-0.3292536547411233
1782831988672466000,4.7674658203125,11.255466998565197,-0.2623013119200244,-0.591218903107196
1782831988682394600,4.77739453125,11.046361306792496,-0.03178772513326257,-0.990181469368562
1782831988692323600,4.787323486328125,10.797685821175575,0.23274943781374022,-0.9746212044041603
1782831988702252800,4.797252685546875,10.545165350568293,0.5033158344550058,-0.6582458820670842
1782831988712181800,4.807181640625,10.14281555302143,0.49146965811029075,-0.4975288850840181
1782831988722110700,4.81711083984375,9.925062444412708,0.5618071863902733,-0.1609405035406351
1782831988732039700,4.827039794921875,9.701468208560348,0.6983024365149438,0.274697669493407
1782831988741968600,4.83696875,9.102550713774562,0.5923976645629853,0.3806172736883163
1782831988751897900,4.84689794921875,8.548606917703152,0.4393242046030238,0.436025272655487
1782831988761826800,4.856826904296875,7.975677850654721,0.6496461037650704,0.2865942973837256
1782831988771755800,4.866755859375,7.602750546947121,0.9026760582644492,0.1717879146389663
1782831988781684700,4.876684814453125,7.2462822106093165,0.9353443290919065,-0.14485270757079124
1782831988791613700,4.88661376953125,7.266244802185892,0.755953976625204,-0.1305520872786641
1782831988801542700,4.896542724609375,7.673003063824773,0.3146636230483651,-0.2074475493021309
1782831988811471600,4.9064716796875,8.201186980217695,-0.25373043091893194,-0.33519130116179585
1782831988821400600,4.916400634765625,8.62388164665699,-0.16467780863912776,-0.4060726905275136
1782831988831329800,4.926329833984375,9.076867990985512,-0.3572219311840832,-0.3549603429276496
1782831988841258800,4.9362587890625,9.462094804295896,-0.43684301877915854,-0.41558987593539054
1782831988851187700,4.946187744140625,9.414237074577807,-0.41358281042929734,-0.5482506259310991
1782831988861116700,4.95611669921875,9.250884833720326,-0.5236467113547026,-0.5466971128787845
1782831988871046000,4.9660458984375,8.963530950140953,-0.580801298260875,-0.5727390974342823
1782831988880974800,4.975974853515625,8.562228615820407,-0.7465956350408494,-0.7329503368522972
1782831988890904000,4.985904052734375,7.897547732269763,-0.8321233163312077,-1.0254514471270144
1782831988900833000,4.9958330078125,7.234616907256841,-0.804242791236937,-1.265568801626563
1782831988910762200,5.00576220703125,6.493576422125101,-0.7917264970783143,-1.5100015351071954
1782831988920690200,5.015690185546875,5.419411066842079,-0.8592997848093509,-1.6943239371486007
1782831988930619100,5.025619140625,3.6667718649774788,-1.2266785144791006,-1.3763276625461875
1782831988940548000,5.035548095703125,1.8099685242831707,-1.3526315835297107,-0.9107466250605881
1782831988950477000,5.04547705078125,-1.4472329442441463,-1.019122244105488,-0.7881085257768631
1782831988960406300,5.05540625,-5.223588050490617,-0.22415629018191247,-0.658455140903592
1782831988970335200,5.065335205078125,-9.724351071497797,1.0641470884852111,-1.0424902602113784
1782831988980264200,5.07526416015625,-15.208614257478713,1.5732339440897105,-1.119134085561335
1782831988990193200,5.085193115234375,-20.17929020769596,0.957075245515257,-0.8603999280709773
1782831989000122400,5.095122314453125,-24.541848288583754,0.4338797485267743,-0.7113066603209823
1782831989010051300,5.10505126953125,-27.110466604447364,0.23381562400683759,-0.48799957084693013
1782831989019980300,5.114980224609375,-28.268888452041146,-0.3861729350540787,-0.10615816219113766
1782831989029909200,5.1249091796875,-28.741808746373653,-1.2964882560253141,0.5389036825235933
1782831989039838200,5.134838134765625,-28.748944589602946,-2.2748953356437385,1.5408973163694142
1782831989049767200,5.14476708984375,-28.68494411885738,-2.7306591818615793,1.881775869387388
1782831989059696000,5.154696044921875,-27.654212247109413,-2.4689924049854275,2.33710410066694
1782831989069625000,5.164625,-25.731474252736568,-2.028598707987368,2.2293208945572376
1782831989079554300,5.17455419921875,-22.810800740802286,-1.4681968218177557,1.7521385588660836
1782831989089483300,5.184483154296875,-18.589818537771702,-0.678854662592709,1.4104426981158553
1782831989099412200,5.194412109375,-13.52339907106757,-0.22470933922110123,1.2737529848650098
1782831989109341200,5.204341064453125,-8.469676004329322,-0.12934526877216995,1.294674192340672
1782831989119270400,5.2142705078125,-3.7159862700015305,-0.3139494468970224,1.7691808790817856
1782831989129199400,5.224199462890625,0.48448272183239455,-0.5427561567006632,1.7328998976498842
1782831989139128300,5.23412841796875,3.6100983761191365,-0.6809481277406215,1.698451684603095
1782831989149057000,5.24405712890625,6.426258789655566,-0.6443319230049848,1.7599068547800183
1782831989158985200,5.253985107421875,8.59639041314125,-0.48169977658297863,1.7965635376565157
1782831989168914400,5.26391455078125,10.277762952649592,-0.12428959281779825,1.5153635005317627
1782831989178843100,5.273843017578125,11.394101562273502,0.16590395290059967,1.3550842373788357
1782831989188772000,5.283772216796875,12.411171988415717,0.27146666994923724,1.188146831510961
1782831989198701000,5.293701171875,13.028362806516885,0.2810037108350545,1.1979562778636812
1782831989208630300,5.30363037109375,13.424639421629905,-0.008264052674779669,1.1746734558232128
1782831989218559200,5.313559326171875,13.392724526453017,-0.29551740762228146,1.1750319869372994
1782831989228488200,5.32348828125,13.223496087038516,-0.007045424999482929,1.1087878289181738
1782831989238417200,5.333417236328125,12.668562695407866,0.1032507503118366,0.9967954076156019
1782831989248346000,5.34334619140625,11.99816284968853,-0.0370607153664343,0.8363793663404882
1782831989258275300,5.353275390625,11.15582939724922,0.3780708406085148,0.8674602218460291
1782831989268204300,5.363204345703125,10.383899268335103,0.6895080854889005,0.7444827345401048
1782831989278133200,5.37313330078125,9.812149181938171,1.0185479513488709,0.8321446513801812
1782831989288062200,5.383062255859375,9.640848027902841,1.2234938200283796,1.131542389300838
1782831989297991200,5.3929912109375,9.305844504398108,1.1695965178851038,1.1498576520618051
1782831989307920100,5.402920166015625,9.146219759631157,1.1393182839993388,1.411608088633418
1782831989317849000,5.41284912109375,9.1552968000561,0.9457402700956911,1.5710897716678678
1782831989327778000,5.422778076171875,9.161250740024446,0.6099788408957422,1.5772526782117784
1782831989337707300,5.432707275390625,9.221099936309455,0.769021767186746,1.429863730161637
1782831989347636200,5.44263623046875,9.093109516212344,0.727332716166228,0.8915746724050492
1782831989357565200,5.452565185546875,9.608972880214452,0.3593354892719537,-0.06673895579874516
1782831989367494100,5.462494140625,9.08668152899146,0.5689745207363739,-0.8335219310827553
1782831989377423400,5.47242333984375,7.977028096219897,0.7471447202909738,-0.9328596726693212
1782831989387352300,5.482352294921875,7.656258265250921,0.5264018552817404,-1.2287731486707925
1782831989397281300,5.49228125,8.051913533595204,0.2713346593337133,-0.30525398966819045
1782831989407209200,5.502209228515625,8.024964736393093,0.08640150498282163,0.07487871537357568
1782831989417138200,5.51213818359375,7.958015352714061,-0.3064545793632977,-0.3500720594294369
1782831989427067400,5.5220673828125,7.770172229200601,-0.6275980842165648,0.1035694608721882
1782831989436996000,5.53199609375,7.575888258984684,-0.6728099025357515,0.22412775820717215
1782831989446925000,5.541925048828125,6.651320759972929,-0.7674707383524626,-0.5891528008902445
1782831989456854000,5.55185400390625,6.138284143829345,-0.7551714479453862,-1.0420062760867177
1782831989466783200,5.561783203125,5.4017795485615725,-0.7032495375283062,-1.2714540602728723
1782831989476712200,5.571712158203125,3.2564117794543503,-0.8433690060321241,-1.6298272073186932
1782831989486641200,5.58164111328125,0.27601941961646076,-0.7519681218594312,-2.280702706748247
1782831989496570000,5.591570068359375,-2.2449363968402145,0.14791966652651317,-1.9502686831161378
1782831989506499300,5.601499267578125,-4.82829460119605,0.5243117146020755,-1.2667089115723966
1782831989516428300,5.61142822265625,-9.44290027448237,0.5818515379661694,-1.4610871359430253
1782831989526357200,5.621357177734375,-12.12076748509407,1.0442623113851994,-1.2410054382562636
1782831989536286200,5.6312861328125,-13.931793993997573,0.021753475315030663,-0.1331269062027335
1782831989546215200,5.641215087890625,-17.964604572212696,-0.8373125555373728,-0.5303604567144066
1782831989556144000,5.65114404296875,-19.054324054980277,-0.48993872221596535,0.21679999086866153
1782831989566073000,5.661072998046875,-19.307562318468094,0.6099855263648555,-0.33374219833202656
1782831989576002000,5.671001953125,-23.63169626841545,0.10474887991510332,-2.20909029969424
1782831989585931300,5.68093115234375,-22.340653418314457,0.034904505446925756,-1.12404604219608
1782831989595860200,5.690860107421875,-22.274001556277273,-1.1648714621245861,-0.43615353867765516
1782831989605789200,5.7007890625,-23.228170412826536,-1.6423000276617705,-0.10528881374439224
1782831989615718100,5.71071826171875,-22.544130164289474,-1.7693708486959336,-0.16953597099371254
1782831989625647400,5.7206474609375,-22.217882778692243,-1.6761336159415543,-0.7465542070519179
1782831989635576300,5.730576416015625,-21.277157925605774,-1.967198336737603,-1.345361300265789
1782831989645505300,5.74050537109375,-19.101604861593245,-1.539596170642972,-1.5934829513922333
1782831989655434200,5.750434326171875,-14.46811854674816,-0.6167571759242564,-0.997027974262461
1782831989665362200,5.760362060546875,-10.556500399053096,-0.5000973838651552,-0.8211540324188769
1782831989675291400,5.77029150390625,-5.949547870868444,-0.4525207726433873,0.14584207480116745
1782831989685220400,5.780220458984375,-1.8201093945473432,-0.7777811199646443,1.2787037391401828
1782831989695149000,5.790149169921875,1.7371797669261693,-1.2130702603653072,1.6000218516416846
1782831989705078000,5.800078125,4.133396274036169,-1.349417589919269,1.6918923260875045
1782831989715007200,5.81000732421875,5.643196441352367,-0.9204639361504465,1.3106561898484825
1782831989724936200,5.819936279296875,7.2732497125118964,-0.9954275533284992,0.7464125335589051
1782831989734865200,5.829865234375,7.536105699172616,-1.5986904569074512,0.7389810683839023
1782831989744794000,5.839794189453125,9.14617650501132,0.2668988688433543,-0.18461400539912282
1782831989754723300,5.849723388671875,9.777264331039786,0.8176040848523378,-0.30778610196169465
1782831989764652300,5.85965234375,9.927847106695175,-0.37338615339100356,0.27230160466972736
1782831989774581200,5.869581298828125,9.605605449607967,-2.143280587569624,0.5368448137650266
1782831989784510200,5.87951025390625,10.972107153058051,-0.13571136973798273,1.1483892600096761
1782831989794439400,5.889439453125,11.766579953169822,0.8274469950832426,1.2576757102891802
1782831989804368400,5.899368408203125,9.50587841644287,-1.1704802419170737,0.32154793920200314
1782831989814297000,5.909297119140625,9.845826995134352,-0.42822380512431263,0.8646144039608538
1782831989824226000,5.91922607421875,9.389804644110798,-0.2675489119836129,0.31324703424870964
1782831989834155300,5.9291552734375,9.259117824536562,-0.17385142304003237,0.163209471385926
1782831989844084200,5.939084228515625,9.171105779084563,0.29546715700607745,0.10159465366788208
1782831989854013200,5.94901318359375,9.059753190055488,0.5397763006396591,-0.06859864872340113
1782831989863942100,5.958942138671875,9.197441997346282,0.33925040382687,-0.1432781151978299
1782831989873871000,5.96887109375,9.227371271663904,0.40110323155187066,-0.020335626140050588
1782831989883800300,5.97880029296875,9.650691961047054,0.18893185033192858,0.28689908901657907
1782831989893729500,5.9887294921875,10.332427439773083,-0.18018398706242442,0.39254846143536265
1782831989903658500,5.998658447265625,9.920465764272212,0.09218986085960641,0.07771390226688235
1782831989913587500,6.00858740234375,8.97858355784416,0.09983995548766106,-0.11158723803516477
1782831989923515400,6.018515380859375,9.880109203964471,0.2685759352101013,0.2803730117160827
1782831989933444400,6.0284443359375,9.911599736249446,0.39350148784387856,0.5672201148170978
1782831989943373600,6.03837353515625,9.708947750660776,0.41383704091869294,0.6624858577243984
1782831989953302300,6.04830224609375,9.95360932446122,0.25958880155831576,-0.5776270886715501
1782831989963231200,6.058231201171875,8.702335590168833,0.3951820978745818,-1.2081355804421008
1782831989973160200,6.06816015625,8.373288344720006,0.5977369797643274,-0.992198508279398
1782831989983089400,6.07808935546875,8.086933993571996,0.601763677997142,-0.7271754067126661
1782831989993018400,6.088018310546875,7.237763973110914,-0.7598799909625202,-0.6638708823420107
1782831990002947300,6.097947265625,6.742563457909226,-1.8670019324950873,-0.818279938287288
1782831990012876300,6.107876220703125,4.228109862953424,-2.088287014622241,-1.5479387593135236
1782831990022805500,6.117805419921875,1.0560399160057306,-1.312396896035969,-1.9999384306922554
1782831990032734500,6.127734375,-1.1325649372816085,-0.3816268891222775,-1.3519200742594897
1782831990042663400,6.137663330078125,-1.992771900063753,0.4097296786651015,-0.23371830111220476
1782831990052592400,6.14759228515625,-1.5653285777926444,1.089260340823233,0.5744482394397259
1782831990062521300,6.157521240234375,-0.9644114336222409,0.5707997999347746,-0.10114332970380782
1782831990072450300,6.1674501953125,-2.801833782020211,0.16251842038184403,-1.2267404737994074
1782831990082379300,6.177379150390625,-6.029400575262308,-0.4206275047764182,-1.7198581913776694
1782831990092308200,6.18730810546875,-10.384849700927735,-2.528304425653815,-2.4710756410002706
1782831990102237400,6.197237548828125,-15.39745223724842,-3.6386014170259235,-1.3509884924978017
1782831990112166400,6.20716650390625,-18.68467007385492,-3.202751793198287,3.4956574656859036
1782831990122095400,6.217095458984375,-16.119279487866162,-2.171794149870425,7.0546063770651815
1782831990132024300,6.2270244140625,-15.877177535420655,-2.9716292076677084,5.643625480419397
1782831990141953500,6.23695361328125,-18.54986997374296,-1.7671315453365444,3.5216339107245203
1782831990151882500,6.246882568359375,-18.56330462485552,-1.4505873692385851,2.3569475959084927
1782831990161810400,6.256810546875,-19.55856537024975,-2.203537780133635,2.36444993436262
1782831990171739400,6.266739501953125,-22.223667207312584,-2.4703075792372227,3.429529043000936
1782831990181668400,6.27666845703125,-19.967029266762733,-1.7157348278373479,4.486479936371744
1782831990191597600,6.28659765625,-17.128769834142922,0.6185716049350798,1.4116644949957728
1782831990201526500,6.296526611328125,-13.886376643168925,2.841948058004677,-0.30346849449090657
1782831990211455200,6.306455322265625,-9.971263054573535,2.8490616894021628,-2.1520618599183856
1782831990221384200,6.31638427734375,-5.58412524370253,1.7440353319093584,-2.450371875667572
1782831990231313400,6.3263134765625,-1.851249798220396,0.8955006136771291,-0.9544137712210417
1782831990241242400,6.336242431640625,-2.3135633583426474,-0.2151501595687121,1.1243852840878068
1782831990251171300,6.34617138671875,-3.803328453367948,-1.1150965006083249,4.469763194848597
1782831990261100300,6.356100341796875,-1.675140951642394,-1.637076009403169,5.165950685036182
1782831990271029500,6.366029541015625,1.3761053980976343,-1.5601688569419085,2.3187515746355056
1782831990280958500,6.37595849609375,2.41206815623641,-0.49826669783927496,1.1039826205935328
1782831990290887400,6.385887451171875,3.878350668865442,-0.1779426378764212,0.8118138110131025
1782831990300816400,6.39581640625,5.35752773438096,-0.41023503437135367,0.3889396598210558
1782831990310745600,6.40574560546875,7.092398639842868,-0.6866765153247862,0.5704060513768345
1782831990320674300,6.41567431640625,8.470832773149013,-0.7677714748647063,0.6605930297151208
1782831990330603300,6.425603271484375,8.645597219380736,-0.7086344454370439,0.8384221242144704
1782831990340532200,6.4355322265625,8.526343063446879,-0.7769174158073962,0.9844261937774718
1782831990350461400,6.44546142578125,8.738945949685574,-1.0390259451016783,0.6787514214139432
1782831990360390400,6.455390380859375,9.113019500818847,-1.0418537889387458,0.3758928755149245
1782831990370319400,6.4653193359375,8.85327784678638,-0.6894204072054475,0.799345374584198
1782831990380248300,6.475248291015625,8.175933296495675,-0.507002742806822,0.7131622981250285
1782831990390177500,6.485177490234375,8.201149570816755,-0.569671490024589,0.5077278787435964
1782831990400105500,6.49510546875,8.53598066036403,-0.5310641845369711,0.3380318948825821
1782831990410034400,6.505034423828125,8.81737592779994,-0.5687706321947277,0.028574389109946786
1782831990419963400,6.51496337890625,8.51222335267961,-0.5755609133893623,-0.03995773371588438
1782831990429892400,6.524892333984375,8.01443340550661,-0.27408852461911737,0.12709741678014397
1782831990439821600,6.534821533203125,8.162319197162985,-0.3103944212965667,0.25504081939775497
1782831990449750500,6.54475048828125,8.756711323478818,-0.49527865847181524,0.23293829318303613
1782831990459679500,6.554679443359375,8.457142685970663,-0.40844862587861713,0.281502600267902
1782831990469608200,6.564608154296875,7.5418252458631985,-0.33506592121645806,0.5644077242774889
1782831990479537400,6.574537353515625,6.678406919819116,-0.5960737957924604,0.5033620116842911
1782831990489466400,6.58446630859375,6.711890087226033,-0.707628044873476,0.08409109088229015
1782831990499395300,6.594395263671875,7.457908360770344,-0.20715251187831163,-0.042696693693101403
1782831990509324300,6.60432421875,8.164507647117972,0.4823373803667724,-0.1332496192669496
1782831990519253500,6.61425341796875,8.819163980260491,0.7759895603727549,-0.6424567767828703
1782831990529182500,6.624182373046875,9.094517044922709,0.8854963754046707,-1.020946902249381
1782831990539111400,6.634111328125,8.747273048526049,0.8261478951834141,-1.2783154704749584
1782831990549040400,6.644040283203125,7.904273241132497,0.6124773797132075,-1.0996136847943068
1782831990558969300,6.65396923828125,6.362602017781138,0.6501963580589741,-0.8132759925201535
1782831990568898600,6.663898681640625,3.83874171205461,0.521921568062529,-0.7127385197550058
1782831990578827300,6.6738271484375,0.4689145658224821,0.23855185874849558,-0.35403774819001554
1782831990588756200,6.683756103515625,-4.279784520611167,0.12598083384037018,0.09480857372432946
1782831990598685200,6.693685302734375,-8.83684401385784,0.7090734213761984,-0.27930633233264085
1782831990608614400,6.703614501953125,-9.45729354149401,1.205116378751397,-1.6064115526787937
1782831990618543400,6.71354345703125,-9.27618586371541,0.5771338252618908,-1.6436179783925413
1782831990628472300,6.723472412109375,-10.091309822189807,-0.5526515643037855,0.2812947296708822
1782831990638401300,6.7334013671875,-13.5391589502573,-0.7831130555771291,2.8694708557024597
1782831990648329200,6.7433291015625,-15.585076749575137,-1.390860630289465,4.471506239123642
1782831990658258400,6.753258544921875,-15.618600248992442,-1.6199930649161338,4.600416404414177
1782831990668187400,6.7631875,-16.455182006037234,-0.4020366399444639,4.5116018104076385
1782831990678116400,6.773116455078125,-18.45895811519623,0.33115305862165983,3.60348071154505
1782831990688045300,6.78304541015625,-20.264812774419784,0.26266609011180697,3.036331689202785
1782831990697974500,6.792974609375,-19.977707312643528,0.7032357281986623,3.1707670476555823
1782831990707903500,6.802903564453125,-17.954810323429108,1.5127522951200603,2.5728683745235204
1782831990717832400,6.81283251953125,-15.306493616950512,2.122001798827946,1.430136848014593
1782831990727761200,6.82276123046875,-11.260555846136807,2.2238173287048935,-0.06617679187133908
1782831990737690400,6.8326904296875,-8.05824390566051,1.7555027746021747,-0.6436888027958572
1782831990747619300,6.842619384765625,-4.748382860091328,0.6256465848226099,-0.4973648536287248
1782831990757548300,6.85254833984375,-1.4364812486052512,-0.51938781180121,0.19948489985987544
1782831990767477200,6.862477294921875,0.8744622826278209,-1.288171094056964,0.8679944017879664
1782831990777406500,6.872406494140625,2.039768044516444,-1.5138883134126662,0.8982060001783072
1782831990787335400,6.88233544921875,2.3469278678059577,-1.3251400577530263,0.971073229598999
1782831990797264400,6.892264404296875,3.3642613287985323,-1.248692193366587,1.9213512161895632
1782831990807193300,6.902193359375,3.9869215182214974,-1.6518999229170381,2.4752248696342107
1782831990817122600,6.91212255859375,4.339595138451457,-1.4057102627664804,2.2669870467372237
1782831990827051500,6.922051513671875,5.4753007118463515,-0.857411706040427,1.5408740816242992
1782831990836980200,6.931980224609375,6.465189116552471,-0.46678515257835385,0.8210089979249984
1782831990846909200,6.9419091796875,7.276741061758995,-0.438711552597396,-0.2406185820199549
1782831990856838400,6.95183837890625,8.109632147592306,-0.5320802662443369,-1.078415413942933
1782831990866767400,6.961767333984375,8.767368326571583,-0.6063136694516986,-1.3275456575900315
1782831990876696300,6.9716962890625,9.23511735574603,-0.6440489413451403,-1.0732258094105869
1782831990886624300,6.981624267578125,9.376739995354413,-0.6718385002203285,-0.09314275940395891
1782831990896556800,6.991556884765625,8.53445272014439,-0.8418900925859808,0.6597257453612982
1782831990906485800,7.00148583984375,7.393134567564726,-1.0318120682001113,1.0618383000861853
1782831990916414700,7.011414794921875,6.832559370654821,-1.1365442161761223,1.3807934097833932
1782831990926343700,7.02134375,7.015863097172975,-1.1041439486350864,1.10645682868734
1782831990936273000,7.03127294921875,7.687018729695677,-0.7981517078202217,0.2011190038677305
1782831990946201900,7.041201904296875,7.912650608855485,-0.3611589783720672,-0.33180312002822754
1782831990956130800,7.051130859375,8.118585853898525,-0.32516017488241195,-0.5831675524681806
1782831990966059800,7.061059814453125,8.287906063249707,-0.3927390886366367,-0.46711460372842845
1782831990975989000,7.070989013671875,7.8845573177933685,-0.3074476637875661,-0.12480996343009174
1782831990985917700,7.080917724609375,7.776873772665858,-0.2831087568229064,-0.03771620186679065
1782831990995846700,7.0908466796875,8.117952816691995,-0.3989166082277894,-0.6267354760378598
1782831991005775600,7.100775634765625,8.269934353229402,-0.3378555519349873,-1.0075913077224046
1782831991015704600,7.11070458984375,8.198420438113809,-0.48887449051793663,-0.8785140422366559
1782831991025633800,7.1206337890625,8.17092628198862,-0.4211798048969358,-0.5968110240258276
1782831991035562800,7.130562744140625,8.17618405638635,-0.09803316179402172,-0.15006459700018165
1782831991045491700,7.14049169921875,7.964121852895617,0.1783294452369213,0.3679565295577049
1782831991055420700,7.150420654296875,6.824158037534356,-0.021922201211750505,0.5379588759541512
1782831991065350000,7.160349853515625,6.01113835786283,-0.5969521860621869,0.47455929371118544
1782831991075278800,7.17027880859375,5.351344077309966,-0.7212973084595053,0.5457778791420161
1782831991085207800,7.180207763671875,4.289669954809546,-0.17301522794421761,1.0581935869082808
1782831991095136800,7.19013671875,3.1149025370925663,0.20936697305738924,0.744986738539487
1782831991105065700,7.200065673828125,1.8327111019670963,0.7722283081430942,-1.032035501692444
1782831991114994700,7.20999462890625,-1.282963588541746,1.8786450240157544,-1.5258138751365244
1782831991124923600,7.219923583984375,-6.190359198981523,2.6526339851558207,-1.4209323818176984
1782831991134851600,7.2298515625,-12.771278388994931,2.2134759674325584,-0.4811417408414185
1782831991144780500,7.239780517578125,-16.812569210785625,-0.09810184311605989,0.6733610336124897
1782831991154709800,7.249709716796875,-17.334737812411785,-1.918791448704153,2.1435136656731366
1782831991164638700,7.259638671875,-18.814258576798437,-0.2471156158890575,3.3428491229355335
1782831991174567700,7.269567626953125,-19.882750562620163,-0.04536810485944152,3.2907001257643103
1782831991184496600,7.27949658203125,-20.856521945261953,-1.292408000974357,3.772060039401054
1782831991194425900,7.28942578125,-20.807957528579234,-1.740981205035746,4.460939836923778
1782831991204354800,7.299354736328125,-20.41659440447092,-1.9852366822533307,4.426056739591062
1782831991214283800,7.30928369140625,-20.273650745391844,-2.681609904271364,3.9252997593060135
1782831991224212700,7.319212646484375,-19.82423524528742,-3.2156831709638234,4.244307841299474
1782831991234142000,7.329141845703125,-18.405011420953272,-2.922218403288722,4.752609537875652
1782831991244070700,7.339070556640625,-15.320176105344295,-2.0562515618056056,3.164564393623173
1782831991253999600,7.34899951171875,-11.594197433638572,-0.9612471243724227,1.2984113330423832
1782831991263928600,7.358928466796875,-7.6899512760162345,-0.2814775023592636,0.18140593007281422
1782831991273857800,7.36885791015625,-4.0604081947147845,-0.12243055748026817,0.08599325297549366
1782831991283786800,7.378786865234375,-1.6460492971926926,-0.28684483807869254,0.9464484914302825
1782831991293715700,7.3887158203125,0.08840367511808872,-0.6302296017639338,1.8964054293729364
1782831991303644700,7.398644775390625,1.9364087923288344,-0.6744666567668318,1.9397497733198106
1782831991313574000,7.408573974609375,3.6751316970437764,-0.2599863860411569,1.3420333248868583
1782831991323502800,7.4185029296875,5.151853186100721,-0.018619743866566566,0.5395761018924414
1782831991333431800,7.428431884765625,6.3807835711598395,-0.08207321172123774,-0.5249171696819365
1782831991343360800,7.43836083984375,7.621420176103711,-0.19733827975261956,-1.3836144585534929
1782831991353289700,7.448289794921875,8.443300623100995,-0.2539163819450885,-1.183988981179148
1782831991363218700,7.45821875,8.77656870111525,-0.389011811741814,-1.122519709411636
1782831991373147600,7.468147705078125,9.031564621925353,-0.43813393537253137,-0.8769372944392263
1782831991383075800,7.478075927734375,9.083968178379536,-0.3019876082833856,-0.4433355226036161
1782831991393004500,7.488004638671875,9.18897753586173,-0.040137437664344904,-0.25157062253654
1782831991402933800,7.497933837890625,9.399322414040565,0.21463453819677233,-0.28177856766507026
1782831991412862700,7.50786279296875,9.332558323800564,0.4867250208664685,-0.2878837526723742
1782831991422791700,7.517791748046875,8.834415909928083,0.5173275182705372,-0.057728696999698875
1782831991432720600,7.527720703125,8.661520180177687,0.06647833210118115,0.12574117986559868
1782831991442649900,7.53764990234375,8.917631368753314,-0.3166571349531412,-0.023325492138415574
1782831991452578800,7.547578857421875,9.187928903591633,-0.17677388635799288,-0.48045288179442286
1782831991462507800,7.5575078125,9.038927844169736,0.4158648204192519,-0.7787620207607746
1782831991472436700,7.567436767578125,8.567550687626003,0.9762573542386292,-0.8580141289129852
1782831991482366000,7.577365966796875,8.26274064233303,1.1189917544811963,-1.1021814894556998
1782831991492295000,7.587294921875,8.054331700652837,1.2572270897388458,-0.7637892733607441
1782831991502223600,7.5972236328125,8.07562466405034,1.104638381088525,-0.44907004766762254
1782831991512152600,7.607152587890625,8.295356379255653,0.7591849213704467,-0.20908837531171737
1782831991522081800,7.617081787109375,8.8266844388932,0.44366336631849407,-0.8228695310998707
1782831991532010800,7.6270107421875,8.748128788572549,0.7027437799632549,-0.7025629435036331
1782831991541939700,7.636939697265625,8.235999350401759,0.9887069398365914,-0.19699381369650362
1782831991551868700,7.64686865234375,7.733640195617079,1.0842648706234992,-0.22553820952698586
1782831991561798000,7.6567978515625,6.874446793791651,1.2481032875627278,-0.23763722812160848
1782831991571726800,7.666726806640625,7.246943304866552,1.4863352667070924,-0.18412337233796713
1782831991581655800,7.67665576171875,7.822042701691388,1.5736847565971315,-0.3469558271050453
1782831991591584800,7.686584716796875,7.7499653074741355,1.8623801179133355,-0.501041350184381
1782831991601514000,7.696513916015625,7.350681327238679,2.0834128327146173,-0.7249458210296928
1782831991611442700,7.706442626953125,6.5743251985758535,1.9287094699978826,-1.0021299005113542
1782831991621371600,7.71637158203125,5.367455838677286,1.8586502837352454,-1.0210514586023987
1782831991631300600,7.726300537109375,3.4549662665963172,2.0916922930210826,-1.0726982053399086
1782831991641228800,7.736228759765625,0.054125557941198346,2.2943344878681002,-1.530609584980458
1782831991651157800,7.74615771484375,-3.379768694531917,2.716308584947884,-1.4025688960008322
1782831991661086700,7.756086669921875,-5.877215625107288,2.3391516808465123,-0.7079138760775328
1782831991671015700,7.766015625,-7.862481095063686,1.3914271781310439,-0.17875819204300641
1782831991680944600,7.775944580078125,-10.381174227285385,0.5540517864905298,0.4239902592077851
1782831991690873900,7.785873779296875,-14.649725990742445,-0.5477053400732577,1.7143021646857262
1782831991700802800,7.795802734375,-17.805970007526874,-1.749313418442756,2.1158863846875726
1782831991710731800,7.805731689453125,-19.677616112565993,-1.9933299723379312,2.260796667664498
1782831991720660700,7.81566064453125,-20.09286747726202,-1.6142156505584715,2.8320927266836167
1782831991730590000,7.82558984375,-20.88525470327139,-1.7543302236914633,3.8847263413771986
1782831991740519000,7.835518798828125,-22.013117746472357,-2.489376436844468,5.101918650108575
1782831991750447900,7.84544775390625,-23.66569206151962,-2.7337361050888895,6.6686261150389905
1782831991760376600,7.85537646484375,-23.262933098649977,-2.594361244407296,7.308645435541868
1782831991770305500,7.865305419921875,-20.69807910375595,-1.548949105399847,4.9414364117294545
1782831991780234800,7.87523486328125,-17.455994540339706,-0.4799524579916149,2.0824296668961644
1782831991790163700,7.885163818359375,-13.274475748169422,0.018579338790941983,0.0639241906389594
1782831991800092700,7.8950927734375,-9.198346837231517,0.16313615042138843,-0.4636212817199528
1782831991810021600,7.905021728515625,-5.175302450749278,-0.11200432180291972,-0.26651377851590513
1782831991819950800,7.914950927734375,-2.215444344896078,-0.5788920671060681,0.4110192800842225
1782831991829879800,7.9248798828125,-0.6957441303342581,-1.4591830558873713,1.14324400607571
1782831991839808800,7.934808837890625,-0.4419692757517099,-2.5491174965798855,1.7411064388506114
1782831991849737700,7.94473779296875,-0.0976151555776596,-3.150250621588528,2.3348243191666898
1782831991859667000,7.9546669921875,1.3111983339011668,-2.871944844600558,1.8102287826545536
1782831991869595600,7.964595703125,2.5148499007970093,-2.45466518894732,1.380962482739985
1782831991879524600,7.974524658203125,3.81486983807981,-2.1778419056020675,0.504373636412248
1782831991889448400,7.984448486328125,5.547294519433379,-1.7387248044110835,-0.2777251275558025
1782831991899377700,7.994377685546875,7.228890346303582,-1.124660155506432,-0.7808116467669606
1782831991909306600,8.004306640625,8.638108909451962,-0.6762753866892307,-0.9221293851446359
1782831991919235600,8.014235595703125,9.445816454190016,-0.5244501366920769,-0.40272126120775936
1782831991929164300,8.024164306640625,9.348115373894572,-0.41664683764241633,-0.06648892656043172
1782831991939093500,8.034093505859374,8.825603657919167,-0.22519772552624343,0.20701134984195232
1782831991949022500,8.0440224609375,8.512843530404567,0.029681327438540756,0.30982495084553957
1782831991958951400,8.053951416015625,8.315246490117907,0.10409553057290613,-0.020607757612317798
1782831991968880400,8.06388037109375,7.919459119826555,0.030289778193086384,-0.6643278323292732
1782831991978809600,8.0738095703125,7.416565712034702,0.03610189853794873,-1.1327008386209607
1782831991988738600,8.083738525390626,7.431081144121289,0.04065956184230744,-1.0272587888099252
1782831991998667500,8.09366748046875,7.923891549316048,0.017591770792007445,-0.8882527614407241
1782831992008596500,8.103596435546875,7.972141493222117,0.060406099515408276,-0.8920843024276196
1782831992018525700,8.113525634765624,7.35813924202919,0.03804104990698397,-0.9824044786915183
1782831992028454700,8.12345458984375,7.6093065444618455,0.12757131790220735,-0.8342455691821873
1782831992038383400,8.13338330078125,7.935074622109532,0.23151056193485856,-0.5918951218683273
1782831992048312300,8.143312255859374,7.868130499127507,0.0675697075344622,-0.15816263632513583
1782831992058241500,8.153241455078126,8.303626779472827,-0.15123101043105125,-0.22958237035125492
1782831992068170500,8.16317041015625,8.771446535795926,-0.06485000024698674,-0.7082396009005606
1782831992078099500,8.173099365234375,8.90460179131031,0.3340522141292691,-0.838444189915806
1782831992088028400,8.1830283203125,8.809937302231788,0.7338730777204037,-0.904444894567877
1782831992097957600,8.19295751953125,8.77187031416595,1.0289207306727766,-1.177134512174502
1782831992107886600,8.202886474609375,8.802085419687629,1.387592422273755,-1.41444375045076
1782831992117815600,8.212815673828125,8.99093450537324,1.682455658569932,-1.1475373924206942
1782831992127744500,8.22274462890625,9.108535633403063,1.6598996894992888,-0.9782911250885575
1782831992137673700,8.232673828125,9.020067076355218,1.7194165850900112,-0.9553056785594671
1782831992147602400,8.2426025390625,8.16557323052287,1.9045904893942176,-0.6750827428385615
1782831992157530600,8.252530517578125,5.358669305631518,2.0332116086103023,0.7410637198768556
1782831992167459600,8.26245947265625,2.7521546820938587,1.3584659887716173,1.7139251480668782
1782831992177388500,8.272388427734375,1.8969810373038052,1.0217612143069505,0.2036371972337365
1782831992187317500,8.2823173828125,1.9297154321700334,1.827257074344903,-0.6514790182806551
1782831992197246500,8.29224658203125,1.9428975698262452,2.831105469211936,-1.0126165154732762
1782831992207175400,8.302175537109376,0.8314882332980632,3.565013033723831,-1.8513316312849522
1782831992217104400,8.3121044921875,-1.0195756869614123,4.081712264028192,-2.843219100853801
1782831992227033600,8.32203369140625,-4.6077059769004585,3.579843523108959,-2.87892549726814
1782831992236962600,8.331962646484374,-6.9848074491739265,0.408956648465991,-1.333502374037355
1782831992246891500,8.3418916015625,-9.172052704545855,-3.1646959110483524,1.1264005694329737
1782831992256820500,8.351820556640625,-14.298547577506303,-5.043358324590325,4.075779074586928
1782831992266749400,8.36174951171875,-17.20692041079402,-4.428716021928191,6.6387260668158525
1782831992276678700,8.3716787109375,-18.021229545754192,-3.0040085054859516,5.927386307942867
1782831992286607600,8.381607666015626,-21.184223621320722,-1.4732533745549619,3.342432358828187
1782831992296536300,8.391536376953125,-25.259376965224742,-1.2707003192961215,1.7383093554779887
1782831992306465300,8.40146533203125,-25.199673899412154,-1.6185421354554592,1.396424401896447
1782831992316394500,8.41139453125,-23.198383177328108,-0.5516735861171037,2.2165698417946693
1782831992326323500,8.421323486328125,-19.60132899169922,0.11974515432119369,2.171466379220784
1782831992336252400,8.43125244140625,-14.470291799134015,-0.005172068875655532,0.7702899604916572
1782831992346181400,8.441181396484374,-9.743561967924236,-0.1592648984786123,0.06772036805152892
1782831992356110600,8.451110595703126,-5.236698876476288,-0.8664530906300991,-0.27992168775200843
1782831992366039600,8.46103955078125,-2.5535090095371005,-1.4249525772444902,0.8276080308638513
1782831992375968500,8.470968505859375,-2.6747534625053406,-2.176053414750099,2.887127800685167
1782831992385897500,8.4808974609375,-3.3365129056513307,-2.7581694123387335,3.5169559820413587
1782831992395826700,8.49082666015625,-2.934486348709464,-2.6910207066953182,3.494892034271359
1782831992405755400,8.50075537109375,-2.003570357453823,-1.9503753583610057,3.3332419211566444
1782831992415684400,8.510684326171875,-1.3499036198705434,-1.2039452891454099,2.615069978176057
1782831992425612500,8.520612548828124,-0.3421113096833229,-0.9525856790110468,2.2192612728357313
1782831992435541500,8.53054150390625,1.3810253188431263,-1.1170835827723145,1.4076701646625995
1782831992445470500,8.540470458984375,3.0676959647595883,-0.8757940426882356,0.4538303208719939
1782831992455399400,8.5503994140625,4.608270625045895,-0.7042324841510504,-0.036722149328142405
1782831992465328400,8.560328369140626,6.169739604800939,-0.9960279303744435,-0.7661619938414543
1782831992475257300,8.57025732421875,7.591648138174414,-1.1951362520068882,-1.3255077220216394
1782831992485186600,8.5801865234375,8.531474581116438,-1.3207426995769143,-0.7206786651045084
1782831992495115500,8.590115478515624,8.557557701399922,-1.5548603752702475,0.49115518533363933
1782831992505044500,8.60004443359375,7.61664697035253,-1.7339869622342288,1.0725202914897352
1782831992514973400,8.609973388671875,5.86352261531949,-1.7474445558309555,1.280347268563509
1782831992524902700,8.619902587890625,4.418893131572008,-1.887590254754573,1.7481461282290518
1782831992534831600,8.62983154296875,5.108527839115261,-2.3666388227090236,1.4461954178899525
1782831992544760600,8.639760498046876,6.480778315350413,-2.0369355975694954,0.8565800044566393
1782831992554689300,8.649689208984375,5.765539210951328,-1.0253783818908035,0.9916504459425807
1782831992564618500,8.659618408203125,5.733277694293856,-0.8229636391241103,0.7068490233249962
1782831992574547500,8.66954736328125,6.583585194352269,-0.7729037962518632,0.19589571626149116
1782831992584476400,8.679476318359375,7.261863810622692,-0.41208391364105046,-0.5383425415094941
1782831992594405400,8.6894052734375,8.013569482153654,-0.14259064439032226,-0.8998515023630111
1782831992604334600,8.69933447265625,8.59100229036212,-0.29708078448148445,-1.0233213762957603
1782831992614263600,8.709263671875,8.881624235826731,-0.32729769836775957,-0.9972875750467181
1782831992624192500,8.719192626953125,8.91918678150177,-0.17571659585740415,-0.8173666228346527
1782831992634121500,8.72912158203125,8.689643866378068,-0.21170414730068296,-0.6372001714289188
1782831992644050700,8.73905078125,8.493587041270732,-0.27845976197328415,-0.3049722501173615
1782831992653979600,8.748979736328126,8.419545068982243,-0.3271933977430686,-0.07526976051777601
1782831992663908600,8.75890869140625,8.166697850638627,-0.243223796082288,-0.041497400905936954
1782831992673837300,8.76883740234375,7.489694076609611,0.10484021146036684,-0.08681669818758964
1782831992683766500,8.7787666015625,7.109729129350185,0.3766625447131693,-0.4585296576693654
1782831992693694500,8.788694580078126,7.3810285347074265,0.4668575602274388,-0.9172570298679172
1782831992703623400,8.79862353515625,7.085407758042216,0.43945692760460076,-1.143886249502003
1782831992713552400,8.808552490234375,6.4062827540755265,0.43349582724310454,-1.1235460567846893
1782831992723481300,8.8184814453125,5.65781241120398,0.45715632348954677,-1.1752515479721128
1782831992733410600,8.82841064453125,4.494914294978976,0.6093577133227139,-1.038129288522899
1782831992743339500,8.838339599609375,2.835636682900786,0.8934567598246037,-1.4362278583660721
1782831992753268500,8.8482685546875,0.9494944349974394,1.057432977799326,-2.4523496054813263
1782831992763197400,8.858197509765626,-0.5093506211072206,0.7301750999853015,-2.476101360207796
1782831992773126700,8.868126708984375,-2.387085106149316,-0.09930953840538859,-1.4699576940104364
1782831992783055600,8.8780556640625,-3.7632261600822208,-0.5440434565648437,-0.9045799191243946
1782831992792984600,8.887984619140624,-5.808194695851206,-0.08338131691142917,-0.855741215544939
1782831992802913500,8.89791357421875,-9.163245713233946,0.3477370406106114,-0.2913650189168751
1782831992812842500,8.907842529296875,-11.707031201136111,-0.5123942265868187,0.1682151707187295
1782831992822771500,8.917771484375,-14.080671719300746,-1.5622566230013966,1.0118842556759715
1782831992832700400,8.927700439453124,-15.681403618907927,-1.9585744469076394,3.1410832725316284
1782831992842629400,8.93762939453125,-16.340950062179566,-2.2256296388238668,4.217014468443393
1782831992852558600,8.94755859375,-19.315086284232137,-2.958081743830442,5.120165085417032
1782831992862487600,8.957487548828125,-21.323017174983022,-3.4407395883232352,7.35677730602622
1782831992872416500,8.96741650390625,-20.072114612090587,-2.088409325827658,6.800873023536801
1782831992882345500,8.977345458984376,-17.95476823785305,0.35995029670204964,3.7215848206609485
1782831992892275200,8.987275146484375,-14.294342527031898,1.5731693544209002,1.2256575008682906
1782831992902204200,8.9972041015625,-9.315513665497303,1.1843159481111913,-1.09688455209136
1782831992912132900,9.0071328125,-5.425287849920988,1.0936660284362734,-2.053362270104885
1782831992922061800,9.017061767578125,-2.9041432328939436,1.139413341871649,-0.7765370381876826
1782831992931991000,9.026990966796875,-1.5366910968512295,0.13036852913899347,0.4357712978944182
1782831992941920000,9.036919921875,-0.48619654001295565,-0.7264992610167712,0.7798449936918914
1782831992951849000,9.046848876953124,-1.9965666161715983,-1.4200306106723843,1.8910567618213592
1782831992961778000,9.05677783203125,-2.703068871885538,-1.6304640439175069,4.0613869766190644
1782831992971705900,9.066705810546875,-1.43385382271111,-1.1231035006489605,3.4836639532923694
1782831992981635000,9.076635009765624,-1.1734779624283314,-0.5974911883097141,2.6908339519515634
1782831992991564000,9.08656396484375,-0.42275370315015315,-0.9791435771994292,1.4879603836908937
1782831993001493000,9.096492919921875,0.6249994460254907,-0.8631718039371072,0.21499021976664662
1782831993011422000,9.106421875,2.520672907862067,-0.5593904806373641,-0.3891386895244941
1782831993021351200,9.11635107421875,4.682300322374701,-0.6833665139939635,-0.7892237204771488
1782831993031280000,9.126280029296876,6.193192376580834,-0.8561061033345758,-0.3694736195897683
1782831993041209000,9.136208984375,6.727610803449154,-1.0583123179171234,0.6102526528684422
1782831993051138000,9.146137939453125,7.052330248826742,-1.4430449910350143,1.3196777006939053
1782831993061067000,9.15606689453125,7.166539396330714,-1.6079228340245781,1.8124672092311083
1782831993070996000,9.165995849609375,6.474145160946249,-1.5157988232091069,2.0079192003130912
1782831993080925000,9.175925048828125,5.655701702660322,-1.4586702840596437,1.652308503717929
1782831993090854000,9.18585400390625,5.9492643777519465,-1.830855829489231,0.8455313716977835
1782831993100783000,9.195783203125,6.588835369965434,-2.213799061907083,0.741415967380628
1782831993110712000,9.205712158203125,6.751440007326006,-1.7494209704704582,0.7142549156673252
1782831993120641000,9.21564111328125,6.172586810925602,-1.1020991449344903,0.2693172185640782
1782831993130570000,9.225570068359374,6.055547992953658,-0.6320674116503447,0.12941340210493654
1782831993140499200,9.235499267578126,6.590657909217477,-0.5253148272300139,0.23901954932548106
1782831993150428200,9.24542822265625,7.125976499795914,-0.7060391682468354,0.13122731965910642
1782831993160357000,9.255357177734375,7.820842678251862,-0.8442746496349572,-0.1704194027647376
1782831993170285800,9.265285888671874,8.553706286668778,-0.7860618954453616,-0.21181005536057054
1782831993180214800,9.27521484375,9.032514469996094,-0.6617741292584687,0.11244557189755142
1782831993190144000,9.28514404296875,8.89550195453167,-0.5375496375661343,0.518033766843751
1782831993200073000,9.295072998046875,7.92151897496581,-0.5458734484709798,0.7008093047693371
1782831993210002000,9.305001953125,7.2715049146711825,-0.5504966878248378,0.43352877966463566
1782831993219931000,9.314930908203126,7.632435491114855,-0.6587468903917819,-0.3708765086576342
1782831993229860000,9.324860107421875,7.971611916390061,-0.5019850607752799,-0.6812482066657394
1782831993239789000,9.3347890625,7.77379158874154,-0.09123597593456506,-0.0647565498098731
1782831993249718000,9.344718017578124,8.134985784557461,-0.0645716216970235,-0.13139569849595426
1782831993259647000,9.35464697265625,8.245207323729991,0.08512845283970236,-0.6951926339313388
1782831993269575000,9.364574951171875,7.584632121932506,0.32521840787567197,-0.8368884849064052
1782831993279504100,9.374504150390624,6.547768031039833,0.4127451540287584,-0.9217093331016599
1782831993289433000,9.38443310546875,4.925152216404676,0.5903743420418351,-0.8405315175838768
1782831993299362000,9.394362060546875,3.080741908815503,0.7882976186081767,-0.6539245117366314
1782831993309291000,9.404291015625,1.0779442892998456,0.7365298758395016,-0.5231463606171309
1782831993319220000,9.414219970703124,-1.2833669086456299,0.547654486668855,-0.17182313208281993
1782831993329149000,9.42414892578125,-3.7953140737384556,0.2044580120973289,0.04534092459157109
1782831993339078000,9.434077880859375,-5.212663336372375,0.14556187875345347,-0.385109762801975
1782831993349006800,9.4440068359375,-5.78440874659419,0.7233711190588772,-0.6882591814063489
1782831993358936000,9.45393603515625,-6.87329236305952,1.0933910108871758,-0.7311003981366753
1782831993368865000,9.463864990234375,-8.29640442700386,0.8589042096205055,-0.31298852944299577
1782831993378794000,9.4737939453125,-9.331918272331356,0.6313076062589883,0.7222131811954081
1782831993388723000,9.483722900390624,-10.653792898547648,0.9231108704626559,1.9552301049157976
1782831993398652200,9.493652099609376,-12.155873869788646,1.095485060556978,2.7859990840286013
1782831993408581000,9.5035810546875,-14.17055715740919,0.3351566682398319,2.3201336766436693
1782831993418510000,9.513510009765625,-17.365439240145683,-0.6730325323104858,2.3882738775424657
1782831993428438800,9.523438720703124,-19.158655367070434,-0.801671917835623,3.301489815326035
1782831993438368000,9.533367919921876,-18.748266055452824,0.33119755535051226,3.326042365041375
1782831993448297000,9.543296875,-18.054457277095317,1.2724965550631284,1.6470488296240566
1782831993458226000,9.553225830078125,-16.145253302556274,1.799693506245315,-0.3234721487302333
1782831993468155000,9.56315478515625,-13.132970012938976,1.6505799263596534,-1.4408499652087687
1782831993478084000,9.573083984375,-9.83801544460058,1.3624413221433758,-1.4755226346611976
1782831993488013000,9.583012939453125,-6.757466428008676,1.0927899762541056,-0.40709589609540997
1782831993497942000,9.59294189453125,-4.593918274566531,0.12855002674125135,0.7828454906821251
1782831993507871000,9.60287109375,-3.8199715451329945,-0.9406829867061227,1.6917197459995745
1782831993517800200,9.61280029296875,-3.332832171311974,-1.3769143763929605,1.9016329547628759
1782831993527729200,9.622729248046875,-3.3914603013694284,-1.6706868948429823,2.0995599576562642
1782831993537657900,9.632657958984375,-2.5266402918338775,-1.3664363831289112,2.260934614830464
1782831993547586800,9.6425869140625,-0.8727309287905692,-0.5438725569773465,2.2876082483530045
1782831993557515000,9.652514892578125,1.0178051701575517,-0.779986594119668,1.4666199278898537
1782831993567444000,9.66244384765625,2.456574821960926,-1.1029813345964998,0.7436317437339574
1782831993577373000,9.672373046875,3.7561119441628454,-1.0547786638982592,0.5762733359750359
1782831993587302000,9.682302001953126,5.258717231538892,-1.1745511446177959,0.3327162162851542
1782831993597230800,9.69223095703125,6.60684039773345,-1.3847237349696457,0.4719513031698763
1782831993607160000,9.70216015625,7.103776942947507,-1.8051934188358485,0.6890032777719199
1782831993617089000,9.712089111328124,6.802716021054983,-2.231364383083582,1.212937793092057
1782831993627018000,9.72201806640625,6.30220980066061,-2.000675366664678,1.5386109589979051
1782831993636947000,9.731947021484375,6.340195540183783,-1.596235318840295,1.3004194579944013
1782831993646876200,9.741876220703125,6.899362623861432,-1.5760726746469735,0.3159354330824688
1782831993656805000,9.75180517578125,7.3996408807188265,-1.4297935875348746,-0.49387719417605547
1782831993666734000,9.761734130859375,7.362590960741042,-0.9756100693110376,0.2586340581167489
1782831993676663000,9.7716630859375,7.163864624163508,-1.1940914921943098,0.47383207541517913
1782831993686592000,9.781592041015625,6.925055283522606,-1.0921858728811145,0.5804957759756595
1782831993696521000,9.79152099609375,7.333919577530026,-0.7256625179316848,0.6143125592511147
1782831993706450000,9.801449951171875,7.651579752045869,-0.5378970627643168,-0.047593598889186975
1782831993716379000,9.81137890625,7.372333771598338,-0.2599924504557624,-0.6781375272992998
1782831993726308000,9.82130810546875,7.186058335793018,0.038718291581422086,-0.6054647975374012
1782831993736237000,9.831237060546876,7.36061878388524,-0.22599366167690604,-0.8069017082478851
1782831993746166000,9.841166015625,6.843609172457456,-0.4607661845497787,-0.8548737119954078
1782831993756095000,9.851094970703125,7.6525991582214825,-0.6255950738310814,-0.818151051210612
1782831993766024200,9.861024169921874,10.195182869118451,-0.5292768261961639,-0.18757789670601485
1782831993775953200,9.870953125,7.007236138603091,-0.3902838775042444,0.42290348688438534
1782831993785882000,9.880882080078125,1.3867472036212682,-0.7897714905530214,-0.344321094687283
1782831993795810800,9.890810791015625,0.5822346555322409,-0.9155062406778335,-0.3944325946815312
1782831993805739800,9.90073974609375,2.8229040425777434,-0.13238456340283156,0.3218520732477307
1782831993815669000,9.9106689453125,1.4246645540833471,0.5284333611093461,-0.32852205253094435
1782831993825598000,9.920597900390625,-0.1757370906561613,1.2014699850730597,-0.2499488665536046
1782831993835527000,9.93052685546875,-0.6377683267056942,1.92065768096745,-0.04991963068395853
1782831993845456000,9.940455810546876,-0.3819131587177515,2.373717967315018,-0.36426936547756195
1782831993855385000,9.950385009765625,0.19585165792405604,2.581673320008814,-0.6504100738748908
