time,seconds_elapsed,z,y,x
1782831983976075500,0.071075439453125,-0.11422041058540344,-0.06108681857585907,-0.06525067985057831
1782831983986004500,0.08100439453125,-0.12991423904895782,-0.03703952208161354,-0.03750867396593094
1782831983995933400,0.090933349609375,-0.1419820934534073,-0.01905146613717079,-0.015608970075845718
1782831984005862400,0.1008623046875,-0.15247148275375366,-0.025966424494981766,-0.01341302040964365
1782831984015791400,0.110791259765625,-0.15961994230747223,-0.07903976738452911,-0.009941590018570423
1782831984025720300,0.12072021484375,-0.15936915576457977,-0.12818139791488647,-0.0010890285484492779
1782831984035649500,0.1306494140625,-0.12727193534374237,-0.12804371118545532,0.04102460294961929
1782831984045578500,0.14057861328125,-0.09171510487794876,-0.09592922031879425,0.10287201404571533
1782831984055507500,0.150507568359375,-0.1042386144399643,-0.06477716565132141,0.14813803136348724
1782831984065436400,0.1604365234375,-0.12378878146409988,-0.043611884117126465,0.15274691581726074
1782831984075365600,0.17036572265625,-0.13016359508037567,-0.0045739393681287766,0.12108326703310013
1782831984085294600,0.180294677734375,-0.14761993288993835,0.048794712871313095,0.06954298913478851
1782831984095223600,0.1902236328125,-0.1862402856349945,0.0876116156578064,-0.023338215425610542
1782831984105151500,0.2001513671875,-0.2050229161977768,0.09632261097431183,-0.08994024246931076
1782831984115080400,0.21008056640625,-0.19713303446769714,0.11665718257427216,-0.12493523955345154
1782831984125009700,0.220009765625,-0.1860775500535965,0.14636439085006714,-0.15058843791484833
1782831984134938400,0.2299384765625,-0.1634867638349533,0.20453423261642456,-0.1961391419172287
1782831984144867300,0.239867431640625,-0.13125842809677124,0.3000244200229645,-0.2495269924402237
1782831984154796300,0.24979638671875,-0.09756598621606827,0.4396459758281708,-0.2935304045677185
1782831984164725500,0.2597255859375,-0.06835856288671494,0.5756677389144897,-0.312099814414978
1782831984174654500,0.269654541015625,-0.03721769154071808,0.6380882263183594,-0.30675220489501953
1782831984184583400,0.27958349609375,-0.013711913488805294,0.6506722569465637,-0.2842631936073303
1782831984194512400,0.289512451171875,-0.017717842012643814,0.6003299951553345,-0.27350854873657227
1782831984204441600,0.299441650390625,-0.0454079732298851,0.4449384808540344,-0.29231733083724976
1782831984214370600,0.30937060546875,-0.09098158776760101,0.21326451003551483,-0.3181241750717163
1782831984224299500,0.319299560546875,-0.13209040462970734,-0.07746152579784393,-0.32944217324256897
1782831984234228500,0.329228515625,-0.18060919642448425,-0.3517146706581116,-0.3154235780239105
1782831984244157400,0.339157470703125,-0.215969055891037,-0.5660409927368164,-0.2562107443809509
1782831984254085600,0.349085693359375,-0.24311226606369019,-0.7575327157974243,-0.16211755573749542
1782831984264014600,0.3590146484375,-0.2702288329601288,-0.9127481579780579,-0.07426896691322327
1782831984273943600,0.368943603515625,-0.2894003987312317,-1.022830605506897,-0.0022861193865537643
1782831984283872300,0.378872314453125,-0.2822832763195038,-1.0553330183029175,0.028021380305290222
1782831984293801500,0.388801513671875,-0.2631668448448181,-0.9775058031082153,0.017323726788163185
1782831984303730400,0.39873046875,-0.23129057884216309,-0.8261850476264954,-0.0035292580723762512
1782831984313659400,0.408659423828125,-0.2018200308084488,-0.5703991055488586,0.0021326220594346523
1782831984323588400,0.41858837890625,-0.1983991265296936,-0.2356553077697754,0.009931119158864021
1782831984333517600,0.428517578125,-0.21214422583580017,0.0080801323056221,0.02159816026687622
1782831984343446500,0.438446533203125,-0.24829044938087463,0.10222623497247696,0.02276676893234253
1782831984353375500,0.44837548828125,-0.28836435079574585,0.11336438357830048,0.014443324878811836
1782831984363304400,0.458304443359375,-0.33496415615081787,0.07182347774505615,-0.028573038056492805
1782831984373233700,0.468233642578125,-0.37450090050697327,-0.08396132290363312,-0.12106222659349442
1782831984383162600,0.47816259765625,-0.3788033425807953,-0.285403847694397,-0.19111038744449615
1782831984393091300,0.48809130859375,-0.37269484996795654,-0.4322760999202728,-0.21332941949367523
1782831984403019500,0.49801953125,-0.3512784242630005,-0.525554358959198,-0.22305932641029358
1782831984412948500,0.507948486328125,-0.3265480399131775,-0.581216037273407,-0.2316373735666275
1782831984422877400,0.51787744140625,-0.3136753737926483,-0.6075739860534668,-0.24125152826309204
1782831984432806400,0.527806396484375,-0.30042722821235657,-0.5265923142433167,-0.22454577684402466
1782831984442735400,0.5377353515625,-0.27800625562667847,-0.37785235047340393,-0.16719494760036469
1782831984452664300,0.547664306640625,-0.27343225479125977,-0.2393472045660019,-0.0826510414481163
1782831984462593500,0.557593505859375,-0.29385241866111755,-0.15471108257770538,0.02738041616976261
1782831984472522500,0.5675224609375,-0.31854259967803955,-0.11922231316566467,0.16663843393325806
1782831984482451500,0.577451416015625,-0.3121691942214966,-0.16235758364200592,0.2733946442604065
1782831984492380400,0.58738037109375,-0.2631281316280365,-0.2593453824520111,0.281196653842926
1782831984502309600,0.5973095703125,-0.1685614138841629,-0.3534640967845917,0.17008355259895325
1782831984512238600,0.607238525390625,-0.03536927327513695,-0.3574090301990509,0.023156948387622833
1782831984522167600,0.61716748046875,0.10600445419549942,-0.25425979495048523,-0.10278383642435074
1782831984532096500,0.627096435546875,0.21129518747329712,-0.09955383092164993,-0.18845000863075256
1782831984542025500,0.637025390625,0.24040238559246063,0.026505790650844574,-0.22003133594989777
1782831984551953700,0.64695361328125,0.22886556386947632,0.1940029114484787,-0.20996379852294922
1782831984561882400,0.65688232421875,0.18755169212818146,0.3888193964958191,-0.15620818734169006
1782831984571811300,0.666811279296875,0.12984952330589294,0.5059646964073181,-0.1159593015909195
1782831984581740300,0.676740234375,0.07997649163007736,0.5510015487670898,-0.07938114553689957
1782831984591669500,0.68666943359375,0.05892100930213928,0.5758829712867737,-0.030256476253271103
1782831984601598500,0.696598388671875,0.0741843730211258,0.5840113162994385,0.03584428131580353
1782831984611527400,0.70652734375,0.1096174567937851,0.5971124768257141,0.10931742936372757
1782831984621456400,0.716456298828125,0.16139855980873108,0.580288827419281,0.15280781686306
1782831984631385600,0.726385498046875,0.17923800647258759,0.5336547493934631,0.10857883840799332
1782831984641314600,0.736314453125,0.1758439838886261,0.5603513717651367,0.04739793762564659
1782831984651243500,0.746243408203125,0.2008287012577057,0.6778748035430908,0.019565241411328316
1782831984661172500,0.75617236328125,0.24733129143714905,0.793136477470398,0.06819039583206177
1782831984671101700,0.766101806640625,0.2971646189689636,0.9051181077957153,0.14909936487674713
1782831984681030400,0.776030517578125,0.336880624294281,0.9288104176521301,0.19948998093605042
1782831984690959400,0.78595947265625,0.39785823225975037,0.8151642680168152,0.21277089416980743
1782831984700887600,0.795887451171875,0.43475082516670227,0.6131032705307007,0.19911786913871765
1782831984710816300,0.805816162109375,0.40547123551368713,0.42829617857933044,0.1125161200761795
1782831984720745500,0.815745361328125,0.3785820007324219,0.26980748772621155,0.019748440012335777
1782831984730674400,0.82567431640625,0.39723557233810425,0.16605497896671295,-0.06630974262952805
1782831984740603400,0.835603271484375,0.4747452139854431,0.09520769119262695,-0.1533854454755783
1782831984750532400,0.845532470703125,0.5617275238037109,0.0013152845203876495,-0.23232313990592957
1782831984760461600,0.855461669921875,0.6080536246299744,-0.10850313305854797,-0.279258131980896
1782831984770390500,0.865390625,0.5955066680908203,-0.19636374711990356,-0.29266849160194397
1782831984780319500,0.875319580078125,0.5287575721740723,-0.24845463037490845,-0.3153008818626404
1782831984790248400,0.88524853515625,0.4720570147037506,-0.28290900588035583,-0.3745327889919281
1782831984800177700,0.895177734375,0.4899592995643616,-0.25798770785331726,-0.4331146478652954
1782831984810106600,0.905106689453125,0.5746073126792908,-0.13722747564315796,-0.42667779326438904
1782831984820035600,0.91503564453125,0.6676635146141052,-0.0396549291908741,-0.32372918725013733
1782831984829964300,0.92496435546875,0.7592975497245789,0.0694396048784256,-0.17776213586330414
1782831984839893200,0.934893310546875,0.8093873262405396,0.12520073354244232,-0.08129235357046127
1782831984849821400,0.944821533203125,0.7982063293457031,-0.024468377232551575,-0.08224336802959442
1782831984859750400,0.95475048828125,0.7263773679733276,-0.3536262810230255,-0.1840292513370514
1782831984869679400,0.964679443359375,0.6124372482299805,-0.713837206363678,-0.3610410690307617
1782831984879608300,0.9746083984375,0.4621148109436035,-0.9951267242431641,-0.550646960735321
1782831984889538300,0.984538330078125,0.2808070778846741,-1.108137607574463,-0.6697632670402527
1782831984899467300,0.99446728515625,0.10887346416711807,-1.0683269500732422,-0.6690407991409302
1782831984909396200,1.004396240234375,-0.01001217495650053,-0.9508448243141174,-0.5421667098999023
1782831984919325200,1.0143251953125,-0.056892409920692444,-0.8001811504364014,-0.3277907073497772
1782831984929254400,1.02425439453125,-0.03220437094569206,-0.6014600992202759,-0.05618181452155113
1782831984939183400,1.034183349609375,0.01769614964723587,-0.3722333014011383,0.24744614958763123
1782831984949112000,1.044112060546875,0.06856811791658401,-0.10700349509716034,0.5519950985908508
1782831984959041000,1.054041015625,0.11565768718719482,0.1581125110387802,0.8312901258468628
1782831984968970200,1.06397021484375,0.08744816482067108,0.3746301829814911,0.9961004257202148
1782831984978899200,1.073899169921875,-0.027778826653957367,0.4782402515411377,0.9967660307884216
1782831984988828200,1.083828125,-0.1619744449853897,0.4643912613391876,0.8512074947357178
1782831984998757000,1.093757080078125,-0.2608778476715088,0.3710632026195526,0.5973454117774963
1782831985008685000,1.10368505859375,-0.3059457242488861,0.3190426230430603,0.300701767206192
1782831985018614300,1.1136142578125,-0.2829935550689697,0.35098323225975037,0.06656325608491898
1782831985028543200,1.123543212890625,-0.20976246893405914,0.38653188943862915,-0.05490990728139877
1782831985038472200,1.13347216796875,-0.1158309280872345,0.3799240291118622,-0.031587325036525726
1782831985048401200,1.143401123046875,-0.06518185883760452,0.337866872549057,0.08932125568389893
1782831985058330400,1.153330322265625,-0.06545409560203552,0.3203112483024597,0.26650822162628174
1782831985068259300,1.16325927734375,-0.13359905779361725,0.35873427987098694,0.45672476291656494
1782831985078188300,1.173188232421875,-0.23678314685821533,0.4303051233291626,0.6438245177268982
1782831985088117200,1.1831171875,-0.33904802799224854,0.4701468050479889,0.8251982927322388
1782831985098046200,1.193046142578125,-0.4264725148677826,0.41722655296325684,0.9846985936164856
1782831985107975200,1.20297509765625,-0.4990667998790741,0.2977462410926819,1.0844829082489014
1782831985117904100,1.212904052734375,-0.5628228187561035,0.16407088935375214,1.1057990789413452
1782831985127833000,1.2228330078125,-0.6173955202102661,0.0550549291074276,1.0287683010101318
1782831985137762300,1.23276220703125,-0.6503802537918091,0.04929932951927185,0.8938932418823242
1782831985147691300,1.242691162109375,-0.6810427904129028,0.2078636884689331,0.741939127445221
1782831985157619200,1.252619140625,-0.741887092590332,0.4731155037879944,0.5594242811203003
1782831985167548200,1.262548095703125,-0.8181552886962891,0.784258246421814,0.3659645617008209
1782831985177477000,1.27247705078125,-0.8692353367805481,1.0844690799713135,0.18146541714668274
1782831985187406300,1.28240625,-0.8561978340148926,1.3580564260482788,0.006575362291187048
1782831985197335300,1.292335205078125,-0.770656943321228,1.6135621070861816,-0.16151317954063416
1782831985207264300,1.30226416015625,-0.6228445768356323,1.6610572338104248,-0.2993623912334442
1782831985217193200,1.312193115234375,-0.4431850016117096,1.273179292678833,-0.3908764719963074
1782831985227122400,1.322122314453125,-0.30294105410575867,0.6680895686149597,-0.4889484643936157
1782831985237051100,1.332051025390625,-0.20287668704986572,0.17654728889465332,-0.6368783116340637
1782831985246980000,1.34197998046875,-0.15966583788394928,0.2930715084075928,-0.741092324256897
1782831985256909000,1.351908935546875,-0.1596469283103943,0.8379145860671997,-0.7839940190315247
1782831985266838300,1.36183837890625,-0.06757459789514542,1.4438568353652954,-0.8307165503501892
1782831985276767200,1.371767333984375,0.12341433763504028,1.8946367502212524,-0.8399670124053955
1782831985286696200,1.3816962890625,0.3352019488811493,2.0788846015930176,-0.8189136385917664
1782831985296625200,1.391625244140625,0.38398075103759766,1.9177320003509521,-0.7753543257713318
1782831985306553000,1.401552978515625,0.20400699973106384,1.448729157447815,-0.7060903310775757
1782831985316482300,1.411482421875,-0.06824076175689697,0.6316074728965759,-0.6136501431465149
1782831985326411300,1.421411376953125,-0.277489572763443,-0.20832183957099915,-0.5848957300186157
1782831985336340200,1.43134033203125,-0.2334282100200653,-0.935387134552002,-0.5347511172294617
1782831985346269200,1.441269287109375,-0.09270970523357391,-1.1775120496749878,-0.3861216604709625
1782831985356198400,1.451198486328125,-0.0970570519566536,-1.0254719257354736,-0.19478252530097961
1782831985366127400,1.46112744140625,-0.45786529779434204,-0.7964860796928406,-0.17695371806621552
1782831985376056300,1.471056396484375,-0.9841494560241699,-0.702807605266571,-0.31858518719673157
1782831985385985000,1.480985107421875,-1.3416005373001099,-0.6271868348121643,-0.36087724566459656
1782831985395914200,1.490914306640625,-1.444230556488037,-0.6693229675292969,-0.2982145845890045
1782831985405843200,1.50084326171875,-1.3899266719818115,-0.9410836100578308,-0.27441710233688354
1782831985415772200,1.510772216796875,-1.2719451189041138,-1.4433096647262573,-0.3758524954319
1782831985425701000,1.520701171875,-1.0818082094192505,-2.0637800693511963,-0.5177135467529297
1782831985435630300,1.53063037109375,-0.8460191488265991,-2.61208176612854,-0.6229973435401917
1782831985445559300,1.540559326171875,-0.648095428943634,-2.8694779872894287,-0.5803868174552917
1782831985455487200,1.5504873046875,-0.4801326096057892,-2.6883108615875244,-0.3898431658744812
1782831985465416200,1.560416259765625,-0.30717387795448303,-2.064814805984497,-0.03700066730380058
1782831985475345200,1.57034521484375,-0.1844714879989624,-1.2047653198242188,0.27852916717529297
1782831985485274400,1.5802744140625,-0.07599428296089172,-0.19060111045837402,0.43469667434692383
1782831985495203300,1.590203369140625,0.04658772051334381,0.7789595723152161,0.45344996452331543
1782831985505132300,1.60013232421875,0.19195903837680817,1.553804874420166,0.4423568546772003
1782831985515061200,1.610061279296875,0.35309094190597534,2.1085853576660156,0.4037366211414337
1782831985524990200,1.619990234375,0.46976590156555176,2.4371817111968994,0.2500133812427521
1782831985534919200,1.629919189453125,0.5169129371643066,2.5193583965301514,0.06548520177602768
1782831985544848100,1.63984814453125,0.5129451155662537,2.4004251956939697,-0.06127007678151131
1782831985554777000,1.649777099609375,0.4412286877632141,2.2775778770446777,-0.11588030308485031
1782831985564706300,1.659706298828125,0.3302249610424042,2.152069330215454,-0.09992930293083191
1782831985574635300,1.66963525390625,0.21771669387817383,2.0210211277008057,-0.06710576266050339
1782831985584564200,1.679564208984375,0.1158372014760971,1.8507615327835083,-0.04469499737024307
1782831985594493200,1.6894931640625,0.03551998361945152,1.5251933336257935,0.025027798488736153
1782831985604422100,1.699422119140625,-0.019936617463827133,0.7708476185798645,0.04709901288151741
1782831985614350300,1.709350341796875,-0.06148633360862732,0.3175258934497833,-0.026887072250247
1782831985624279300,1.719279296875,0.0622159019112587,0.09741909056901932,0.07647154480218887
1782831985634208300,1.729208251953125,0.22189296782016754,0.0015836171805858612,0.2529062330722809
1782831985644137200,1.73913720703125,0.340974360704422,0.06708911806344986,0.42332136631011963
1782831985654066400,1.74906640625,0.35862526297569275,0.2172127515077591,0.47473371028900146
1782831985663995400,1.758995361328125,0.3429562747478485,0.08472208678722382,0.4420391619205475
1782831985673924000,1.768924072265625,0.3337756395339966,-0.34602195024490356,0.5267884135246277
1782831985683853000,1.77885302734375,0.2716454267501831,-0.6609713435173035,0.7289417386054993
1782831985693782000,1.788781982421875,0.2114204466342926,-0.66437828540802,0.9658222794532776
1782831985703711200,1.798711181640625,0.23127031326293945,-0.6184470057487488,1.173350214958191
1782831985713640200,1.80864013671875,0.2692895233631134,-0.3997500240802765,1.2767729759216309
1782831985723569200,1.818569091796875,0.2536623775959015,-0.0012101009488105774,1.246294617652893
1782831985733498000,1.828498046875,0.2758149802684784,0.2903771698474884,1.1811680793762207
1782831985743427300,1.83842724609375,0.4062312841415405,0.47417309880256653,1.051081657409668
1782831985753356300,1.848356201171875,0.5761907696723938,0.5933361053466797,0.7767924666404724
1782831985763285200,1.85828515625,0.7089179158210754,0.3350731432437897,0.44245198369026184
1782831985773213200,1.868213134765625,0.7050424218177795,-0.15364865958690643,0.18963822722434998
1782831985783142100,1.87814208984375,0.6483862996101379,-0.0930233970284462,0.17751525342464447
1782831985793071400,1.8880712890625,0.6373181939125061,0.6024173498153687,0.24178722500801086
1782831985803000300,1.898000244140625,0.7666058540344238,0.8647991418838501,0.22316160798072815
1782831985812929300,1.90792919921875,1.024877905845642,0.5146508812904358,0.1024230420589447
1782831985822858000,1.91785791015625,1.1182345151901245,-0.20581938326358795,-0.06360294669866562
1782831985832787200,1.927787109375,1.0569807291030884,-0.9638027548789978,-0.20774900913238525
1782831985842716200,1.937716064453125,0.981673538684845,-1.4452556371688843,-0.29680830240249634
1782831985852645000,1.94764501953125,0.9152081608772278,-1.6111444234848022,-0.34637290239334106
1782831985862574000,1.957573974609375,0.8190467357635498,-1.6945879459381104,-0.4209864139556885
1782831985872503300,1.96750341796875,0.6177041530609131,-1.731001853942871,-0.49956539273262024
1782831985882432500,1.9774326171875,0.22108277678489685,-1.4614137411117554,-0.48028889298439026
1782831985892361500,1.987361572265625,-0.3595355451107025,-0.8904178142547607,-0.4909519851207733
1782831985902290700,1.997290771484375,-0.9945774674415588,-0.23672521114349365,-0.6108930110931396
1782831985912219600,2.0072197265625,-1.4256666898727417,-0.013229436241090298,-0.7619935274124146
1782831985922147600,2.017147705078125,-1.4950822591781616,-0.1713988333940506,-0.8403213620185852
1782831985932076500,2.02707666015625,-1.2915725708007812,-0.5629889369010925,-0.8994908332824707
1782831985942005500,2.037005615234375,-0.9858250021934509,-1.077072024345398,-0.9048017263412476
1782831985951934500,2.0469345703125,-0.6275086402893066,-1.6578201055526733,-0.8082868456840515
1782831985961863400,2.056863525390625,-0.3161236345767975,-2.2571585178375244,-0.5880878567695618
1782831985971792400,2.06679248046875,-0.1736762523651123,-2.5885958671569824,-0.28975921869277954
1782831985981721300,2.076721435546875,-0.14835119247436523,-2.816174268722534,0.12079954147338867
1782831985991650600,2.086650634765625,-0.1732317954301834,-2.7468435764312744,0.5773816704750061
1782831986001579500,2.09657958984375,-0.20382432639598846,-2.3422675132751465,1.0047023296356201
1782831986011508500,2.106508544921875,-0.3260035812854767,-1.7532635927200317,1.3285188674926758
1782831986021437400,2.1164375,-0.4805492162704468,-1.0100845098495483,1.4643893241882324
1782831986031366700,2.12636669921875,-0.5918835401535034,-0.18076232075691223,1.3807493448257446
1782831986041295600,2.136295654296875,-0.6736247539520264,0.5845843553543091,1.1194528341293335
1782831986051224600,2.146224609375,-0.7863122224807739,1.1101770401000977,0.7671502828598022
1782831986061153500,2.156153564453125,-0.8683884143829346,1.3694735765457153,0.5151609182357788
1782831986071082500,2.16608251953125,-0.9204990863800049,1.5026633739471436,0.40170997381210327
1782831986081010700,2.1760107421875,-0.9384109377861023,1.5569484233856201,0.4279967248439789
1782831986090939600,2.185939697265625,-0.9170136451721191,1.2678097486495972,0.5832121968269348
1782831986100868400,2.195868408203125,-0.89737868309021,0.8203728199005127,0.773737907409668
1782831986110797300,2.20579736328125,-0.8325906991958618,0.3514682948589325,0.9067724347114563
1782831986120726500,2.2157265625,-0.6872665286064148,0.011649740859866142,0.9470056295394897
1782831986130655500,2.225655517578125,-0.592490553855896,-0.14490866661071777,0.8789505958557129
1782831986140584400,2.23558447265625,-0.5656187534332275,-0.3581831157207489,0.7338048219680786
1782831986150513400,2.245513427734375,-0.520211398601532,-0.6908201575279236,0.5459861159324646
1782831986160442600,2.255442626953125,-0.4537319839000702,-0.8089281320571899,0.2588944137096405
1782831986170371600,2.26537158203125,-0.3477611541748047,-0.7184997200965881,-0.0845116525888443
1782831986180300500,2.275300537109375,-0.22171054780483246,-0.34726575016975403,-0.45035675168037415
1782831986190229500,2.2852294921875,-0.024306662380695343,0.30324703454971313,-0.8529736995697021
1782831986200158700,2.29515869140625,0.1568215787410736,0.6585452556610107,-1.0845733880996704
1782831986210087400,2.30508740234375,0.18916405737400055,0.5090792179107666,-1.1223170757293701
1782831986220016400,2.315016357421875,0.08386054635047913,0.2250450998544693,-0.970783531665802
1782831986229945300,2.3249453125,-0.05228894203901291,0.08872539550065994,-0.691326379776001
1782831986239874600,2.33487451171875,-0.10234571993350983,0.16557329893112183,-0.3453335165977478
1782831986249802500,2.344802490234375,-0.07581523060798645,0.40404200553894043,-0.05599401518702507
1782831986259731500,2.3547314453125,-0.050014521926641464,0.5211715698242188,0.239671990275383
1782831986269660400,2.364660400390625,0.0054838089272379875,0.377686083316803,0.5796589851379395
1782831986279589400,2.37458935546875,0.21135921776294708,0.30689340829849243,0.9470146298408508
1782831986289518600,2.3845185546875,0.5512295365333557,0.9242507219314575,1.208941102027893
1782831986299447600,2.394447509765625,0.797332763671875,1.5161629915237427,1.328410267829895
1782831986309376500,2.40437646484375,0.946444034576416,1.9124633073806763,1.3783258199691772
1782831986319305500,2.414305419921875,0.9212476015090942,1.7323499917984009,1.4534082412719727
1782831986329234700,2.424234619140625,0.7781856060028076,1.1278865337371826,1.5057642459869385
1782831986339163600,2.43416357421875,0.6022478938102722,0.7950748205184937,1.3136733770370483
1782831986349092600,2.444092529296875,0.43921729922294617,0.7721807360649109,0.781223475933075
1782831986359021300,2.454021240234375,0.47685548663139343,0.7641355991363525,0.1687382310628891
1782831986368950500,2.463950439453125,0.628607451915741,0.6532559990882874,-0.4150557816028595
1782831986378879500,2.47387939453125,0.6881600022315979,0.4505963623523712,-0.9304139018058777
1782831986388808400,2.483808349609375,0.5551146864891052,-0.10003239661455154,-1.3341046571731567
1782831986398737400,2.4937373046875,0.14836877584457397,-0.8673628568649292,-1.5957812070846558
1782831986408666600,2.50366650390625,-0.5008095502853394,-1.6377328634262085,-1.8611918687820435
1782831986418594600,2.513594482421875,-1.0497632026672363,-2.348568916320801,-2.1859846115112305
1782831986428523500,2.5235234375,-1.2951817512512207,-2.4619436264038086,-2.5392279624938965
1782831986438452500,2.533452392578125,-1.2953130006790161,-2.0768775939941406,-2.682681083679199
1782831986448381400,2.54338134765625,-1.2213058471679688,-1.4169713258743286,-2.4716622829437256
1782831986458310700,2.553310546875,-1.443777322769165,-0.30763858556747437,-2.2284491062164307
1782831986468239600,2.563239501953125,-1.7173364162445068,0.5714328289031982,-1.9273022413253784
1782831986478168600,2.57316845703125,-1.895081639289856,0.4800523519515991,-1.5703035593032837
1782831986488097500,2.58309765625,-1.9444478750228882,-0.2902877628803253,-1.338309407234192
1782831986498026500,2.593026611328125,-1.8664926290512085,-1.214287519454956,-1.3029909133911133
1782831986507955500,2.60295556640625,-1.5777215957641602,-1.849031686782837,-1.4480698108673096
1782831986517884400,2.612884521484375,-1.1400198936462402,-1.8541654348373413,-1.6865681409835815
1782831986527813400,2.6228134765625,-0.7066332101821899,-1.6016380786895752,-1.9060170650482178
1782831986537742600,2.63274267578125,-0.29319483041763306,-1.2030166387557983,-1.6117769479751587
1782831986547671600,2.642671630859375,0.021964866667985916,-0.8267791271209717,-0.8228384256362915
1782831986557600500,2.6526005859375,0.16741979122161865,-0.33016830682754517,0.04629964753985405
1782831986567529500,2.662529541015625,-0.016391027718782425,0.48178887367248535,0.6735043525695801
1782831986577457400,2.67245751953125,-0.45609888434410095,1.14828622341156,1.0620161294937134
1782831986587386600,2.68238671875,-0.7755736112594604,1.347985863685608,1.2534440755844116
1782831986597315600,2.692315673828125,-0.906075656414032,0.9548987150192261,1.3032242059707642
1782831986607244500,2.70224462890625,-0.9179810285568237,0.6690897345542908,1.3038643598556519
1782831986617173500,2.712173583984375,-0.7639965415000916,0.31130871176719666,1.1844909191131592
1782831986627102700,2.722102783203125,-0.5942762494087219,-0.08396534621715546,1.0335508584976196
1782831986637031700,2.73203173828125,-0.408988356590271,-0.2425968050956726,0.9799659848213196
1782831986646960400,2.74196044921875,-0.261383593082428,-0.2413625568151474,1.0470988750457764
1782831986656889300,2.751889404296875,-0.17011359333992004,-0.16351570188999176,1.1518127918243408
1782831986666818300,2.761818359375,-0.1859651654958725,-0.17588764429092407,1.1903808116912842
1782831986676747500,2.77174755859375,-0.12405199557542801,-0.23944531381130219,1.0581008195877075
1782831986686676500,2.781676513671875,-0.2353963702917099,0.036595262587070465,0.9636975526809692
1782831986696605400,2.79160546875,-0.3282890319824219,0.2840644419193268,0.7871872186660767
1782831986706534400,2.801534423828125,-0.3467079997062683,0.26715946197509766,0.5712625980377197
1782831986716463600,2.811463623046875,-0.40703657269477844,0.1442071497440338,0.46937480568885803
1782831986726392600,2.821392578125,-0.6103067994117737,-0.05191938951611519,0.47737497091293335
1782831986736321500,2.831321533203125,-0.7702871561050415,-0.13124243915081024,0.6351368427276611
1782831986746250500,2.84125048828125,-0.6654751300811768,-0.2600547671318054,0.8354930281639099
1782831986756179500,2.851179443359375,-0.5245364308357239,-0.08133082836866379,0.9912565350532532
1782831986766107600,2.861107666015625,-0.4981788396835327,0.4135529696941376,0.8349410891532898
1782831986776036600,2.87103662109375,-0.5078503489494324,0.8561892509460449,0.3893209993839264
1782831986785965600,2.880965576171875,-0.4741378128528595,1.3210484981536865,0.06298161298036575
1782831986795894300,2.890894287109375,-0.3853245675563812,1.2638453245162964,-0.026611119508743286
1782831986805823500,2.900823486328125,-0.3007141351699829,0.8402544856071472,0.1594136357307434
1782831986815752400,2.91075244140625,-0.17351622879505157,0.7148110866546631,0.40089309215545654
1782831986825681400,2.920681396484375,-0.006780855357646942,0.8482567667961121,0.6201352477073669
1782831986835610400,2.9306103515625,0.053308580070734024,1.1122740507125854,0.7217321991920471
1782831986845539600,2.94053955078125,0.020910490304231644,1.266038417816162,0.4694884419441223
1782831986855468500,2.950468505859375,-0.05817979946732521,1.0254454612731934,0.03277982398867607
1782831986865397500,2.9603974609375,-0.20722012221813202,0.7850756645202637,-0.3524901270866394
1782831986875326500,2.970326416015625,-0.19990122318267822,0.46867212653160095,-0.6110271215438843
1782831986885255000,2.9802548828125,-0.10171976685523987,-0.05795048922300339,-0.7756915092468262
1782831986895184100,2.99018408203125,-0.040869198739528656,-0.4719069004058838,-0.8269858360290527
1782831986905113000,3.000113037109375,0.012442496605217457,-0.8292882442474365,-0.8496521711349487
1782831986915042000,3.0100419921875,-0.00013587996363639832,-1.1012212038040161,-0.8987070918083191
1782831986924970800,3.019970703125,-0.09736771881580353,-1.3442612886428833,-0.9671949744224548
1782831986934900000,3.02989990234375,-0.21829386055469513,-1.2472732067108154,-0.9084059596061707
1782831986944829000,3.039828857421875,-0.30463024973869324,-0.8916969299316406,-0.750633716583252
1782831986954756900,3.0497568359375,-0.379961758852005,-0.4770408868789673,-0.4909669756889343
1782831986964685800,3.059685791015625,-0.4000414311885834,-0.11547169834375381,-0.32893022894859314
1782831986974614800,3.06961474609375,-0.5216584205627441,0.06324638426303864,-0.2856863737106323
1782831986984544000,3.0795439453125,-0.6458644866943359,0.36420753598213196,-0.42465153336524963
1782831986994473000,3.089472900390625,-0.5963606238365173,0.5479816198348999,-0.6321919560432434
1782831987004402000,3.09940185546875,-0.5088674426078796,0.7552439570426941,-0.7736639976501465
1782831987014331000,3.109330810546875,-0.4029029309749603,0.8416630029678345,-0.6854989528656006
1782831987024260000,3.119260009765625,-0.25906693935394287,0.7606987953186035,-0.4947214722633362
1782831987034189000,3.12918896484375,-0.17771965265274048,0.7278178334236145,-0.26340967416763306
1782831987044118000,3.139117919921875,-0.03678238391876221,0.6287904381752014,-0.057519279420375824
1782831987054047000,3.149046875,0.08002039790153503,0.43534693121910095,0.12417781352996826
1782831987063976000,3.158975830078125,0.11196990311145782,0.17655079066753387,0.32084953784942627
1782831987073905000,3.16890478515625,0.09424230456352234,0.018221881240606308,0.5019820332527161
1782831987083833900,3.178833740234375,0.1024729385972023,-0.07306859642267227,0.5753089785575867
1782831987093762800,3.1887626953125,0.07708315551280975,-0.14009317755699158,0.5031383633613586
1782831987103692000,3.198692138671875,0.06493541598320007,-0.1261344850063324,0.37620171904563904
1782831987113621000,3.20862109375,0.06306294351816177,-0.15787829458713531,0.2401765137910843
1782831987123550000,3.218550048828125,-0.02228059619665146,-0.05900879576802254,0.11636711657047272
1782831987133479000,3.22847900390625,-0.09267007559537888,-0.007017234805971384,-0.04293278604745865
1782831987143408000,3.238408203125,-0.15320876240730286,0.008654776029288769,-0.17510931193828583
1782831987153336000,3.248336181640625,-0.19658206403255463,-0.05563100427389145,-0.21887223422527313
1782831987163265000,3.25826513671875,-0.19070741534233093,-0.0630996823310852,-0.18657490611076355
1782831987173194000,3.268194091796875,-0.13341616094112396,-0.020956750959157944,-0.07354050129652023
1782831987183123000,3.278123046875,-0.05406331270933151,-0.1588476002216339,0.07872825115919113
1782831987193052200,3.28805224609375,-0.017666688188910484,-0.3262571096420288,0.21319445967674255
1782831987202981000,3.297981201171875,-0.006144861690700054,-0.4646332859992981,0.2605648636817932
1782831987212909800,3.307909912109375,0.024261513724923134,-0.5906305909156799,0.24196133017539978
1782831987222838800,3.3178388671875,0.08044899255037308,-0.589079737663269,0.19615526497364044
1782831987232768000,3.32776806640625,0.1134687289595604,-0.4320797622203827,0.15893732011318207
1782831987242697000,3.337697021484375,0.08847504109144211,-0.239142045378685,0.14615988731384277
1782831987252626000,3.3476259765625,0.029669251292943954,-0.044619955122470856,0.09895295649766922
1782831987262555000,3.357554931640625,0.00791088491678238,0.12620297074317932,-0.0508696585893631
1782831987272484000,3.367484130859375,-0.023106420412659645,0.2832362651824951,-0.23843474686145782
1782831987282413000,3.3774130859375,-0.07494999468326569,0.2591296136379242,-0.32312074303627014
1782831987292342000,3.387342041015625,-0.1771453320980072,0.18515819311141968,-0.37151676416397095
1782831987302271000,3.39727099609375,-0.2650376558303833,0.17893244326114655,-0.4536817967891693
1782831987312200200,3.4072001953125,-0.3281468451023102,0.045432187616825104,-0.45720383524894714
1782831987322129000,3.41712890625,-0.3540255129337311,-0.12005943059921265,-0.42253053188323975
1782831987332057900,3.427057861328125,-0.37382423877716064,-0.024225585162639618,-0.3157862424850464
1782831987341986800,3.43698681640625,-0.23407724499702454,0.2270910143852234,-0.134255051612854
1782831987351915000,3.4469150390625,-0.023312807083129883,0.5268025994300842,0.017631158232688904
1782831987361844000,3.456843994140625,0.16198894381523132,0.8348996043205261,0.03883178159594536
1782831987371773000,3.46677294921875,0.3304471969604492,0.7105715274810791,0.015276651829481125
1782831987381702000,3.476701904296875,0.4645974040031433,0.11291593313217163,-0.1253109872341156
1782831987391630800,3.486630859375,0.5542466044425964,-0.7258450388908386,-0.2997930347919464
1782831987401560000,3.49656005859375,0.6191950440406799,-1.2668004035949707,-0.35392194986343384
1782831987411489000,3.506489013671875,0.739419162273407,-1.3329424858093262,-0.2044522911310196
1782831987421418000,3.51641796875,0.7194056510925293,-1.2415622472763062,0.045662570744752884
1782831987431347000,3.526346923828125,0.6242114901542664,-0.9898812770843506,0.3381873667240143
1782831987441276200,3.536276123046875,0.5278899669647217,-0.6192456483840942,0.48684588074684143
1782831987451205000,3.546205078125,0.3481154143810272,-0.25576063990592957,0.41245126724243164
1782831987461134000,3.556134033203125,0.05871666967868805,0.24025952816009521,0.23650726675987244
1782831987471062800,3.566062744140625,-0.19899316132068634,0.8193540573120117,0.027715161442756653
1782831987480991700,3.57599169921875,-0.3559756875038147,1.3480278253555298,-0.15241454541683197
1782831987490921000,3.5859208984375,-0.4005141258239746,1.6568678617477417,-0.30825233459472656
1782831987500850000,3.595849853515625,-0.37839990854263306,1.528369665145874,-0.43598464131355286
1782831987510779000,3.60577880859375,-0.3821949064731598,1.0237873792648315,-0.498439222574234
1782831987520707800,3.615707763671875,-0.4226115643978119,0.3372294008731842,-0.49987778067588806
1782831987530637000,3.625636962890625,-0.5156504511833191,-0.19256813824176788,-0.5731480121612549
1782831987540566000,3.63556591796875,-0.5681496858596802,-0.35921868681907654,-0.5322926640510559
1782831987550494000,3.645493896484375,-0.6105650663375854,-0.3190896511077881,-0.43377408385276794
1782831987560423000,3.6554228515625,-0.6754559278488159,-0.09652413427829742,-0.2489144206047058
1782831987570351900,3.665351806640625,-0.699749767780304,0.3693769872188568,-0.038450393825769424
1782831987580281000,3.675281005859375,-0.6234571933746338,0.7723445296287537,0.05658527836203575
1782831987590210000,3.6852099609375,-0.5338367223739624,0.8059847354888916,0.0455842949450016
1782831987600139000,3.695138916015625,-0.4505327045917511,0.47510603070259094,-0.0063895657658576965
1782831987610068000,3.70506787109375,-0.3978646993637085,-0.06793435662984848,-0.08197300881147385
1782831987619997000,3.714996826171875,-0.3900708556175232,-0.5147607922554016,-0.19166916608810425
1782831987629926000,3.72492578125,-0.3178864121437073,-0.6415885090827942,-0.30272722244262695
1782831987639854800,3.734854736328125,-0.23028457164764404,-0.5275339484214783,-0.4386838972568512
1782831987649783800,3.74478369140625,-0.22050490975379944,-0.4162856936454773,-0.5406734347343445
1782831987659713000,3.754713134765625,-0.25899454951286316,-0.31439992785453796,-0.5777178406715393
1782831987669642000,3.76464208984375,-0.30194681882858276,-0.25305506587028503,-0.6036951541900635
1782831987679571000,3.774571044921875,-0.3387342393398285,-0.24839279055595398,-0.6230359673500061
1782831987689500000,3.7845,-0.34713733196258545,-0.2556973099708557,-0.5707783699035645
1782831987699429000,3.79442919921875,-0.3278307020664215,-0.2616994380950928,-0.4641105830669403
1782831987709358000,3.804358154296875,-0.2696011960506439,-0.1539439707994461,-0.2811777889728546
1782831987719287000,3.814287109375,-0.14944444596767426,0.10652165114879608,-0.07405823469161987
1782831987729215700,3.8242158203125,0.0403318852186203,0.35709741711616516,0.12890979647636414
1782831987739145000,3.83414501953125,0.2054188847541809,0.481267511844635,0.33881649374961853
1782831987749074000,3.844073974609375,0.2766278088092804,0.300823450088501,0.5603773593902588
1782831987759003000,3.8540029296875,0.27108919620513916,-0.023276198655366898,0.7240071296691895
1782831987768930800,3.863930908203125,0.24623659253120422,-0.39701783657073975,0.8269769549369812
1782831987778859800,3.87385986328125,0.2774469554424286,-0.616708517074585,0.8397502899169922
1782831987788789000,3.8837890625,0.30121833086013794,-0.5650544166564941,0.7398481965065002
1782831987798718000,3.893718017578125,0.2968321144580841,-0.30740630626678467,0.5630225539207458
1782831987808647000,3.90364697265625,0.22668388485908508,-0.16229377686977386,0.31109535694122314
1782831987818576000,3.913575927734375,0.07543087750673294,-0.0817345678806305,0.11912320554256439
1782831987828505000,3.923505126953125,-0.026588425040245056,-0.08414046466350555,0.006373221520334482
1782831987838434000,3.93343408203125,-0.008323502726852894,-0.20746271312236786,-0.0781317874789238
1782831987848363000,3.943363037109375,0.09414640814065933,-0.5709376335144043,-0.14220024645328522
1782831987858292000,3.9532919921875,0.1789437234401703,-0.9684914350509644,-0.1344345510005951
1782831987868221000,3.963220947265625,0.2526363134384155,-1.2576617002487183,0.010001979768276215
1782831987878150000,3.97314990234375,0.3039378821849823,-1.5412521362304688,0.3178042769432068
1782831987888078600,3.98307861328125,0.45740172266960144,-1.6723097562789917,0.5882105231285095
1782831987898007600,3.993007568359375,0.7231072187423706,-1.82681143283844,0.7850880026817322
1782831987907936800,4.002936767578125,0.860493540763855,-1.65128493309021,0.817005455493927
1782831987917865700,4.01286572265625,0.8526794910430908,-1.1851027011871338,0.6724845767021179
1782831987927794700,4.022794677734375,0.6950925588607788,-0.9557363986968994,0.4448557198047638
1782831987937723600,4.0327236328125,0.5072556734085083,-1.0198415517807007,0.194002166390419
1782831987947652900,4.04265283203125,0.44495606422424316,-1.1994694471359253,0.013007868081331253
1782831987957581800,4.052581787109375,0.4198228418827057,-1.3872733116149902,-0.12706412374973297
1782831987967510800,4.0625107421875,0.2483198046684265,-1.3942763805389404,-0.2875336706638336
1782831987977438700,4.072438720703125,-0.10267937183380127,-1.2159780263900757,-0.4610273241996765
1782831987987367700,4.08236767578125,-0.5508387684822083,-0.3845769762992859,-0.5149433016777039
1782831987997297000,4.092296875,-0.8870950937271118,0.730586051940918,-0.4387452006340027
1782831988007225900,4.102225830078125,-1.1346817016601562,1.6656684875488281,-0.2778750956058502
1782831988017154800,4.11215478515625,-1.280491828918457,2.104916572570801,-0.13511091470718384
1782831988027083500,4.12208349609375,-1.305095911026001,2.08121657371521,-0.06394059956073761
1782831988037012700,4.1320126953125,-1.1813706159591675,1.7294574975967407,-0.112057626247406
1782831988046941700,4.141941650390625,-0.9699366688728333,1.0698730945587158,-0.18214057385921478
1782831988056870700,4.15187060546875,-0.7412880659103394,0.25964653491973877,-0.154973566532135
1782831988066799600,4.161799560546875,-0.6858935356140137,-0.4997996389865875,0.0005664941854774952
1782831988076728800,4.171728759765625,-0.6848688125610352,-0.778578519821167,0.24589680135250092
1782831988086657800,4.18165771484375,-0.6292755603790283,-0.6521063446998596,0.43815386295318604
1782831988096586800,4.191586669921875,-0.563730776309967,-0.20912356674671173,0.48009246587753296
1782831988106515700,4.201515625,-0.4990098774433136,0.22183741629123688,0.3976689577102661
1782831988116445000,4.21144482421875,-0.4602718651294708,0.48985549807548523,0.18462149798870087
1782831988126374000,4.221373779296875,-0.4331701993942261,0.6652107834815979,-0.057642798870801926
1782831988136302600,4.231302490234375,-0.3837486803531647,0.7163844108581543,-0.19335587322711945
1782831988146231600,4.2412314453125,-0.2711467742919922,0.6608756184577942,-0.1831815242767334
1782831988156160800,4.251160888671875,-0.08254710584878922,0.5053260326385498,-0.06331674009561539
1782831988166089700,4.26108984375,0.11547409743070602,0.21939630806446075,0.11555580794811249
1782831988176018700,4.271018798828125,0.30496060848236084,-0.13728950917720795,0.24114038050174713
1782831988185947600,4.28094775390625,0.4534960091114044,-0.4225481450557709,0.2347370684146881
1782831988195876900,4.290876953125,0.5688228607177734,-0.547670304775238,0.16271744668483734
1782831988205805800,4.300805908203125,0.6658258438110352,-0.5972365736961365,0.05447857826948166
1782831988215733800,4.310733642578125,0.7070650458335876,-0.6001771092414856,-0.024275770410895348
1782831988225662700,4.320662841796875,0.7098608613014221,-0.5067046880722046,-0.06967946887016296
1782831988235591700,4.330591796875,0.6174642443656921,-0.35781925916671753,-0.05529887229204178
1782831988245521000,4.34052099609375,0.4881925582885742,-0.14968015253543854,-0.013739977963268757
1782831988255449900,4.350449951171875,0.3775758743286133,0.07245385646820068,-0.036201152950525284
1782831988265378800,4.36037890625,0.2891155183315277,0.26993098855018616,-0.09757369756698608
1782831988275307800,4.370307861328125,0.247087299823761,0.42756029963493347,-0.17127808928489685
1782831988285236700,4.38023681640625,0.2526887357234955,0.5415419936180115,-0.20907820761203766
1782831988295165700,4.390165771484375,0.251237690448761,0.6336768269538879,-0.22097021341323853
1782831988305094700,4.4000947265625,0.2998339831829071,0.6285422444343567,-0.16186775267124176
1782831988315023600,4.410023681640625,0.3318418860435486,0.5374482870101929,-0.06573554128408432
1782831988324952800,4.419952880859375,0.25168102979660034,0.4296661615371704,-0.05814287066459656
1782831988334881800,4.4298818359375,0.25385522842407227,0.2776305675506592,-0.1307571530342102
1782831988344810800,4.439810791015625,0.28163304924964905,0.04220019653439522,-0.3446071147918701
1782831988354739700,4.44973974609375,0.18266087770462036,-0.0036246804520487785,-0.6402750015258789
1782831988364669000,4.4596689453125,-0.004703417420387268,0.05534942075610161,-0.9280484318733215
1782831988374598000,4.469597900390625,-0.24576981365680695,0.16486118733882904,-1.1382110118865967
1782831988384526800,4.47952685546875,-0.3522352874279022,0.33573704957962036,-1.153337001800537
1782831988394455600,4.48945556640625,-0.3551841676235199,0.6277927756309509,-1.0168718099594116
1782831988404384800,4.499384765625,-0.31721919775009155,0.6179302930831909,-0.8346419334411621
1782831988414313700,4.509313720703125,-0.2621396481990814,0.7253069281578064,-0.7471871376037598
1782831988424242700,4.51924267578125,0.026345157995820045,1.1745356321334839,-0.9150773286819458
1782831988434170600,4.529170654296875,0.49070975184440613,1.7541366815567017,-0.712500810623169
1782831988444099600,4.539099609375,0.8202117085456848,1.728114128112793,0.061503514647483826
1782831988454028800,4.54902880859375,1.0602787733078003,1.0154303312301636,0.9273846745491028
1782831988463957800,4.558957763671875,1.2849475145339966,-0.06618163734674454,1.438361406326294
1782831988473886700,4.56888671875,1.446358561515808,-0.8890553712844849,1.550377368927002
1782831988483815700,4.578815673828125,1.5104979276657104,-1.2472057342529297,1.498382806777954
1782831988493745000,4.588744873046875,1.33711838722229,-1.3839014768600464,1.3313789367675781
1782831988503673900,4.598673828125,0.9174761176109314,-1.3389955759048462,0.9302563071250916
1782831988513602800,4.608602783203125,0.39060160517692566,-1.0464507341384888,0.254077285528183
1782831988523531800,4.61853173828125,-0.15157590806484222,-0.4522537589073181,-0.3849562108516693
1782831988533460700,4.628460693359375,-0.6076722145080566,0.2131461501121521,-0.7969464063644409
1782831988543389700,4.6383896484375,-0.9930955171585083,0.6536366939544678,-1.0459237098693848
1782831988553318700,4.648318603515625,-1.3580152988433838,0.7985902428627014,-1.281992793083191
1782831988563247600,4.65824755859375,-1.5915247201919556,0.70335453748703,-1.5447338819503784
1782831988573176800,4.6681767578125,-1.6915518045425415,0.3587554097175598,-1.8085931539535522
1782831988583105800,4.678105712890625,-1.6932116746902466,0.017620977014303207,-1.875391960144043
1782831988593034800,4.68803466796875,-1.4535481929779053,-0.20868317782878876,-1.6415587663650513
1782831988602963700,4.697963623046875,-1.1011382341384888,-0.14906617999076843,-1.0885510444641113
1782831988612893000,4.707892822265625,-0.6939175724983215,0.09509418159723282,-0.24457088112831116
1782831988622822000,4.71782177734375,-0.2755663990974426,0.14508651196956635,0.5333254337310791
1782831988632750800,4.727750732421875,0.06715487688779831,-0.006238865200430155,1.0643302202224731
1782831988642679800,4.7376796875,0.300452321767807,-0.2574058473110199,1.2659895420074463
1782831988652608500,4.7476083984375,0.38293272256851196,-0.6167250871658325,1.1851837635040283
1782831988662537700,4.757537841796875,0.2776116132736206,-0.751408576965332,0.9115380644798279
1782831988672466000,4.7674658203125,0.11888524144887924,-0.49507951736450195,0.5211986303329468
1782831988682394600,4.77739453125,-0.027572110295295715,-0.07071226835250854,0.0768478512763977
1782831988692323600,4.787323486328125,-0.1918383091688156,0.3295162618160248,-0.2600916922092438
1782831988702252800,4.797252685546875,-0.3321072459220886,0.581167995929718,-0.4165835678577423
1782831988712181800,4.807181640625,-0.3552612066268921,0.6241709589958191,-0.4306742548942566
1782831988722110700,4.81711083984375,-0.3315950334072113,0.5137863755226135,-0.38602370023727417
1782831988732039700,4.827039794921875,-0.24326296150684357,0.3336488902568817,-0.34119531512260437
1782831988741968600,4.83696875,-0.10679513961076736,0.054093699902296066,-0.32438036799430847
1782831988751897900,4.84689794921875,0.00288513395935297,-0.2222498655319214,-0.29055705666542053
1782831988761826800,4.856826904296875,0.07265782356262207,-0.3453952372074127,-0.19825482368469238
1782831988771755800,4.866755859375,0.16082122921943665,-0.2718816101551056,-0.001455212477594614
1782831988781684700,4.876684814453125,0.22009921073913574,-0.1920109987258911,0.21346081793308258
1782831988791613700,4.88661376953125,0.21602849662303925,-0.13421207666397095,0.3917210102081299
1782831988801542700,4.896542724609375,0.17945529520511627,-0.1080569177865982,0.46615928411483765
1782831988811471600,4.9064716796875,0.14338524639606476,-0.06385914981365204,0.4386393427848816
1782831988821400600,4.916400634765625,0.09097984433174133,-0.06111875921487808,0.31357836723327637
1782831988831329800,4.926329833984375,0.036358337849378586,-0.0608571395277977,0.2092633694410324
1782831988841258800,4.9362587890625,-0.020945964381098747,-0.08176162093877792,0.14679385721683502
1782831988851187700,4.946187744140625,-0.05024414509534836,-0.12978781759738922,0.13011208176612854
1782831988861116700,4.95611669921875,-0.051797568798065186,-0.18051835894584656,0.08678511530160904
1782831988871046000,4.9660458984375,-0.06308824568986893,-0.09975944459438324,0.002270269673317671
1782831988880974800,4.975974853515625,-0.10035599023103714,0.04488801956176758,-0.0881728082895279
1782831988890904000,4.985904052734375,-0.19276130199432373,0.22305156290531158,-0.18081682920455933
1782831988900833000,4.9958330078125,-0.3442847728729248,0.43931859731674194,-0.26055508852005005
1782831988910762200,5.00576220703125,-0.4434978663921356,0.6975735425949097,-0.33636054396629333
1782831988920690200,5.015690185546875,-0.4986596703529358,0.8351865410804749,-0.4761274755001068
1782831988930619100,5.025619140625,-0.5127422213554382,0.7463696599006653,-0.6221364140510559
1782831988940548000,5.035548095703125,-0.46430012583732605,0.35558459162712097,-0.8274639844894409
1782831988950477000,5.04547705078125,-0.3965010643005371,-0.20045793056488037,-0.9826493263244629
1782831988960406300,5.05540625,-0.2579823136329651,-0.6688531041145325,-0.8617625832557678
1782831988970335200,5.065335205078125,-0.015159889124333858,-1.0457844734191895,-0.5005673766136169
1782831988980264200,5.07526416015625,0.19477124512195587,-1.1741442680358887,-0.1231015995144844
1782831988990193200,5.085193115234375,0.31143781542778015,-1.0826966762542725,0.17215979099273682
1782831989000122400,5.095122314453125,0.25471436977386475,-0.7682152390480042,0.35821911692619324
1782831989010051300,5.10505126953125,0.10257720947265625,-0.43994858860969543,0.5111926198005676
1782831989019980300,5.114980224609375,0.02343817800283432,-0.21697382628917694,0.5156329274177551
1782831989029909200,5.1249091796875,-0.020050957798957825,-0.05059355869889259,0.3448849618434906
1782831989039838200,5.134838134765625,-0.020579595118761063,-0.09028664231300354,0.10077615827322006
1782831989049767200,5.14476708984375,-0.01724913716316223,-0.24730956554412842,-0.09137430042028427
1782831989059696000,5.154696044921875,-0.12017818540334702,-0.4925054907798767,-0.15640151500701904
1782831989069625000,5.164625,-0.2890607714653015,-0.7024752497673035,-0.11218821257352829
1782831989079554300,5.17455419921875,-0.5081843137741089,-0.5514758825302124,-0.0054172915406525135
1782831989089483300,5.184483154296875,-0.6851661205291748,-0.09140840917825699,0.18696628510951996
1782831989099412200,5.194412109375,-0.7467860579490662,0.3335506319999695,0.3320766091346741
1782831989109341200,5.204341064453125,-0.7630897164344788,0.5235053896903992,0.35691288113594055
1782831989119270400,5.2142705078125,-0.7898174524307251,0.5873895287513733,0.33348771929740906
1782831989129199400,5.224199462890625,-0.7750301361083984,0.5560626983642578,0.2640773057937622
1782831989139128300,5.23412841796875,-0.7296333312988281,0.3994704484939575,0.21745122969150543
1782831989149057000,5.24405712890625,-0.6356591582298279,0.1244964450597763,0.23553745448589325
1782831989158985200,5.253985107421875,-0.4988991320133209,-0.11160449683666229,0.31324318051338196
1782831989168914400,5.26391455078125,-0.35875314474105835,-0.2852631211280823,0.44389426708221436
1782831989178843100,5.273843017578125,-0.23280692100524902,-0.3315211832523346,0.5757338404655457
1782831989188772000,5.283772216796875,-0.1256517767906189,-0.37100380659103394,0.6658796072006226
1782831989198701000,5.293701171875,-0.06452291458845139,-0.4375218451023102,0.6720946431159973
1782831989208630300,5.30363037109375,-0.032322995364665985,-0.5053390264511108,0.547429084777832
1782831989218559200,5.313559326171875,-0.0082235187292099,-0.47486817836761475,0.31659430265426636
1782831989228488200,5.32348828125,-0.0016807718202471733,-0.36207810044288635,-0.028156453743577003
1782831989238417200,5.333417236328125,0.0023930659517645836,-0.2775072753429413,-0.3381417393684387
1782831989248346000,5.34334619140625,-0.05064219981431961,-0.2117973119020462,-0.531524658203125
1782831989258275300,5.353275390625,-0.100373275578022,-0.12375587224960327,-0.5769006609916687
1782831989268204300,5.363204345703125,-0.06980206072330475,-0.03886378929018974,-0.5513840317726135
1782831989278133200,5.37313330078125,-0.0157002042979002,0.042956240475177765,-0.5000393390655518
1782831989288062200,5.383062255859375,0.05609819293022156,0.08522402495145798,-0.42647331953048706
1782831989297991200,5.3929912109375,0.15130619704723358,-0.0026139523833990097,-0.3319025933742523
1782831989307920100,5.402920166015625,0.20157992839813232,-0.19957305490970612,-0.2066689282655716
1782831989317849000,5.41284912109375,0.21592745184898376,-0.3944389522075653,-0.07785077393054962
1782831989327778000,5.422778076171875,0.17192871868610382,-0.42169785499572754,0.054634224623441696
1782831989337707300,5.432707275390625,0.030069854110479355,-0.23239344358444214,0.11022026091814041
1782831989347636200,5.44263623046875,-0.05867978557944298,0.07795389741659164,0.1540127545595169
1782831989357565200,5.452565185546875,-0.0021174391731619835,0.3565509021282196,0.1700814664363861
1782831989367494100,5.462494140625,0.10153847932815552,0.5197022557258606,-0.01501363143324852
1782831989377423400,5.47242333984375,0.29970163106918335,0.6266313791275024,-0.26307377219200134
1782831989387352300,5.482352294921875,0.5409973859786987,0.7667123079299927,-0.32602137327194214
1782831989397281300,5.49228125,0.6209621429443359,0.720143735408783,-0.18315207958221436
1782831989407209200,5.502209228515625,0.6193282604217529,0.2903086245059967,0.10453935712575912
1782831989417138200,5.51213818359375,0.5764660239219666,-0.32780203223228455,0.3835986852645874
1782831989427067400,5.5220673828125,0.41068756580352783,-0.9154820442199707,0.5566589832305908
1782831989436996000,5.53199609375,0.24809889495372772,-1.1311360597610474,0.6323692202568054
1782831989446925000,5.541925048828125,0.1448841691017151,-0.9912232160568237,0.5625686049461365
1782831989456854000,5.55185400390625,0.06978941708803177,-0.6295249462127686,0.4695689082145691
1782831989466783200,5.561783203125,-0.0445418618619442,-0.273352712392807,0.3257967531681061
1782831989476712200,5.571712158203125,-0.08450472354888916,-0.02153141424059868,0.12536299228668213
1782831989486641200,5.58164111328125,-0.036372240632772446,0.28175637125968933,-0.075801782310009
1782831989496570000,5.591570068359375,0.008511611260473728,0.7198189496994019,-0.1140650138258934
1782831989506499300,5.601499267578125,0.1024499386548996,0.6868200898170471,0.07813061028718948
1782831989516428300,5.61142822265625,0.3912215530872345,-0.022023621946573257,0.2720619738101959
1782831989526357200,5.621357177734375,0.6603801846504211,-0.3861241042613983,0.5842291116714478
1782831989536286200,5.6312861328125,0.8714569807052612,-0.6900323629379272,0.6515016555786133
1782831989546215200,5.641215087890625,0.8375738859176636,-0.9032314419746399,0.6419233679771423
1782831989556144000,5.65114404296875,0.6361470222473145,-0.6779541373252869,0.969422459602356
1782831989566073000,5.661072998046875,0.45514896512031555,-0.648590624332428,1.1938629150390625
1782831989576002000,5.671001953125,0.6348199248313904,-0.6959725618362427,0.7727175354957581
1782831989585931300,5.68093115234375,0.7505244016647339,-0.4521943926811218,0.44713860750198364
1782831989595860200,5.690860107421875,0.769650936126709,-0.7009919881820679,-0.01867993362247944
1782831989605789200,5.7007890625,0.668402910232544,-0.9753702878952026,-0.272344708442688
1782831989615718100,5.71071826171875,0.4392346739768982,-1.1410582065582275,-0.4490009546279907
1782831989625647400,5.7206474609375,0.11408047378063202,-0.9390784502029419,-0.47990885376930237
1782831989635576300,5.730576416015625,-0.03725844994187355,-0.7246441841125488,-0.6713866591453552
1782831989645505300,5.74050537109375,-0.20137082040309906,-0.038857944309711456,-0.6683961153030396
1782831989655434200,5.750434326171875,-0.2988124191761017,0.6606157422065735,-0.5697062611579895
1782831989665362200,5.760362060546875,-0.2716800272464752,1.131063461303711,-0.47351598739624023
1782831989675291400,5.77029150390625,-0.25178220868110657,1.517856478691101,-0.5644852519035339
1782831989685220400,5.780220458984375,-0.20037999749183655,1.6857799291610718,-0.753444254398346
1782831989695149000,5.790149169921875,-0.13621486723423004,1.4308406114578247,-0.8587033152580261
1782831989705078000,5.800078125,-0.16365379095077515,0.7585776448249817,-0.8639631271362305
1782831989715007200,5.81000732421875,-0.1964370310306549,-0.03891339153051376,-0.5658766031265259
1782831989724936200,5.819936279296875,-0.15129272639751434,-0.43356478214263916,-0.19928866624832153
1782831989734865200,5.829865234375,-0.013583055697381496,-0.41122564673423767,0.009866951033473015
1782831989744794000,5.839794189453125,0.1342843472957611,0.004409105516970158,0.08031588792800903
1782831989754723300,5.849723388671875,0.2171480655670166,0.5208447575569153,0.09681710600852966
1782831989764652300,5.85965234375,0.36859244108200073,0.6001046895980835,0.08245223015546799
1782831989774581200,5.869581298828125,0.43710172176361084,0.13977248966693878,0.07200704514980316
1782831989784510200,5.87951025390625,0.0696420818567276,0.07719395309686661,0.2012690156698227
1782831989794439400,5.889439453125,-0.14777624607086182,-0.035580798983573914,0.20101627707481384
1782831989804368400,5.899368408203125,-0.2361474186182022,-0.19936548173427582,0.16546271741390228
1782831989814297000,5.909297119140625,-0.3070215880870819,-0.07398012280464172,0.1340736299753189
1782831989824226000,5.91922607421875,-0.26512596011161804,0.09075245261192322,0.06859756261110306
1782831989834155300,5.9291552734375,-0.22944730520248413,0.3272864520549774,0.03791660815477371
1782831989844084200,5.939084228515625,-0.21312223374843597,0.41945838928222656,0.08551237732172012
1782831989854013200,5.94901318359375,-0.1135820597410202,0.4380318224430084,0.20078836381435394
1782831989863942100,5.958942138671875,-0.04055239260196686,0.31708651781082153,0.30725106596946716
1782831989873871000,5.96887109375,-0.006837306544184685,0.09700264036655426,0.3932639956474304
1782831989883800300,5.97880029296875,0.04816308617591858,0.005286268889904022,0.44377875328063965
1782831989893729500,5.9887294921875,0.040552835911512375,0.09593041241168976,0.5131613612174988
1782831989903658500,5.998658447265625,-0.01960204914212227,0.0320003367960453,0.4786776900291443
1782831989913587500,6.00858740234375,-0.038097966462373734,0.22758235037326813,0.3764948546886444
1782831989923515400,6.018515380859375,-0.13412007689476013,0.6808279752731323,0.3938460946083069
1782831989933444400,6.0284443359375,-0.33110475540161133,0.9926937818527222,0.5320615172386169
1782831989943373600,6.03837353515625,-0.4640071988105774,1.0311752557754517,0.8949908018112183
1782831989953302300,6.04830224609375,-0.4292590618133545,1.0205457210540771,1.240120768547058
1782831989963231200,6.058231201171875,-0.3696277141571045,0.9460256099700928,1.3680164813995361
1782831989973160200,6.06816015625,-0.3200351297855377,1.049750566482544,1.4286818504333496
1782831989983089400,6.07808935546875,-0.2310187816619873,1.2267040014266968,1.3896501064300537
1782831989993018400,6.088018310546875,0.03186344727873802,1.5869194269180298,1.3725101947784424
1782831990002947300,6.097947265625,0.3705952763557434,1.8364014625549316,1.3640961647033691
1782831990012876300,6.107876220703125,0.5428344011306763,1.4380042552947998,1.2505416870117188
1782831990022805500,6.117805419921875,0.42940419912338257,0.257888525724411,1.0893088579177856
1782831990032734500,6.127734375,-0.002298193983733654,-0.9238593578338623,0.9923357367515564
1782831990042663400,6.137663330078125,-0.6281686425209045,-1.094424843788147,0.9682275056838989
1782831990052592400,6.14759228515625,-1.0761786699295044,-0.26555296778678894,1.340781331062317
1782831990062521300,6.157521240234375,-1.2771921157836914,1.1206234693527222,1.8605750799179077
1782831990072450300,6.1674501953125,-1.2837096452713013,2.4566476345062256,2.0894412994384766
1782831990082379300,6.177379150390625,-0.7992926239967346,3.115813732147217,1.7868164777755737
1782831990092308200,6.18730810546875,0.12257332354784012,2.834529161453247,0.9302813410758972
1782831990102237400,6.197237548828125,0.8864004611968994,1.3235136270523071,-0.09137453883886337
1782831990112166400,6.20716650390625,1.1980363130569458,-0.2358715981245041,-0.5840691924095154
1782831990122095400,6.217095458984375,1.3528403043746948,-1.1144778728485107,-0.40985625982284546
1782831990132024300,6.2270244140625,1.5649378299713135,-2.0604968070983887,-0.427751362323761
1782831990141953500,6.23695361328125,1.630262017250061,-2.697962522506714,-0.9060668349266052
1782831990151882500,6.246882568359375,1.4462573528289795,-2.5329396724700928,-1.5101274251937866
1782831990161810400,6.256810546875,0.974987268447876,-2.125256299972534,-2.207953691482544
1782831990171739400,6.266739501953125,0.32351046800613403,-1.5181190967559814,-2.7474067211151123
1782831990181668400,6.27666845703125,-0.25043919682502747,-0.5976040959358215,-2.686244010925293
1782831990191597600,6.28659765625,-0.5566124320030212,0.016332579776644707,-2.091639518737793
1782831990201526500,6.296526611328125,-0.6129085421562195,0.25819796323776245,-1.3367643356323242
1782831990211455200,6.306455322265625,-0.2977847158908844,0.07862314581871033,-0.6787227392196655
1782831990221384200,6.31638427734375,0.09512357413768768,-0.13318586349487305,-0.196543887257576
1782831990231313400,6.3263134765625,0.4313015937805176,-0.7043082118034363,0.03242458775639534
1782831990241242400,6.336242431640625,0.4185604155063629,-1.7334479093551636,-0.11038383841514587
1782831990251171300,6.34617138671875,-0.1415601521730423,-2.267035484313965,-0.5556122064590454
1782831990261100300,6.356100341796875,-0.46689027547836304,-1.9166125059127808,-0.8597808480262756
1782831990271029500,6.366029541015625,-0.47199103236198425,-1.2356982231140137,-1.0663228034973145
1782831990280958500,6.37595849609375,-0.3724537491798401,-0.6289740204811096,-1.2067019939422607
1782831990290887400,6.385887451171875,-0.22021201252937317,-0.27211686968803406,-1.187705397605896
1782831990300816400,6.39581640625,-0.08988486975431442,-0.012057769112288952,-1.0382016897201538
1782831990310745600,6.40574560546875,0.008498424664139748,0.24322088062763214,-0.823508083820343
1782831990320674300,6.41567431640625,0.037070997059345245,0.3587867319583893,-0.6305719017982483
1782831990330603300,6.425603271484375,0.008431898429989815,0.25104910135269165,-0.45060083270072937
1782831990340532200,6.4355322265625,-0.027493080124258995,0.0011300640180706978,-0.25031566619873047
1782831990350461400,6.44546142578125,-0.04728541523218155,-0.19388119876384735,-0.024338416755199432
1782831990360390400,6.455390380859375,-0.1105031669139862,-0.20008178055286407,0.17660212516784668
1782831990370319400,6.4653193359375,-0.27892202138900757,-0.09045116603374481,0.2284749150276184
1782831990380248300,6.475248291015625,-0.40226486325263977,0.06333951652050018,0.15730802714824677
1782831990390177500,6.485177490234375,-0.4445529282093048,0.23512698709964752,0.04157504811882973
1782831990400105500,6.49510546875,-0.3822515904903412,0.30470937490463257,-0.024378802627325058
1782831990410034400,6.505034423828125,-0.2614474296569824,0.2559548616409302,-0.04273011162877083
1782831990419963400,6.51496337890625,-0.1539459079504013,0.022676393389701843,-0.024898940697312355
1782831990429892400,6.524892333984375,-0.056576747447252274,-0.27331849932670593,0.027401546016335487
1782831990439821600,6.534821533203125,0.016709115356206894,-0.4168711006641388,0.1935369074344635
1782831990449750500,6.54475048828125,0.024102050811052322,-0.43449270725250244,0.38140639662742615
1782831990459679500,6.554679443359375,-0.08273129165172577,-0.42813125252723694,0.45644044876098633
1782831990469608200,6.564608154296875,-0.2544657588005066,-0.41867464780807495,0.4240497350692749
1782831990479537400,6.574537353515625,-0.37447404861450195,-0.2776303291320801,0.37375450134277344
1782831990489466400,6.58446630859375,-0.3824473023414612,0.06043267995119095,0.42494046688079834
1782831990499395300,6.594395263671875,-0.3798812925815582,0.5381648540496826,0.5630986094474792
1782831990509324300,6.60432421875,-0.3418857157230377,0.942365825176239,0.7160553932189941
1782831990519253500,6.61425341796875,-0.23538661003112793,1.192166805267334,0.8709007501602173
1782831990529182500,6.624182373046875,-0.11442343890666962,1.2877271175384521,0.982254683971405
1782831990539111400,6.634111328125,0.03748425096273422,1.2937127351760864,1.0459918975830078
1782831990549040400,6.644040283203125,0.10568007826805115,1.4206857681274414,1.0461400747299194
1782831990558969300,6.65396923828125,0.12861232459545135,1.4615747928619385,0.9824230074882507
1782831990568898600,6.663898681640625,0.06949600577354431,1.322174310684204,0.8979435563087463
1782831990578827300,6.6738271484375,-0.08661560714244843,1.2244632244110107,0.7862184047698975
1782831990588756200,6.683756103515625,-0.29687270522117615,0.9707678556442261,0.5872318148612976
1782831990598685200,6.693685302734375,-0.37021076679229736,0.7584992051124573,0.33105573058128357
1782831990608614400,6.703614501953125,-0.19605094194412231,1.0663422346115112,0.0961548238992691
1782831990618543400,6.71354345703125,0.018972892314195633,1.9016367197036743,-0.08138075470924377
1782831990628472300,6.723472412109375,0.10472641885280609,2.212794065475464,-0.32385653257369995
1782831990638401300,6.7334013671875,0.016914475709199905,1.7086262702941895,-0.638569712638855
1782831990648329200,6.7433291015625,-0.04189850389957428,0.8882020711898804,-0.6996141672134399
1782831990658258400,6.753258544921875,-0.08398649841547012,0.20338663458824158,-0.5377383828163147
1782831990668187400,6.7631875,-0.09840831160545349,-0.40240129828453064,-0.41332802176475525
1782831990678116400,6.773116455078125,0.056323811411857605,-1.0812420845031738,-0.4569835364818573
1782831990688045300,6.78304541015625,0.1705547720193863,-1.5935001373291016,-0.5764704942703247
1782831990697974500,6.792974609375,0.21324320137500763,-1.7022777795791626,-0.4472580552101135
1782831990707903500,6.802903564453125,0.2694377601146698,-1.622891902923584,-0.12166530638933182
1782831990717832400,6.81283251953125,0.38116219639778137,-1.276612401008606,0.2755751311779022
1782831990727761200,6.82276123046875,0.48518553376197815,-0.7317985892295837,0.4840031862258911
1782831990737690400,6.8326904296875,0.4328255355358124,-0.25837600231170654,0.4058383107185364
1782831990747619300,6.842619384765625,0.1711406707763672,0.13448446989059448,0.18064619600772858
1782831990757548300,6.85254833984375,-0.2400580495595932,0.39345958828926086,-0.13108447194099426
1782831990767477200,6.862477294921875,-0.689287006855011,0.4118114411830902,-0.5128738880157471
1782831990777406500,6.872406494140625,-1.1278064250946045,0.1203639954328537,-0.9841684103012085
1782831990787335400,6.88233544921875,-1.4563270807266235,-0.2734866440296173,-1.4601291418075562
1782831990797264400,6.892264404296875,-1.5123000144958496,-0.4242632985115051,-1.7281612157821655
1782831990807193300,6.902193359375,-1.3533189296722412,-0.7128183841705322,-1.7464091777801514
1782831990817122600,6.91212255859375,-1.133151888847351,-1.0161643028259277,-1.5516407489776611
1782831990827051500,6.922051513671875,-0.8912345767021179,-1.1824734210968018,-1.213904857635498
1782831990836980200,6.931980224609375,-0.6725975275039673,-1.1986075639724731,-0.8476157784461975
1782831990846909200,6.9419091796875,-0.41197341680526733,-1.0977730751037598,-0.4869137704372406
1782831990856838400,6.95183837890625,-0.1254432052373886,-0.921114444732666,-0.14499470591545105
1782831990866767400,6.961767333984375,0.1397051066160202,-0.7115220427513123,0.156112402677536
1782831990876696300,6.9716962890625,0.30684229731559753,-0.4745597839355469,0.41030824184417725
1782831990886624300,6.981624267578125,0.31721875071525574,-0.1990019679069519,0.5425515174865723
1782831990896556800,6.991556884765625,0.2298450469970703,-0.11123139411211014,0.5179333686828613
1782831990906485800,7.00148583984375,0.10111662745475769,-0.17756913602352142,0.37990811467170715
1782831990916414700,7.011414794921875,-0.03301279991865158,-0.17891332507133484,0.16635292768478394
1782831990926343700,7.02134375,-0.07703591138124466,-0.043508902192115784,-0.036497652530670166
1782831990936273000,7.03127294921875,-0.017697595059871674,0.06883622705936432,-0.12795351445674896
1782831990946201900,7.041201904296875,0.09020436555147171,0.15348027646541595,-0.14402727782726288
1782831990956130800,7.051130859375,0.2552473843097687,0.18526187539100647,-0.07637558877468109
1782831990966059800,7.061059814453125,0.4155411720275879,0.12443819642066956,0.07557772099971771
1782831990975989000,7.070989013671875,0.5255898237228394,0.031616635620594025,0.2809485197067261
1782831990985917700,7.080917724609375,0.5768892168998718,0.048047274351119995,0.5134288668632507
1782831990995846700,7.0908466796875,0.6241449117660522,0.09965698421001434,0.7383744716644287
1782831991005775600,7.100775634765625,0.6246687769889832,0.2440708875656128,0.8433458805084229
1782831991015704600,7.11070458984375,0.5853517651557922,0.541216254234314,0.7837327122688293
1782831991025633800,7.1206337890625,0.5196108222007751,0.9280174970626831,0.5906945466995239
1782831991035562800,7.130562744140625,0.3855132758617401,1.4028816223144531,0.332600861787796
1782831991045491700,7.14049169921875,0.20839841663837433,1.6270416975021362,0.11503233760595322
1782831991055420700,7.150420654296875,0.08299771696329117,1.3523800373077393,0.012368213385343552
1782831991065350000,7.160349853515625,0.004804908763617277,0.7652342319488525,0.0030159917660057545
1782831991075278800,7.17027880859375,-0.0975559800863266,0.09245405346155167,0.01507561095058918
1782831991085207800,7.180207763671875,-0.22707614302635193,0.23597925901412964,0.020646944642066956
1782831991095136800,7.19013671875,-0.23298737406730652,0.7381969094276428,0.1416287124156952
1782831991105065700,7.200065673828125,-0.0960172712802887,1.3506760597229004,0.5338209867477417
1782831991114994700,7.20999462890625,0.07486625015735626,1.6946001052856445,1.005573034286499
1782831991124923600,7.219923583984375,0.11442831158638,1.5882254838943481,1.175397276878357
1782831991134851600,7.2298515625,0.10263286530971527,1.1093860864639282,0.8985134363174438
1782831991144780500,7.239780517578125,0.30276089906692505,0.8845977187156677,0.3890129029750824
1782831991154709800,7.249709716796875,0.44504663348197937,1.196785569190979,-0.1299806535243988
1782831991164638700,7.259638671875,0.430989146232605,1.4030247926712036,-0.37541598081588745
1782831991174567700,7.269567626953125,0.4607061743736267,1.2927443981170654,-0.2363949716091156
1782831991184496600,7.27949658203125,0.5033295154571533,0.9292595982551575,0.05806383118033409
1782831991194425900,7.28942578125,0.5282043814659119,0.5136473178863525,0.23774537444114685
1782831991204354800,7.299354736328125,0.5807933211326599,-0.07356929033994675,0.06351500004529953
1782831991214283800,7.30928369140625,0.6354430913925171,-0.8635346293449402,-0.3320362865924835
1782831991224212700,7.319212646484375,0.4808516502380371,-1.5565929412841797,-0.7750887870788574
1782831991234142000,7.329141845703125,0.19216512143611908,-1.7462480068206787,-1.0447231531143188
1782831991244070700,7.339070556640625,-0.1131945252418518,-1.3318082094192505,-1.0710092782974243
1782831991253999600,7.34899951171875,-0.38766759634017944,-0.5988777875900269,-1.0164285898208618
1782831991263928600,7.358928466796875,-0.591147780418396,0.06923133879899979,-0.9656490087509155
1782831991273857800,7.36885791015625,-0.7274675369262695,0.33517029881477356,-0.9217886328697205
1782831991283786800,7.378786865234375,-0.7771514654159546,0.08417988568544388,-0.883039653301239
1782831991293715700,7.3887158203125,-0.6927127242088318,-0.478645920753479,-0.7071558833122253
1782831991303644700,7.398644775390625,-0.48387324810028076,-1.1058932542800903,-0.3692393898963928
1782831991313574000,7.408573974609375,-0.24675245583057404,-1.5306060314178467,0.027677595615386963
1782831991323502800,7.4185029296875,0.013231713324785233,-1.7781622409820557,0.41105374693870544
1782831991333431800,7.428431884765625,0.28152531385421753,-1.8724175691604614,0.7754231691360474
1782831991343360800,7.43836083984375,0.44363725185394287,-1.6981499195098877,1.0837548971176147
1782831991353289700,7.448289794921875,0.45641621947288513,-1.2466816902160645,1.2222541570663452
1782831991363218700,7.45821875,0.4057876467704773,-0.7247198820114136,1.221441626548767
1782831991373147600,7.468147705078125,0.28285321593284607,-0.19848673045635223,1.1110007762908936
1782831991383075800,7.478075927734375,0.11367030441761017,0.25109291076660156,0.9390724301338196
1782831991393004500,7.488004638671875,-0.05314856767654419,0.580528736114502,0.7735375165939331
1782831991402933800,7.497933837890625,-0.194973886013031,0.794966459274292,0.6762921810150146
1782831991412862700,7.50786279296875,-0.3161453604698181,0.7794386744499207,0.63414067029953
1782831991422791700,7.517791748046875,-0.38320350646972656,0.5504019856452942,0.6264284253120422
1782831991432720600,7.527720703125,-0.36841249465942383,0.28392264246940613,0.6453697085380554
1782831991442649900,7.53764990234375,-0.2696065604686737,0.06488428264856339,0.6915358304977417
1782831991452578800,7.547578857421875,-0.14391104876995087,-0.12298423051834106,0.7462851405143738
1782831991462507800,7.5575078125,-0.07577141374349594,-0.36724644899368286,0.755742073059082
1782831991472436700,7.567436767578125,-0.01723511517047882,-0.6584891080856323,0.7114428877830505
1782831991482366000,7.577365966796875,0.021314673125743866,-0.9342136383056641,0.6067159175872803
1782831991492295000,7.587294921875,0.021906040608882904,-0.9956589341163635,0.3950219750404358
1782831991502223600,7.5972236328125,0.018099317327141762,-0.6408297419548035,0.09188393503427505
1782831991512152600,7.607152587890625,0.02145913988351822,-0.09429432451725006,-0.15046650171279907
1782831991522081800,7.617081787109375,0.035936348140239716,0.23682661354541779,-0.27620816230773926
1782831991532010800,7.6270107421875,-0.05781742185354233,0.5288738012313843,-0.39152175188064575
1782831991541939700,7.636939697265625,-0.196565181016922,0.6970723867416382,-0.49867483973503113
1782831991551868700,7.64686865234375,-0.33008983731269836,0.6886864304542542,-0.5170285105705261
1782831991561798000,7.6567978515625,-0.4518682062625885,0.6351087093353271,-0.40221428871154785
1782831991571726800,7.666726806640625,-0.5331918001174927,0.8309572339057922,-0.21576064825057983
1782831991581655800,7.67665576171875,-0.5361199378967285,1.0211825370788574,0.03988736867904663
1782831991591584800,7.686584716796875,-0.5132385492324829,1.1272417306900024,0.2881786823272705
1782831991601514000,7.696513916015625,-0.44880440831184387,1.023711919784546,0.4958043396472931
1782831991611442700,7.706442626953125,-0.3114202916622162,0.7514970302581787,0.6705065965652466
1782831991621371600,7.71637158203125,-0.22362120449543,0.5330626964569092,0.8221265077590942
1782831991631300600,7.726300537109375,-0.2320048063993454,0.4505695402622223,0.9403536915779114
1782831991641228800,7.736228759765625,-0.3041314482688904,0.16919806599617004,0.9484214782714844
1782831991651157800,7.74615771484375,-0.3606112599372864,-0.13514269888401031,0.8674104809761047
1782831991661086700,7.756086669921875,-0.31160828471183777,-0.16136577725410461,0.5447485446929932
1782831991671015700,7.766015625,-0.2019071727991104,0.14296968281269073,0.054993364959955215
1782831991680944600,7.775944580078125,-0.210060715675354,0.5268678069114685,-0.7264190912246704
1782831991690873900,7.785873779296875,-0.3462855815887451,0.7868593335151672,-1.542825698852539
1782831991700802800,7.795802734375,-0.4720701277256012,1.0877786874771118,-2.1330502033233643
1782831991710731800,7.805731689453125,-0.5568199157714844,1.5134124755859375,-2.3176019191741943
1782831991720660700,7.81566064453125,-0.6572216153144836,1.7621392011642456,-2.1742377281188965
1782831991730590000,7.82558984375,-0.726116955280304,1.453336477279663,-1.900146722793579
1782831991740519000,7.835518798828125,-0.7006387710571289,0.3829953372478485,-1.6249843835830688
1782831991750447900,7.84544775390625,-0.7985259294509888,-0.8935161828994751,-1.3776021003723145
1782831991760376600,7.85537646484375,-0.9166214466094971,-1.5381386280059814,-1.090597152709961
1782831991770305500,7.865305419921875,-0.9341043829917908,-1.674888253211975,-0.7898672819137573
1782831991780234800,7.87523486328125,-0.7767512798309326,-1.5652563571929932,-0.5163161754608154
1782831991790163700,7.885163818359375,-0.5527016520500183,-1.401345133781433,-0.34173789620399475
1782831991800092700,7.8950927734375,-0.34761640429496765,-1.2648980617523193,-0.2522711455821991
1782831991810021600,7.905021728515625,-0.20193906128406525,-1.1904956102371216,-0.21521997451782227
1782831991819950800,7.914950927734375,-0.11214154213666916,-1.252685546875,-0.28635168075561523
1782831991829879800,7.9248798828125,-0.043818019330501556,-1.53993558883667,-0.4435180425643921
1782831991839808800,7.934808837890625,-0.022928984835743904,-1.8473714590072632,-0.5909945964813232
1782831991849737700,7.94473779296875,-0.034403327852487564,-1.7982984781265259,-0.5103074908256531
1782831991859667000,7.9546669921875,-0.10021403431892395,-1.3317593336105347,-0.24891024827957153
1782831991869595600,7.964595703125,-0.1934385746717453,-0.6881514191627502,0.10000009089708328
1782831991879524600,7.974524658203125,-0.24451692402362823,-0.0629865974187851,0.4849698841571808
1782831991889448400,7.984448486328125,-0.25533002614974976,0.49188241362571716,0.8168207406997681
1782831991899377700,7.994377685546875,-0.1674180030822754,0.9077306985855103,1.0568509101867676
1782831991909306600,8.004306640625,-0.023171279579401016,1.2071682214736938,1.2105026245117188
1782831991919235600,8.014235595703125,0.09371405839920044,1.3998987674713135,1.2625631093978882
1782831991929164300,8.024164306640625,0.16315557062625885,1.402618169784546,1.2164697647094727
1782831991939093500,8.034093505859374,0.19651912152767181,1.2491003274917603,1.122675895690918
1782831991949022500,8.0440224609375,0.22747284173965454,1.031450629234314,1.006826639175415
1782831991958951400,8.053951416015625,0.2866501212120056,0.7316868901252747,0.8870849609375
1782831991968880400,8.06388037109375,0.3891599476337433,0.3040805459022522,0.7439040541648865
1782831991978809600,8.0738095703125,0.4752143919467926,-0.18891103565692902,0.5674424767494202
1782831991988738600,8.083738525390626,0.5266678929328918,-0.5527380704879761,0.3948327898979187
1782831991998667500,8.09366748046875,0.5348783731460571,-0.834285318851471,0.26741331815719604
1782831992008596500,8.103596435546875,0.5377092361450195,-1.2420285940170288,0.21428978443145752
1782831992018525700,8.113525634765624,0.5385478734970093,-1.9081355333328247,0.33420607447624207
1782831992028454700,8.12345458984375,0.4920269250869751,-2.209970474243164,0.39453452825546265
1782831992038383400,8.13338330078125,0.4000551998615265,-2.2217698097229004,0.3847098648548126
1782831992048312300,8.143312255859374,0.26151520013809204,-1.7188246250152588,0.4072935879230499
1782831992058241500,8.153241455078126,0.13997969031333923,-1.134598970413208,0.4522445499897003
1782831992068170500,8.16317041015625,0.04373623803257942,-0.44891464710235596,0.5186129212379456
1782831992078099500,8.173099365234375,-0.062322817742824554,0.20467594265937805,0.5903371572494507
1782831992088028400,8.1830283203125,-0.149661123752594,0.7576380968093872,0.6645891070365906
1782831992097957600,8.19295751953125,-0.1595638245344162,1.097082257270813,0.768110454082489
1782831992107886600,8.202886474609375,-0.11857008934020996,1.2185724973678589,0.8681760430335999
1782831992117815600,8.212815673828125,-0.08222619444131851,1.2064391374588013,0.9421413540840149
1782831992127744500,8.22274462890625,-0.07092049717903137,1.1451067924499512,1.000426173210144
1782831992137673700,8.232673828125,-0.06925468146800995,1.0462737083435059,1.0563589334487915
1782831992147602400,8.2426025390625,-0.11161241680383682,0.7293689846992493,1.1146074533462524
1782831992157530600,8.252530517578125,-0.2311614453792572,0.36828166246414185,1.0774286985397339
1782831992167459600,8.26245947265625,-0.373976469039917,0.03853309154510498,0.930959939956665
1782831992177388500,8.272388427734375,-0.42021825909614563,-0.19674333930015564,0.9162366986274719
1782831992187317500,8.2823173828125,-0.4949072003364563,0.06853953003883362,0.9387031197547913
1782831992197246500,8.29224658203125,-0.5409596562385559,0.6412891149520874,0.9357104897499084
1782831992207175400,8.302175537109376,-0.4860811233520508,1.2929284572601318,0.8216635584831238
1782831992217104400,8.3121044921875,-0.3171631991863251,1.7636533975601196,0.4657267928123474
1782831992227033600,8.32203369140625,-0.16280819475650787,1.7971410751342773,-0.2191583663225174
1782831992236962600,8.331962646484374,-0.06524409353733063,1.6173958778381348,-0.9091551303863525
1782831992246891500,8.3418916015625,-0.17459799349308014,0.8257036805152893,-1.6078311204910278
1782831992256820500,8.351820556640625,-0.6678604483604431,-0.5668078660964966,-2.2491209506988525
1782831992266749400,8.36174951171875,-1.4457460641860962,-1.4134939908981323,-2.4635355472564697
1782831992276678700,8.3716787109375,-1.9041959047317505,-1.5377744436264038,-2.194317579269409
1782831992286607600,8.381607666015626,-1.9437576532363892,-1.7298017740249634,-1.9002103805541992
1782831992296536300,8.391536376953125,-1.6251561641693115,-1.631288766860962,-1.6168841123580933
1782831992306465300,8.40146533203125,-1.2430180311203003,-0.8321146368980408,-1.2459443807601929
1782831992316394500,8.41139453125,-0.9432650804519653,0.12776848673820496,-0.8783120512962341
1782831992326323500,8.421323486328125,-0.504033088684082,0.8957936763763428,-0.4737580716609955
1782831992336252400,8.43125244140625,-0.04260767996311188,1.0675846338272095,-0.13529612123966217
1782831992346181400,8.441181396484374,0.2707401514053345,0.6195592880249023,0.10675932466983795
1782831992356110600,8.451110595703126,0.35893896222114563,-0.15782086551189423,0.2840914726257324
1782831992366039600,8.46103955078125,0.000515415333211422,-0.8846043944358826,0.004786015022546053
1782831992375968500,8.470968505859375,-0.6384081244468689,-1.4497405290603638,-0.7260264158248901
1782831992385897500,8.4808974609375,-1.2594674825668335,-1.6541038751602173,-1.6809931993484497
1782831992395826700,8.49082666015625,-1.6489344835281372,-1.311422348022461,-2.4116718769073486
1782831992405755400,8.50075537109375,-1.7593815326690674,-0.9092804193496704,-2.6892285346984863
1782831992415684400,8.510684326171875,-1.6479237079620361,-0.7199333906173706,-2.4900033473968506
1782831992425612500,8.520612548828124,-1.4372131824493408,-0.5724779367446899,-1.9652994871139526
1782831992435541500,8.53054150390625,-1.104028344154358,-0.5538912415504456,-1.2281197309494019
1782831992445470500,8.540470458984375,-0.7449914216995239,-0.6678382754325867,-0.44941651821136475
1782831992455399400,8.5503994140625,-0.36985617876052856,-0.7903791069984436,0.2539602518081665
1782831992465328400,8.560328369140626,-0.046664100140333176,-0.844565212726593,0.8373315930366516
1782831992475257300,8.57025732421875,0.15943607687950134,-0.7603643536567688,1.273546814918518
1782831992485186600,8.5801865234375,0.11154191941022873,-0.39096638560295105,1.435454249382019
1782831992495115500,8.590115478515624,-0.10434510558843613,0.11797593533992767,1.314695119857788
1782831992505044500,8.60004443359375,-0.3481912314891815,0.3673143982887268,0.9483700394630432
1782831992514973400,8.609973388671875,-0.6005635261535645,0.3051231801509857,0.35820209980010986
1782831992524902700,8.619902587890625,-0.8123119473457336,0.1095164492726326,-0.2930053770542145
1782831992534831600,8.62983154296875,-0.7848683595657349,0.10853268206119537,-0.6073170304298401
1782831992544760600,8.639760498046876,-0.7169294953346252,0.1257745325565338,-0.6798751950263977
1782831992554689300,8.649689208984375,-0.6721723675727844,-0.030908552929759026,-0.5330567359924316
1782831992564618500,8.659618408203125,-0.5912039279937744,-0.03270552307367325,-0.19325478374958038
1782831992574547500,8.66954736328125,-0.4608573317527771,0.18571363389492035,0.21123704314231873
1782831992584476400,8.679476318359375,-0.27804994583129883,0.41487741470336914,0.5862051248550415
1782831992594405400,8.6894052734375,-0.08807816356420517,0.5679082274436951,0.8790808916091919
1782831992604334600,8.69933447265625,0.11544680595397949,0.6472392082214355,1.1086061000823975
1782831992614263600,8.709263671875,0.2772572934627533,0.6905760169029236,1.2720818519592285
1782831992624192500,8.719192626953125,0.35425224900245667,0.7017369270324707,1.3625084161758423
1782831992634121500,8.72912158203125,0.34783217310905457,0.7083932161331177,1.3508411645889282
1782831992644050700,8.73905078125,0.27526840567588806,0.6956201791763306,1.2970457077026367
1782831992653979600,8.748979736328126,0.1381574124097824,0.675400972366333,1.198228359222412
1782831992663908600,8.75890869140625,-0.06349268555641174,0.6061497926712036,1.0708905458450317
1782831992673837300,8.76883740234375,-0.24430029094219208,0.47807860374450684,0.9643235206604004
1782831992683766500,8.7787666015625,-0.2517419457435608,0.46055591106414795,0.9251493811607361
1782831992693694500,8.788694580078126,-0.174699604511261,0.6006121039390564,0.8755940794944763
1782831992703623400,8.79862353515625,-0.08206991851329803,0.7094724178314209,0.8478583097457886
1782831992713552400,8.808552490234375,-0.024137374013662338,0.7709541320800781,0.8256100416183472
1782831992723481300,8.8184814453125,0.0026655495166778564,0.8404549360275269,0.7346109747886658
1782831992733410600,8.82841064453125,0.03302744776010513,0.9592630863189697,0.5541756749153137
1782831992743339500,8.838339599609375,0.1504461020231247,0.911824643611908,0.2768233120441437
1782831992753268500,8.8482685546875,0.3771258592605591,0.594569981098175,-0.021528737619519234
1782831992763197400,8.858197509765626,0.5231331586837769,0.07816287875175476,-0.2199643850326538
1782831992773126700,8.868126708984375,0.4725498557090759,-0.20494391024112701,-0.22659166157245636
1782831992783055600,8.8780556640625,0.25779932737350464,0.03399844467639923,-0.00466536870226264
1782831992792984600,8.887984619140624,-0.06024254113435745,0.7689704298973083,0.24302378296852112
1782831992802913500,8.89791357421875,-0.25626659393310547,1.674514651298523,0.3584668040275574
1782831992812842500,8.907842529296875,-0.10944198817014694,2.2985312938690186,0.257742315530777
1782831992822771500,8.917771484375,0.1806591898202896,2.241990804672241,-0.055663980543613434
1782831992832700400,8.927700439453124,0.36506497859954834,1.5268166065216064,-0.5533499121665955
1782831992842629400,8.93762939453125,0.41080692410469055,0.17412228882312775,-1.1515212059020996
1782831992852558600,8.94755859375,0.16835139691829681,-1.3923677206039429,-1.7534708976745605
1782831992862487600,8.957487548828125,-0.4709363579750061,-2.2669148445129395,-2.0426509380340576
1782831992872416500,8.96741650390625,-0.8875426054000854,-2.453097343444824,-1.8455497026443481
1782831992882345500,8.977345458984376,-1.0371845960617065,-2.1728622913360596,-1.416535496711731
1782831992892275200,8.987275146484375,-0.8463886380195618,-1.5076112747192383,-0.8607912659645081
1782831992902204200,8.9972041015625,-0.48279261589050293,-0.7926186323165894,-0.3680722415447235
1782831992912132900,9.0071328125,-0.11516372859477997,-0.4168524742126465,-0.07347363978624344
1782831992922061800,9.017061767578125,0.009539106860756874,-0.3692651391029358,-0.10578951984643936
1782831992931991000,9.026990966796875,0.006287652999162674,-0.5740312933921814,-0.3590260446071625
1782831992941920000,9.036919921875,-0.1283414512872696,-1.1094639301300049,-0.7697305679321289
1782831992951849000,9.046848876953124,-0.373780757188797,-1.9836105108261108,-1.239250898361206
1782831992961778000,9.05677783203125,-0.5151572227478027,-2.4194869995117188,-1.4159446954727173
1782831992971705900,9.066705810546875,-0.4991587996482849,-2.5309817790985107,-1.2377874851226807
1782831992981635000,9.076635009765624,-0.38630494475364685,-2.2377498149871826,-0.8958953619003296
1782831992991564000,9.08656396484375,-0.20702548325061798,-1.6619285345077515,-0.5005714893341064
1782831993001493000,9.096492919921875,-0.04274364188313484,-0.9258474707603455,-0.09025740623474121
1782831993011422000,9.106421875,0.11313650012016296,-0.13581782579421997,0.32023024559020996
1782831993021351200,9.11635107421875,0.2850348651409149,0.4995917081832886,0.6868365406990051
1782831993031280000,9.126280029296876,0.37606650590896606,0.7871228456497192,0.9215579628944397
1782831993041209000,9.136208984375,0.4140501916408539,0.6597768068313599,1.0143181085586548
1782831993051138000,9.146137939453125,0.4210713505744934,0.27521368861198425,1.010358214378357
1782831993061067000,9.15606689453125,0.3670450448989868,-0.13213571906089783,0.85506671667099
1782831993070996000,9.165995849609375,0.2141934335231781,-0.49579623341560364,0.43857789039611816
1782831993080925000,9.175925048828125,0.05333526432514191,-0.7217705845832825,-0.07627587020397186
1782831993090854000,9.18585400390625,-0.038201842457056046,-0.6030634045600891,-0.5078480243682861
1782831993100783000,9.195783203125,-0.06454862654209137,-0.11295667290687561,-0.7552438974380493
1782831993110712000,9.205712158203125,-0.07828281819820404,0.24820178747177124,-0.8336015343666077
1782831993120641000,9.21564111328125,-0.06489136815071106,0.39736196398735046,-0.7597570419311523
1782831993130570000,9.225570068359374,-0.04950042814016342,0.48513734340667725,-0.5408499836921692
1782831993140499200,9.235499267578126,-0.0285717211663723,0.5391558408737183,-0.18093770742416382
1782831993150428200,9.24542822265625,0.013050821609795094,0.5180675983428955,0.2607147991657257
1782831993160357000,9.255357177734375,0.06692251563072205,0.5275881886482239,0.6874269843101501
1782831993170285800,9.265285888671874,0.09514563530683517,0.5857151746749878,1.0586146116256714
1782831993180214800,9.27521484375,0.06571115553379059,0.6758509874343872,1.3468518257141113
1782831993190144000,9.28514404296875,-0.00975456926971674,0.7101234793663025,1.453208327293396
1782831993200073000,9.295072998046875,-0.08772271126508713,0.6529507040977478,1.3591477870941162
1782831993210002000,9.305001953125,-0.07649455219507217,0.5559903383255005,1.1612353324890137
1782831993219931000,9.314930908203126,0.03777880594134331,0.46641775965690613,1.0360685586929321
1782831993229860000,9.324860107421875,0.0913911685347557,0.3828727900981903,0.9407385587692261
1782831993239789000,9.3347890625,0.04895006865262985,0.4728660583496094,0.8641388416290283
1782831993249718000,9.344718017578124,0.044753726571798325,0.6577528119087219,0.8600056171417236
1782831993259647000,9.35464697265625,0.048669032752513885,0.7889156937599182,0.8876829743385315
1782831993269575000,9.364574951171875,0.07890389859676361,0.8064259886741638,0.9585545063018799
1782831993279504100,9.374504150390624,0.13715830445289612,0.6670035719871521,1.0260652303695679
1782831993289433000,9.38443310546875,0.19211049377918243,0.45847538113594055,1.015459656715393
1782831993299362000,9.394362060546875,0.2191334217786789,0.26127898693084717,0.9322854280471802
1782831993309291000,9.404291015625,0.2196149230003357,0.12925170361995697,0.7568094730377197
1782831993319220000,9.414219970703124,0.1995142251253128,0.028198204934597015,0.47871795296669006
1782831993329149000,9.42414892578125,0.2154543101787567,0.02672414481639862,0.2266084849834442
1782831993339078000,9.434077880859375,0.2665892541408539,0.40977707505226135,0.13760168850421906
1782831993349006800,9.4440068359375,0.2955048084259033,1.0659000873565674,0.24379336833953857
1782831993358936000,9.45393603515625,0.30043402314186096,1.4753228425979614,0.4296102225780487
1782831993368865000,9.463864990234375,0.31261903047561646,1.4788981676101685,0.5381998419761658
1782831993378794000,9.4737939453125,0.3223763704299927,1.1233314275741577,0.5123190879821777
1782831993388723000,9.483722900390624,0.25376826524734497,0.5840056538581848,0.24804911017417908
1782831993398652200,9.493652099609376,0.21095816791057587,-0.02202344872057438,-0.23793375492095947
1782831993408581000,9.5035810546875,0.2893209159374237,-0.9175483584403992,-0.8024452924728394
1782831993418510000,9.513510009765625,0.2818049192428589,-1.9246081113815308,-1.2589572668075562
1782831993428438800,9.523438720703124,0.06814082711935043,-2.421957492828369,-1.4051011800765991
1782831993438368000,9.533367919921876,-0.2366388887166977,-2.251941442489624,-1.3560681343078613
1782831993448297000,9.543296875,-0.37890762090682983,-1.645377516746521,-1.2294310331344604
1782831993458226000,9.553225830078125,-0.311374694108963,-0.8912898302078247,-1.046087622642517
1782831993468155000,9.56315478515625,-0.098915696144104,-0.22770576179027557,-0.8090239763259888
1782831993478084000,9.573083984375,0.03610328212380409,0.0258623193949461,-0.5741533041000366
1782831993488013000,9.583012939453125,0.046461381018161774,-0.15982685983181,-0.4096953868865967
1782831993497942000,9.59294189453125,-0.04305444657802582,-0.6151561737060547,-0.4114874601364136
1782831993507871000,9.60287109375,-0.27574172616004944,-0.8347106575965881,-0.7358969449996948
1782831993517800200,9.61280029296875,-0.5809452533721924,-0.7670770883560181,-1.2703986167907715
1782831993527729200,9.622729248046875,-0.7525644302368164,-0.6129519939422607,-1.678617000579834
1782831993537657900,9.632657958984375,-0.7753074765205383,-0.3511020839214325,-1.743638277053833
1782831993547586800,9.6425869140625,-0.6202297806739807,-0.10394634306430817,-1.4902284145355225
1782831993557515000,9.652514892578125,-0.23686785995960236,-0.03124723583459854,-1.0839556455612183
1782831993567444000,9.66244384765625,0.17752079665660858,-0.13697099685668945,-0.6256706118583679
1782831993577373000,9.672373046875,0.542931079864502,-0.32981348037719727,-0.15167023241519928
1782831993587302000,9.682302001953126,0.8185847401618958,-0.4231732487678528,0.28480374813079834
1782831993597230800,9.69223095703125,0.9385069608688354,-0.37386593222618103,0.6124158501625061
1782831993607160000,9.70216015625,0.9005463123321533,-0.34025922417640686,0.7622098922729492
1782831993617089000,9.712089111328124,0.7466751933097839,-0.3055700957775116,0.7195678949356079
1782831993627018000,9.72201806640625,0.49499207735061646,-0.16400043666362762,0.4942213296890259
1782831993636947000,9.731947021484375,0.21692737936973572,0.17871920764446259,0.14623358845710754
1782831993646876200,9.741876220703125,0.0808720737695694,0.5397183895111084,-0.11269651353359222
1782831993656805000,9.75180517578125,-0.0514523983001709,0.8101773858070374,-0.2690812945365906
1782831993666734000,9.761734130859375,-0.12723106145858765,0.8702561855316162,-0.2674943208694458
1782831993676663000,9.7716630859375,-0.11412939429283142,0.6716178059577942,-0.12312790751457214
1782831993686592000,9.781592041015625,-0.035971201956272125,0.42072591185569763,0.14807777106761932
1782831993696521000,9.79152099609375,0.10550890862941742,0.2998749911785126,0.5123520493507385
1782831993706450000,9.801449951171875,0.3391807973384857,0.32796841859817505,0.8814004063606262
1782831993716379000,9.81137890625,0.49818575382232666,0.5661779046058655,1.0541071891784668
1782831993726308000,9.82130810546875,0.5668257474899292,0.9109763503074646,1.07328200340271
1782831993736237000,9.831237060546876,0.6006693840026855,1.2385755777359009,0.9696611166000366
1782831993746166000,9.841166015625,0.5752913355827332,1.4044873714447021,0.7574772238731384
1782831993756095000,9.851094970703125,0.4928528964519501,1.8209620714187622,0.8693112134933472
1782831993766024200,9.861024169921874,0.21976089477539062,2.0532331466674805,1.1037706136703491
1782831993775953200,9.870953125,-0.09629961848258972,1.418360948562622,1.082459568977356
1782831993785882000,9.880882080078125,-0.30307865142822266,0.2528988718986511,0.6665225028991699
1782831993795810800,9.890810791015625,-0.44219523668289185,-0.04243401065468788,0.3884164094924927
1782831993805739800,9.90073974609375,-0.458545446395874,0.3513324558734894,0.23855580389499664
1782831993815669000,9.9106689453125,-0.32505571842193604,0.5601451992988586,0.05797088146209717
1782831993825598000,9.920597900390625,-0.09126905351877213,0.41367796063423157,0.03638676181435585
1782831993835527000,9.93052685546875,0.2064167559146881,0.09631910920143127,0.4165951609611511
1782831993845456000,9.940455810546876,0.4928796887397766,-0.15374399721622467,1.0893943309783936
1782831993855385000,9.950385009765625,0.761508047580719,0.006885993294417858,1.7896097898483276
