time,seconds_elapsed,z,y,x
1782836002641137700,0.0741376953125,0.18223522050380705,-0.3619375249965116,0.26992709409072996
1782836002651067400,0.0840673828125,0.1523608912438154,-0.45247258612010627,0.2806988826695829
1782836002660997600,0.09399755859375,0.1293470954030752,-0.5220515876503661,0.3742832483612001
1782836002670926600,0.103926513671875,0.1618114411562681,-0.5368070025052875,0.5030447989612817
1782836002680856800,0.11385693359375,0.14441256258785723,-0.5079313288938254,0.6395376014005393
1782836002690786600,0.12378662109375,-0.02848375168442726,-0.48980651067104186,0.7025104095987975
1782836002700715500,0.133715576171875,-0.1713584371805191,-0.5610586695779115,0.6816258808717132
1782836002710645800,0.143645751953125,-0.3638268824070692,-0.5974184518670663,0.6096585229001938
1782836002720575500,0.153575439453125,-0.5364613308727741,-0.563305681319721,0.47444823455214497
1782836002730505700,0.163505615234375,-0.5804506947249174,-0.5741771308807656,0.4245822337515652
1782836002740434700,0.1734345703125,-0.6298895561546087,-0.6351984031524509,0.454730411516875
1782836002750364400,0.183364501953125,-0.6786310829699039,-0.7115729100417345,0.5051788883805275
1782836002760294700,0.193294677734375,-0.6971043127715587,-0.7811612639222294,0.4933704502303153
1782836002770224600,0.203224609375,-0.7125853750199079,-0.7822000323854387,0.4296968002863228
1782836002780153600,0.213153564453125,-0.7290747375279665,-0.7677667256243527,0.34025607373807576
1782836002790083600,0.22308349609375,-0.7740817539900541,-0.7885651835031807,0.18256419672984628
1782836002800013600,0.233013671875,-0.7947796741038561,-0.8230018522426485,0.04852415773756802
1782836002809942800,0.24294287109375,-0.7224409986019135,-0.8606462309822439,0.08158376597017049
1782836002819872500,0.25287255859375,-0.5480518154233693,-0.9378985436193644,0.17546492265127597
1782836002829802500,0.262802490234375,-0.41395606418848035,-0.9842590205170214,0.28582170557603237
1782836002839732700,0.272732666015625,-0.2965244475066662,-1.040632503515482,0.25678525191228835
1782836002849661700,0.28266162109375,-0.06519523348808288,-1.0429426801539956,0.14901859507858753
1782836002859591700,0.292591796875,0.15175006586909293,-1.0149190933272243,0.0753877974068746
1782836002869521700,0.302521728515625,0.3379793244451284,-1.0304296739310026,0.08117909415941685
1782836002879450600,0.31245068359375,0.5146557417780161,-1.101165736541897,0.11730126830041408
1782836002889380600,0.322380615234375,0.6643892071276902,-1.1816890336737036,0.12448858598861842
1782836002899310600,0.332310546875,0.7071873153686523,-1.279923782454431,0.14695713250413536
1782836002909240800,0.34224072265625,0.8220727546989918,-1.3485256095156073,0.18744086285550146
1782836002919169800,0.352169677734375,0.8796066597789526,-1.363295308624208,0.20556367178428916
1782836002929099500,0.362099609375,0.8318968140989541,-1.367139124570787,0.2314454973420128
1782836002939029800,0.37202978515625,0.7390741534948349,-1.4221429266512393,0.1676832557991147
1782836002948958700,0.381958740234375,0.630621962082386,-1.5033981913194059,0.09441551928613334
1782836002958888400,0.391888427734375,0.5985621054768562,-1.5097680186122655,0.16303871792890132
1782836002968818700,0.401818603515625,0.4810533319056034,-1.514605229510367,0.29681323785278946
1782836002978748700,0.411748779296875,0.2736012525588274,-1.5494522326163946,0.3805314951010048
1782836002988677400,0.421677490234375,0.11046996097564697,-1.5433226438201963,0.3291943623019382
1782836002998607600,0.431607666015625,-0.10337795688807963,-1.4491834937900303,0.1719707603925839
1782836003008537600,0.44153759765625,-0.2451309448778629,-1.3685247337102888,0.038426688223704694
1782836003018466800,0.451466796875,-0.3532213172405958,-1.3614178243145345,0.02953545269444585
1782836003028397300,0.461397216796875,-0.4108510839104652,-1.4530917532749472,0.12465992396753281
1782836003038327300,0.471327392578125,-0.4197913462132215,-1.5260536752417682,0.2687493190156296
1782836003048257000,0.481257080078125,-0.43349253930747506,-1.4823025040596722,0.31240155986789614
1782836003058186200,0.491186279296875,-0.4447884248256683,-1.3883125532418488,0.23191603746321052
1782836003068116200,0.5011162109375,-0.47669279860854147,-1.3218000996753572,0.14523019911367446
1782836003078046200,0.511046142578125,-0.5272229624062776,-1.3345640119194984,0.11692936624810099
1782836003087976200,0.52097607421875,-0.4438233791857958,-1.3539023341178893,0.18608071695081888
1782836003097905200,0.5309052734375,-0.39412849716842174,-1.281676763601601,0.30127138630542905
1782836003107835400,0.54083544921875,-0.5470242259413004,-1.2379122945465146,0.32303576660696415
1782836003117765000,0.55076513671875,-0.5377917026937008,-1.205339885308966,0.3424150053376332
1782836003127694000,0.560694091796875,-0.6582733545958995,-1.1361701221667229,0.4503775500696152
1782836003137624300,0.570624267578125,-0.7203636078059673,-1.131957180646807,0.47924456545058636
1782836003147554000,0.580553955078125,-0.7612965066969394,-1.0887520990401507,0.5177327746031806
1782836003157484300,0.590484375,-0.8766443028420209,-1.0105569525949656,0.6434838548082858
1782836003167413200,0.600413330078125,-0.957798152962327,-0.9396703755974769,0.6600152298271655
1782836003177343200,0.61034326171875,-1.0089905800610781,-0.7933924575291573,0.7080059382751583
1782836003187273200,0.620273193359375,-1.0317115304350852,-0.7224116263769567,0.71547232863307
1782836003197202200,0.6302021484375,-1.1409101563006638,-0.6568488016854971,0.6595080840226263
1782836003207132400,0.64013232421875,-1.232390170124173,-0.645943888246268,0.6730780519526451
1782836003217062100,0.650062255859375,-1.3396218798309565,-0.71263045627065,0.7589101960822939
1782836003226992000,0.6599921875,-1.4036533302366734,-0.7314110715210438,0.8453850950948893
1782836003236921300,0.66992138671875,-1.5059487525850535,-0.6904569106463343,0.9360834570214152
1782836003246851300,0.679851318359375,-1.6286410662740467,-0.6414687886588275,1.0632728629339485
1782836003256781300,0.68978125,-1.6461410671293735,-0.6175061676606536,1.0894134855583308
1782836003266710300,0.699710205078125,-1.619416726332903,-0.5326118889030069,0.9675873602446168
1782836003276640300,0.70964013671875,-1.5538994212836026,-0.31208931558094916,0.8490310503818094
1782836003286570200,0.7195703125,-1.2486486464858055,-0.0793370830219239,0.8116573052771389
1782836003296500200,0.729500244140625,-0.9376566976875066,0.07980948630664497,0.8180325393974781
1782836003306429200,0.73942919921875,-0.5482903003543615,0.19095467966273427,0.7983780639220028
1782836003316359200,0.749359130859375,-0.12899521322548388,0.3921169381503016,0.7081854595605284
1782836003326289200,0.7592890625,0.21675182261168954,0.6790751004103571,0.6258738177072256
1782836003336218000,0.769218017578125,0.4156178599208593,0.8368982756480574,0.6222617646899073
1782836003346148400,0.7791484375,0.5916594864815473,0.818160403560847,0.6022933644270524
1782836003356078000,0.789078125,0.705446024659276,0.7473857625052333,0.5271505547571927
1782836003366008300,0.79900830078125,0.6984907986938953,0.6720964205041527,0.5677135608898476
1782836003375937300,0.808937255859375,0.9325772024661302,0.657051119324565,0.5740141588713974
1782836003385867000,0.818866943359375,1.1734849766910076,0.79181855927594,0.4788710559630766
1782836003395797200,0.82879736328125,1.1834148345530033,0.9262850435193628,0.3395150461124256
1782836003405726200,0.838726318359375,1.1985323241859673,0.9618603608999401,0.21173110837284476
1782836003415656400,0.848656494140625,1.32656015368402,0.9775607649873942,0.13503473085174336
1782836003425586200,0.858586181640625,1.3909189363479613,0.954071460589394,0.056943921563867475
1782836003435516200,0.86851611328125,1.262390756112337,0.9026439095605164,-0.06437920439746231
1782836003445445400,0.8784453125,1.2317881125777959,0.7599249260827898,-0.1991525991655886
1782836003455375000,0.888375,1.1609347071975469,0.6631264937154948,-0.2520529992260039
1782836003465305300,0.898305419921875,0.9587368951171636,0.6290008636865765,-0.20687880950346588
1782836003475234300,0.908234375,0.8431032677680254,0.6562150338266044,-0.29725634197779
1782836003485164300,0.918164306640625,0.6289765329629182,0.7996627699702977,-0.3945732817938551
1782836003495094300,0.92809423828125,0.32065058850347994,0.8777905502676964,-0.4965259551191702
1782836003505024300,0.938024169921875,-0.09015431817770003,0.8118773047033697,-0.630668066246435
1782836003514953200,0.947953125,-0.4420826729983091,0.6322257440172135,-0.7024205393582582
1782836003524883200,0.95788330078125,-0.5221656790167093,0.5089057999491692,-0.6779658970594405
1782836003534813200,0.967813232421875,-0.5532604899823665,0.5697441534020007,-0.789773097988218
1782836003544742400,0.977742431640625,-0.5384978051364422,0.6721836603961885,-0.8663118555285036
1782836003554672000,0.987672119140625,-0.34924890647828577,0.6562742166679352,-0.798066879080981
1782836003564602000,0.99760205078125,-0.12728548669815062,0.5687948898531496,-0.685192048920691
1782836003574532400,1.007532470703125,-0.0299327814489603,0.4437824626535177,-0.5954321734206751
1782836003584461300,1.01746142578125,0.11563304282724857,0.3198213711377233,-0.530053874983266
1782836003594391300,1.027391357421875,0.3829010007113218,0.2825597811706364,-0.5567192156014964
1782836003604321300,1.0373212890625,0.6581932750970125,0.32791999498456714,-0.576471233167313
1782836003614250200,1.047250244140625,0.7853197718411684,0.3314270532574504,-0.5150567237943411
1782836003624180200,1.05718017578125,0.8648083190977572,0.1749729013506323,-0.38276239595822986
1782836003634110200,1.067110107421875,1.0004974770039319,0.0029432138450443744,-0.35262408199980855
1782836003644040400,1.07704052734375,0.9909878903806209,-0.052550271448493,-0.4376960554119199
1782836003653969400,1.086969482421875,0.9100438836187124,-0.07959894882850349,-0.43507958930321033
1782836003663899100,1.096899169921875,0.8481061906218528,-0.15200162947736678,-0.42628392310291524
1782836003673829400,1.106829345703125,0.7141887185633182,-0.19118468902632593,-0.5016651081059128
1782836003683758300,1.11675830078125,0.7469085003823042,-0.13423377146609128,-0.5245497976742685
1782836003693688000,1.12668798828125,0.8450017948657274,-0.055016734627261754,-0.4616131202353164
1782836003703618300,1.136618408203125,0.797575442302227,-0.09481237311661243,-0.4804249708741903
1782836003713548300,1.14654833984375,0.6578215191751718,-0.22667488540671765,-0.44531749020107086
1782836003723477200,1.156477294921875,0.5015174432635306,-0.3882067059040069,-0.43497558093946426
1782836003733407200,1.1664072265625,0.46725218556821346,-0.5700668825503439,-0.5153546472949907
1782836003743337200,1.176337158203125,0.5216244117468595,-0.6264002527341246,-0.45675059223286807
1782836003753266400,1.186266357421875,0.5277057774871587,-0.6048897741284222,-0.37553525771629065
1782836003763196200,1.196196044921875,0.4399503371447325,-0.6004936580613255,-0.40251930889487264
1782836003773126100,1.206126220703125,0.34319910492002964,-0.6605687720566987,-0.47822987198270855
1782836003783056400,1.216056396484375,0.13368833947777747,-0.7721369035325943,-0.5067682399312033
1782836003792985000,1.225985107421875,-0.036734278157353396,-0.9034784606885164,-0.5331214458603412
1782836003802915300,1.235915283203125,-0.08996376404166222,-0.9552410158254205,-0.548543471397832
1782836003812845300,1.24584521484375,-0.12720190006792545,-0.9460517471976577,-0.5698522168863565
1782836003822774300,1.255774169921875,-0.04875730890631676,-0.9238353853449225,-0.5086660363765433
1782836003832704300,1.265704345703125,-0.040725393620133395,-0.9654935297705233,-0.3679802392268553
1782836003842634200,1.27563427734375,-0.2148854442179203,-1.030525535520911,-0.335000052906014
1782836003852564200,1.285564208984375,-0.30681612441837786,-1.1113260421589015,-0.33384989649020136
1782836003862493200,1.2954931640625,-0.33010990624427794,-1.0994205003097652,-0.3574285596720874
1782836003872423200,1.305423095703125,-0.33328970532417296,-1.0302744103040546,-0.3948689402721822
1782836003882353400,1.315353515625,-0.37272155200242996,-1.0122866989970207,-0.3576126840673387
1782836003892282400,1.325282470703125,-0.5015887549340725,-1.0686163428537547,-0.30994382798485454
1782836003902212000,1.335212158203125,-0.6198983234941959,-1.095495143559575,-0.2979175823654979
1782836003912142300,1.345142333984375,-0.7742530189037322,-1.0630060286913066,-0.3163331636957824
1782836003922072000,1.355072021484375,-0.974038509145379,-1.0367700559336692,-0.3360625310383737
1782836003932001000,1.3650009765625,-1.0622603979557752,-0.9831669874966144,-0.3095416769247502
1782836003941931300,1.37493115234375,-1.21025841781497,-0.8798843807417899,-0.29273360385634
1782836003951861200,1.384861328125,-1.4839467641353605,-0.8221954312305897,-0.26577340847738085
1782836003961790200,1.394790283203125,-1.6216560296922922,-0.7816826574478298,-0.2441330929469317
1782836003971720200,1.40472021484375,-1.7728420319378375,-0.6909754546277225,-0.3328377237729728
1782836003981650200,1.414650146484375,-1.882415920856595,-0.5453581924252212,-0.4080665677584708
1782836003991580200,1.424580078125,-1.977794111162424,-0.44681817708760496,-0.37579211855418976
1782836004001509000,1.434509033203125,-2.0600392636507747,-0.4139315873343497,-0.32931276451721786
1782836004011439400,1.444439453125,-2.221032374161482,-0.4219928748454898,-0.2909844221014529
1782836004021369300,1.454369384765625,-2.4358295555740592,-0.40150888974331317,-0.26077048562355337
1782836004031298000,1.464298095703125,-2.548627082714438,-0.31301928990744055,-0.25319559338986874
1782836004041228300,1.474228271484375,-2.516286071079969,-0.18039236911609768,-0.26334895780943335
1782836004051158300,1.484158203125,-2.420411621689796,0.014625176071375607,-0.3084556352537125
1782836004061088300,1.494088134765625,-2.157825099620223,0.20739852252863347,-0.26899492780715223
1782836004071017200,1.504017333984375,-1.8302140244543552,0.3708599959142506,-0.16457454919405282
1782836004080947200,1.513947265625,-1.459769769734144,0.46724509824030097,-0.07465049610827118
1782836004090877200,1.523877197265625,-1.0689315462827682,0.581894756053388,-0.11078468948062509
1782836004100806100,1.53380615234375,-0.687400080358982,0.7378761758819222,-0.22043515076693146
1782836004110736100,1.543736083984375,-0.36395080104768274,0.8328637594349682,-0.22985731483511626
1782836004120666400,1.553666259765625,-0.09339783014357089,0.8270048042736947,-0.12551752717755735
1782836004130596000,1.56359619140625,0.15886369726657867,0.7375463594056666,0.0584829859657213
1782836004140525300,1.573525390625,0.5381915156662463,0.6710403355799615,0.13253054774478076
1782836004150455300,1.583455322265625,0.8496411451041698,0.7261291125301271,0.06561134000830351
1782836004160385000,1.593385009765625,1.18838151704967,0.8457249945737421,-0.0670552186736837
1782836004170314200,1.603314208984375,1.5231705210208892,0.9650313190862536,-0.13293668086025864
1782836004180244200,1.613244140625,1.8022253628104925,1.0770278320420532,-0.23421824999097735
1782836004190174500,1.623174560546875,1.9638041642546653,1.0994461462076752,-0.20770835566278545
1782836004200104200,1.633104248046875,1.9210370356738566,1.0164658843778074,-0.13071356145069002
1782836004210033200,1.643033203125,1.8169418704271316,0.9132627725999802,-0.04508344269916415
1782836004219963400,1.65296337890625,1.7695073345571755,0.8538167502883821,0.06863938259258866
1782836004229893000,1.66289306640625,1.7006185072481632,0.8771557594954967,0.2008666365418583
1782836004239822000,1.672822021484375,1.5833610780894756,0.9348336030907929,0.32743922573029993
1782836004249752300,1.68275244140625,1.252635085773468,0.9535555469565093,0.34475546751655634
1782836004259682300,1.692682373046875,0.8240536993831395,0.9165428902491927,0.2929259846232831
1782836004269612300,1.7026123046875,0.4316553870081901,0.8557824243381619,0.2797620402108878
1782836004279541200,1.712541259765625,0.05862754553556442,0.7563489672921597,0.3136521079182625
1782836004289471200,1.72247119140625,-0.19746435381770133,0.7421944774724543,0.3315289061967283
1782836004299401200,1.732401123046875,-0.3787801213890314,0.7982573601517826,0.3124412708237767
1782836004309330200,1.742330078125,-0.5031155261099338,0.8767679292216897,0.30547756929099557
1782836004319260200,1.75226025390625,-0.5031564426422119,0.8874427602320909,0.2768865578398108
1782836004329190100,1.762190185546875,-0.4721592468321323,0.8638446616973727,0.20472802467774598
1782836004339120000,1.7721201171875,-0.3511830894112587,0.8203085215054452,0.18983857164699583
1782836004349049300,1.78204931640625,-0.16590134081840513,0.7185735825840384,0.2077485050100833
1782836004358979300,1.791979248046875,0.11317746636867522,0.5890274574775248,0.22602387415207922
1782836004368909000,1.801908935546875,0.41426586079001426,0.48737194046787913,0.28199374478571115
1782836004378838300,1.81183837890625,0.5831348192423582,0.3915501711130142,0.2933569233864546
1782836004388768300,1.821768310546875,0.7818564796447753,0.21155564220808445,0.2819523167967796
1782836004398698200,1.8316982421875,0.8825719393253326,0.03282316912822425,0.2317999002702534
1782836004408628200,1.841628173828125,0.8192138581365347,-0.05422741088047623,0.3242038970708847
1782836004418557200,1.85155712890625,0.7506248905569315,-0.2035696849554777,0.4249996554460376
1782836004428487400,1.8614873046875,0.8558119426935911,-0.3277563288554549,0.43906800135225055
1782836004438417200,1.871417236328125,0.827023655104637,-0.27796222424730654,0.3768393625847995
1782836004448346000,1.88134619140625,0.5959183129698038,-0.22073979626931248,0.3496210277263075
1782836004458276400,1.8912763671875,0.5903273610949515,-0.36858218717537816,0.3339396936655044
1782836004468206000,1.9012060546875,0.6203846457064152,-0.5348795415740459,0.3728528502319008
1782836004478136300,1.91113623046875,0.4294558311372995,-0.604949687622115,0.44980325731299814
1782836004488065300,1.921065185546875,0.3143313223540783,-0.6499081157021224,0.4662107867565006
1782836004497995300,1.930995361328125,0.22976152631044386,-0.656925008726865,0.3973509663462639
1782836004507925200,1.94092529296875,-0.02825578814744949,-0.6830465613245964,0.3854817379195243
1782836004517854200,1.950854248046875,-0.1843903527110815,-0.7231543345030397,0.37250228322856127
1782836004527784400,1.960784423828125,-0.2467576692968607,-0.7239541065786034,0.2655919874958694
1782836004537714200,1.970714111328125,-0.3603443009883165,-0.6687607002101839,0.2707714359603822
1782836004547644200,1.98064404296875,-0.616058014678955,-0.6676273122660815,0.3585108750160783
1782836004557573400,1.990573486328125,-0.7665934440612793,-0.7099690550416707,0.28348449480012056
1782836004567503000,2.000503173828125,-0.8806050231665372,-0.6817487765990198,0.15910857540573925
1782836004577433300,2.010433349609375,-0.9903530996084212,-0.6484622277427464,0.1350048654364422
1782836004587362300,2.0203623046875,-0.9888210677355528,-0.679613298940286,0.17511494016982615
1782836004597292300,2.030292236328125,-0.9645563950508832,-0.6972589188113808,0.19419245600756257
1782836004607222300,2.04022216796875,-0.9348550842702388,-0.702874128344655,0.21933847810402513
1782836004617152300,2.05015234375,-0.8879203146159649,-0.7054625374026596,0.24422263439390807
1782836004627081200,2.060081298828125,-0.8696879078328609,-0.6920054552625864,0.2095367766663432
1782836004637011200,2.07001123046875,-0.7172796703159808,-0.6111201198853552,0.15648615448027847
1782836004646941200,2.079941162109375,-0.6453191804766655,-0.5398902093429118,0.1984059455167502
1782836004656870100,2.0898701171875,-0.5660241099655627,-0.557520704710111,0.286702908857353
1782836004666800400,2.09980029296875,-0.4334177205055952,-0.5711239173226058,0.3861817759476602
1782836004676730000,2.109730224609375,-0.43828328071534634,-0.5200724330645055,0.5367026288153603
1782836004686660400,2.119660400390625,-0.3876934956848621,-0.5116494726341217,0.7060851993456483
1782836004696589300,2.12958935546875,-0.3082394352197647,-0.46540516946204,0.7501665523301809
1782836004706519000,2.13951904296875,-0.3755307642042637,-0.3170288178097457,0.6792766873970627
1782836004716449300,2.14944921875,-0.5024772282063961,-0.15964279188029468,0.5970827901719138
1782836004726378200,2.159378173828125,-0.8128641968488692,-0.12683883890919387,0.6447969101682305
1782836004736308200,2.16930810546875,-1.1796411612331867,-0.18417247217670082,0.7234755292814224
1782836004746238200,2.17923828125,-1.48003163651824,-0.17155578638352453,0.7858385350182652
1782836004756168200,2.189168212890625,-1.7756097430855036,-0.040537177571654315,0.7337083886779844
1782836004766097400,2.199097412109375,-1.9228765260607004,0.16931041860952972,0.6752895174570381
1782836004776027100,2.209027099609375,-1.911217067927122,0.3480257213588804,0.6010216274581849
1782836004785957400,2.218957275390625,-1.8455396038800478,0.4249142421849072,0.5018900394355877
1782836004795886300,2.22888623046875,-1.58868665702641,0.44250294423699377,0.47867542379312217
1782836004805816000,2.238816162109375,-1.2542542114078998,0.4023366458043456,0.49636473667547104
1782836004815746300,2.248746337890625,-0.8395902912110089,0.37230113463327286,0.45724338071849197
1782836004825676300,2.25867626953125,-0.34283260969519613,0.39721016963608563,0.3620467575246468
1782836004835605200,2.268605224609375,0.1076449666827917,0.4411705265894532,0.26870800062455236
1782836004845535200,2.27853515625,0.5620096136271954,0.4438978326614946,0.22935305510740725
1782836004855465200,2.28846533203125,0.9283405878096819,0.41643151439130305,0.16869371148329226
1782836004865394200,2.298394287109375,1.1843220125257967,0.4171083907395601,0.15498163166884332
1782836004875324200,2.30832421875,1.3627905739724635,0.45387686342746014,0.10856679423544555
1782836004885254100,2.318254150390625,1.5852292100489138,0.5320550587378442,0.021771284966357052
1782836004895184400,2.328184326171875,1.5877414851307867,0.6125780636087059,0.04881386139914393
1782836004905113300,2.33811328125,1.5876263343185186,0.6263042450137436,0.03558890751451254
1782836004915043000,2.34804296875,1.5822417186707258,0.6052716130528598,-0.08936305820215493
1782836004924973300,2.357973388671875,1.3645926549583673,0.6218555950418114,-0.18647826490104197
1782836004934902300,2.36790234375,1.1734440601587295,0.6727697166558355,-0.23874639493990688
1782836004944832300,2.377832275390625,1.0046522585958242,0.7489777809370308,-0.32503943457957357
1782836004954762200,2.38776220703125,0.6518962207794189,0.7961003282483666,-0.3791075632451102
1782836004964692200,2.397692138671875,0.42141280993521213,0.8124798737064004,-0.2666058407135308
1782836004974621200,2.40762109375,0.04354220460653305,0.8466237700443714,-0.1986092130038887
1782836004984551200,2.41755126953125,-0.22237726127803326,0.8670704188108443,-0.1843768356423825
1782836004994481400,2.4274814453125,-0.43489539184272286,0.8569262606110424,-0.08913114914242178
1782836005004410400,2.437410400390625,-0.5973211655050515,0.8323458730407058,0.07899977735895664
1782836005014340000,2.447340087890625,-0.6437953319102525,0.7762386397629976,0.21117676242571323
1782836005024269800,2.457269775390625,-0.5621615893185138,0.7590474856611341,0.3105460316617042
1782836005034200000,2.467199951171875,-0.4479787452995777,0.7453851632725447,0.35693255631607024
1782836005044128800,2.477128662109375,-0.2375409281402826,0.6529034250605851,0.3518036324623972
1782836005054058800,2.487058837890625,0.0003232406049966812,0.5603291862595826,0.3733147686552256
1782836005063989000,2.496989013671875,0.18829320536851882,0.47152474832087754,0.385431030645594
1782836005073918000,2.50691796875,0.43120004445612425,0.3296357859265059,0.3500693560156971
1782836005083847700,2.51684765625,0.7456780818045139,0.21180545225068925,0.2762861807938665
1782836005093778000,2.52677783203125,0.9785931037098169,0.1284600103702396,0.26425109428092836
1782836005103708000,2.5367080078125,1.0734914015442132,0.009582067337632179,0.3246327900074422
1782836005113636900,2.546636962890625,1.2029542322814464,-0.07939743490703403,0.30099823191985486
1782836005123566800,2.55656689453125,1.2864596139639615,-0.08983553455211221,0.15374788862280547
1782836005133496800,2.566496826171875,1.1903776593029498,-0.06971987130567431,0.06617321167476475
1782836005143426000,2.576426025390625,1.054421959415078,-0.17050072437264024,0.010473097893223166
1782836005153355800,2.586355712890625,1.0594307274878025,-0.35321821196805686,-0.001105769284814596
1782836005163286000,2.5962861328125,0.9553624502480029,-0.4608094391696155,0.06888261676393449
1782836005173215700,2.6062158203125,0.6477186428338289,-0.5990034560361877,0.12662468470185995
1782836005183144700,2.616144775390625,0.664175272116065,-0.7498429463990032,0.06936243617013096
1782836005193075000,2.626074951171875,0.7022112805217504,-0.6874032952293754,0.010292480629310012
1782836005203005000,2.6360048828125,0.5598316850662232,-0.5948556887069717,0.004899973936006426
1782836005212934000,2.645933837890625,0.5701730463385581,-0.6250728035226464,0.032709552685916424
1782836005222864000,2.65586376953125,0.4405401197314262,-0.6416456065304577,0.009834799989685415
1782836005232793900,2.6657939453125,0.27260581178069115,-0.652747796107456,-0.0038912352848798036
1782836005242723800,2.675723876953125,0.1519651699244976,-0.7135710981216281,0.05427936026342213
1782836005252652800,2.68565283203125,-0.02152151145637035,-0.7416977799966931,0.08705138372629881
1782836005262582800,2.695582763671875,-0.12248714650571346,-0.7081498767904937,0.07012304527908564
1782836005272513000,2.705512939453125,-0.23304361672103405,-0.641748628513515,0.01136661266684532
1782836005282441700,2.715441650390625,-0.32154373795092106,-0.5963312411522492,-0.007494447408616542
1782836005292371700,2.725371826171875,-0.40649814939796924,-0.601360577088967,0.020701719506084917
1782836005302302000,2.735302001953125,-0.6243938813477754,-0.571813287826255,0.05936572361700236
1782836005312231700,2.745231689453125,-0.8378601064175367,-0.5724617783302441,0.030199396495893597
1782836005322161000,2.755160888671875,-1.0298305389940738,-0.5634555015865713,-0.031929581289365884
1782836005332091000,2.7650908203125,-1.235926527556777,-0.4608311760773882,-0.09886851663962005
1782836005342020900,2.775020751953125,-1.460426187816262,-0.3371773604124784,-0.08966879968307911
1782836005351949800,2.78494970703125,-1.6529852339357136,-0.24408476029317824,-0.04990779411569237
1782836005361879800,2.7948798828125,-1.8344664212018251,-0.17269494648128747,-0.08070106485150753
1782836005371810000,2.80481005859375,-2.023133720579743,-0.15820811943467705,-0.1387996911421418
1782836005381739800,2.81473974609375,-2.0421318510383366,-0.1646495141264051,-0.16371296392865478
1782836005391668700,2.824668701171875,-1.9676573325514792,-0.12897146702371537,-0.1610571887228638
1782836005401599000,2.834598876953125,-1.8587766865938902,-0.05364668838307261,-0.14536796361654997
1782836005411528700,2.84452880859375,-1.6927677937477825,0.03883285787180066,-0.1544116862937808
1782836005421457700,2.854457763671875,-1.6657950311481953,0.03056727996021509,-0.1242811172503978
1782836005431388000,2.864387939453125,-1.6784750645011663,-0.07139752219431102,-0.07112798453792929
1782836005441318000,2.87431787109375,-1.6569652434825897,-0.09234854028634726,-0.06897343685254455
1782836005451247900,2.884247802734375,-1.7509639621287583,-0.022857728496193885,-0.10516001799926161
1782836005461176800,2.8941767578125,-1.7403876230567692,0.06771065037511288,-0.17894743100479243
1782836005471106800,2.90410693359375,-1.5843664557397366,0.180174488581717,-0.17839067390486596
1782836005481036800,2.914036865234375,-1.5049503891974687,0.3160976744394749,-0.10918401281833648
1782836005490965800,2.9239658203125,-1.3227753744482993,0.37727563511021434,-0.04499167276248336
1782836005500895700,2.933895751953125,-0.8983382482558488,0.41327356181703506,-0.08554653212130069
1782836005510826000,2.943825927734375,-0.5761725790143013,0.5513135936982929,-0.11136654448918998
1782836005520755700,2.953755615234375,-0.33559622870087624,0.6371568437438457,-0.14818367862440646
1782836005530685000,2.963684814453125,0.026309330254793165,0.5872162433370948,-0.15636581603623925
1782836005540615000,2.973614990234375,0.2999035685509443,0.5451268678873777,-0.12626381550021468
1782836005550544600,2.983544677734375,0.4973427879273891,0.5963324467286467,-0.027468437162041663
1782836005560473900,2.993473876953125,0.7438608032494783,0.6310799349829554,0.0640895372685045
1782836005570403800,3.00340380859375,1.0100520718127488,0.7366567901547998,0.04795958265736699
1782836005580333800,3.013333740234375,1.2190636555612087,0.9380715620987117,0.03364902549311519
1782836005590263800,3.023263916015625,1.308266372102499,1.0246324588943272,0.03993899248279631
1782836005600192800,3.03319287109375,1.4053028510093688,0.9639945964496582,0.06348784504830837
1782836005610123000,3.043123046875,1.5479863978475332,0.8821286525372415,0.13116313184909523
1782836005620052700,3.053052734375,1.4998217941373586,0.827967000369355,0.16898374393843113
1782836005629981700,3.062981689453125,1.499761588382721,0.7725305790252983,0.23235643817447124
1782836005639912000,3.072911865234375,1.5557681377649306,0.7433012696705759,0.27861688876375557
1782836005649841700,3.082841552734375,1.579956238082051,0.7486170578658581,0.37305699450187385
1782836005659772000,3.09277197265625,1.4485633160650728,0.7276743692107498,0.5641024211879819
1782836005669700900,3.102700927734375,1.2724521313995123,0.6505222290124744,0.6267531578250229
1782836005679630800,3.112630859375,1.0986959854274987,0.5768848920021206,0.6133952252104878
1782836005689560800,3.122560791015625,0.9457955804795026,0.5703541019938886,0.7852925915732979
1782836005699489800,3.13248974609375,0.711044575318694,0.588465366615355,0.9898520182184875
1782836005709420000,3.142419921875,0.48976913780272,0.5294770249433816,1.1036273043498397
1782836005719349800,3.152349853515625,0.30740356891751286,0.4940167853098362,1.1529079064778982
1782836005729279700,3.16227978515625,-0.055793783414363855,0.4760700636003166,1.1871537288203835
1782836005739209000,3.172208984375,-0.3334054406583309,0.40880445357896383,1.133166118045151
1782836005749139000,3.182138916015625,-0.43485389078855513,0.3445479622457176,1.106933067896962
1782836005759069000,3.19206884765625,-0.5577186384350061,0.3834582692679018,1.0544202789146453
1782836005768999000,3.2019990234375,-0.595281768631935,0.3857842279974371,1.0126035098612307
1782836005778927900,3.211927978515625,-0.5416705899536609,0.32923305034451184,0.9454727782659232
1782836005788857900,3.22185791015625,-0.5412848055064677,0.2521213882870972,0.8506132050067186
1782836005798787800,3.231787841796875,-0.5089180749088525,0.16258483668155968,0.8506587246488779
1782836005808716800,3.241716796875,-0.4268985478699207,0.018385405387729405,0.8730795960977673
1782836005818646800,3.251646728515625,-0.27795535611510275,-0.09731690328344703,0.9214265706375241
1782836005828576800,3.26157666015625,-0.033110242441296574,-0.019184666006639598,0.853402543464303
1782836005838505700,3.271505615234375,0.23732757765054702,0.11468911304064094,0.7662158429205417
1782836005848436000,3.28143603515625,0.3203033825010061,0.09560155073292553,0.6842685774002224
1782836005858365700,3.29136572265625,0.27371523432731626,-0.08327391101419926,0.670316186023876
1782836005868296000,3.3012958984375,0.3581067511945963,-0.2970554856434464,0.6040636985678225
1782836005878225000,3.311224853515625,0.5681511851221323,-0.47362530079670245,0.5979902238730341
1782836005888154600,3.321154541015625,0.6860726311475038,-0.4220756577581167,0.6633447395760566
1782836005898084900,3.3310849609375,0.6777127990812063,-0.39251054057776924,0.7481869228202849
1782836005908014800,3.341014892578125,0.7384633281201124,-0.5375453267171979,0.7157986379779875
1782836005917944000,3.350944091796875,0.7574749025821685,-0.6248812264733016,0.6519618333615362
1782836005927873800,3.360873779296875,0.5913216328293085,-0.5599803728219122,0.5567045660216361
1782836005937803800,3.3708037109375,0.3761030111342668,-0.5593694743819534,0.5184762499142438
1782836005947733000,3.38073291015625,0.4236275633752346,-0.6591207652054727,0.4539926718268543
1782836005957662700,3.390662841796875,0.397130601593852,-0.6518880374729633,0.41343627809807654
1782836005967593000,3.400593017578125,0.21150632317364215,-0.6128109225165098,0.4338863609306514
1782836005977523000,3.41052294921875,0.08373977496027946,-0.6613079730514436,0.5218482105653732
1782836005987452000,3.420451904296875,-0.10603577792048453,-0.7438914175834507,0.5254069990254938
1782836005997382000,3.4303818359375,-0.14032967718839645,-0.7198289894726126,0.43897279734946787
1782836006007312000,3.440311767578125,-0.14655483531355856,-0.5843466061849146,0.3392871191080659
1782836006017240800,3.45024072265625,-0.21723989838957786,-0.5275274252455682,0.3524761248964816
1782836006027170600,3.460170654296875,-0.30617490390539165,-0.6174530492339283,0.3642036798302084
1782836006037100800,3.470100830078125,-0.4034913687974214,-0.7570050200480968,0.3692663700472563
1782836006047030800,3.48003076171875,-0.51867666785717,-0.8042283243201672,0.33479199964590367
1782836006056959700,3.489959716796875,-0.7640963665485382,-0.7491253727141768,0.29345541532486674
1782836006066889700,3.4998896484375,-0.8171475732564926,-0.7114381046809256,0.201230428352952
1782836006076819700,3.50981982421875,-0.8586392750740051,-0.5854977489814162,0.23492168555259704
1782836006086749000,3.5197490234375,-1.0482838950514792,-0.44246845744550223,0.270069571301341
1782836006096678700,3.5296787109375,-1.0139005639344454,-0.4195063187267631,0.2843935724690556
1782836006106609000,3.53960888671875,-0.9652835402816533,-0.39899931807518,0.3605070903345942
1782836006116537900,3.549537841796875,-0.9002484657913445,-0.33790932794883843,0.45524457158409054
1782836006126467600,3.559467529296875,-0.822441588011384,-0.28657405831329524,0.5633836053941399
1782836006136397800,3.569397705078125,-0.9385346495658159,-0.25414880246147514,0.5995877221975475
1782836006146327800,3.579327880859375,-1.2183183901518582,-0.30477190523967146,0.4794928045906126
1782836006156256800,3.5892568359375,-1.2927777110695837,-0.2734147170107811,0.31380313376151026
1782836006166186800,3.599186767578125,-1.4069284063845873,-0.06001936522014439,0.5556834062803536
1782836006176116700,3.60911669921875,-1.7934528582900762,-0.0990213691137731,0.5987394348051399
1782836006186046700,3.619046630859375,-2.0142910734325645,-0.20958163872137664,0.6952073931090533
1782836006195975700,3.6289755859375,-2.2460890740066763,-0.2490476068649441,0.7587385658424347
1782836006205905700,3.63890576171875,-2.2279279788941144,-0.08530081373192369,0.6795910140432417
1782836006215836000,3.6488359375,-2.061387171128392,0.19681290417164563,0.5760907459497452
1782836006225764900,3.658764892578125,-1.7775532783687114,0.4176134176522493,0.48876507532671093
1782836006235694800,3.66869482421875,-1.4077601810336111,0.4750891262715682,0.3525002364244312
1782836006245624800,3.678624755859375,-0.7837953387528658,0.4674989268708974,0.28024463609606026
1782836006255554600,3.688554443359375,-0.2515712070584297,0.478134704512544,0.36343364530578254
1782836006265483800,3.69848388671875,0.14069558789134023,0.4043955876281485,0.48905178331360216
1782836006275413800,3.708413818359375,0.5346516511023044,0.30648934014942497,0.5300033869050443
1782836006285344000,3.718343994140625,0.6901461641967296,0.27535218787938354,0.4127276183720678
1782836006295272700,3.728272705078125,0.9528887536108493,0.2806901148412376,0.20714301339760421
1782836006305202700,3.73820263671875,1.1723679553598165,0.31756329001262784,0.21683168291486798
1782836006315133000,3.7481328125,1.353197985240817,0.32836408549025653,0.15149864839129148
1782836006325062700,3.758062744140625,1.56101013007164,0.3280491012569517,0.0655362289454788
1782836006334991600,3.76799169921875,1.782332329338789,0.33128479524254795,0.04307977472655475
1782836006344921900,3.777921875,1.9358470667928456,0.367471011063084,-0.020296353575587272
1782836006354851800,3.787851806640625,2.0640900003463027,0.3951897697243839,-0.08965374824441968
1782836006364780500,3.797780517578125,2.129414997693896,0.3750408617954701,-0.12289265856668352
1782836006374710800,3.807710693359375,2.0099720411896707,0.3307429434508085,-0.09237265181429684
1782836006384640800,3.817640869140625,1.806946546113491,0.297105243069306,-0.030195670168846844
1782836006394570800,3.82757080078125,1.4470184247106312,0.2764238356988877,0.02940276622548699
1782836006404499700,3.837499755859375,1.1251374176293611,0.32988859164379536,-0.010046981435641646
1782836006414429700,3.8474296875,0.6647738225311041,0.4840414808709174,-0.045488735564425585
1782836006424359700,3.857359619140625,0.09918927302658558,0.5706580533765256,-0.10077866110987961
1782836006434288600,3.86728857421875,-0.3240817319959402,0.64329403132461,-0.1539378582369536
1782836006444219000,3.877218994140625,-0.6289186652958393,0.7887693277731538,-0.17795834690220652
1782836006454148900,3.88714892578125,-0.9362088369667529,0.9009363749902695,-0.07905234779641032
1782836006464078600,3.89707861328125,-1.1896335629373789,0.866276272758469,0.016323942813277245
1782836006474007800,3.9070078125,-1.2438625812530517,0.7208828093744813,0.08511405898816883
1782836006483937800,3.916937744140625,-1.0672586446344852,0.6056431497789919,0.119174807087332
1782836006493867800,3.92686767578125,-0.7624439231663942,0.5503486211236566,0.09588570143654943
1782836006503796700,3.936796630859375,-0.28879531455934043,0.5423012890726328,-0.0032950229573994873
1782836006513726700,3.946726806640625,0.2258423070400953,0.5066594823271036,-0.05521810241825878
1782836006523657000,3.956656982421875,0.6292144333720207,0.39060273419506847,-0.006735664930567145
1782836006533586700,3.966586669921875,0.8780909945189952,0.2124449922632426,0.01295461251065135
1782836006543515600,3.976515625,1.0443091462016105,0.065444459008798,0.012404065955802797
1782836006553446000,3.98644580078125,1.2903536987930535,-0.05090630363374948,0.01941204502172768
1782836006563375600,3.996375732421875,1.4183265832334755,-0.08712006504833698,-0.001021525067463517
1782836006573304600,4.0063046875,1.3739187017083168,-0.11325213904008269,0.01196852408275008
1782836006583234800,4.01623486328125,1.344160107782483,-0.20137604736872017,0.017087839857861397
1782836006593164800,4.026164794921875,1.2517366756290196,-0.2330979772567749,0.03805829330272972
1782836006603094800,4.0360947265625,1.1088526377826928,-0.24923114673830568,0.004460486540198326
1782836006613023700,4.046023681640625,0.8872796786248683,-0.2607092569556087,-0.019077113978937268
1782836006622953700,4.05595361328125,0.7428665315151214,-0.26872122543230653,-0.020008695740625262
1782836006632883700,4.0658837890625,0.6618903760492801,-0.29266148846819995,0.0017307693153619766
1782836006642812700,4.075812744140625,0.4856751464873552,-0.3543445491168648,0.01632350442185998
1782836006652743000,4.085742919921875,0.3112736883491278,-0.42182730902023613,0.10728796993866563
1782836006662672600,4.095672607421875,0.142214175760746,-0.48065337280258535,0.16472214097119867
1782836006672602600,4.1056025390625,0.04773673368692398,-0.5657947947217151,0.13780162001550197
1782836006682531800,4.11553173828125,-0.182429281771183,-0.6576937280770391,0.11900361523889004
1782836006692461800,4.1254619140625,-0.25073417171239853,-0.7407038005232811,0.18499620964974164
1782836006702391800,4.135391845703125,-0.31467619026899335,-0.7649054909743368,0.28389804403707386
1782836006712320800,4.14532080078125,-0.42775779504775996,-0.7256460782535373,0.3229031166706234
1782836006722250800,4.155250732421875,-0.4481014948964119,-0.6533754995517432,0.3717857324570417
1782836006732180700,4.1651806640625,-0.4905962362766266,-0.6283712605461478,0.4213797113832086
1782836006742110700,4.17511083984375,-0.7210650340735912,-0.6618566199101508,0.4567927508741617
1782836006752039700,4.185039794921875,-0.8692658830285072,-0.6868665580041706,0.40563291087076064
1782836006761970000,4.194969970703125,-0.9148837248653173,-0.612722951972112,0.38865306143201883
1782836006771899600,4.204899658203125,-1.0659458084702491,-0.4937317212907597,0.4354417736791074
1782836006781828900,4.214828857421875,-1.21022100841403,-0.39711712105777114,0.43896132610738275
1782836006791758800,4.2247587890625,-1.3506196591854094,-0.2725480902440846,0.39343335451111194
1782836006801688600,4.2346884765625,-1.4847767852187155,-0.1811528320945799,0.3684074151303619
1782836006811618800,4.244618896484375,-1.6533131507158279,-0.14897475593686102,0.3062757339313626
1782836006821547800,4.2545478515625,-1.8799340409129857,-0.12172361478731035,0.3053847764410078
1782836006831477800,4.264477783203125,-2.0991122138887643,-0.07141352348104119,0.3412128264736384
1782836006841407700,4.27440771484375,-2.392898176342249,0.03417779860757291,0.3072992317602038
1782836006851336700,4.284336669921875,-2.7371441599667072,0.10067081682123243,0.3627976854898035
1782836006861267000,4.294266845703125,-2.902399019575119,0.14438684362471102,0.4513886998735368
1782836006871196700,4.30419677734375,-2.8736978257477284,0.3152902305141091,0.4880401220530271
1782836006881127000,4.314126953125,-2.7421733863055704,0.5673472483281046,0.5690760448820888
1782836006891055900,4.324055908203125,-2.4782132377952335,0.7128987518180161,0.6360286434315144
1782836006900985600,4.333985595703125,-2.0915099221915003,0.7346353673297912,0.6951059054959565
1782836006910915800,4.343915771484375,-1.6793664603829384,0.7987083187896757,0.6421536291178316
1782836006920844800,4.3538447265625,-1.2300509135216473,0.8697044936414807,0.5304311107978225
1782836006930774800,4.36377490234375,-0.6673714378088712,0.8537708653200418,0.576804958633706
1782836006940704800,4.373704833984375,-0.19237959789931772,0.8087403218518943,0.6394540878355502
1782836006950634800,4.383634765625,0.1925327426344156,0.8435595601681619,0.623173472707346
1782836006960563700,4.393563720703125,0.45496027474999423,0.9419462846402078,0.5754790437921882
1782836006970493700,4.40349365234375,0.6179138716787099,0.9981080245841294,0.5155033715832978
1782836006980423700,4.413423583984375,0.7372609665930271,1.038406863355264,0.4377653212558478
1782836006990353000,4.423352783203125,0.9773363816469908,1.1567593212090432,0.30324345356337723
1782836007000283000,4.433282958984375,1.3304495623379946,1.3074210073195398,0.3032722412664443
1782836007010212600,4.443212646484375,1.5045318715244531,1.4022325036533176,0.34493659623712297
1782836007020142800,4.453142822265625,1.6727403202414513,1.3676387446559966,0.3759356186781078
1782836007030072300,4.463072265625,1.8512381077826021,1.2699940707229076,0.270232799039036
1782836007040002000,4.473001953125,2.0595120249062777,1.158455019211024,0.16680873798690735
1782836007049932300,4.482932373046875,2.2846669342041013,1.1050139364026486,0.1812074118260294
1782836007059861200,4.492861328125,2.395454875087738,1.0373787624165416,0.3039885728422552
1782836007069791000,4.502791015625,2.2638871810257433,0.9461388409592211,0.39639549225233495
1782836007079721200,4.51272119140625,2.028949713382125,0.8279483687341213,0.48057037069424985
1782836007089651200,4.522651123046875,1.9790742141008375,0.788433958338946,0.5727749724652618
1782836007099580200,4.532580078125,1.6868559393554925,0.8159853976093232,0.5890634786389768
1782836007109510100,4.54251025390625,1.182479015007615,0.7982436969526112,0.625322540500015
1782836007119440100,4.552440185546875,0.6944722107023,0.6257876737937331,0.6432281995467841
1782836007129369300,4.562369384765625,0.17831833932101726,0.5072131706871092,0.5394091478276998
1782836007139299000,4.572299072265625,-0.371029945653677,0.4703782086342573,0.4656931926231831
1782836007149229000,4.58222900390625,-0.7834364423125982,0.4656649163767695,0.41826172549314794
1782836007159159300,4.5921591796875,-1.0491343744009733,0.45453766542375085,0.4537036988176405
1782836007169088000,4.602087890625,-1.2442197241276503,0.3904449863500893,0.4936326082978397
1782836007179018200,4.612018310546875,-1.3697528142005204,0.31353315771371126,0.5245721921691671
1782836007188948200,4.6219482421875,-1.372079211321473,0.25146979251056906,0.4727061035925522
1782836007198878000,4.6318779296875,-1.2688777800440787,0.2901802661117166,0.37242534553483125
1782836007208807200,4.64180712890625,-1.0107406385987996,0.32207660271860655,0.34021212499849496
1782836007218737200,4.651737060546875,-0.743510674637556,0.23874160916693507,0.42454007511027153
1782836007228667100,4.661667236328125,-0.41609482978284357,0.08254062830358744,0.49677521717250345
1782836007238596000,4.67159619140625,-0.05543079532086849,-0.06420271531939506,0.48956009816192086
1782836007248526000,4.681526123046875,0.2368663898795843,-0.15718853059597312,0.5738277694538235
1782836007258456300,4.691456298828125,0.5455857175707817,-0.21573300095796583,0.6444230353545397
1782836007268386000,4.701385986328125,0.7357862178653478,-0.22172551937103271,0.5936616200841963
1782836007278315000,4.71131494140625,0.8067536050140858,-0.2548098967187106,0.6424586764790118
1782836007288245200,4.721245361328125,0.7743594018876552,-0.31825331810340285,0.6381077877931296
1782836007298175000,4.731175048828125,0.8059504719376563,-0.35959647829569874,0.6352415116418153
1782836007308104000,4.74110400390625,0.7790455138772726,-0.31254736154675483,0.6871858530864119
1782836007318034200,4.7510341796875,0.7497071911901235,-0.23831731934025882,0.7527125835511833
1782836007327964200,4.760964111328125,0.6937491571247577,-0.22975845757052302,0.7435563404101878
1782836007337894100,4.77089404296875,0.5848199958503246,-0.2676627293553203,0.7183903349716216
1782836007347823000,4.780822998046875,0.48451370149254797,-0.33571488664448257,0.6909622298199684
1782836007357753000,4.790753173828125,0.32667759370803834,-0.4168122573371976,0.6461656412381679
1782836007367683000,4.80068310546875,0.25313655667901036,-0.48525977061949666,0.6264585587926209
1782836007377612000,4.810612060546875,0.2244528985083103,-0.46772667121216654,0.683404434851557
1782836007387542300,4.820542236328125,0.18783435568511486,-0.3615081571359187,0.7200020810171961
1782836007397472300,4.83047216796875,0.06680851390361786,-0.2506062344837934,0.6524686138398945
1782836007407402000,4.840402099609375,-0.11333762536644935,-0.21089732442982492,0.537505140837282
1782836007417331200,4.850331298828125,-0.3101818014591932,-0.18778109112791716,0.47024442618675527
1782836007427261200,4.86026123046875,-0.45162616189122196,-0.18540888210386036,0.42421493480913336
1782836007437191200,4.870191162109375,-0.4670201303780079,-0.19391228735931215,0.3893503229811787
1782836007447120100,4.8801201171875,-0.39260581764578817,-0.16875168874822555,0.4003364118978381
1782836007457050000,4.890050048828125,-0.26624329101145267,-0.12204963187128305,0.4590123266197741
1782836007466980000,4.89997998046875,-0.2677367444396019,-0.10727174945622682,0.5048689456485211
1782836007476910000,4.90991015625,-0.28377719413638114,-0.2132834158487618,0.537409863769263
1782836007486839000,4.919839111328125,-0.40482933940291405,-0.2765938585035503,0.614484920143336
1782836007496769300,4.929769287109375,-0.4898147305101156,-0.26938085838481785,0.6666684771712869
1782836007506699000,4.939698974609375,-0.4873883801460266,-0.24167729729264972,0.7280142686896026
1782836007516628200,4.949628173828125,-0.47234512479305263,-0.21266016938388346,0.8000731043368577
1782836007526558200,4.95955810546875,-0.3137491385519504,-0.20411562840044498,0.8548095607180148
1782836007536488000,4.969488037109375,-0.3210153301626444,-0.19298881583884359,0.8507127198584378
1782836007546418200,4.979418212890625,-0.39562604224979875,-0.25654972612336274,0.9657575875341892
1782836007556347100,4.98934716796875,-0.6025830315560102,-0.3427764955937862,0.9339483446888625
1782836007566277400,4.99927734375,-0.8744400707960128,-0.2953399138972163,0.673045099531114
1782836007576207000,5.00920703125,-1.2523971853643654,-0.11601049783751367,0.5617887008855119
1782836007586136000,5.019135986328125,-1.7257114474505184,-0.0035215251896530387,0.6063852733831853
1782836007596066300,5.02906640625,-1.9938883368730544,-0.007211100422590971,0.7143100068554282
1782836007605996000,5.03899609375,-2.0445792441904542,0.012660378804430364,0.7461084360457957
1782836007615926300,5.04892626953125,-2.011860046893358,0.16644896476380527,0.7089104128342122
1782836007625855200,5.058855224609375,-1.7821131336301563,0.35075244290903207,0.5864072650417685
1782836007635785200,5.06878515625,-1.4413433016836643,0.4078836854722351,0.46810441848337647
1782836007645715200,5.078715087890625,-0.8240402553796767,0.4117890954129398,0.39320601202864197
1782836007655644200,5.08864404296875,-0.27433891918361186,0.41415524002239107,0.3084623207228258
1782836007665574100,5.09857421875,0.025078911677002904,0.39865722663924097,0.3795447856185958
1782836007675504000,5.108504150390625,0.015536007305979729,0.239697083260864,0.5046368539256975
1782836007685434000,5.11843408203125,0.04924246207475662,-0.08248992102965712,0.6453922457128762
1782836007695363000,5.128363037109375,0.33606910690963265,-0.12634952102229,0.68853682930395
1782836007705293000,5.13829296875,0.45622401107549665,0.2412261194590479,0.5235592522669583
1782836007715223000,5.14822314453125,0.8271779688835144,0.639044703317061,0.27995515163019297
1782836007725152300,5.15815234375,1.140665826150775,0.8522808459579944,0.12705450008702462
1782836007735082200,5.168082275390625,1.249697278755903,0.8415703591123223,0.15271679200939833
1782836007745012000,5.178011962890625,1.345312784948945,0.6331288303367794,0.2579327414469793
1782836007754942200,5.187942138671875,1.4787977108091115,0.4686662901498377,0.2523184086965397
1782836007764871200,5.19787109375,1.4760305841833352,0.4768510579101741,0.21224179784134029
1782836007774801200,5.20780126953125,1.3014110993802546,0.5071634863264859,0.1678967158867046
1782836007784731100,5.217731201171875,1.1779735202819108,0.5358773935049772,0.07194235139442608
1782836007794660000,5.22766015625,0.9035662120372057,0.6791920778535306,-0.023421125399461014
1782836007804590300,5.23759033203125,0.32875439998209477,0.7961100459247827,-0.038816660222248174
1782836007814520000,5.24752001953125,-0.06644201867878437,0.7835406333394348,-0.07227277065888046
1782836007824450300,5.2574501953125,-0.498622306343913,0.8096860052041709,-0.19680760694202035
1782836007834379300,5.267379150390625,-0.9836983178943395,0.8632984990566969,-0.29729490215620025
1782836007844309000,5.27730908203125,-1.2002502340197563,0.8523788995049894,-0.32854053803570565
1782836007854239200,5.2872392578125,-1.28211720084548,0.7979413530051708,-0.3247940084511414
1782836007864168200,5.297168212890625,-1.221875205850601,0.7565301690779626,-0.2618880914766341
1782836007874098200,5.30709814453125,-1.0275409667521715,0.7138305527754127,-0.17922825724016875
1782836007884025000,5.317025146484375,-0.7407359492272139,0.664540890558064,-0.06156353505537845
1782836007893955300,5.326955322265625,-0.5396726941347122,0.5726008580073714,0.05492114703198894
1782836007903885000,5.336885009765625,-0.25210546006560325,0.4414326846569776,0.10550261175869964
1782836007913815300,5.346815185546875,0.09577624971270561,0.4065701917208731,0.13889502300908788
1782836007923744300,5.356744140625,0.27514205226004124,0.40994047187156973,0.13609905388131738
1782836007933674000,5.366674072265625,0.3790110075354576,0.3353726490780711,0.2202024014569819
1782836007943604200,5.376604248046875,0.5360118335396051,0.1993186033822596,0.17189075395893305
1782836007953534200,5.3865341796875,0.6953589304089546,0.1446169260535389,0.1127281608317513
1782836007963463200,5.396463134765625,0.8399293139070272,0.13443930397555232,0.05849279497368261
1782836007973393200,5.40639306640625,0.8796382239609957,0.06818338245339692,-0.05273225868558511
1782836007983323100,5.4163232421875,0.8910925149112939,-0.07893756231032312,-0.12364490170609205
1782836007993252000,5.426252197265625,0.9503168572962284,-0.25177133274041114,-0.11487743868697434
1782836008003182000,5.43618212890625,0.9579723404854535,-0.36111338566467166,-0.12170328438533469
1782836008013112000,5.446112060546875,0.9174316557824611,-0.37700405162721873,-0.15416994995977729
1782836008023042300,5.456042236328125,0.7883265524417161,-0.3144300334881991,-0.22431736249513923
1782836008032974000,5.46597412109375,0.7964490686208009,-0.2662644799299538,-0.277808166196756
1782836008042904000,5.475904052734375,0.6462988391637802,-0.2759133288934827,-0.24669781060209497
1782836008052834000,5.485833984375,0.5133195247381925,-0.35560339007154107,-0.1216837759672664
1782836008062763300,5.49576318359375,0.45322599830329413,-0.43233606274873015,-0.03697856264146976
1782836008072693000,5.50569287109375,0.3122013245880604,-0.42576150666400786,-0.03084299162905663
1782836008082623000,5.515623046875,0.16811317164897918,-0.28971476749181746,-0.16933895058427004
1782836008092553200,5.52555322265625,-0.008007949888706206,-0.23175993358604607,-0.2584068069658242
1782836008102482200,5.535482177734375,-0.08298807981014251,-0.3468412608146667,-0.2332462814199738
1782836008112412200,5.545412109375,-0.11166355467438698,-0.4354923348225653,-0.09785234360070899
1782836008122342100,5.555342041015625,-0.22366613204479216,-0.4215457155998796,0.004036973031656816
1782836008132271000,5.56527099609375,-0.23600597365796563,-0.4054280359484255,-0.020495702939433976
1782836008142201000,5.575201171875,-0.28888299284279345,-0.3867627176407724,-0.0971733483606018
1782836008152131000,5.585131103515625,-0.45900341266095634,-0.40786534609794617,-0.03716577404295094
1782836008162061300,5.595061279296875,-0.4396966546446085,-0.47993112294264134,0.04078731640782207
1782836008171990300,5.604990234375,-0.4319739514380693,-0.4648629523441195,0.07566350907571613
1782836008181920000,5.614919921875,-0.5802139633595943,-0.46335152486786246,-0.09678360012434423
1782836008191850200,5.624850341796875,-0.689054277306795,-0.5041276988271624,-0.2531078968401067
1782836008201779200,5.634779296875,-0.6699257984668016,-0.5218620198950171,-0.32471056795138864
1782836008211709000,5.644708984375,-0.4839812020510435,-0.4721780976630747,-0.3005516937287524
1782836008221639200,5.65463916015625,-0.1728881309658289,-0.4106793075401336,-0.22818434012159705
1782836008231569200,5.664569091796875,-0.17529928376078605,-0.451758556099236,-0.29042496158778663
1782836008241498000,5.674498046875,-0.37529637092649937,-0.6348402373645454,-0.4864630454620346
1782836008251428000,5.684427978515625,-0.49162791741192335,-0.8252334837522357,-0.49097292410191146
1782836008261358000,5.694358154296875,-0.3763011640548706,-0.8457180533763021,-0.381428480473347
1782836008271287300,5.704287353515625,-0.1361181969732046,-0.6364625778693705,-0.32395375823471695
1782836008281217000,5.714217041015625,-0.23835984330773352,-0.44214565523192284,-0.32981435736380516
1782836008291147000,5.72414697265625,-0.41490240512788296,-0.4405564132791012,-0.483977914115414
1782836008301077200,5.7340771484375,-0.5075380187273025,-0.4747344310823828,-0.438858121461235
1782836008311006000,5.744005859375,-0.6292448285102844,-0.4494727101843804,-0.2381929257756099
1782836008320936200,5.753936279296875,-0.6088228027284145,-0.3920278716273606,-0.1475312425976619
1782836008330866200,5.7638662109375,-0.592118920686841,-0.28340697258450087,-0.23038265388347207
1782836008340795100,5.773795166015625,-0.5961579669445752,-0.1654695983376354,-0.21818631239421665
1782836008350725000,5.78372509765625,-0.6688543698430061,-0.13369644971899688,-0.17682152489200234
1782836008360655000,5.793655029296875,-0.8110176921993494,-0.1919573538992554,-0.14251220885924995
1782836008370585000,5.803585205078125,-0.9280424816459417,-0.21380283661298452,-0.12988606111798434
1782836008380514000,5.81351416015625,-0.9996733011394738,-0.1474528070665896,-0.07864862583372742
1782836008390444000,5.823444091796875,-1.0650012210965156,-0.04048880838528275,-0.05166727806888521
1782836008400374300,5.833374267578125,-1.1733838544040918,0.024078940854221582,-0.1097471996590495
1782836008410303200,5.84330322265625,-1.2320394569903612,0.0486354360923171,-0.16341639213487505
1782836008420233000,5.85323291015625,-1.2550433159589767,0.11796331240572035,-0.21616909082029012
1782836008430163200,5.8631630859375,-1.2327116571635006,0.16980010182261465,-0.26583076468780636
1782836008440093000,5.873093017578125,-1.033944404053688,0.20682415670678017,-0.29642036607768385
1782836008450022100,5.883022216796875,-0.8998778789132833,0.29971286828443405,-0.2193991222500801
1782836008459952000,5.8929521484375,-0.6502420238316059,0.4459023043517023,-0.22894922354687003
1782836008469882000,5.902882080078125,-0.3769628428339958,0.5799363154619932,-0.32021997853387146
1782836008479812000,5.91281201171875,-0.16743980243206022,0.666342752348259,-0.41220494620483367
1782836008489741000,5.922740966796875,-0.06520517036020755,0.6956991221487522,-0.4536114174243063
1782836008499671300,5.93267138671875,-0.028226562052965164,0.6805997526943683,-0.35615097748432306
1782836008509601000,5.94260107421875,0.03916939634978771,0.6786826670266688,-0.23491901867147533
1782836008519530000,5.952530029296875,0.2553770290821791,0.679911697364971,-0.22974731512200086
1782836008529460200,5.962460205078125,0.4445382494568825,0.7142942978296428,-0.21262045842800287
1782836008539390200,5.97239013671875,0.6849380741596222,0.7714740557096899,-0.12403320690393448
1782836008549320200,5.9823203125,0.9697890350073576,0.8385486001383513,0.039896724243648346
1782836008559249200,5.992249267578125,1.1258476117253302,0.8930077739480883,0.12310261152293532
1782836008569179100,6.00217919921875,1.1666957549422978,0.9018398266360164,0.12075637719035148
1782836008579109000,6.012109130859375,1.1462556089818476,0.8462050331756472,0.08817790353819728
1782836008589038000,6.0220380859375,1.1626152076303957,0.7731928423263132,0.14637268367968498
1782836008598968000,6.031968017578125,1.2237842543423174,0.7779689706869423,0.2739862698210403
1782836008608898000,6.04189794921875,1.0682032320082187,0.7432052619501948,0.43987942733298985
1782836008618828000,6.051828125,0.8352654137492179,0.6510489563003182,0.5225791186558082
1782836008628757000,6.061757080078125,0.429509022629261,0.5332821163147687,0.5967384702462702
1782836008638687200,6.071687255859375,0.09986498033106327,0.5257482136785984,0.5784749742051586
1782836008648617000,6.081616943359375,-0.29983985566496846,0.6418257854029535,0.4762187148233875
1782836008658546200,6.091546142578125,-0.561473022532463,0.7048242394991219,0.393732118261978
1782836008668476200,6.10147607421875,-0.6636275751054287,0.6837229262161999,0.36136597218625244
1782836008678406000,6.111406005859375,-0.9470324287980795,0.585817920846492,0.38057898750454183
1782836008688336100,6.121336181640625,-1.023839774146676,0.45024844379723067,0.4166869504570961
1782836008698265000,6.13126513671875,-0.9554536356627941,0.4139765955198556,0.4315134943194687
1782836008708195300,6.1411953125,-0.8248971644699573,0.4375475868519395,0.39974947885535655
1782836008718125000,6.151125,-0.5656926860541105,0.501363348680362,0.3102675069812685
1782836008728054000,6.161053955078125,-0.2769856343001127,0.521976001663506,0.22789291942697018
1782836008737984300,6.170984375,0.0024777882903814314,0.4225518969677388,0.2324148903634399
1782836008747914000,6.1809140625,0.320917130485177,0.2699813084959984,0.3406403968805447
1782836008757844200,6.19084423828125,0.5960632743984461,0.17231339981779456,0.46206265410110353
1782836008767773200,6.200773193359375,0.8017956903457641,0.10426723387800156,0.5121376214772463
1782836008777703200,6.210703125,0.8108031726658343,0.058415948611497875,0.5344780481010675
1782836008787633200,6.220633056640625,0.8972107055306434,-0.020236440081894395,0.49932365954630076
1782836008797562000,6.23056201171875,0.8435510115355253,-0.10787928689531981,0.4132750231217593
1782836008807492000,6.2404921875,0.7922685680657625,-0.13163579086214303,0.3615369083063677
1782836008817422000,6.250422119140625,0.8175485552728176,-0.10577807683236896,0.4065229915782809
1782836008827352000,6.26035205078125,0.7877285865485668,-0.06915105844177305,0.43553076713681216
1782836008837281000,6.270281005859375,0.7518108854711055,-0.056040451651811596,0.41024668827652927
1782836008847211000,6.2802109375,0.6851555163025855,-0.10392397339828312,0.36234066243730484
1782836008857141000,6.29014111328125,0.5812240171849727,-0.1567967547994107,0.34825299077611416
1782836008867070200,6.3000703125,0.4837544075578451,-0.196255051093176,0.47334882194288075
1782836008877000200,6.310000244140625,0.33742928934693334,-0.25696685555689036,0.5383214987214654
1782836008886930000,6.319929931640625,0.1261930152863264,-0.352419426273182,0.5228565473577007
1782836008896860200,6.329860107421875,0.06376490842401981,-0.371764689669013,0.45612745536584404
1782836008906789000,6.3397890625,-0.10240998863875865,-0.2633000771664083,0.41160277906060216
1782836008916719000,6.349718994140625,-0.3353396235913038,-0.22806626669988034,0.4203196078710258
1782836008926649000,6.359649169921875,-0.4745388354450464,-0.29998562081120905,0.4418395118921995
1782836008936578000,6.369578125,-0.6303729557573795,-0.33438824115060267,0.39377712644748386
1782836008946508300,6.37950830078125,-0.7155383796066045,-0.2529283207558095,0.34115371669754385
1782836008956438000,6.38943798828125,-0.8943716827124357,-0.1420238408204168,0.3448808839945122
1782836008966368300,6.3993681640625,-0.9816144973576069,-0.07679967349879444,0.3760430245753377
1782836008976297200,6.409297119140625,-1.101370173072815,-0.03953296896517276,0.3803782042354345
1782836008986227000,6.41922705078125,-1.1962275543749332,-0.041630014309659596,0.4815652269504964
1782836008996157200,6.4291572265625,-1.1218483129560948,-0.016926731012016534,0.5673741728676482
1782836009006086100,6.439086181640625,-1.0121545970499515,0.007434680045396089,0.6063746423913166
1782836009016016100,6.44901611328125,-0.820768686363101,-0.03581979366093874,0.596809416590631
1782836009025946000,6.458946044921875,-0.805988465860486,-0.054115548003837464,0.6401672045409679
1782836009035872800,6.468872802734375,-0.8561082952916622,-0.11594342395067214,0.7438040315609424
1782836009045801700,6.4788017578125,-0.6643395227670669,-0.09760120011754334,0.6950243646923452
1782836009055731700,6.488731689453125,-0.6973954046726226,-0.002184431366994977,0.8278898434799165
1782836009065661700,6.49866162109375,-1.093913427326083,-0.05654299434646964,0.7399895878393202
1782836009075591000,6.5085908203125,-1.3594710741609335,-0.218032217811048,0.6443189173929393
1782836009085520600,6.518520751953125,-1.6686381456196306,-0.22067564499191938,0.46457083752974865
1782836009095450600,6.52845068359375,-1.894322047227621,-0.18018522917144,0.34952965964842586
1782836009105380900,6.538380859375,-1.896090225943923,-0.13896335727125406,0.27852431510947645
1782836009115309800,6.548309814453125,-2.0363263796299695,-0.04062083726711571,0.2398151566825807
1782836009125239800,6.55823974609375,-2.2019202619343994,-0.039834874521195884,0.18968065940523518
1782836009135169800,6.568169677734375,-2.175350234916806,-0.15566577800810336,0.18612101242858917
1782836009145098800,6.5780986328125,-1.9175328269451855,-0.16385390676930545,0.19301656236229464
1782836009155028700,6.58802880859375,-1.3455325651794672,0.013515534329041838,0.2665000057188794
1782836009164958700,6.597958740234375,-0.6676636987537146,0.3344791343044489,0.38182679560855026
1782836009174889000,6.607888916015625,-0.02157821007966995,0.5313339779216796,0.40731914692465215
1782836009184817700,6.617817626953125,0.5600204856365919,0.49137116617187854,0.3859895047785714
1782836009194747600,6.62774755859375,1.0716980883866547,0.3705569213144481,0.39775812237504865
1782836009204678000,6.637677978515625,1.4020353736460207,0.31360549229755996,0.3933248526353389
1782836009214606800,6.64760693359375,1.7188140891522168,0.3281784267250448,0.32427162854485214
1782836009224536600,6.65753662109375,2.052243495208025,0.4098262709073722,0.23488853220166636
1782836009234466800,6.667466796875,2.139865080037713,0.5072752761378884,0.19624438356868923
1782836009244396800,6.677396728515625,2.0202204634815453,0.5126243820808828,0.22251498924829063
1782836009254325500,6.687325439453125,1.808461042329669,0.44154549738168714,0.3090350425768643
1782836009264255700,6.697255859375,1.5823890181869267,0.5131026671171188,0.2388997588707134
1782836009274185700,6.707185791015625,1.3809592678695917,0.7946161541052162,0.14678236045911908
1782836009284115000,6.717114990234375,1.1766951709091662,1.0647799795612691,0.08864153899457305
1782836009294044700,6.727044677734375,0.9745166480511427,1.1271781296767294,-0.01516154797039926
1782836009303974700,6.736974609375,0.7976198659658431,1.0432391788825393,-0.05244615348689258
1782836009313904600,6.746904541015625,0.5994809738874435,0.946778600167483,-0.09553476910702884
1782836009323833600,6.75683349609375,0.5249678769558668,0.8856374643757939,-0.12823679607361554
1782836009333763800,6.766763916015625,0.4534644832342863,0.8818395333975553,-0.1929930536225438
1782836009343693800,6.77669384765625,0.1245113458096981,0.8860267559543251,-0.31589013263601806
1782836009353622800,6.786622802734375,-0.21533903320431708,0.783393041562289,-0.4151689836421981
1782836009363552800,6.796552734375,-0.5043921219170093,0.7077113392427563,-0.6012023908525705
1782836009373482800,6.806482666015625,-0.7111760927438735,0.6579497486647218,-0.6814325502566992
1782836009383412700,6.816412841796875,-0.8033826672762632,0.5395313859678804,-0.6010389439191669
1782836009393341700,6.826341796875,-0.8592243814855813,0.30752332283966244,-0.4608090007781982
1782836009403271700,6.836271728515625,-0.7177250759959221,0.05508015525229275,-0.41854448795728383
1782836009413202000,6.846201904296875,-0.35384675566256046,0.021715134332329033,-0.4572513448292389
1782836009423130600,6.856130615234375,-0.1162766014277935,0.0649509764034301,-0.38522016437388956
1782836009433060600,6.866060546875,0.09737842421233653,-0.1280962185591459,-0.27346889488343146
1782836009442990800,6.875990966796875,0.2722211963772774,-0.3461274865221232,-0.2677370732331648
1782836009452920600,6.885920654296875,0.45885435957908627,-0.47513029853217303,-0.2218679600490257
1782836009462849500,6.895849609375,0.7735118451476096,-0.5291011773683131,-0.04177661970611662
1782836009472779800,6.90577978515625,0.9483230531305075,-0.520566500191763,0.1228965675568208
1782836009482709800,6.915709716796875,0.9983101960927248,-0.5153148632738739,0.23692451327499
1782836009492638700,6.925638671875,1.1041297009140252,-0.563032234673202,0.18119973997622726
1782836009502568700,6.935568603515625,1.036859414717555,-0.590673032727465,0.023961890345811844
1782836009512498700,6.945498779296875,1.0042799181520938,-0.5968041558936238,0.05249189232476055
1782836009522428000,6.955427978515625,1.0333967070430516,-0.6412347607072443,0.14933310438785702
1782836009532357600,6.965357666015625,0.936201238182187,-0.7105171173784881,0.18725447343792764
1782836009542288000,6.975287841796875,0.9099766636013984,-0.7366597858294844,0.19050364795960484
1782836009552217600,6.985217529296875,0.8629132991313934,-0.6808613993052393,0.11977412468735128
1782836009562146600,6.995146484375,0.7976099290937185,-0.6456640483915805,0.09051357994414866
1782836009572076800,7.005076904296875,0.7853150956660508,-0.6347096697874367,0.13722783871553837
1782836009582006800,7.0150068359375,0.7692489270061255,-0.6539579025495798,0.2724359716391191
1782836009591935700,7.024935791015625,0.6890221286028623,-0.6522073325552046,0.3546559531535953
1782836009601865700,7.03486572265625,0.5819371338903904,-0.638562253562361,0.4104336987486109
1782836009611795700,7.044795654296875,0.4506546865105629,-0.6006563743423671,0.37200668173134327
1782836009621725700,7.0547255859375,0.27737200326919553,-0.5618558843702077,0.3037778161684051
1782836009631654700,7.064654541015625,0.09595452888906002,-0.5617593651931733,0.25276275493055583
1782836009641584600,7.074584716796875,-0.0765402188450098,-0.6608630057629198,0.1581901819191873
1782836009651515000,7.084514892578125,-0.20096914706826208,-0.8056745045404881,0.08616506587844341
1782836009661443600,7.094443603515625,-0.2858949169427156,-0.9501784717388451,0.029637999753467738
1782836009671373800,7.104373779296875,-0.4123071279376745,-1.0637309819649905,-0.05752864438295364
1782836009681303800,7.1143037109375,-0.6408785676807165,-1.1623541455414146,-0.2031227814381942
1782836009691233500,7.124233642578125,-0.9278624489039182,-1.308424777534604,-0.48483248511813576
1782836009701162800,7.134162841796875,-1.2124112119346857,-1.4522535488851367,-0.8526549399673938
1782836009711092700,7.1440927734375,-1.5924842957437038,-1.5979788015067578,-1.1939645778790116
1782836009721022700,7.154022705078125,-1.7884581187427042,-1.725266918553412,-1.221887334679812
1782836009730951700,7.16395166015625,-1.7785539798438548,-1.8427881132148205,-1.5819034266270695
1782836009740881700,7.173881591796875,-1.8290479032844305,-1.7183900185212493,-1.7729589363157747
1782836009750812000,7.18381201171875,-1.889142598763108,-1.6261837362498044,-1.6891009418033063
1782836009760741600,7.19374169921875,-1.8485773641407488,-1.682977344356477,-1.5449300790168343
1782836009770670600,7.203670654296875,-1.8787427853018044,-1.6783023382827638,-1.3006811776705085
1782836009780600800,7.213600830078125,-1.9980875421285629,-1.5167672298498451,-1.2355549177654086
1782836009790530600,7.223530517578125,-2.1581319736123086,-1.1743337024748324,-1.0936750885255635
1782836009800459500,7.23345947265625,-2.3913825110822913,-0.8351214021686464,-0.8014842863090336
1782836009810389800,7.2433896484375,-2.6394956866413355,-0.6012664690647274,-0.4946552293438464
1782836009820319700,7.25331982421875,-2.852000957724452,-0.3242087924417108,-0.27728366739861665
1782836009830249000,7.2632490234375,-2.983834024724364,0.020042232684046028,-0.061963375427387654
1782836009840178700,7.2731787109375,-3.0256694254130125,0.34921237386018034,0.02792564287763089
1782836009850108700,7.283108642578125,-2.8318583334058522,0.7143032848536968,0.019426073547080158
1782836009860038700,7.29303857421875,-2.4835826558738945,1.167802035683766,0.17714282926823943
1782836009869967600,7.302967529296875,-2.154291080275178,1.5267802359506486,0.3701609442668035
1782836009879897900,7.31289794921875,-1.7350445084631443,1.6971135678671299,0.5364063127499074
1782836009889827800,7.322827880859375,-1.2488427077531814,1.761834461841732,0.6687662531681359
1782836009899756500,7.332756591796875,-0.8447650635004043,1.7832975211091338,0.7271268913958221
1782836009909686800,7.342686767578125,-0.3682365155428648,1.805855536006391,0.7873316961854696
1782836009919616800,7.35261669921875,0.16299159085154533,1.9278569448217748,0.7169357522491365
1782836009929546800,7.362546630859375,0.6241746856391429,2.130400209338963,0.7302192313879727
1782836009939475700,7.372475830078125,1.0457809723198412,2.302959254480898,0.828370393538475
1782836009949405700,7.38240576171875,1.440931798273325,2.4093242643557486,0.8789141474701464
1782836009959335700,7.392335693359375,1.6709896771818398,2.510268418225646,0.9151638569809496
1782836009969264600,7.4022646484375,1.7452257107377052,2.529080670723319,0.8999627807177603
1782836009979194600,7.412194580078125,1.8037118019759655,2.5035680438041688,0.8924446601726114
1782836009989124900,7.422124755859375,1.9411562791168688,2.4646394704729317,0.8439866264738142
1782836009999054600,7.4320546875,2.1256880861252547,2.4844705446243283,0.8250906412154435
1782836010008983600,7.441983642578125,2.249430201128125,2.503327220785618,0.8928745029572397
1782836010018913800,7.451913818359375,2.306488889911771,2.4618594843655823,0.9343970383044332
1782836010028843500,7.461843505859375,2.4101012400776147,2.3974225218988954,0.8808969918504357
1782836010038772700,7.471772705078125,2.4695874482691287,2.3683972106836735,0.7979947636928408
1782836010048703000,7.481702880859375,2.393335398715734,2.3733202001690863,0.8363316547412425
1782836010058633000,7.491633056640625,2.0533850664585827,2.278363011754304,0.9555983048304915
1782836010068562000,7.50156201171875,1.5406500636100768,2.0805974830329417,0.940836642897874
1782836010078492000,7.511491943359375,1.1580360631465911,1.9307690328761935,0.8137906640440226
1782836010088422000,7.521421875,0.7421066530585289,1.8613075202457605,0.5365775045983493
1782836010098351900,7.531351806640625,0.18514613951444625,1.7253494822703301,0.37423261415250597
1782836010108280800,7.54128076171875,-0.20671324367821214,1.5378433356262742,0.3094438425734639
1782836010118210800,7.5512109375,-0.6138713182896375,1.2810574626594782,0.25491248031035063
1782836010128140800,7.561140869140625,-1.0413216548234223,0.9966920933715998,0.20619214241355657
1782836010138069800,7.57106982421875,-1.2739882549256085,0.7780532879695296,0.17400504269916564
1782836010148000000,7.581,-1.281992113161087,0.4994761466942727,-0.18841657601986078
1782836010157930000,7.590929931640625,-1.181059795859456,0.24746457545720038,-0.5057798134157434
1782836010167859700,7.600859619140625,-1.0054226584464312,0.06572035334073006,-0.5379725026207044
1782836010177789000,7.610788818359375,-0.7625497216284275,-0.15169373257197438,-0.5505580991558731
1782836010187719000,7.620718994140625,-0.39948037959039207,-0.3959969213888049,-0.35179720272161064
1782836010197649000,7.63064892578125,-0.15353285763263702,-0.6486300585903227,-0.01995247204136103
1782836010207577900,7.640577880859375,0.13791969343721866,-0.8412484336815774,0.23149978481251746
1782836010217507800,7.6505078125,0.4036673098862171,-0.8599839676812291,0.4167304973378777
1782836010227438000,7.66043798828125,0.5085632701218128,-0.7379770059078932,0.6194577401198447
1782836010237367000,7.670366943359375,0.5449626172363757,-0.6123556530296802,0.8676039411656558
1782836010247296800,7.680296875,0.6006465105354786,-0.5024198719959706,1.0938744104899465
1782836010257227000,7.69022705078125,0.6007441256910562,-0.39427623507604,1.1412015404626727
1782836010267156700,7.70015673828125,0.4034071976453066,-0.34973347512483594,1.1794010688669978
1782836010277085700,7.710085693359375,0.29413726010918617,-0.306903510440886,0.9780040517754852
1782836010287016000,7.720015869140625,0.37003801200687886,-0.08683006912581621,0.9142184658896177
1782836010296946000,7.72994580078125,0.26254443649351594,0.11124942091554403,1.0641902700398116
1782836010306875000,7.739875,0.045804888841509815,0.05637428671605885,1.3022826215177774
1782836010316804900,7.749804931640625,-0.19266601362526414,-0.16554492859616873,1.4178151265799999
1782836010326734800,7.75973486328125,-0.3509592175275087,-0.22681334402933714,1.294910923705995
1782836010336664800,7.769664794921875,-0.5225871192991733,-0.12602335780784488,1.0048578641705215
1782836010346593800,7.77959375,-0.6759229930549859,-0.12458718752488493,0.6347937678743153
1782836010356524000,7.78952392578125,-0.907107245644927,-0.2415833353988826,0.45247430315315723
1782836010366453800,7.799453857421875,-0.9397282432645558,-0.3946733446348458,0.43760085140913724
1782836010376382700,7.8093828125,-0.8416483927845955,-0.4718951160032302,0.5087462985385209
1782836010386313000,7.81931298828125,-0.7038543715536594,-0.3718571171928197,0.5535092405790463
1782836010396243000,7.829242919921875,-0.5975923836618662,-0.30448373594805594,0.506609724901244
1782836010406172000,7.839171875,-0.4594026411116123,-0.37216216455399986,0.40009529661834237
1782836010416102000,7.849101806640625,-0.3440665354043245,-0.5029518599808216,0.393648239370808
1782836010426031900,7.859031982421875,-0.13791969343721866,-0.6699787707630545,0.5378428483590484
1782836010435961900,7.8689619140625,0.1868476827353239,-0.7779165829125791,0.7378176506277173
1782836010445890800,7.878890869140625,0.5766828666239977,-0.822583334569633,0.8609392225794493
1782836010455820800,7.88882080078125,0.9143015410631895,-0.8307990819901228,0.8772695951335132
1782836010465751000,7.8987509765625,1.1192062740147113,-0.8735626303743571,0.8685074658766389
1782836010475680000,7.908679931640625,1.2801292418986558,-0.9943927303880452,0.8311996256150305
1782836010485610000,7.91860986328125,1.3590139780431985,-1.1032294641386717,0.7449632115334271
1782836010495540000,7.9285400390625,1.4537199681758879,-1.2118261055231094,0.7381536776490509
1782836010505469000,7.938468994140625,1.5025918433725833,-1.2876529154017566,0.7950130444683134
1782836010515399000,7.94839892578125,1.3909370565265415,-1.2941489994227886,0.8171518110401927
1782836010525329000,7.958328857421875,1.1861813766568898,-1.2861262903563677,0.7951389358703047
1782836010535259100,7.968259033203125,0.8720207346946001,-1.2832552649646998,0.7330002404086291
1782836010545187800,7.978187744140625,0.6988672307908534,-1.2658175156906246,0.714422235058248
1782836010555117800,7.988117919921875,0.5870955395668744,-1.1923295970883219,0.8259236579734831
1782836010565048000,7.998048095703125,0.32142098835408683,-1.1183096174359322,0.8848882534436882
1782836010574977000,8.00797705078125,0.05661795927882194,-1.1113183703090994,0.8114726694252341
1782836010584906800,8.01790673828125,-0.15400690488517282,-1.0962788412831723,0.7315222768105566
1782836010594837000,8.0278369140625,-0.34311727185547347,-0.9767862004183232,0.7358771110191941
1782836010604766700,8.0377666015625,-0.500410943326354,-0.8365344838369637,0.7604470502607524
1782836010614695700,8.04769580078125,-0.5080962371319532,-0.7839182344801724,0.830460936076939
1782836010624626000,8.0576259765625,-0.4338701404482126,-0.736216718237102,0.9931687415510415
1782836010634556000,8.067555908203126,-0.37970951119363305,-0.7282842447374016,1.2013573184788227
1782836010644485000,8.077485107421875,-0.39745208863317966,-0.874886864715442,1.229369068737328
1782836010654414800,8.087414794921875,-0.664134355583787,-0.9226816852651536,1.1480196960449218
1782836010664344800,8.0973447265625,-0.9672352588713169,-0.8271869559075683,1.2390284390948711
1782836010674274000,8.107274169921874,-1.1117471901804208,-0.7726287787027657,0.8722563700813799
1782836010684203800,8.117203857421876,-1.5263175868749617,-0.5580365452777594,0.7135427488099784
1782836010694134000,8.127134033203125,-1.8431945020586251,-0.2237082906860858,0.3212580894099548
1782836010704064000,8.13706396484375,-2.4502350975453853,0.14533325762934982,-0.06785882667414844
1782836010713993000,8.146992919921875,-3.0459120029747484,0.45052718767337496,-0.2902305715268478
1782836010723923000,8.1569228515625,-3.381304233536124,0.6798691733974963,-0.26177772643733765
1782836010733853000,8.16685302734375,-3.467542255052924,0.9315225788466632,-0.30013838195381687
1782836010743782000,8.176781982421875,-3.2248814996808766,1.2141097594808787,-0.24659422236345707
1782836010753711900,8.1867119140625,-2.7468115675002336,1.4086825565755365,-0.019050993156991897
1782836010763641900,8.196641845703125,-2.1375509578764436,1.3559241953343153,0.2102186945158988
1782836010773571000,8.206571044921875,-1.4156336908876894,1.2026207625433802,0.3580832241885364
1782836010783500800,8.216500732421874,-0.7569862422823905,1.151956158711016,0.47766694087032224
1782836010793430800,8.2264306640625,-0.13731003710627554,1.0745494592297822,0.4737975155584514
1782836010803361000,8.236361083984375,0.542123594418168,1.0464948196776211,0.5059993379179388
1782836010813290000,8.2462900390625,1.155029867067933,1.0578629667144268,0.5171683821860701
1782836010823220000,8.256219970703125,1.4771698173463343,1.0633058884207158,0.31389789937287566
1782836010833150000,8.26614990234375,1.6922218503028152,1.1198276938486844,0.2897233891896903
1782836010843079000,8.276078857421876,1.8596669134318828,1.2002042759861797,0.19182262160368263
1782836010853009000,8.2860087890625,1.8521125525295734,1.280415219233185,0.13060038339979946
1782836010862939000,8.29593896484375,1.742357461825013,1.3801450288772583,0.02104731807336211
1782836010872867800,8.305867919921875,1.5633575699806213,1.4879063154160976,-0.2013715173240751
1782836010882798000,8.315798095703125,1.4253034365087747,1.6107731088891624,-0.42850415643565354
1782836010892727800,8.325727783203124,1.1496779846459626,1.655487572145462,-0.5996075228765606
1782836010902658000,8.335657958984376,0.8538543788850307,1.6100453791365026,-0.7100521302152425
1782836010912587000,8.3455869140625,0.5090741422533989,1.4569878839306531,-0.8460686203796416
1782836010922516700,8.355516845703125,0.11296879205405712,1.2588384704582392,-0.9762928639434277
1782836010932447000,8.365447021484375,-0.16021569639742372,1.1033043560057878,-1.3553171693518757
1782836010942376000,8.3753759765625,-0.5825315926522017,1.080639373602718,-1.708249586648494
1782836010952306000,8.385305908203126,-1.1491425625950098,0.9077696550764143,-2.0147645361632107
1782836010962236000,8.39523583984375,-1.5364508583545684,0.5048481951214373,-2.1552318682566285
1782836010972164900,8.405164794921875,-1.641296549707651,0.13062792899385095,-1.9130613806195556
1782836010982095000,8.41509521484375,-1.6581816335350275,-0.0700904581837356,-1.552117798563838
1782836010992024800,8.42502490234375,-1.5984008263111114,-0.12055851653069256,-1.2806934516526758
1782836011001954800,8.434954833984374,-1.3599842843800782,-0.09086027448996901,-1.1603605605714022
1782836011011884000,8.444884033203126,-0.9723609313219785,-0.027107494895160195,-1.024633116481453
1782836011021813800,8.454813720703125,-0.6244973417222499,-0.02328866725936532,-0.8672074891939758
1782836011031749000,8.4647490234375,-0.2993862666785717,-0.1716695489563048,-0.6186736040048301
1782836011041677800,8.474677734375,0.15412731639444827,-0.30716596076935526,-0.4154435627998784
1782836011051607800,8.48460791015625,0.5451864891201257,-0.34758374974504114,-0.2666999487377703
1782836011061538000,8.4945380859375,0.879445331737399,-0.34536344334706665,-0.1559665145203471
1782836011071467000,8.504467041015625,1.2179244223982095,-0.35129765570163723,-0.18674352824110538
1782836011081396700,8.514396728515624,1.5262193871974945,-0.3105313455492258,-0.22503906436581164
1782836011091327000,8.524326904296874,1.522993410888314,-0.3189356012791395,-0.22253259797021746
1782836011101257000,8.534257080078126,1.4551362647145987,-0.4072355237618088,-0.10799268414191901
1782836011111185700,8.544185546875,1.3594710741609335,-0.4790208031646907,0.028007987398840486
1782836011121116000,8.554115966796875,1.2345400416344403,-0.43060938508659596,0.028905045836418865
1782836011131046000,8.5640458984375,1.1634025586158037,-0.3093744305990636,-0.10732724250312894
1782836011140975000,8.57397509765625,1.0103694671988486,-0.15343904186934232,-0.32474373956862834
1782836011150904800,8.58390478515625,0.8299848429977893,-0.10951996677443385,-0.5021270630618557
1782836011160834800,8.593834716796875,0.7531903571307659,-0.190680100505054,-0.6177618229221552
1782836011170764000,8.603763916015625,0.5976508358508348,-0.29952026832178236,-0.6422424033798277
1782836011180693800,8.61369384765625,0.4487959069013595,-0.40390798677429557,-0.7060643757533281
1782836011190624000,8.6236240234375,0.3936591260910034,-0.4434071996003389,-0.8659516439139843
1782836011200553000,8.633552978515626,0.3027098581433296,-0.3925910584680736,-1.064522059277445
1782836011210483000,8.64348291015625,0.09396949255168438,-0.35325025107413527,-1.2578982669986785
1782836011220413000,8.653412841796875,-0.1537292569875717,-0.49953416049182414,-1.3256332480974495
1782836011230343000,8.663343017578125,-0.2573918760359287,-0.7518887730129062,-1.3190470015749334
1782836011240272000,8.67327197265625,-0.3701712829977274,-0.8484756084561348,-1.269680913120508
1782836011250201900,8.683201904296874,-0.3807674958139658,-0.7855221625454724,-1.1808322707138954
1782836011260131800,8.6931318359375,-0.3447077559173107,-0.7932716076284646,-1.0250514880239963
1782836011270060800,8.703060791015625,-0.27649931208789347,-0.803011422811076,-1.030580188317597
1782836011279990800,8.71299072265625,-0.19184417584836483,-0.780628106893599,-1.1685370719600467
1782836011289920800,8.722920654296875,-0.18344108916223048,-0.8005887987740338,-1.249175592969358
1782836011299850000,8.73285009765625,-0.03073416095972061,-0.9183166949886828,-1.185218669104576
1782836011309780000,8.742780029296876,0.04575637352466583,-1.0103677136331797,-1.1083091785557568
1782836011319709700,8.752709716796875,0.12372984004318713,-1.0046535007048398,-1.0058398609451948
1782836011329640000,8.762639892578125,0.0832107826501131,-0.9740447196904569,-0.8925941516458987
1782836011339569000,8.77256884765625,0.01980360162258148,-0.9384640685476362,-0.865331539254263
1782836011349499000,8.782498779296875,-0.06574468406438827,-0.8804771590031683,-0.8675139978598803
1782836011359428900,8.792428955078124,-0.30564006637632846,-0.7812681583628058,-0.986431542250514
1782836011369357800,8.80235791015625,-0.5416086306333542,-0.6762453568771482,-1.0415009569130838
1782836011379288000,8.8122880859375,-0.5564169081866741,-0.6202754131782799,-0.8703278131715952
1782836011389217800,8.8222177734375,-0.6787164231657982,-0.5307836505625396,-0.7718936693612486
1782836011399146800,8.832146728515625,-0.7796417262047529,-0.41129619732946154,-0.7932309102918952
1782836011409077000,8.842076904296874,-0.7790759090155362,-0.26829912756271657,-0.8280431343454867
1782836011419006700,8.8520068359375,-0.7240700611084699,-0.14587014098502696,-0.8538603702344
1782836011428937000,8.86193701171875,-0.7080863100349902,-0.12001111178100109,-0.86016867659837
1782836011438866000,8.871865966796875,-0.6792880855739116,-0.20653891002461314,-0.8081292042162269
1782836011448796000,8.8817958984375,-0.55127720721066,-0.28366584271639583,-0.6336248702254146
1782836011458726000,8.891725830078125,-0.4461655583977699,-0.280111803496629,-0.4629995330924168
1782836011468654800,8.90165478515625,-0.4752443533658981,-0.23342194851413367,-0.37349038095045833
1782836011478585000,8.911585205078126,-0.4384831872016191,-0.21107962219417095,-0.35501137899514285
1782836011488514800,8.921514892578125,-0.5077092836409807,-0.20650325418934226,-0.341530514120683
1782836011498443800,8.93144384765625,-0.6564607522159814,-0.18385273870304225,-0.45436234538946296
1782836011508374000,8.9413740234375,-0.8710124344348907,-0.17295666615739463,-0.653087403325364
1782836011518303700,8.9513037109375,-1.0916975048422812,-0.24582448009997604,-0.7651460217319428
1782836011528232700,8.961232666015626,-1.3292179747164248,-0.3726607617259025,-0.8261428536821156
1782836011538163000,8.971162841796875,-1.6446821004927157,-0.5316654748983681,-0.8310501341417431
1782836011548093000,8.981093017578125,-1.8869009573161601,-0.6473498095214366,-0.8291947885986417
1782836011558023000,8.99102294921875,-1.8931752152800558,-0.604303352542594,-0.8678043591085821
1782836011567952000,9.000951904296874,-1.7261130139887333,-0.37491950043812394,-0.8303544069625437
1782836011577881900,9.0108818359375,-1.5118208594888447,-0.11230462905690074,-0.7627459748528898
1782836011587811800,9.020811767578126,-1.3056558973431587,0.04910831430107355,-0.6541730066049843
1782836011597740800,9.03074072265625,-1.082585393103957,0.13416355577409267,-0.48097054899297653
1782836011607670800,9.0406708984375,-0.9306079482197761,0.18653430593721568,-0.32336474283300337
1782836011617601000,9.05060107421875,-0.6364291870564222,0.2126988939590752,-0.20806728863567112
1782836011627530000,9.060530029296874,-0.41084406964778897,0.23353125410750508,-0.20327888531535862
1782836011637460000,9.0704599609375,-0.10272387689352035,0.3139258833583444,-0.05230426079817116
1782836011647390000,9.080389892578125,0.2229062535881996,0.4497447320587933,0.031976562236249444
1782836011657319700,9.090319580078125,0.5125573081940412,0.6780868930906057,-0.015749796187132598
1782836011667249000,9.100248779296875,0.8223357895493507,0.9735024295073001,0.026229323821142313
1782836011677179000,9.110178955078124,1.2067226449042558,1.2237883459955454,0.1525477921180427
1782836011687109000,9.120109130859374,1.5074007049590348,1.4092878289923072,0.30253647433780134
1782836011697037800,9.130037841796875,1.540132761737704,1.5306201063744722,0.5708396935537458
1782836011706967800,9.1399677734375,1.4782991136372088,1.6336869514867662,0.7924823569469154
1782836011716898000,9.14989794921875,1.4058388575822114,1.726100446768105,0.7330113463245331
1782836011726827000,9.159826904296875,1.157111349517107,1.8550855769909917,0.5348436665430665
1782836011736756700,9.1697568359375,0.9967582904756068,1.9035849656134842,0.4408369107209146
1782836011746687000,9.17968701171875,1.037655533531308,1.8607044397860764,0.5958031621575355
1782836011756616000,9.189615966796875,0.9542442598730325,1.793119096291065,0.6443623181432485
1782836011766546000,9.1995458984375,0.8367810790091752,1.798132540538907,0.6764169140517712
1782836011776476000,9.209475830078125,0.684779668727517,1.820698884873092,0.6347865344159305
1782836011786406000,9.219406005859375,0.3246913883268833,1.8096416304163634,0.5310095682729036
1782836011796335000,9.229335205078126,-0.023838556227087974,1.7655547975391148,0.48207186129838225
1782836011806264800,9.239264892578126,-0.21404665530622005,1.752153610304743,0.3527561108816415
1782836011816195000,9.249195068359375,-0.38850247398018833,1.7782564582020044,0.2400664280299097
1782836011826124000,9.2591240234375,-0.40398762788176534,1.7205083258494733,0.19759718641713261
1782836011836053800,9.2690537109375,-0.32437574650645257,1.4973182868838308,0.1859842708390206
1782836011845984000,9.27898388671875,-0.1377221250385046,1.2506415738686918,0.20665508375018835
1782836011855913000,9.288912841796876,0.06603226883411407,1.0837881199572235,0.17518376762233673
1782836011865843000,9.298843017578125,0.2521902157396078,0.9218914847355335,0.07689816543720662
1782836011875773000,9.30877294921875,0.39733635329902167,0.6981439580176025,-0.011471242085099219
1782836011885702000,9.318701904296875,0.5733592751592398,0.4503443784523755,-0.06330145563073455
1782836011895632000,9.3286318359375,0.685102324810624,0.2691539908263832,0.010225991264358162
1782836011905561900,9.338561767578126,0.8008563636690378,0.17059454013593495,0.06303944369368254
1782836011915491800,9.348491943359376,0.8613122936755419,0.10439064106196165,0.06633183630257844
1782836011925421000,9.358421142578125,0.9097112906634807,0.01808576485402882,-0.020281740528345107
1782836011935350800,9.368350830078125,0.8754735054969787,-0.057526306295394895,-0.0622621026456356
1782836011945280800,9.37828076171875,0.7609697589606046,-0.18469729976840316,-0.0056952890321612356
1782836011955210000,9.3882099609375,0.6738672295689583,-0.2778336294315755,-0.013300211077928543
1782836011965140000,9.398139892578126,0.416146267709136,-0.28351671656928956,-0.023474545220285654
1782836011975070000,9.408070068359375,0.23384324266612527,-0.3749066409565508,-0.05614807674475014
1782836011984999000,9.4179990234375,0.07379004335403443,-0.4843454322535544,-0.05489325437806546
1782836011994929000,9.427928955078125,-0.15755319918990135,-0.5752561217565089,0.07413344996422529
1782836012004859000,9.43785888671875,-0.24772739111185071,-0.6360352923680096,0.1966905929662287
1782836012014787800,9.447787841796876,-0.40562019751966,-0.6771046771202236,0.22557561892792583
1782836012024717800,9.4577177734375,-0.5732751040071249,-0.774162125749886,0.1710696103017777
1782836012034646800,9.467646728515625,-0.6919330476135015,-0.9173882550321519,0.13071721471250056
1782836012044575700,9.47757568359375,-0.7250853756308555,-1.0082407115418464,0.12789463157244027
1782836012054505700,9.487505615234374,-0.7255261051356792,-1.0452172740224748,0.15358926399499176
1782836012064435700,9.497435791015626,-0.6216448749005794,-1.0822187517486512,0.1531635859288275
1782836012074366000,9.507365966796876,-0.529249499797821,-1.1153598277196288,0.10812990065552294
1782836012084295000,9.517294921875,-0.3693523678302765,-1.1711926279701292,0.05370229102782905
1782836012094224600,9.527224609375,-0.186342071300745,-1.2212247060526162,0.10621230353116988
1782836012104155000,9.53715478515625,-0.06314356165528297,-1.2561276040643452,0.21789193255752323
1782836012114083800,9.547083740234376,-0.010474047741293907,-1.257001610419899,0.33456074817329645
1782836012124013600,9.557013671875,0.10691899049580096,-1.2380924734190106,0.4860050360288471
1782836012133943800,9.56694384765625,0.13497078050374983,-1.1686222660254686,0.593117430204898
1782836012143872800,9.576872802734375,0.09858896904587745,-1.016961705070734,0.6690642862666398
1782836012153802800,9.586802734375,0.06829846020042896,-0.8604200210109353,0.6690686701808124
1782836012163732700,9.596732666015624,0.06253098271489144,-0.7015550085701048,0.6486337118521333
1782836012173661700,9.60666162109375,-0.04965455000698566,-0.6129472622472792,0.717767015441507
1782836012183592000,9.616592041015625,-0.10174071107506752,-0.6021579380117357,0.7510123555045575
1782836012193521700,9.626521728515625,-0.19118074350357053,-0.5830388845872133,0.7570495898421853
1782836012203452000,9.636451904296875,-0.36991000171303745,-0.5621345551811159,0.7542153162643312
1782836012213380900,9.646380859375,-0.539040825971961,-0.575005581061542,0.7726083204366266
1782836012223310600,9.656310546875,-0.7480518251985311,-0.5792804819017648,0.7070841472551226
1782836012233240800,9.66624072265625,-0.9107412182331085,-0.5746081792417913,0.6223218243140727
1782836012243169800,9.676169677734375,-1.0530109235733747,-0.6300755071807652,0.6630660687651485
1782836012253099800,9.686099853515625,-1.014291024556756,-0.6637468175709247,0.6081253585161641
1782836012263029800,9.69602978515625,-1.1981950550556182,-0.6214999865371733,0.47878681174572557
1782836012272958700,9.705958740234376,-1.3080997833639383,-0.5098086670730263,0.47303497022073715
1782836012282889000,9.715888916015626,-1.4877268671959638,-0.4665431605160236,0.16549213896300644
1782836012292818700,9.725818603515625,-1.614089978352189,-0.4624824869483709,-0.00020849165152758359
1782836012302747600,9.73574755859375,-1.6441215440005064,-0.40339024651050565,-0.1519815365374088
1782836012312678000,9.745677978515625,-1.7306553335934876,-0.28623452416062356,-0.015475746752414851
1782836012322607900,9.75560791015625,-1.8351836295604704,-0.10060754232667386,-0.08326601996868849
1782836012332537900,9.765537841796874,-1.5648153675734995,0.24218057063966988,-0.2697405950753018
1782836012342466800,9.775466796875,-1.4244196394115685,0.5644144097466022,-0.13475740261455066
1782836012352396800,9.785396728515625,-1.4524024558365345,0.6921131534207612,0.17781219816347582
1782836012362326800,9.795326904296875,-1.5112673172593116,0.5448312459416688,0.5725313729677349
1782836012372255700,9.805255859375,-1.426576525184512,0.46086781829334794,0.8827253032561391
1782836012382185700,9.815185791015624,-1.2057014851629733,0.70629168170318,1.056995901556313
1782836012392115700,9.82511572265625,-0.9006009324908256,0.9594750001333653,1.2900580768473446
1782836012402044700,9.835044677734375,-0.457222958984971,0.9710754946213215,1.6039089222081004
1782836012411974700,9.844974609375,-0.21194529911279678,0.7604127095997333,1.7354976590581237
1782836012421905000,9.85490478515625,0.1921767688035965,0.5905920033805072,1.5266840820997953
1782836012431833900,9.864833740234374,0.5884294185191392,0.5600773303903639,1.2086867115188389
1782836012441763800,9.874763916015626,1.1713801133662463,0.6978878643646836,0.7964213038310408
1782836012451693800,9.88469384765625,1.4766279655545949,0.9952820804432034,0.5735058805556967
1782836012461622800,9.894622802734375,1.4785270771741865,1.209927870686352,0.5359286853007972
1782836012471552800,9.904552734375,1.6956845579773188,1.2619696080908178,0.3396576694535091
1782836012481482800,9.914482666015624,1.7590075678527355,1.3257381697766482,0.35547501445151863
1782836012491413000,9.9244130859375,1.31005442456305,1.2896706849649548,0.37137678632996973
1782836012501342700,9.9343427734375,0.6916489699751138,0.9839606220923364,0.24784372923420742
1782836012511272700,9.944272705078125,0.2765618559300899,0.5069651872754096,0.1438955073106568
1782836012521202700,9.95420263671875,0.2239735905587673,0.17727116835564374,0.26968670946359635
1782836012531131600,9.964131591796875,0.30808921309411524,0.25180077803060413,0.37585795033201574
1782836012541062000,9.974061767578124,0.3209989635497331,0.3647220776811242,0.16624414464039727
1782836012550992000,9.983991943359374,0.25993045460283754,0.5839129640080034,-0.4105241535110399
1782836012560921600,9.993921630859376,0.014710077875852583,0.8589204301029443,-1.2264030585385859
1782836012570850800,10.003850830078125,-0.01813128449618816,0.980558558563888,-1.8597500616706906
1782836012580780800,10.01378076171875,0.04058452384471893,1.0708959782235323,-2.121286782426387
1782836012590710800,10.023710693359375,-0.14045593391656874,1.124095945752412,-1.9272582482762635
1782836012600639700,10.0336396484375,-0.4109785096824169,1.0359911805156619,-1.3861983375668525
1782836012610569700,10.04356982421875,-0.7601701330155134,0.6935735082969069,-1.189791310782358
1782836012620500000,10.0535,-0.6331774917840958,0.35018253406658767,-1.0829056380342692
1782836012630428700,10.0634287109375,-0.4081593606084585,0.17218392821922898,-0.588901018086262
1782836012640358700,10.073358642578125,-0.2026110690563917,0.038088615375757216,0.004576769863627851
1782836012650289000,10.083288818359375,-0.07039163308739661,-0.2736506446585059,0.660987874251604
1782836012660217900,10.0932177734375,0.22938450969159602,-0.5785289328821003,0.731902946691215
1782836012670147600,10.103147705078126,0.7797709055423736,-0.5051693898998201,0.3318440730931237
1782836012680077800,10.113077880859375,0.935466494166851,-0.21858342195302247,-0.13527191887479276
1782836012690006800,10.1230068359375,0.9816109902262687,-0.05444339171871543,-0.6273349763009697
1782836012699936800,10.132936767578125,0.7038602167725563,-0.030463527324795722,-0.8354509994491934
1782836012709866800,10.14286669921875,0.5339595771849155,-0.11353270954713225,-0.8121743148885667
1782836012719796700,10.152796630859376,1.6922662739664316,0.04105411411784589,-0.5055659880019724
1782836012729726000,10.162725830078125,0.975944635027647,0.131844757437706,0.09708806296363473
1782836012739655700,10.17265576171875,0.038680736050009726,-0.394436686334759,0.06908449601158499
1782836012749586000,10.1825859375,-0.06564063916802405,-0.7746537086591124,-0.5005382229678332
1782836012759515000,10.192514892578124,-0.44150224276185035,-0.724177174744755,-0.6481568881206214
1782836012769444600,10.202444580078126,-0.4494850582093,-0.7903267863482236,-0.7828953211732208
1782836012779374800,10.212374755859376,0.2740489963263273,-0.7955429866265505,-0.8286920997735112
1782836012789303800,10.2223037109375,1.3819962097018956,-0.5171303151980042,-0.725982835927233
1782836012799233800,10.23223388671875,1.5508634145885705,-0.18684760967008768,-0.21983086473084984
1782836012809163800,10.242163818359375,0.6829401783406734,-0.19207104340679942,0.14147585154883563
1782836012819092700,10.2520927734375,0.03187573221027851,-0.5995438099905848,-0.2395775485344231
1782836012829023000,10.26202294921875,-0.2476712770104408,-1.1388497166395186,-0.849533081619814
1782836012838952700,10.27195263671875,-0.5012660988509655,-1.434275555254519,-1.1130450479712337
1782836012848881700,10.281881591796875,-0.3744517367959022,-1.2565265402540564,-0.9829524679630994
1782836012858812000,10.29181201171875,-0.32096038510501385,-0.6224860018998384,-0.16248320293799043
1782836012868741600,10.30174169921875,0.07351473354399204,-0.08647526433877646,0.34790450613200663
1782836012878670600,10.311670654296876,0.35291561229228974,0.057097048032656306,-0.02496303021237254
1782836012888600800,10.321600830078125,0.18260697642564772,0.009893398309126496,-0.5748531669788062
1782836012898530800,10.33153076171875,0.0427729737997055,-0.13416552853547037,-0.6584700462117791
1782836012908460800,10.341460693359375,-0.11078735636174677,-0.35675438673757015,-0.2132492213182151
1782836012918389800,10.3513896484375,-0.027728549402952194,-0.5344998946066946,0.3890113002851605
1782836012928319700,10.36131982421875,-0.19365970083773135,-0.5713451588578522,0.565235736066848
1782836012938249700,10.371249755859376,-0.3384036873370409,-0.49126127605661746,0.21705818514712152
1782836012948178700,10.3811787109375,-0.25379706641435623,-0.24506986234039066,0.043935514773055906
1782836012958108700,10.391108642578125,-0.4393605545580387,-0.019395751474052668,0.08082732157967984
1782836012968039000,10.401038818359375,-0.8632160814702511,-0.10581621688567101,0.05625643249005079
1782836012977967600,10.410967529296874,-1.1915005258530378,-0.25387078923769296,-0.03460245376043022
1782836012987897900,10.42089794921875,-1.291542616316676,-0.17338957768194377,-0.21912929233275352
1782836012997827800,10.430827880859376,-1.382452136775851,-0.025463015623763203,-0.28150895694345235
1782836013007756800,10.4407568359375,-1.6350298905283212,-0.021875585591048,-0.2490221070975065
1782836013017686800,10.450686767578125,-1.6276432874083517,-0.13767740911394358,-0.46470776178240775
1782836013027616800,10.46061669921875,-1.7322428950458764,-0.39056101394519205,-0.5007958509907127
1782836013037542100,10.470542236328125,-1.783589051401615,-0.6296741598382591,-0.4096001340012997
1782836013047472000,10.48047216796875,-1.5880717399984596,-0.5800348074004054,-0.24268399011716246
1782836013057402000,10.490402099609375,-1.3186989187896252,-0.31426965529471634,-0.10636888233236969
1782836013067331000,10.5003310546875,-1.211375439146161,-0.035942689388245345,-0.07286240711510181
1782836013077261300,10.51026123046875,-1.4060621449440718,0.07609291346892715,-0.18055172439627348
1782836013087191000,10.52019091796875,-1.6185253304511307,-0.007255085694789886,-0.1809150047507137
1782836013097121000,10.53012109375,-1.5813094062566757,0.08283829607591033,-0.020641221490502355
1782836013107050200,10.54005029296875,-1.2405512647479773,0.4603676867514848,0.15879399303123354
1782836013116980000,10.54997998046875,-1.07040161883533,0.7446615982383489,0.3842097452223301
1782836013126910200,10.55991015625,-0.7804220629274845,0.7523391471289098,0.4375243521068245
1782836013136839200,10.569839111328125,-0.5491203214377165,0.7859361501738429,0.39370764140784736
1782836013146769200,10.57976904296875,-0.702228816178441,0.8250437333337962,0.22932065067514776
1782836013156699100,10.58969921875,-0.3161310652524233,0.7677193793512881,-0.263048367427662
1782836013166628000,10.599628173828124,0.24073943192064762,0.8521085581310093,-0.2839155066285282
1782836013176558000,10.60955810546875,0.9835153625428676,0.9644016428805887,0.03998451212495565
1782836013186488000,10.619488037109376,3.4789661508649585,1.3691552866987884,1.1824493505217135
1782836013196417000,10.6294169921875,0.9207938256919384,1.0229434098288417,2.2427546688869593
1782836013206347000,10.639346923828125,-0.707648503139615,0.15457082237824796,1.577819226053357
1782836013216277200,10.64927734375,-0.1935784522950649,0.17828472931236028,0.5854536906439811
1782836013226206000,10.6592060546875,0.1598988855332136,1.263157064309716,0.5722627851594239
1782836013236136200,10.66913623046875,0.6364291870564222,1.7466814625039695,0.905501929340139
1782836013246066200,10.679066162109375,1.6145207709848879,1.3534681804843247,1.3888032593682407
1782836013255995100,10.6889951171875,2.192532840386033,1.2927820949837565,0.9484531092509627
1782836013265925000,10.698925048828125,1.7311305498898029,1.5112828070893882,1.079268669771403
1782836013275855000,10.708855224609374,1.106515719267726,1.3307944302529096,1.3813029667407273
