time,seconds_elapsed,z,y,x
1782836002641137700,0.0741376953125,0.4898170828819275,0.20359812676906586,-0.19933196902275085
1782836002651067400,0.0840673828125,0.49191850423812866,0.15414349734783173,-0.2147471308708191
1782836002660997600,0.09399755859375,0.5022350549697876,0.10087468475103378,-0.19215872883796692
1782836002670926600,0.103926513671875,0.5082842707633972,0.06579677015542984,-0.16110938787460327
1782836002680856800,0.11385693359375,0.5142300724983215,0.012702390551567078,-0.13722482323646545
1782836002690786600,0.12378662109375,0.5287565588951111,-0.029687942937016487,-0.14075592160224915
1782836002700715500,0.133715576171875,0.5583994388580322,-0.05439728498458862,-0.1566038578748703
1782836002710645800,0.143645751953125,0.5954712629318237,-0.08207480609416962,-0.18400289118289948
1782836002720575500,0.153575439453125,0.6330476403236389,-0.09862608462572098,-0.2009885311126709
1782836002730505700,0.163505615234375,0.6617571711540222,-0.11375488340854645,-0.21152515709400177
1782836002740434700,0.1734345703125,0.6778501272201538,-0.14119715988636017,-0.20502543449401855
1782836002750364400,0.183364501953125,0.6890348196029663,-0.17411360144615173,-0.19109174609184265
1782836002760294700,0.193294677734375,0.7020246386528015,-0.20176494121551514,-0.16921865940093994
1782836002770224600,0.203224609375,0.7173658609390259,-0.21370278298854828,-0.15716977417469025
1782836002780153600,0.213153564453125,0.7326502799987793,-0.19833049178123474,-0.1425175815820694
1782836002790083600,0.22308349609375,0.7402743697166443,-0.17143042385578156,-0.11137697845697403
1782836002800013600,0.233013671875,0.7205795049667358,-0.12763208150863647,-0.04993146285414696
1782836002809942800,0.24294287109375,0.6825599670410156,-0.06485378742218018,0.025031855329871178
1782836002819872500,0.25287255859375,0.6252719163894653,0.01161116175353527,0.09725784510374069
1782836002829802500,0.262802490234375,0.5733723640441895,0.0668790340423584,0.1331089735031128
1782836002839732700,0.272732666015625,0.551055908203125,0.11958112567663193,0.1436910331249237
1782836002849661700,0.28266162109375,0.5499569177627563,0.16849611699581146,0.1252537965774536
1782836002859591700,0.292591796875,0.5450862646102905,0.2117202877998352,0.0893956646323204
1782836002869521700,0.302521728515625,0.5361012816429138,0.22649770975112915,0.05094697326421738
1782836002879450600,0.31245068359375,0.5128607153892517,0.2312605082988739,0.019063346087932587
1782836002889380600,0.322380615234375,0.4836026728153229,0.20063704252243042,-0.012261228635907173
1782836002899310600,0.332310546875,0.44936615228652954,0.14153245091438293,-0.033997152000665665
1782836002909240800,0.34224072265625,0.4173373579978943,0.08139969408512115,-0.05029978230595589
1782836002919169800,0.352169677734375,0.38804659247398376,0.029286427423357964,-0.07672153413295746
1782836002929099500,0.362099609375,0.3671244978904724,-0.014127224683761597,-0.10849584639072418
1782836002939029800,0.37202978515625,0.3644677400588989,-0.05817404389381409,-0.14619554579257965
1782836002948958700,0.381958740234375,0.3560379445552826,-0.11169829964637756,-0.15876109898090363
1782836002958888400,0.391888427734375,0.3291562497615814,-0.14505279064178467,-0.158603698015213
1782836002968818700,0.401818603515625,0.2894311249256134,-0.1757093369960785,-0.14942291378974915
1782836002978748700,0.411748779296875,0.26400911808013916,-0.18276937305927277,-0.12365815788507462
1782836002988677400,0.421677490234375,0.25780704617500305,-0.17648887634277344,-0.10649217665195465
1782836002998607600,0.431607666015625,0.2722528278827667,-0.16167451441287994,-0.0951167494058609
1782836003008537600,0.44153759765625,0.2865833044052124,-0.13509222865104675,-0.08467657119035721
1782836003018466800,0.451466796875,0.2962455153465271,-0.12008211761713028,-0.07396267354488373
1782836003028397300,0.461397216796875,0.29239529371261597,-0.11696794629096985,-0.04990355297923088
1782836003038327300,0.471327392578125,0.275362491607666,-0.11890832334756851,-0.022122787311673164
1782836003048257000,0.481257080078125,0.2558828890323639,-0.1083027720451355,0.008884353563189507
1782836003058186200,0.491186279296875,0.2554554343223572,-0.08933227509260178,0.022938918322324753
1782836003068116200,0.5011162109375,0.27055230736732483,-0.07723411172628403,0.031077317893505096
1782836003078046200,0.511046142578125,0.28105446696281433,-0.0723474770784378,0.05090614780783653
1782836003087976200,0.52097607421875,0.27105003595352173,-0.05794346332550049,0.0937316045165062
1782836003097905200,0.5309052734375,0.24767892062664032,-0.05215214937925339,0.12841661274433136
1782836003107835400,0.54083544921875,0.24248939752578735,-0.056146979331970215,0.171198770403862
1782836003117765000,0.55076513671875,0.24373415112495422,-0.043875664472579956,0.21219201385974884
1782836003127694000,0.560694091796875,0.2601161599159241,-0.060965925455093384,0.24118714034557343
1782836003137624300,0.570624267578125,0.28865939378738403,-0.08137452602386475,0.26789119839668274
1782836003147554000,0.580553955078125,0.3162992298603058,-0.10223174095153809,0.27652209997177124
1782836003157484300,0.590484375,0.33860161900520325,-0.10594525188207626,0.2782408893108368
1782836003167413200,0.600413330078125,0.3632076382637024,-0.09563016891479492,0.2690483331680298
1782836003177343200,0.61034326171875,0.36350247263908386,-0.0686374306678772,0.2626682221889496
1782836003187273200,0.620273193359375,0.36165276169776917,-0.031442347913980484,0.2391127645969391
1782836003197202200,0.6302021484375,0.3452112078666687,-0.013638583943247795,0.19972248375415802
1782836003207132400,0.64013232421875,0.3159020245075226,-0.01384324673563242,0.14193840324878693
1782836003217062100,0.650062255859375,0.28182128071784973,-0.04160244017839432,0.06826791167259216
1782836003226992000,0.6599921875,0.23397497832775116,-0.10012122988700867,-0.006532195024192333
1782836003236921300,0.66992138671875,0.17048335075378418,-0.1865178942680359,-0.07290109992027283
1782836003246851300,0.679851318359375,0.10507147014141083,-0.26023149490356445,-0.1269334852695465
1782836003256781300,0.68978125,0.06588970869779587,-0.30054590106010437,-0.14353697001934052
1782836003266710300,0.699710205078125,0.06170780211687088,-0.3120139539241791,-0.12071531265974045
1782836003276640300,0.70964013671875,0.07288721948862076,-0.2737896144390106,-0.040006622672080994
1782836003286570200,0.7195703125,0.10487775504589081,-0.20933759212493896,0.07785604894161224
1782836003296500200,0.729500244140625,0.16540981829166412,-0.178512841463089,0.21700994670391083
1782836003306429200,0.73942919921875,0.23970943689346313,-0.17143553495407104,0.36949941515922546
1782836003316359200,0.749359130859375,0.3105146288871765,-0.1458396166563034,0.5031136274337769
1782836003326289200,0.7592890625,0.3627030849456787,-0.10242224484682083,0.5813137888908386
1782836003336218000,0.769218017578125,0.394880473613739,-0.05613117665052414,0.5944918990135193
1782836003346148400,0.7791484375,0.4111959636211395,0.01751294732093811,0.5417852997779846
1782836003356078000,0.789078125,0.40788114070892334,0.06377152353525162,0.44718632102012634
1782836003366008300,0.79900830078125,0.3766965866088867,0.11416500061750412,0.3472077250480652
1782836003375937300,0.808937255859375,0.33429986238479614,0.20397639274597168,0.276873379945755
1782836003385867000,0.818866943359375,0.29658958315849304,0.2994384169578552,0.22254200279712677
1782836003395797200,0.82879736328125,0.27139368653297424,0.39112839102745056,0.21845565736293793
1782836003405726200,0.838726318359375,0.2625907063484192,0.4763491451740265,0.258785605430603
1782836003415656400,0.848656494140625,0.2600838541984558,0.565193235874176,0.3165575861930847
1782836003425586200,0.858586181640625,0.25928163528442383,0.5606975555419922,0.35382670164108276
1782836003435516200,0.86851611328125,0.27798792719841003,0.46893221139907837,0.35778629779815674
1782836003445445400,0.8784453125,0.309394896030426,0.3435661494731903,0.3487772047519684
1782836003455375000,0.888375,0.32125207781791687,0.20928023755550385,0.3203655481338501
1782836003465305300,0.898305419921875,0.3250579237937927,0.08500535041093826,0.27980464696884155
1782836003475234300,0.908234375,0.32294684648513794,0.002912077121436596,0.20590323209762573
1782836003485164300,0.918164306640625,0.31828927993774414,-0.06238801032304764,0.07656726241111755
1782836003495094300,0.92809423828125,0.3219388723373413,-0.11976448446512222,-0.08583256602287292
1782836003505024300,0.938024169921875,0.3268470764160156,-0.17263488471508026,-0.2546743154525757
1782836003514953200,0.947953125,0.33067166805267334,-0.15190884470939636,-0.36770525574684143
1782836003524883200,0.95788330078125,0.3259000778198242,-0.0716705471277237,-0.40532922744750977
1782836003534813200,0.967813232421875,0.31722164154052734,0.02811357192695141,-0.37738627195358276
1782836003544742400,0.977742431640625,0.3088753819465637,0.12785880267620087,-0.283066987991333
1782836003554672000,0.987672119140625,0.3045669198036194,0.23496422171592712,-0.16271847486495972
1782836003564602000,0.99760205078125,0.3142092525959015,0.2933137118816376,-0.05927668511867523
1782836003574532400,1.007532470703125,0.3499523401260376,0.29234805703163147,-0.0014296313747763634
1782836003584461300,1.01746142578125,0.40976351499557495,0.2591719329357147,0.024839311838150024
1782836003594391300,1.027391357421875,0.48079827427864075,0.22736716270446777,0.0346653126180172
1782836003604321300,1.0373212890625,0.5347192287445068,0.19100672006607056,0.025500349700450897
1782836003614250200,1.047250244140625,0.5415944457054138,0.13491734862327576,-0.011137554422020912
1782836003624180200,1.05718017578125,0.5235183835029602,0.09306726604700089,-0.06670432537794113
1782836003634110200,1.067110107421875,0.49989429116249084,0.06406091898679733,-0.13892553746700287
1782836003644040400,1.07704052734375,0.4654569923877716,0.030354883521795273,-0.2299118936061859
1782836003653969400,1.086969482421875,0.43611961603164673,0.011769483797252178,-0.3164009749889374
1782836003663899100,1.096899169921875,0.4322320818901062,-0.005836716387420893,-0.372891902923584
1782836003673829400,1.106829345703125,0.4402250349521637,0.015507187694311142,-0.36460360884666443
1782836003683758300,1.11675830078125,0.438556432723999,0.1061745434999466,-0.2859432101249695
1782836003693688000,1.12668798828125,0.4311254024505615,0.19410307705402374,-0.1820620745420456
1782836003703618300,1.136618408203125,0.43627920746803284,0.22035270929336548,-0.11365976184606552
1782836003713548300,1.14654833984375,0.4504182040691376,0.17298279702663422,-0.11447442322969437
1782836003723477200,1.156477294921875,0.4823627173900604,0.09262598305940628,-0.16152404248714447
1782836003733407200,1.1664072265625,0.5186618566513062,0.022385111078619957,-0.21652019023895264
1782836003743337200,1.176337158203125,0.5267201662063599,-0.005989094730466604,-0.2661433219909668
1782836003753266400,1.186266357421875,0.5155303478240967,-0.0035043656826019287,-0.2971196174621582
1782836003763196200,1.196196044921875,0.4907284080982208,0.039894018322229385,-0.3110778033733368
1782836003773126100,1.206126220703125,0.46872538328170776,0.08823598921298981,-0.33636531233787537
1782836003783056400,1.216056396484375,0.45764490962028503,0.10414273291826248,-0.35752594470977783
1782836003792985000,1.225985107421875,0.45433565974235535,0.11173088103532791,-0.35268646478652954
1782836003802915300,1.235915283203125,0.4603063464164734,0.11459986120462418,-0.32098013162612915
1782836003812845300,1.24584521484375,0.46069809794425964,0.12862780690193176,-0.2429220974445343
1782836003822774300,1.255774169921875,0.45781752467155457,0.1626328080892563,-0.15810619294643402
1782836003832704300,1.265704345703125,0.4657646715641022,0.18368881940841675,-0.09199108183383942
1782836003842634200,1.27563427734375,0.4871433973312378,0.18583448231220245,-0.057652246206998825
1782836003852564200,1.285564208984375,0.5198403596878052,0.19185003638267517,-0.03818720206618309
1782836003862493200,1.2954931640625,0.5430872440338135,0.2148451805114746,-0.03166121616959572
1782836003872423200,1.305423095703125,0.5501915216445923,0.2177426964044571,-0.04280335083603859
1782836003882353400,1.315353515625,0.5599223971366882,0.19410130381584167,-0.06501437723636627
1782836003892282400,1.325282470703125,0.567868709564209,0.1474429816007614,-0.08741554617881775
1782836003902212000,1.335212158203125,0.5671282410621643,0.09596966207027435,-0.08969496190547943
1782836003912142300,1.345142333984375,0.5703599452972412,0.030611690133810043,-0.06918942183256149
1782836003922072000,1.355072021484375,0.5689730048179626,-0.019213655963540077,-0.03143804892897606
1782836003932001000,1.3650009765625,0.5629122257232666,-0.02731107547879219,0.01173322182148695
1782836003941931300,1.37493115234375,0.5433878302574158,-0.021072838455438614,0.04559660702943802
1782836003951861200,1.384861328125,0.5367216467857361,0.012957831844687462,0.07026520371437073
1782836003961790200,1.394790283203125,0.5509358048439026,0.0824928805232048,0.09335888922214508
1782836003971720200,1.40472021484375,0.5810375213623047,0.15294387936592102,0.1105397418141365
1782836003981650200,1.414650146484375,0.6130030751228333,0.18712469935417175,0.11211371421813965
1782836003991580200,1.424580078125,0.6283602118492126,0.17622092366218567,0.08238378167152405
1782836004001509000,1.434509033203125,0.626136064529419,0.1263517141342163,0.03670702129602432
1782836004011439400,1.444439453125,0.620753824710846,0.03782558813691139,-0.032522380352020264
1782836004021369300,1.454369384765625,0.6161813735961914,-0.05562584102153778,-0.10922670364379883
1782836004031298000,1.464298095703125,0.6142705678939819,-0.1236610859632492,-0.16645216941833496
1782836004041228300,1.474228271484375,0.6164646148681641,-0.16851767897605896,-0.1847521811723709
1782836004051158300,1.484158203125,0.6199616193771362,-0.17208579182624817,-0.15006689727306366
1782836004061088300,1.494088134765625,0.619692325592041,-0.10934042930603027,-0.07919002324342728
1782836004071017200,1.504017333984375,0.6172456741333008,-0.03319932147860527,0.01129113882780075
1782836004080947200,1.513947265625,0.6332306861877441,0.022050753235816956,0.10857761651277542
1782836004090877200,1.523877197265625,0.6695106625556946,0.04399919509887695,0.2025211602449417
1782836004100806100,1.53380615234375,0.706579864025116,0.02889738604426384,0.2772705852985382
1782836004110736100,1.543736083984375,0.7376025319099426,-0.008646262809634209,0.31879672408103943
1782836004120666400,1.553666259765625,0.7518967390060425,-0.03556380793452263,0.3220004141330719
1782836004130596000,1.56359619140625,0.7423328161239624,-0.06175759434700012,0.3040032982826233
1782836004140525300,1.573525390625,0.7101308703422546,-0.06533719599246979,0.2729650139808655
1782836004150455300,1.583455322265625,0.6546335220336914,-0.028696894645690918,0.252010703086853
1782836004160385000,1.593385009765625,0.5877513289451599,0.0616828054189682,0.2660708725452423
1782836004170314200,1.603314208984375,0.518779456615448,0.17013418674468994,0.3249453604221344
1782836004180244200,1.613244140625,0.4627651274204254,0.28224191069602966,0.40593335032463074
1782836004190174500,1.623174560546875,0.42966708540916443,0.34801506996154785,0.45454829931259155
1782836004200104200,1.633104248046875,0.41185954213142395,0.3133218586444855,0.46403172612190247
1782836004210033200,1.643033203125,0.39747607707977295,0.2221304476261139,0.44445428252220154
1782836004219963400,1.65296337890625,0.35716792941093445,0.1186741292476654,0.4142550528049469
1782836004229893000,1.66289306640625,0.29190555214881897,0.037512704730033875,0.37297898530960083
1782836004239822000,1.672822021484375,0.208329439163208,-0.033268075436353683,0.2929665446281433
1782836004249752300,1.68275244140625,0.1284649670124054,-0.14669637382030487,0.17393895983695984
1782836004259682300,1.692682373046875,0.055477652698755264,-0.2611551582813263,0.04302367940545082
1782836004269612300,1.7026123046875,-0.010015872307121754,-0.3224150836467743,-0.10299105197191238
1782836004279541200,1.712541259765625,-0.06001927703619003,-0.31240761280059814,-0.23332969844341278
1782836004289471200,1.72247119140625,-0.12294577062129974,-0.23200784623622894,-0.3462482690811157
1782836004299401200,1.732401123046875,-0.1774575114250183,-0.11827999353408813,-0.4143790602684021
1782836004309330200,1.742330078125,-0.22112296521663666,0.03880762681365013,-0.41800469160079956
1782836004319260200,1.75226025390625,-0.23556222021579742,0.20234045386314392,-0.374759316444397
1782836004329190100,1.762190185546875,-0.20719130337238312,0.3247728943824768,-0.3060755729675293
1782836004339120000,1.7721201171875,-0.16062124073505402,0.3815379738807678,-0.23397964239120483
1782836004349049300,1.78204931640625,-0.09565555304288864,0.3827342689037323,-0.16228574514389038
1782836004358979300,1.791979248046875,-0.031109437346458435,0.35142379999160767,-0.09089656919240952
1782836004368909000,1.801908935546875,0.011346940882503986,0.28199759125709534,-0.03194936737418175
1782836004378838300,1.81183837890625,0.033199671655893326,0.19375282526016235,0.007416024804115295
1782836004388768300,1.821768310546875,0.03886821120977402,0.13410280644893646,0.01996484026312828
1782836004398698200,1.8316982421875,0.04111817479133606,0.06657347828149796,0.004432039335370064
1782836004408628200,1.841628173828125,0.02055484429001808,-0.005285263527184725,-0.03981132060289383
1782836004418557200,1.85155712890625,0.0014415793120861053,-0.02804282307624817,-0.07177374511957169
1782836004428487400,1.8614873046875,-0.009428379125893116,0.0032684942707419395,-0.09310086816549301
1782836004438417200,1.871417236328125,-0.022074976935982704,0.008805610239505768,-0.1300118863582611
1782836004448346000,1.88134619140625,-0.03059948794543743,0.01146424375474453,-0.18643972277641296
1782836004458276400,1.8912763671875,-0.023797636851668358,0.04537276178598404,-0.2339055985212326
1782836004468206000,1.9012060546875,-0.026603275910019875,0.03622453659772873,-0.2705315351486206
1782836004478136300,1.91113623046875,-0.04260057955980301,-0.014065085910260677,-0.3006555140018463
1782836004488065300,1.921065185546875,-0.06365180760622025,-0.04142773523926735,-0.30834805965423584
1782836004497995300,1.930995361328125,-0.08474990725517273,-0.10104677081108093,-0.2881488800048828
1782836004507925200,1.94092529296875,-0.08881708979606628,-0.172956645488739,-0.23596981167793274
1782836004517854200,1.950854248046875,-0.06900777667760849,-0.22083845734596252,-0.150405615568161
1782836004527784400,1.960784423828125,-0.045879289507865906,-0.2577059268951416,-0.04049402475357056
1782836004537714200,1.970714111328125,-0.03898760676383972,-0.2858905494213104,0.054339416325092316
1782836004547644200,1.98064404296875,-0.036781176924705505,-0.2822872996330261,0.12236081063747406
1782836004557573400,1.990573486328125,-0.03219282627105713,-0.23781748116016388,0.15440146625041962
1782836004567503000,2.000503173828125,-0.03255607932806015,-0.19409477710723877,0.1421586573123932
1782836004577433300,2.010433349609375,-0.04067973420023918,-0.1685486137866974,0.1092938706278801
1782836004587362300,2.0203623046875,-0.057729557156562805,-0.15532656013965607,0.07801211625337601
1782836004597292300,2.030292236328125,-0.08487018197774887,-0.149509459733963,0.05954314023256302
1782836004607222300,2.04022216796875,-0.12194298207759857,-0.12146451324224472,0.07564806938171387
1782836004617152300,2.05015234375,-0.15713568031787872,-0.09434505552053452,0.11798039823770523
1782836004627081200,2.060081298828125,-0.17868171632289886,-0.0663059651851654,0.1761763095855713
1782836004637011200,2.07001123046875,-0.18474507331848145,-0.0472324974834919,0.22070366144180298
1782836004646941200,2.079941162109375,-0.18608810007572174,-0.057506706565618515,0.22273458540439606
1782836004656870100,2.0898701171875,-0.1763511300086975,-0.0724116638302803,0.19534295797348022
1782836004666800400,2.09980029296875,-0.1715068370103836,-0.09079147130250931,0.15312786400318146
1782836004676730000,2.109730224609375,-0.1671781986951828,-0.10087844729423523,0.10202659666538239
1782836004686660400,2.119660400390625,-0.16189849376678467,-0.10130162537097931,0.06982817500829697
1782836004696589300,2.12958935546875,-0.1543833315372467,-0.12029197067022324,0.04317273572087288
1782836004706519000,2.13951904296875,-0.17386701703071594,-0.16239148378372192,0.023122325539588928
1782836004716449300,2.14944921875,-0.21181027591228485,-0.22309885919094086,-0.01637759432196617
1782836004726378200,2.159378173828125,-0.26390087604522705,-0.2979605793952942,-0.08421815931797028
1782836004736308200,2.16930810546875,-0.3101702928543091,-0.37014514207839966,-0.15952081978321075
1782836004746238200,2.17923828125,-0.35046419501304626,-0.40269935131073,-0.22546042501926422
1782836004756168200,2.189168212890625,-0.3797341287136078,-0.3678734004497528,-0.2699991464614868
1782836004766097400,2.199097412109375,-0.3895558714866638,-0.2538363039493561,-0.293031245470047
1782836004776027100,2.209027099609375,-0.3649121820926666,-0.10791710019111633,-0.29652833938598633
1782836004785957400,2.218957275390625,-0.3111669421195984,0.04606980085372925,-0.27731308341026306
1782836004795886300,2.22888623046875,-0.23896090686321259,0.18263985216617584,-0.22027799487113953
1782836004805816000,2.238816162109375,-0.1653095930814743,0.27581852674484253,-0.12690144777297974
1782836004815746300,2.248746337890625,-0.08707933127880096,0.3237132132053375,0.008123626001179218
1782836004825676300,2.25867626953125,-0.023968275636434555,0.3175802230834961,0.16010703146457672
1782836004835605200,2.268605224609375,0.023413527756929398,0.2792605757713318,0.2960733473300934
1782836004845535200,2.27853515625,0.04173554480075836,0.23241664469242096,0.3993195593357086
1782836004855465200,2.28846533203125,0.04975370317697525,0.17513945698738098,0.4629944860935211
1782836004865394200,2.298394287109375,0.049136385321617126,0.13969385623931885,0.48089438676834106
1782836004875324200,2.30832421875,0.04836803674697876,0.16439542174339294,0.4609859585762024
1782836004885254100,2.318254150390625,0.039309825748205185,0.21548309922218323,0.4182552695274353
1782836004895184400,2.328184326171875,0.003135533072054386,0.24316813051700592,0.34266793727874756
1782836004905113300,2.33811328125,-0.03850911557674408,0.25161463022232056,0.258390873670578
1782836004915043000,2.34804296875,-0.06791248917579651,0.20869942009449005,0.17037443816661835
1782836004924973300,2.357973388671875,-0.09953033924102783,0.113160640001297,0.09224395453929901
1782836004934902300,2.36790234375,-0.13679929077625275,0.04326176270842552,0.029399700462818146
1782836004944832300,2.377832275390625,-0.1769872009754181,-0.05825047940015793,-0.019042134284973145
1782836004954762200,2.38776220703125,-0.21883465349674225,-0.1399369239807129,-0.05345781520009041
1782836004964692200,2.397692138671875,-0.27335646748542786,-0.20400086045265198,-0.11746129393577576
1782836004974621200,2.40762109375,-0.3116746246814728,-0.23799103498458862,-0.203779935836792
1782836004984551200,2.41755126953125,-0.32016852498054504,-0.19935309886932373,-0.30978065729141235
1782836004994481400,2.4274814453125,-0.3074716031551361,-0.10809171199798584,-0.4114488661289215
1782836005004410400,2.437410400390625,-0.26454731822013855,0.016965534538030624,-0.48556384444236755
1782836005014340000,2.447340087890625,-0.2044820934534073,0.16555263102054596,-0.5141414999961853
1782836005024269800,2.457269775390625,-0.129038468003273,0.31632110476493835,-0.5035468935966492
1782836005034200000,2.467199951171875,-0.0447964183986187,0.45435941219329834,-0.45814159512519836
1782836005044128800,2.477128662109375,0.027923323214054108,0.5591700077056885,-0.38664692640304565
1782836005054058800,2.487058837890625,0.09246224910020828,0.5998578071594238,-0.3156929016113281
1782836005063989000,2.496989013671875,0.15175779163837433,0.5845329165458679,-0.26264193654060364
1782836005073918000,2.50691796875,0.22357866168022156,0.5246375799179077,-0.2176872342824936
1782836005083847700,2.51684765625,0.2989943325519562,0.4381527900695801,-0.17827031016349792
1782836005093778000,2.52677783203125,0.3639661371707916,0.3207584023475647,-0.14918287098407745
1782836005103708000,2.5367080078125,0.43113505840301514,0.19446703791618347,-0.11716821044683456
1782836005113636900,2.546636962890625,0.5106000304222107,0.09855982661247253,-0.08237148076295853
1782836005123566800,2.55656689453125,0.592189371585846,0.03279678523540497,-0.07351326942443848
1782836005133496800,2.566496826171875,0.6528259515762329,-0.0017260480672121048,-0.10823850333690643
1782836005143426000,2.576426025390625,0.7007237076759338,0.010113834403455257,-0.15505021810531616
1782836005153355800,2.586355712890625,0.7163031697273254,0.05716203898191452,-0.20949934422969818
1782836005163286000,2.5962861328125,0.6990019083023071,0.06668603420257568,-0.28154024481773376
1782836005173215700,2.6062158203125,0.6777774095535278,0.05975831672549248,-0.33313068747520447
1782836005183144700,2.616144775390625,0.6698702573776245,0.09086297452449799,-0.3518572449684143
1782836005193075000,2.626074951171875,0.6661962270736694,0.09297511726617813,-0.3429713249206543
1782836005203005000,2.6360048828125,0.6826274394989014,0.07450636476278305,-0.30212563276290894
1782836005212934000,2.645933837890625,0.7250158190727234,0.038782279938459396,-0.2527611255645752
1782836005222864000,2.65586376953125,0.7693228125572205,-0.02376498654484749,-0.21756476163864136
1782836005232793900,2.6657939453125,0.8072813153266907,-0.06631577014923096,-0.1809602677822113
1782836005242723800,2.675723876953125,0.8457426428794861,-0.09222087264060974,-0.15057042241096497
1782836005252652800,2.68565283203125,0.8765630125999451,-0.08905979245901108,-0.120942123234272
1782836005262582800,2.695582763671875,0.9063573479652405,-0.05128391087055206,-0.09088356047868729
1782836005272513000,2.705512939453125,0.9391698241233826,-0.012829776853322983,-0.07052631676197052
1782836005282441700,2.715441650390625,0.9593667387962341,0.02245204709470272,-0.07020246982574463
1782836005292371700,2.725371826171875,0.9679434895515442,0.007978386245667934,-0.09994687139987946
1782836005302302000,2.735302001953125,0.9646270871162415,-0.0568392239511013,-0.1517954170703888
1782836005312231700,2.745231689453125,0.9646391272544861,-0.13165433704853058,-0.19854828715324402
1782836005322161000,2.755160888671875,0.9728211164474487,-0.2020222395658493,-0.2027488797903061
1782836005332091000,2.7650908203125,0.9858179688453674,-0.25567251443862915,-0.15723350644111633
1782836005342020900,2.775020751953125,0.9868757724761963,-0.2795107364654541,-0.07564357668161392
1782836005351949800,2.78494970703125,0.9810054898262024,-0.23264890909194946,0.017380064353346825
1782836005361879800,2.7948798828125,0.9833016991615295,-0.14976733922958374,0.09362529963254929
1782836005371810000,2.80481005859375,1.0002883672714233,-0.03828280419111252,0.1607600450515747
1782836005381739800,2.81473974609375,1.0153330564498901,0.09509096294641495,0.22232672572135925
1782836005391668700,2.824668701171875,1.0182462930679321,0.20855191349983215,0.2708706557750702
1782836005401599000,2.834598876953125,1.0199222564697266,0.26158371567726135,0.2988002896308899
1782836005411528700,2.84452880859375,1.0076862573623657,0.2384069859981537,0.2832027077674866
1782836005421457700,2.854457763671875,0.9910995960235596,0.13351225852966309,0.23331613838672638
1782836005431388000,2.864387939453125,0.9737862944602966,0.009078672155737877,0.16791772842407227
1782836005441318000,2.87431787109375,0.9483773112297058,-0.08319079875946045,0.08539462089538574
1782836005451247900,2.884247802734375,0.930988609790802,-0.13305702805519104,0.012235318310558796
1782836005461176800,2.8941767578125,0.9142447710037231,-0.10368343442678452,-0.027045506983995438
1782836005471106800,2.90410693359375,0.8910030126571655,-0.03848498314619064,-0.02090425416827202
1782836005481036800,2.914036865234375,0.8717377185821533,0.030458664521574974,-0.0019332258962094784
1782836005490965800,2.9239658203125,0.8844045400619507,0.12324506044387817,0.048503585159778595
1782836005500895700,2.933895751953125,0.9086387753486633,0.21104522049427032,0.09924265742301941
1782836005510826000,2.943825927734375,0.9151371717453003,0.24159537255764008,0.14676149189472198
1782836005520755700,2.953755615234375,0.9055580496788025,0.23754124343395233,0.1982521116733551
1782836005530685000,2.963684814453125,0.8778656125068665,0.19711808860301971,0.24724531173706055
1782836005540615000,2.973614990234375,0.8467956185340881,0.09927621483802795,0.28702759742736816
1782836005550544600,2.983544677734375,0.8349204659461975,0.001267043873667717,0.3097268342971802
1782836005560473900,2.993473876953125,0.8485329151153564,-0.04733165353536606,0.33200496435165405
1782836005570403800,3.00340380859375,0.8744253516197205,-0.013338178396224976,0.34678730368614197
1782836005580333800,3.013333740234375,0.887600839138031,0.06773883104324341,0.334713876247406
1782836005590263800,3.023263916015625,0.8904988169670105,0.1383100301027298,0.3095455467700958
1782836005600192800,3.03319287109375,0.8742660880088806,0.20442353188991547,0.2825336456298828
1782836005610123000,3.043123046875,0.843355119228363,0.20734426379203796,0.25322073698043823
1782836005620052700,3.053052734375,0.8098986744880676,0.13308948278427124,0.2225688099861145
1782836005629981700,3.062981689453125,0.776918888092041,0.031973376870155334,0.1918184906244278
1782836005639912000,3.072911865234375,0.7398892045021057,-0.05649549514055252,0.16622045636177063
1782836005649841700,3.082841552734375,0.679796576499939,-0.1395685076713562,0.13206110894680023
1782836005659772000,3.09277197265625,0.6113293170928955,-0.20407691597938538,0.06475557386875153
1782836005669700900,3.102700927734375,0.562480092048645,-0.2813776135444641,-0.019427180290222168
1782836005679630800,3.112630859375,0.5294627547264099,-0.34307506680488586,-0.09172508120536804
1782836005689560800,3.122560791015625,0.49319031834602356,-0.3829498589038849,-0.146743506193161
1782836005699489800,3.13248974609375,0.4478939473628998,-0.398630827665329,-0.19078606367111206
1782836005709420000,3.142419921875,0.3991703987121582,-0.3721877634525299,-0.22301536798477173
1782836005719349800,3.152349853515625,0.3361927568912506,-0.3164001405239105,-0.27104413509368896
1782836005729279700,3.16227978515625,0.27739766240119934,-0.2565220296382904,-0.3478027284145355
1782836005739209000,3.172208984375,0.2403448224067688,-0.15848149359226227,-0.4282490909099579
1782836005749139000,3.182138916015625,0.22309435904026031,-0.056474946439266205,-0.48250138759613037
1782836005759069000,3.19206884765625,0.22314123809337616,0.01749728061258793,-0.5135437846183777
1782836005768999000,3.2019990234375,0.23778069019317627,0.09708070009946823,-0.5141735076904297
1782836005778927900,3.211927978515625,0.2693876028060913,0.1605539470911026,-0.4900042414665222
1782836005788857900,3.22185791015625,0.3081347644329071,0.189850315451622,-0.453185498714447
1782836005798787800,3.231787841796875,0.34458357095718384,0.19846084713935852,-0.4079442322254181
1782836005808716800,3.241716796875,0.37524867057800293,0.23593097925186157,-0.32429197430610657
1782836005818646800,3.251646728515625,0.39434540271759033,0.26968973875045776,-0.21210312843322754
1782836005828576800,3.26157666015625,0.39598724246025085,0.3408288061618805,-0.09600117802619934
1782836005838505700,3.271505615234375,0.38564327359199524,0.4037339985370636,-0.015929514542222023
1782836005848436000,3.28143603515625,0.37413525581359863,0.41592857241630554,-0.0020911497995257378
1782836005858365700,3.29136572265625,0.3788735568523407,0.3780565559864044,-0.028868168592453003
1782836005868296000,3.3012958984375,0.40618592500686646,0.33418509364128113,-0.05702320113778114
1782836005878225000,3.311224853515625,0.4256341755390167,0.26840928196907043,-0.06905855983495712
1782836005888154600,3.321154541015625,0.4083980917930603,0.14675761759281158,-0.07098770141601562
1782836005898084900,3.3310849609375,0.39200741052627563,0.017938654869794846,-0.0656813532114029
1782836005908014800,3.341014892578125,0.3921690285205841,-0.06592175364494324,-0.04793551564216614
1782836005917944000,3.350944091796875,0.3853100538253784,-0.10921916365623474,-0.03183803707361221
1782836005927873800,3.360873779296875,0.342695415019989,-0.1449599415063858,-0.032504815608263016
1782836005937803800,3.3708037109375,0.28397881984710693,-0.11168667674064636,-0.027499403804540634
1782836005947733000,3.38073291015625,0.21798156201839447,-0.01578948274254799,0.00024040043354034424
1782836005957662700,3.390662841796875,0.1495164930820465,0.03130719065666199,0.021316390484571457
1782836005967593000,3.400593017578125,0.08396795392036438,0.01874421536922455,0.03235044702887535
1782836005977523000,3.41052294921875,0.050199076533317566,-0.0097646564245224,0.0367521196603775
1782836005987452000,3.420451904296875,0.05794259160757065,-0.01625571772456169,0.0522659569978714
1782836005997382000,3.4303818359375,0.07515033334493637,0.019464729353785515,0.08612272143363953
1782836006007312000,3.440311767578125,0.07741297036409378,0.053006842732429504,0.12119322270154953
1782836006017240800,3.45024072265625,0.06318769603967667,0.07692708820104599,0.14322581887245178
1782836006027170600,3.460170654296875,0.026502270251512527,0.07603919506072998,0.13215826451778412
1782836006037100800,3.470100830078125,-0.019080927595496178,0.05773662403225899,0.1154453381896019
1782836006047030800,3.48003076171875,-0.07711996883153915,0.016310887411236763,0.07601643353700638
1782836006056959700,3.489959716796875,-0.13369908928871155,-0.04429600387811661,0.035611219704151154
1782836006066889700,3.4998896484375,-0.1802857220172882,-0.07164520025253296,0.01882224902510643
1782836006076819700,3.50981982421875,-0.2123027741909027,-0.12279440462589264,0.016317812725901604
1782836006086749000,3.5197490234375,-0.22206290066242218,-0.13813026249408722,0.05046331509947777
1782836006096678700,3.5296787109375,-0.20909197628498077,-0.10972445458173752,0.10309350490570068
1782836006106609000,3.53960888671875,-0.1907474249601364,-0.06706691533327103,0.16829904913902283
1782836006116537900,3.549537841796875,-0.17938558757305145,-0.013869475573301315,0.2159866839647293
1782836006126467600,3.559467529296875,-0.18903608620166779,0.03842843696475029,0.20241430401802063
1782836006136397800,3.569397705078125,-0.21397313475608826,0.07247135788202286,0.12577040493488312
1782836006146327800,3.579327880859375,-0.20497198402881622,0.12131315469741821,0.002254902385175228
1782836006156256800,3.5892568359375,-0.25625622272491455,0.15784452855587006,-0.11991361528635025
1782836006166186800,3.599186767578125,-0.36498427391052246,0.11623770743608475,-0.2800697088241577
1782836006176116700,3.60911669921875,-0.474660187959671,0.05184087157249451,-0.4396072030067444
1782836006186046700,3.619046630859375,-0.5632790923118591,0.012766394764184952,-0.595139741897583
1782836006195975700,3.6289755859375,-0.5989676117897034,0.02887772209942341,-0.6991217732429504
1782836006205905700,3.63890576171875,-0.5551860332489014,0.09123057872056961,-0.7126349806785583
1782836006215836000,3.6488359375,-0.44357776641845703,0.1672438532114029,-0.6225769519805908
1782836006225764900,3.658764892578125,-0.2911817729473114,0.18848873674869537,-0.4414048194885254
1782836006235694800,3.66869482421875,-0.12186411023139954,0.1784323751926422,-0.1627524197101593
1782836006245624800,3.678624755859375,0.038180459290742874,0.16005350649356842,0.1524471938610077
1782836006255554600,3.688554443359375,0.14209914207458496,0.10736098885536194,0.4410845935344696
1782836006265483800,3.69848388671875,0.19823668897151947,0.06588958203792572,0.6518744230270386
1782836006275413800,3.708413818359375,0.20745575428009033,0.029563795775175095,0.7472041249275208
1782836006285344000,3.718343994140625,0.19964653253555298,0.011796337552368641,0.7502787113189697
1782836006295272700,3.728272705078125,0.16417908668518066,0.06975764036178589,0.6809060573577881
1782836006305202700,3.73820263671875,0.1126650795340538,0.16588640213012695,0.5735515356063843
1782836006315133000,3.7481328125,0.07583755254745483,0.2771221101284027,0.4550783932209015
1782836006325062700,3.758062744140625,0.05015306919813156,0.3992164134979248,0.3582087457180023
1782836006334991600,3.76799169921875,0.036517951637506485,0.4843616485595703,0.2968399226665497
1782836006344921900,3.777921875,0.021972306072711945,0.5066479444503784,0.2764793634414673
1782836006354851800,3.787851806640625,0.0053991894237697124,0.475926011800766,0.295736163854599
1782836006364780500,3.797780517578125,-0.016547292470932007,0.370889276266098,0.3114975690841675
1782836006374710800,3.807710693359375,-0.04010588303208351,0.1733914017677307,0.3113359212875366
1782836006384640800,3.817640869140625,-0.08440621942281723,-0.07373276352882385,0.28250521421432495
1782836006394570800,3.82757080078125,-0.12785808742046356,-0.33754920959472656,0.21953636407852173
1782836006404499700,3.837499755859375,-0.17014361917972565,-0.5410906672477722,0.10675313323736191
1782836006414429700,3.8474296875,-0.20512770116329193,-0.6904793381690979,-0.046582628041505814
1782836006424359700,3.857359619140625,-0.21895244717597961,-0.7474468350410461,-0.20809823274612427
1782836006434288600,3.86728857421875,-0.23909632861614227,-0.674004316329956,-0.3544301390647888
1782836006444219000,3.877218994140625,-0.24975037574768066,-0.5155806541442871,-0.46610763669013977
1782836006454148900,3.88714892578125,-0.24843502044677734,-0.3133772015571594,-0.5247520804405212
1782836006464078600,3.89707861328125,-0.23083312809467316,-0.09235744923353195,-0.537325918674469
1782836006474007800,3.9070078125,-0.18793101608753204,0.1565246731042862,-0.4970574378967285
1782836006483937800,3.916937744140625,-0.12566189467906952,0.37658584117889404,-0.4195372462272644
1782836006493867800,3.92686767578125,-0.0430583581328392,0.49872931838035583,-0.3111228942871094
1782836006503796700,3.936796630859375,0.04101824015378952,0.5512739419937134,-0.2038770616054535
1782836006513726700,3.946726806640625,0.11809252202510834,0.5061629414558411,-0.11509311944246292
1782836006523657000,3.956656982421875,0.1971426159143448,0.3952462673187256,-0.04781953990459442
1782836006533586700,3.966586669921875,0.27895092964172363,0.2346038520336151,-0.01327088475227356
1782836006543515600,3.976515625,0.3532547056674957,0.08328836411237717,-0.00886814296245575
1782836006553446000,3.98644580078125,0.41544270515441895,-0.04579664766788483,-0.013849319890141487
1782836006563375600,3.996375732421875,0.45620477199554443,-0.1507004201412201,-0.05182147026062012
1782836006573304600,4.0063046875,0.4771580100059509,-0.21761846542358398,-0.10420025140047073
1782836006583234800,4.01623486328125,0.4865039587020874,-0.23070470988750458,-0.16425560414791107
1782836006593164800,4.026164794921875,0.49502554535865784,-0.21246179938316345,-0.2275426983833313
1782836006603094800,4.0360947265625,0.5078602433204651,-0.1926642656326294,-0.27766671776771545
1782836006613023700,4.046023681640625,0.5220378637313843,-0.18017323315143585,-0.2956795394420624
1782836006622953700,4.05595361328125,0.5322996973991394,-0.1376764178276062,-0.28142836689949036
1782836006632883700,4.0658837890625,0.5363810062408447,-0.1001543402671814,-0.2505367696285248
1782836006642812700,4.075812744140625,0.5438330173492432,-0.07520078867673874,-0.22074532508850098
1782836006652743000,4.085742919921875,0.5558537244796753,-0.06959563493728638,-0.2163252830505371
1782836006662672600,4.095672607421875,0.5763984322547913,-0.05895816907286644,-0.2379075288772583
1782836006672602600,4.1056025390625,0.5938290953636169,-0.06812582910060883,-0.26702654361724854
1782836006682531800,4.11553173828125,0.5977399349212646,-0.08137230575084686,-0.2707641124725342
1782836006692461800,4.1254619140625,0.5926902890205383,-0.06404738128185272,-0.22724834084510803
1782836006702391800,4.135391845703125,0.6014770865440369,-0.05996409431099892,-0.15547014772891998
1782836006712320800,4.14532080078125,0.6360113620758057,-0.03848250210285187,-0.07311882078647614
1782836006722250800,4.155250732421875,0.6935502886772156,0.00646269042044878,-0.006708458065986633
1782836006732180700,4.1651806640625,0.7546956539154053,0.048157669603824615,0.02665695548057556
1782836006742110700,4.17511083984375,0.8116934895515442,0.06056445091962814,0.05282820016145706
1782836006752039700,4.185039794921875,0.8579288721084595,0.08946960419416428,0.09962046891450882
1782836006761970000,4.194969970703125,0.8900344967842102,0.10264887660741806,0.1694529950618744
1782836006771899600,4.204899658203125,0.9162375926971436,0.08579319715499878,0.24567054212093353
1782836006781828900,4.214828857421875,0.9357901811599731,0.08122264593839645,0.3111502528190613
1782836006791758800,4.2247587890625,0.9441820383071899,0.0974399596452713,0.34551647305488586
1782836006801688600,4.2346884765625,0.9272394180297852,0.12100951373577118,0.3253512382507324
1782836006811618800,4.244618896484375,0.8793360590934753,0.12278316915035248,0.2672503888607025
1782836006821547800,4.2545478515625,0.7982892990112305,0.08640336245298386,0.175811767578125
1782836006831477800,4.264477783203125,0.7073716521263123,-0.005062637384980917,0.07382015138864517
1782836006841407700,4.27440771484375,0.6186510324478149,-0.13933317363262177,-0.02575133927166462
1782836006851336700,4.284336669921875,0.5432828068733215,-0.23864111304283142,-0.09593415260314941
1782836006861267000,4.294266845703125,0.49282416701316833,-0.22849451005458832,-0.11457625031471252
1782836006871196700,4.30419677734375,0.4654005169868469,-0.12342774868011475,-0.08110617101192474
1782836006881127000,4.314126953125,0.46952521800994873,0.030687516555190086,-0.022862035781145096
1782836006891055900,4.324055908203125,0.5230515599250793,0.17253120243549347,0.0650574341416359
1782836006900985600,4.333985595703125,0.6073110103607178,0.266633003950119,0.16170665621757507
1782836006910915800,4.343915771484375,0.7028143405914307,0.27403366565704346,0.25341126322746277
1782836006920844800,4.3538447265625,0.7853657007217407,0.227876216173172,0.3442075848579407
1782836006930774800,4.36377490234375,0.8386550545692444,0.12878026068210602,0.4387196898460388
1782836006940704800,4.373704833984375,0.8472976684570312,0.0028756819665431976,0.534665048122406
1782836006950634800,4.383634765625,0.810398519039154,-0.09593771398067474,0.6017737984657288
1782836006960563700,4.393563720703125,0.7330316305160522,-0.11300235986709595,0.6229135990142822
1782836006970493700,4.40349365234375,0.6629790663719177,-0.021394947543740273,0.578165590763092
1782836006980423700,4.413423583984375,0.6229650974273682,0.13745777308940887,0.48831215500831604
1782836006990353000,4.423352783203125,0.6095256805419922,0.36188849806785583,0.3930327892303467
1782836007000283000,4.433282958984375,0.6122600436210632,0.5569461584091187,0.292602002620697
1782836007010212600,4.443212646484375,0.635750949382782,0.6795658469200134,0.19054248929023743
1782836007020142800,4.453142822265625,0.6845980286598206,0.7307957410812378,0.09551897644996643
1782836007030072300,4.463072265625,0.7408522367477417,0.6977531313896179,0.027975620701909065
1782836007040002000,4.473001953125,0.793805718421936,0.5891862511634827,0.00568380206823349
1782836007049932300,4.482932373046875,0.8324924111366272,0.4073341488838196,0.028941456228494644
1782836007059861200,4.492861328125,0.8564771413803101,0.183025524020195,0.06737904995679855
1782836007069791000,4.502791015625,0.8698877692222595,-0.08115233480930328,0.1007242202758789
1782836007079721200,4.51272119140625,0.8564349412918091,-0.26091697812080383,0.12924796342849731
1782836007089651200,4.522651123046875,0.8117334842681885,-0.3186868131160736,0.1314288228750229
1782836007099580200,4.532580078125,0.7378894090652466,-0.34775304794311523,0.06406652182340622
1782836007109510100,4.54251025390625,0.6825811266899109,-0.3650023341178894,-0.05260549858212471
1782836007119440100,4.552440185546875,0.6453160047531128,-0.38834312558174133,-0.1891172230243683
1782836007129369300,4.562369384765625,0.6079692244529724,-0.4388102889060974,-0.3256590962409973
1782836007139299000,4.572299072265625,0.548993706703186,-0.5019497275352478,-0.4224315583705902
1782836007149229000,4.58222900390625,0.46725520491600037,-0.5229018926620483,-0.4699375629425049
1782836007159159300,4.5921591796875,0.3773930072784424,-0.4546419084072113,-0.4817776679992676
1782836007169088000,4.602087890625,0.2993810474872589,-0.320209264755249,-0.47567424178123474
1782836007179018200,4.612018310546875,0.25980493426322937,-0.14150209724903107,-0.4438380002975464
1782836007188948200,4.6219482421875,0.26139163970947266,0.05324050039052963,-0.38192349672317505
1782836007198878000,4.6318779296875,0.2800292670726776,0.23805415630340576,-0.2987501919269562
1782836007208807200,4.64180712890625,0.2847968637943268,0.38030797243118286,-0.204110249876976
1782836007218737200,4.651737060546875,0.28336554765701294,0.4528329372406006,-0.11501011252403259
1782836007228667100,4.661667236328125,0.2801726758480072,0.47766637802124023,-0.05725280940532684
1782836007238596000,4.67159619140625,0.2732117176055908,0.45843157172203064,-0.02676241099834442
1782836007248526000,4.681526123046875,0.25441059470176697,0.40493348240852356,-0.010622323490679264
1782836007258456300,4.691456298828125,0.23020142316818237,0.3428298532962799,-0.019083987921476364
1782836007268386000,4.701385986328125,0.19734573364257812,0.2745110094547272,-0.04542052373290062
1782836007278315000,4.71131494140625,0.16170312464237213,0.18719998002052307,-0.08124686777591705
1782836007288245200,4.721245361328125,0.141558438539505,0.11244983971118927,-0.11233794689178467
1782836007298175000,4.731175048828125,0.13055750727653503,0.06758596003055573,-0.12087924033403397
1782836007308104000,4.74110400390625,0.12307243794202805,0.04662634804844856,-0.1109112948179245
1782836007318034200,4.7510341796875,0.12808869779109955,0.06288908421993256,-0.08911291509866714
1782836007327964200,4.760964111328125,0.13999009132385254,0.0643857792019844,-0.052705638110637665
1782836007337894100,4.77089404296875,0.15797767043113708,0.04965055361390114,-0.02324819006025791
1782836007347823000,4.780822998046875,0.1740538328886032,-0.012758760713040829,-0.0073411292396485806
1782836007357753000,4.790753173828125,0.1937810778617859,-0.09726104140281677,0.010505691170692444
1782836007367683000,4.80068310546875,0.20032739639282227,-0.181918665766716,0.04473396763205528
1782836007377612000,4.810612060546875,0.19319145381450653,-0.24208001792430878,0.10096048563718796
1782836007387542300,4.820542236328125,0.181668221950531,-0.2824687063694,0.16266833245754242
1782836007397472300,4.83047216796875,0.16988354921340942,-0.290579229593277,0.20803168416023254
1782836007407402000,4.840402099609375,0.1635899692773819,-0.26882362365722656,0.23577356338500977
1782836007417331200,4.850331298828125,0.1555507332086563,-0.23624937236309052,0.2465430647134781
1782836007427261200,4.86026123046875,0.14868083596229553,-0.19936832785606384,0.24166949093341827
1782836007437191200,4.870191162109375,0.13390320539474487,-0.1760251820087433,0.2343255579471588
1782836007447120100,4.8801201171875,0.10851554572582245,-0.17563369870185852,0.23388880491256714
1782836007457050000,4.890050048828125,0.05915166437625885,-0.1950875222682953,0.22526542842388153
1782836007466980000,4.89997998046875,0.006208022125065327,-0.21870097517967224,0.2052275389432907
1782836007476910000,4.90991015625,-0.029059704393148422,-0.24973513185977936,0.17193865776062012
1782836007486839000,4.919839111328125,-0.039367202669382095,-0.30119219422340393,0.10813917219638824
1782836007496769300,4.929769287109375,-0.025376731529831886,-0.3346766531467438,0.039166226983070374
1782836007506699000,4.939698974609375,0.01027633622288704,-0.341612845659256,-0.00671498104929924
1782836007516628200,4.949628173828125,0.040658630430698395,-0.28418394923210144,-0.00516497390344739
1782836007526558200,4.95955810546875,0.05325378477573395,-0.22140075266361237,0.011891773901879787
1782836007536488000,4.969488037109375,0.029875081032514572,-0.2100389301776886,0.012397555634379387
1782836007546418200,4.979418212890625,-0.008880570530891418,-0.25643280148506165,-0.03096509911119938
1782836007556347100,4.98934716796875,-0.04781389236450195,-0.33943599462509155,-0.10604821890592575
1782836007566277400,4.99927734375,-0.08721829205751419,-0.4449584186077118,-0.20199871063232422
1782836007576207000,5.00920703125,-0.148501917719841,-0.5767091512680054,-0.30893221497535706
1782836007586136000,5.019135986328125,-0.21223829686641693,-0.6833274960517883,-0.41035735607147217
1782836007596066300,5.02906640625,-0.2579619884490967,-0.6899504065513611,-0.4697917103767395
1782836007605996000,5.03899609375,-0.26437753438949585,-0.6050853133201599,-0.4894362688064575
1782836007615926300,5.04892626953125,-0.22739526629447937,-0.44648364186286926,-0.45064547657966614
1782836007625855200,5.058855224609375,-0.15854299068450928,-0.27356141805648804,-0.3542899191379547
1782836007635785200,5.06878515625,-0.07133565843105316,-0.12116099894046783,-0.18248191475868225
1782836007645715200,5.078715087890625,0.004391588270664215,-0.008175060153007507,0.033452242612838745
1782836007655644200,5.08864404296875,0.018635831773281097,0.04371902719140053,0.21346381306648254
1782836007665574100,5.09857421875,-0.031800977885723114,0.013320907019078732,0.2941504120826721
1782836007675504000,5.108504150390625,-0.10301648080348969,-0.09573762863874435,0.2915114164352417
1782836007685434000,5.11843408203125,-0.15299363434314728,-0.13218937814235687,0.2576732933521271
1782836007695363000,5.128363037109375,-0.173041433095932,-0.11235068738460541,0.2135964035987854
1782836007705293000,5.13829296875,-0.15280327200889587,-0.0022958209738135338,0.19069615006446838
1782836007715223000,5.14822314453125,-0.11490192264318466,0.18312454223632812,0.20175926387310028
1782836007725152300,5.15815234375,-0.07130490988492966,0.3295222520828247,0.21893079578876495
1782836007735082200,5.168082275390625,-0.04416201636195183,0.38956594467163086,0.2267763912677765
1782836007745012000,5.178011962890625,-0.026278622448444366,0.3644334375858307,0.23204785585403442
1782836007754942200,5.187942138671875,-0.012316787615418434,0.2500556707382202,0.2320188581943512
1782836007764871200,5.19787109375,-0.00778142549097538,0.06454440951347351,0.21809105575084686
1782836007774801200,5.20780126953125,-0.007000966928899288,-0.14399631321430206,0.21941550076007843
1782836007784731100,5.217731201171875,-0.014084176160395145,-0.28988027572631836,0.2235332727432251
1782836007794660000,5.22766015625,-0.03826011344790459,-0.37882959842681885,0.20089294016361237
1782836007804590300,5.23759033203125,-0.06914825737476349,-0.42169585824012756,0.155323326587677
1782836007814520000,5.24752001953125,-0.08288245648145676,-0.3930579423904419,0.09700529277324677
1782836007824450300,5.2574501953125,-0.10142844170331955,-0.3774526119232178,0.004221295937895775
1782836007834379300,5.267379150390625,-0.12514033913612366,-0.3604566752910614,-0.08505229651927948
1782836007844309000,5.27730908203125,-0.15258048474788666,-0.31454378366470337,-0.15245477855205536
1782836007854239200,5.2872392578125,-0.16893503069877625,-0.22150257229804993,-0.18612107634544373
1782836007864168200,5.297168212890625,-0.18765679001808167,-0.08759429305791855,-0.2125396430492401
1782836007874098200,5.30709814453125,-0.19916430115699768,0.06891563534736633,-0.2224428355693817
1782836007884025000,5.317025146484375,-0.19909824430942535,0.2168693244457245,-0.2419210970401764
1782836007893955300,5.326955322265625,-0.18244203925132751,0.32236620783805847,-0.2415490597486496
1782836007903885000,5.336885009765625,-0.13532471656799316,0.40716686844825745,-0.2142016440629959
1782836007913815300,5.346815185546875,-0.06992627680301666,0.42984047532081604,-0.18272601068019867
1782836007923744300,5.356744140625,0.004148583859205246,0.3906514644622803,-0.16472561657428741
1782836007933674000,5.366674072265625,0.09995660185813904,0.34393349289894104,-0.13951027393341064
1782836007943604200,5.376604248046875,0.21751803159713745,0.2828828990459442,-0.10559996217489243
1782836007953534200,5.3865341796875,0.331156462430954,0.22312211990356445,-0.05471547693014145
1782836007963463200,5.396463134765625,0.43331795930862427,0.15830810368061066,-0.003771738149225712
1782836007973393200,5.40639306640625,0.5115917325019836,0.0813336968421936,0.03695971146225929
1782836007983323100,5.4163232421875,0.5516142249107361,0.015239318832755089,0.06267017871141434
1782836007993252000,5.426252197265625,0.5632452964782715,-0.05057964473962784,0.07392390072345734
1782836008003182000,5.43618212890625,0.5594053864479065,-0.10468979179859161,0.06868630647659302
1782836008013112000,5.446112060546875,0.5387355089187622,-0.14986498653888702,0.061452627182006836
1782836008023042300,5.456042236328125,0.5074135661125183,-0.13059920072555542,0.0642111673951149
1782836008032974000,5.46597412109375,0.47725802659988403,-0.07043705880641937,0.07296178489923477
1782836008042904000,5.475904052734375,0.43304166197776794,-0.02095814421772957,0.07011136412620544
1782836008052834000,5.485833984375,0.39477816224098206,0.03389258682727814,0.04617913067340851
1782836008062763300,5.49576318359375,0.3667909801006317,0.08247823268175125,0.00867889542132616
1782836008072693000,5.50569287109375,0.35600489377975464,0.08421275019645691,-0.03282194212079048
1782836008082623000,5.515623046875,0.3496803343296051,0.09000986814498901,-0.07903227210044861
1782836008092553200,5.52555322265625,0.35319784283638,0.07944218069314957,-0.13541272282600403
1782836008102482200,5.535482177734375,0.3560485541820526,0.08102720975875854,-0.1819353997707367
1782836008112412200,5.545412109375,0.3447823226451874,0.08502966910600662,-0.22254407405853271
1782836008122342100,5.555342041015625,0.32512763142585754,0.11228286474943161,-0.24632637202739716
1782836008132271000,5.56527099609375,0.30718642473220825,0.16647979617118835,-0.24280273914337158
1782836008142201000,5.575201171875,0.2802107036113739,0.2092173546552658,-0.21815752983093262
1782836008152131000,5.585131103515625,0.254647821187973,0.22871515154838562,-0.16634494066238403
1782836008162061300,5.595061279296875,0.23624730110168457,0.2629782259464264,-0.10806263238191605
1782836008171990300,5.604990234375,0.25001823902130127,0.300441712141037,-0.09704460203647614
1782836008181920000,5.614919921875,0.3165428340435028,0.3269936442375183,-0.12701572477817535
1782836008191850200,5.624850341796875,0.41905614733695984,0.29820114374160767,-0.14522136747837067
1782836008201779200,5.634779296875,0.5100376009941101,0.2601359784603119,-0.099724680185318
1782836008211709000,5.644708984375,0.5514947772026062,0.27914056181907654,-0.0023520509712398052
1782836008221639200,5.65463916015625,0.5435119271278381,0.3572324514389038,0.0724598690867424
1782836008231569200,5.664569091796875,0.5334609150886536,0.3704289495944977,0.09197498112916946
1782836008241498000,5.674498046875,0.5418185591697693,0.28223878145217896,0.06713682413101196
1782836008251428000,5.684427978515625,0.5427810549736023,0.1408691555261612,0.05754811316728592
1782836008261358000,5.694358154296875,0.4992482662200928,0.05594808608293533,0.0875777006149292
1782836008271287300,5.704287353515625,0.4158039689064026,0.06520070880651474,0.11994975805282593
1782836008281217000,5.714217041015625,0.34684136509895325,0.10979050397872925,0.12876006960868835
1782836008291147000,5.72414697265625,0.3224737048149109,0.20760521292686462,0.10431092232465744
1782836008301077200,5.7340771484375,0.31491199135780334,0.30761808156967163,0.054695166647434235
1782836008311006000,5.744005859375,0.32024285197257996,0.3751846253871918,0.00854258518666029
1782836008320936200,5.753936279296875,0.33572426438331604,0.3921128809452057,-0.023182719945907593
1782836008330866200,5.7638662109375,0.36019793152809143,0.3610430955886841,-0.04151352494955063
1782836008340795100,5.773795166015625,0.3816937804222107,0.2959519028663635,-0.0618586540222168
1782836008350725000,5.78372509765625,0.3974993824958801,0.18250948190689087,-0.07602773606777191
1782836008360655000,5.793655029296875,0.4115229845046997,0.07334341108798981,-0.0792664960026741
1782836008370585000,5.803585205078125,0.40477773547172546,-0.0018554674461483955,-0.061597757041454315
1782836008380514000,5.81351416015625,0.3896214962005615,-0.029120201244950294,-0.040007155388593674
1782836008390444000,5.823444091796875,0.3830927610397339,-0.05450465530157089,-0.0420822873711586
1782836008400374300,5.833374267578125,0.38900548219680786,-0.0866612121462822,-0.07607651501893997
1782836008410303200,5.84330322265625,0.39710310101509094,-0.13137568533420563,-0.12352126836776733
1782836008420233000,5.85323291015625,0.40383246541023254,-0.18229511380195618,-0.17995256185531616
1782836008430163200,5.8631630859375,0.4163692891597748,-0.1916888803243637,-0.2086063027381897
1782836008440093000,5.873093017578125,0.4355592727661133,-0.19837625324726105,-0.19157758355140686
1782836008450022100,5.883022216796875,0.437709778547287,-0.18195094168186188,-0.12325925379991531
1782836008459952000,5.8929521484375,0.4151139259338379,-0.10476165264844894,-0.021158412098884583
1782836008469882000,5.902882080078125,0.39101871848106384,0.0076370565220713615,0.08031334728002548
1782836008479812000,5.91281201171875,0.3754445016384125,0.09635946899652481,0.15844009816646576
1782836008489741000,5.922740966796875,0.3708745241165161,0.12732325494289398,0.19712650775909424
1782836008499671300,5.93267138671875,0.35760530829429626,0.12291926890611649,0.20136085152626038
1782836008509601000,5.94260107421875,0.33493858575820923,0.12348464876413345,0.1876106858253479
1782836008519530000,5.952530029296875,0.3188653886318207,0.12829707562923431,0.17696648836135864
1782836008529460200,5.962460205078125,0.3108157217502594,0.12129721790552139,0.1780834197998047
1782836008539390200,5.97239013671875,0.3006669580936432,0.13659335672855377,0.20517362654209137
1782836008549320200,5.9823203125,0.281191885471344,0.1698060780763626,0.24951906502246857
1782836008559249200,5.992249267578125,0.2612149715423584,0.2092275172472,0.2784825563430786
1782836008569179100,6.00217919921875,0.25610169768333435,0.20621317625045776,0.28810709714889526
1782836008579109000,6.012109130859375,0.2499503344297409,0.1375185251235962,0.27826061844825745
1782836008589038000,6.0220380859375,0.2221442312002182,0.02647324465215206,0.2563318610191345
1782836008598968000,6.031968017578125,0.17873045802116394,-0.11645089089870453,0.1931696981191635
1782836008608898000,6.04189794921875,0.132680743932724,-0.27713310718536377,0.08352667838335037
1782836008618828000,6.051828125,0.1099724993109703,-0.42131665349006653,-0.06218045949935913
1782836008628757000,6.061757080078125,0.09232918918132782,-0.4967116713523865,-0.2243300825357437
1782836008638687200,6.071687255859375,0.06410448253154755,-0.5046558976173401,-0.36671358346939087
1782836008648617000,6.081616943359375,0.014023033902049065,-0.4562799036502838,-0.47039008140563965
1782836008658546200,6.091546142578125,-0.047411564737558365,-0.3507486879825592,-0.5138694047927856
1782836008668476200,6.10147607421875,-0.12082269787788391,-0.25206291675567627,-0.5084942579269409
1782836008678406000,6.111406005859375,-0.1843436062335968,-0.19096893072128296,-0.4654267132282257
1782836008688336100,6.121336181640625,-0.2169884443283081,-0.11096442490816116,-0.3820124864578247
1782836008698265000,6.13126513671875,-0.22028091549873352,-0.03351090848445892,-0.28448912501335144
1782836008708195300,6.1411953125,-0.1934361755847931,0.033204250037670135,-0.17342761158943176
1782836008718125000,6.151125,-0.1533774435520172,0.08355531096458435,-0.07305813580751419
1782836008728054000,6.161053955078125,-0.10666833072900772,0.11923620849847794,0.006318846717476845
1782836008737984300,6.170984375,-0.07502864301204681,0.13341858983039856,0.05738335847854614
1782836008747914000,6.1809140625,-0.06412441283464432,0.13523505628108978,0.07692199945449829
1782836008757844200,6.19084423828125,-0.07713741064071655,0.12442634999752045,0.06603018939495087
1782836008767773200,6.200773193359375,-0.1135079562664032,0.06563400477170944,0.02554362639784813
1782836008777703200,6.210703125,-0.1560511440038681,0.0077952053397893906,-0.022269703447818756
1782836008787633200,6.220633056640625,-0.19095757603645325,-0.025512326508760452,-0.07700574398040771
1782836008797562000,6.23056201171875,-0.21688450872898102,-0.06322401762008667,-0.1209244653582573
1782836008807492000,6.2404921875,-0.2310604453086853,-0.09269371628761292,-0.14196640253067017
1782836008817422000,6.250422119140625,-0.23361842334270477,-0.10244354605674744,-0.13775594532489777
1782836008827352000,6.26035205078125,-0.23627319931983948,-0.08305023610591888,-0.1133197620511055
1782836008837281000,6.270281005859375,-0.2268562614917755,-0.0217655710875988,-0.07716788351535797
1782836008847211000,6.2802109375,-0.21059474349021912,0.013790292665362358,-0.03726920485496521
1782836008857141000,6.29014111328125,-0.20905569195747375,-0.006766115315258503,-0.012125501409173012
1782836008867070200,6.3000703125,-0.23073354363441467,-0.048422615975141525,0.00491540040820837
1782836008877000200,6.310000244140625,-0.26104113459587097,-0.11331000924110413,0.003637881949543953
1782836008886930000,6.319929931640625,-0.2812730371952057,-0.1437826007604599,0.000008175615221261978
1782836008896860200,6.329860107421875,-0.2975414991378784,-0.11935954540967941,-0.02192908152937889
1782836008906789000,6.3397890625,-0.31853988766670227,-0.11165955662727356,-0.06502089649438858
1782836008916719000,6.349718994140625,-0.33889204263687134,-0.11279885470867157,-0.11511469632387161
1782836008926649000,6.359649169921875,-0.3485960066318512,-0.1249946728348732,-0.1404460072517395
1782836008936578000,6.369578125,-0.3620077073574066,-0.13466382026672363,-0.11171237379312515
1782836008946508300,6.37950830078125,-0.3666646182537079,-0.16581480205059052,-0.04656771570444107
1782836008956438000,6.38943798828125,-0.36623531579971313,-0.2048836350440979,0.03839963674545288
1782836008966368300,6.3993681640625,-0.35921499133110046,-0.24520952999591827,0.12423335015773773
1782836008976297200,6.409297119140625,-0.34088125824928284,-0.2776135504245758,0.18642055988311768
1782836008986227000,6.41922705078125,-0.32393524050712585,-0.2638333737850189,0.22869381308555603
1782836008996157200,6.4291572265625,-0.32564231753349304,-0.18355610966682434,0.2473554015159607
1782836009006086100,6.439086181640625,-0.3329215347766876,-0.024907346814870834,0.2478025257587433
1782836009016016100,6.44901611328125,-0.33973586559295654,0.11632883548736572,0.23103851079940796
1782836009025946000,6.458946044921875,-0.3511764705181122,0.15740613639354706,0.19298362731933594
1782836009035872800,6.468872802734375,-0.3432660698890686,0.1408711075782776,0.15521840751171112
1782836009045801700,6.4788017578125,-0.35983264446258545,0.12096814811229706,0.10493294149637222
1782836009055731700,6.488731689453125,-0.3989443778991699,-0.00016653817147016525,0.010067149996757507
1782836009065661700,6.49866162109375,-0.42875903844833374,-0.1589101105928421,-0.10413877665996552
1782836009075591000,6.5085908203125,-0.4487553834915161,-0.30220335721969604,-0.20942285656929016
1782836009085520600,6.518520751953125,-0.47004541754722595,-0.43196800351142883,-0.2756199836730957
1782836009095450600,6.52845068359375,-0.4918444752693176,-0.5195125341415405,-0.28357377648353577
1782836009105380900,6.538380859375,-0.5248856544494629,-0.5805696845054626,-0.2565297484397888
1782836009115309800,6.548309814453125,-0.5489201545715332,-0.5915453433990479,-0.2173895239830017
1782836009125239800,6.55823974609375,-0.5415688753128052,-0.5105492472648621,-0.1792035698890686
1782836009135169800,6.568169677734375,-0.5022838115692139,-0.3532959520816803,-0.12038739770650864
1782836009145098800,6.5780986328125,-0.4451899230480194,-0.13812561333179474,-0.00018242280930280685
1782836009155028700,6.58802880859375,-0.39780643582344055,0.09110225737094879,0.1494712382555008
1782836009164958700,6.597958740234375,-0.37171003222465515,0.3074546456336975,0.301147997379303
1782836009174889000,6.607888916015625,-0.3561190962791443,0.44453978538513184,0.4200083315372467
1782836009184817700,6.617817626953125,-0.3305453956127167,0.5220164656639099,0.491181880235672
1782836009194747600,6.62774755859375,-0.294210821390152,0.5071437358856201,0.5144307613372803
1782836009204678000,6.637677978515625,-0.2601619362831116,0.3986830413341522,0.5166921019554138
1782836009214606800,6.64760693359375,-0.24341356754302979,0.24943946301937103,0.5047717690467834
1782836009224536600,6.65753662109375,-0.25706690549850464,0.09285788983106613,0.48698553442955017
1782836009234466800,6.667466796875,-0.3026050925254822,-0.03403214365243912,0.4414428174495697
1782836009244396800,6.677396728515625,-0.36693257093429565,-0.0964740738272667,0.38188374042510986
1782836009254325500,6.687325439453125,-0.42556020617485046,-0.09044548124074936,0.32476961612701416
1782836009264255700,6.697255859375,-0.46068254113197327,-0.007775807287544012,0.2797543704509735
1782836009274185700,6.707185791015625,-0.4783901572227478,0.130357563495636,0.22641393542289734
1782836009284115000,6.717114990234375,-0.4673231542110443,0.2691168487071991,0.16612492501735687
1782836009294044700,6.727044677734375,-0.43174174427986145,0.3510311543941498,0.08859124779701233
1782836009303974700,6.736974609375,-0.39128977060317993,0.346727192401886,-0.016310345381498337
1782836009313904600,6.746904541015625,-0.36412978172302246,0.256135493516922,-0.12468209117650986
1782836009323833600,6.75683349609375,-0.3504495620727539,0.15615862607955933,-0.20858503878116608
1782836009333763800,6.766763916015625,-0.34448543190956116,0.014690440148115158,-0.28409284353256226
1782836009343693800,6.77669384765625,-0.3235657513141632,-0.11634153127670288,-0.3419650197029114
1782836009353622800,6.786622802734375,-0.2690892219543457,-0.20492306351661682,-0.38769441843032837
1782836009363552800,6.796552734375,-0.19731935858726501,-0.2151115983724594,-0.40137284994125366
1782836009373482800,6.806482666015625,-0.11731612682342529,-0.130747988820076,-0.38531187176704407
1782836009383412700,6.816412841796875,-0.0470559298992157,-0.002850516699254513,-0.3475596308708191
1782836009393341700,6.826341796875,0.03572949767112732,0.11528996378183365,-0.2793661952018738
1782836009403271700,6.836271728515625,0.12431681901216507,0.2270037978887558,-0.1787230521440506
1782836009413202000,6.846201904296875,0.1950538456439972,0.29115191102027893,-0.07971151918172836
1782836009423130600,6.856130615234375,0.24192334711551666,0.27961668372154236,-0.008805654011666775
1782836009433060600,6.866060546875,0.28526604175567627,0.23309072852134705,0.031243493780493736
1782836009442990800,6.875990966796875,0.3373623490333557,0.13807770609855652,0.04324525222182274
1782836009452920600,6.885920654296875,0.37615421414375305,0.05065864697098732,0.04829593747854233
1782836009462849500,6.895849609375,0.3988308310508728,-0.01902158558368683,0.05031909793615341
1782836009472779800,6.90577978515625,0.40535449981689453,-0.08563683182001114,0.03242691606283188
1782836009482709800,6.915709716796875,0.42041268944740295,-0.0925917774438858,0.0009036939591169357
1782836009492638700,6.925638671875,0.44443202018737793,-0.06149883195757866,-0.03776434063911438
1782836009502568700,6.935568603515625,0.44007205963134766,-0.03239566832780838,-0.07878459990024567
1782836009512498700,6.945498779296875,0.4072488844394684,0.015723392367362976,-0.11183549463748932
1782836009522428000,6.955427978515625,0.3601780831813812,0.04032021015882492,-0.13620755076408386
1782836009532357600,6.965357666015625,0.32240113615989685,0.05686456710100174,-0.15258651971817017
1782836009542288000,6.975287841796875,0.298336923122406,0.08074042946100235,-0.16457082331180573
1782836009552217600,6.985217529296875,0.2932814359664917,0.09557530283927917,-0.19134119153022766
1782836009562146600,6.995146484375,0.3053027093410492,0.08387510478496552,-0.20847104489803314
1782836009572076800,7.005076904296875,0.3174288868904114,0.06872224807739258,-0.22504577040672302
1782836009582006800,7.0150068359375,0.32105985283851624,0.05412067100405693,-0.22949591279029846
1782836009591935700,7.024935791015625,0.3240833580493927,0.06394214183092117,-0.2381589114665985
1782836009601865700,7.03486572265625,0.3273215889930725,0.0858505442738533,-0.24017509818077087
1782836009611795700,7.044795654296875,0.3395681083202362,0.11129438877105713,-0.24691475927829742
1782836009621725700,7.0547255859375,0.35688120126724243,0.14414571225643158,-0.2564876675605774
1782836009631654700,7.064654541015625,0.3920106887817383,0.17453184723854065,-0.2737681269645691
1782836009641584600,7.074584716796875,0.4342614710330963,0.19113293290138245,-0.2893465459346771
1782836009651515000,7.084514892578125,0.47808805108070374,0.19072653353214264,-0.27542567253112793
1782836009661443600,7.094443603515625,0.512130618095398,0.18701590597629547,-0.23492269217967987
1782836009671373800,7.104373779296875,0.550973653793335,0.17909352481365204,-0.17252962291240692
1782836009681303800,7.1143037109375,0.6150274872779846,0.13711830973625183,-0.11463825404644012
1782836009691233500,7.124233642578125,0.7141950726509094,0.0879017561674118,-0.07204871624708176
1782836009701162800,7.134162841796875,0.8243072628974915,0.0021606646478176117,-0.041302964091300964
1782836009711092700,7.1440927734375,0.8957849144935608,-0.14909064769744873,0.017556358128786087
1782836009721022700,7.154022705078125,0.9405869841575623,-0.2189510017633438,0.11105065792798996
1782836009730951700,7.16395166015625,0.9781290292739868,-0.22958287596702576,0.2376461625099182
1782836009740881700,7.173881591796875,0.9526517987251282,-0.21898886561393738,0.36479827761650085
1782836009750812000,7.18381201171875,0.869422435760498,-0.1827368438243866,0.49628496170043945
1782836009760741600,7.19374169921875,0.7313997149467468,-0.11344689130783081,0.6042534112930298
1782836009770670600,7.203670654296875,0.5643281936645508,-0.06455525010824203,0.6514432430267334
1782836009780600800,7.213600830078125,0.3921196758747101,-0.029525578022003174,0.6140964031219482
1782836009790530600,7.223530517578125,0.22017906606197357,0.012020799331367016,0.47640538215637207
1782836009800459500,7.23345947265625,0.0559510737657547,0.05378621816635132,0.26643869280815125
1782836009810389800,7.2433896484375,-0.07992446422576904,0.08831862360239029,0.03484169393777847
1782836009820319700,7.25331982421875,-0.18450553715229034,0.10969430953264236,-0.18583005666732788
1782836009830249000,7.2632490234375,-0.24631164968013763,0.09525065869092941,-0.3352115750312805
1782836009840178700,7.2731787109375,-0.24873614311218262,0.09135396778583527,-0.3627912998199463
1782836009850108700,7.283108642578125,-0.22810304164886475,0.1336500346660614,-0.25685977935791016
1782836009860038700,7.29303857421875,-0.21741338074207306,0.1997136026620865,-0.0638318806886673
1782836009869967600,7.302967529296875,-0.20535272359848022,0.27578893303871155,0.16064010560512543
1782836009879897900,7.31289794921875,-0.18976929783821106,0.34357592463493347,0.3724445402622223
1782836009889827800,7.322827880859375,-0.1650351881980896,0.36716726422309875,0.5267899036407471
1782836009899756500,7.332756591796875,-0.10881013423204422,0.2992611229419708,0.6231420636177063
1782836009909686800,7.342686767578125,-0.029062045738101006,0.18475160002708435,0.6778367161750793
1782836009919616800,7.35261669921875,0.07962574064731598,0.06809226423501968,0.7076788544654846
1782836009929546800,7.362546630859375,0.1691548228263855,-0.008181732147932053,0.7091406583786011
1782836009939475700,7.372475830078125,0.2361636608839035,0.008930012583732605,0.6959906220436096
1782836009949405700,7.38240576171875,0.27280423045158386,0.11299116909503937,0.6353070735931396
1782836009959335700,7.392335693359375,0.2742132246494293,0.2564338147640228,0.5395855903625488
1782836009969264600,7.4022646484375,0.2490798830986023,0.39409980177879333,0.42373383045196533
1782836009979194600,7.412194580078125,0.210046648979187,0.5317473411560059,0.31297916173934937
1782836009989124900,7.422124755859375,0.17220740020275116,0.6309071779251099,0.2250586450099945
1782836009999054600,7.4320546875,0.1436006873846054,0.649551272392273,0.16609430313110352
1782836010008983600,7.441983642578125,0.13228172063827515,0.5838057994842529,0.11522020399570465
1782836010018913800,7.451913818359375,0.14095120131969452,0.44736334681510925,0.08304411172866821
1782836010028843500,7.461843505859375,0.17059403657913208,0.28812870383262634,0.05715712159872055
1782836010038772700,7.471772705078125,0.19408868253231049,0.11991219222545624,0.0397973358631134
1782836010048703000,7.481702880859375,0.19976866245269775,-0.031996920704841614,-0.012907953932881355
1782836010058633000,7.491633056640625,0.20857900381088257,-0.20683099329471588,-0.09839945286512375
1782836010068562000,7.50156201171875,0.23042358458042145,-0.34101569652557373,-0.21374548971652985
1782836010078492000,7.511491943359375,0.24267932772636414,-0.43181559443473816,-0.3366725444793701
1782836010088422000,7.521421875,0.2183055430650711,-0.5352466702461243,-0.46782922744750977
1782836010098351900,7.531351806640625,0.17526420950889587,-0.6149592995643616,-0.5873143076896667
1782836010108280800,7.54128076171875,0.14001673460006714,-0.6346363425254822,-0.6866946816444397
1782836010118210800,7.5512109375,0.14075186848640442,-0.5968956351280212,-0.7524654865264893
1782836010128140800,7.561140869140625,0.16556081175804138,-0.5063382983207703,-0.7750179171562195
1782836010138069800,7.57106982421875,0.19522741436958313,-0.38639703392982483,-0.7206483483314514
1782836010148000000,7.581,0.2817407548427582,-0.2278478443622589,-0.6207678318023682
1782836010157930000,7.590929931640625,0.351576030254364,-0.06535894423723221,-0.504109799861908
1782836010167859700,7.600859619140625,0.3927285075187683,0.057522501796483994,-0.3975096046924591
1782836010177789000,7.610788818359375,0.36818525195121765,0.16811949014663696,-0.3104097545146942
1782836010187719000,7.620718994140625,0.27526864409446716,0.21355648338794708,-0.24991631507873535
1782836010197649000,7.63064892578125,0.14605861902236938,0.18349987268447876,-0.23155683279037476
1782836010207577900,7.640577880859375,0.024428585544228554,0.12646667659282684,-0.2580353021621704
1782836010217507800,7.6505078125,-0.06374218314886093,0.07351202517747879,-0.3118305504322052
1782836010227438000,7.66043798828125,-0.11821288615465164,0.03108121082186699,-0.3735346496105194
1782836010237367000,7.670366943359375,-0.17346495389938354,0.02212606370449066,-0.40987616777420044
1782836010247296800,7.680296875,-0.17760324478149414,0.04089762270450592,-0.4056428074836731
1782836010257227000,7.69022705078125,-0.17152926325798035,0.03986082598567009,-0.3849513828754425
1782836010267156700,7.70015673828125,-0.10466074198484421,-0.011502762325108051,-0.35880687832832336
1782836010277085700,7.710085693359375,0.007110768463462591,-0.030001334846019745,-0.3190613090991974
1782836010287016000,7.720015869140625,0.10531909018754959,-0.038125310093164444,-0.27806249260902405
1782836010296946000,7.72994580078125,0.16413849592208862,-0.08332421630620956,-0.2483176589012146
1782836010306875000,7.739875,0.1880616694688797,-0.1846335232257843,-0.20034800469875336
1782836010316804900,7.749804931640625,0.1948091834783554,-0.30041542649269104,-0.11805932968854904
1782836010326734800,7.75973486328125,0.19109195470809937,-0.37730807065963745,-0.02603086642920971
1782836010336664800,7.769664794921875,0.17757025361061096,-0.41769564151763916,0.07200504839420319
1782836010346593800,7.77959375,0.15123531222343445,-0.44887620210647583,0.1507169008255005
1782836010356524000,7.78952392578125,0.09882456064224243,-0.45941418409347534,0.2134675830602646
1782836010366453800,7.799453857421875,0.04580661654472351,-0.4049786329269409,0.27126431465148926
1782836010376382700,7.8093828125,-0.014168105088174343,-0.2657146751880646,0.304256796836853
1782836010386313000,7.81931298828125,-0.08738186210393906,-0.09564121812582016,0.2848953306674957
1782836010396243000,7.829242919921875,-0.15572986006736755,0.07610979676246643,0.19708740711212158
1782836010406172000,7.839171875,-0.2003716230392456,0.22663326561450958,0.056221622973680496
1782836010416102000,7.849101806640625,-0.23676761984825134,0.3283345699310303,-0.08246757090091705
1782836010426031900,7.859031982421875,-0.2721024453639984,0.3748176395893097,-0.16443194448947906
1782836010435961900,7.8689619140625,-0.3138308823108673,0.3924225866794586,-0.16765044629573822
1782836010445890800,7.878890869140625,-0.3448713719844818,0.37908679246902466,-0.1010461151599884
1782836010455820800,7.88882080078125,-0.3563118278980255,0.3356243968009949,-0.003957508597522974
1782836010465751000,7.8987509765625,-0.33455565571784973,0.2762060761451721,0.09645432233810425
1782836010475680000,7.908679931640625,-0.2935481667518616,0.19208340346813202,0.17740385234355927
1782836010485610000,7.91860986328125,-0.24791038036346436,0.08315638452768326,0.23111660778522491
1782836010495540000,7.9285400390625,-0.2243693619966507,-0.033982083201408386,0.259255975484848
1782836010505469000,7.938468994140625,-0.2328062653541565,-0.14898563921451569,0.2526286840438843
1782836010515399000,7.94839892578125,-0.2545754909515381,-0.23354339599609375,0.19967758655548096
1782836010525329000,7.958328857421875,-0.2987344264984131,-0.2882271707057953,0.11259648948907852
1782836010535259100,7.968259033203125,-0.37185904383659363,-0.3005152940750122,0.034068964421749115
1782836010545187800,7.978187744140625,-0.47659823298454285,-0.24295717477798462,-0.024650808423757553
1782836010555117800,7.988117919921875,-0.6019841432571411,-0.17412510514259338,-0.07143029570579529
1782836010565048000,7.998048095703125,-0.7219025492668152,-0.1329590380191803,-0.12129291892051697
1782836010574977000,8.00797705078125,-0.7993457913398743,-0.10512664914131165,-0.15567746758460999
1782836010584906800,8.01790673828125,-0.8401858806610107,-0.06675795465707779,-0.15577708184719086
1782836010594837000,8.0278369140625,-0.8404932618141174,-0.02880564145743847,-0.1155187338590622
1782836010604766700,8.0377666015625,-0.8069355487823486,0.01042032428085804,-0.040987249463796616
1782836010614695700,8.04769580078125,-0.7562146782875061,0.07306794077157974,0.055093783885240555
1782836010624626000,8.0576259765625,-0.7215062379837036,0.14676479995250702,0.12280013412237167
1782836010634556000,8.067555908203126,-0.6825540065765381,0.21605370938777924,0.15814439952373505
1782836010644485000,8.077485107421875,-0.6207204461097717,0.2955418825149536,0.12086466699838638
1782836010654414800,8.087414794921875,-0.5848767161369324,0.2716731131076813,0.06623966991901398
1782836010664344800,8.0973447265625,-0.5331019759178162,0.22977305948734283,0.02124449610710144
1782836010674274000,8.107274169921874,-0.49091190099716187,0.07548582553863525,-0.010190147906541824
1782836010684203800,8.117203857421876,-0.48928070068359375,-0.13275286555290222,-0.04812021926045418
1782836010694134000,8.127134033203125,-0.5292006134986877,-0.3775462806224823,-0.12220437824726105
1782836010704064000,8.13706396484375,-0.5990145802497864,-0.6062196493148804,-0.21006418764591217
1782836010713993000,8.146992919921875,-0.6985588073730469,-0.6677534580230713,-0.2804402709007263
1782836010723923000,8.1569228515625,-0.7942608594894409,-0.5539456605911255,-0.31809791922569275
1782836010733853000,8.16685302734375,-0.8645860552787781,-0.30718255043029785,-0.30022773146629333
1782836010743782000,8.176781982421875,-0.9138521552085876,0.0433051623404026,-0.2513672411441803
1782836010753711900,8.1867119140625,-0.9187307357788086,0.39676228165626526,-0.18114957213401794
1782836010763641900,8.196641845703125,-0.8640956878662109,0.6913512945175171,-0.09819210320711136
1782836010773571000,8.206571044921875,-0.7750892043113708,0.8809990882873535,-0.03574557974934578
1782836010783500800,8.216500732421874,-0.6622870564460754,0.9484394192695618,0.028406772762537003
1782836010793430800,8.2264306640625,-0.5321227312088013,0.9081107378005981,0.10799220204353333
1782836010803361000,8.236361083984375,-0.43973925709724426,0.8077681660652161,0.21382196247577667
1782836010813290000,8.2462900390625,-0.3629470765590668,0.6596137881278992,0.32505008578300476
1782836010823220000,8.256219970703125,-0.31024470925331116,0.4968549609184265,0.43607646226882935
1782836010833150000,8.26614990234375,-0.2837498188018799,0.3499145805835724,0.5535987615585327
1782836010843079000,8.276078857421876,-0.27007824182510376,0.23536108434200287,0.6678126454353333
1782836010853009000,8.2860087890625,-0.25280219316482544,0.13353675603866577,0.7626360654830933
1782836010862939000,8.29593896484375,-0.1970347911119461,0.052221670746803284,0.8063321709632874
1782836010872867800,8.305867919921875,-0.12568362057209015,-0.004100535996258259,0.8026238083839417
1782836010882798000,8.315798095703125,-0.02717434987425804,-0.042438335716724396,0.7270795106887817
1782836010892727800,8.325727783203124,0.07312827557325363,-0.10908966511487961,0.5845968127250671
1782836010902658000,8.335657958984376,0.2103324681520462,-0.17602793872356415,0.3819859027862549
1782836010912587000,8.3455869140625,0.34028372168540955,-0.2854519784450531,0.1753302663564682
1782836010922516700,8.355516845703125,0.4850691556930542,-0.40237191319465637,-0.0025470610707998276
1782836010932447000,8.365447021484375,0.6077449321746826,-0.5242809653282166,-0.14463824033737183
1782836010942376000,8.3753759765625,0.665636420249939,-0.6683355569839478,-0.23336997628211975
1782836010952306000,8.385305908203126,0.6576231718063354,-0.7847537994384766,-0.26057717204093933
1782836010962236000,8.39523583984375,0.5895248055458069,-0.7778517007827759,-0.2350720763206482
1782836010972164900,8.405164794921875,0.46181467175483704,-0.6763347387313843,-0.15331286191940308
1782836010982095000,8.41509521484375,0.29478439688682556,-0.5721465349197388,-0.04430621862411499
1782836010992024800,8.42502490234375,0.15253587067127228,-0.461162269115448,0.06682643294334412
1782836011001954800,8.434954833984374,0.05487588793039322,-0.27530637383461,0.13965670764446259
1782836011011884000,8.444884033203126,0.008966153487563133,-0.03619258105754852,0.1539119929075241
1782836011021813800,8.454813720703125,0.0034813731908798218,0.17402777075767517,0.11629670113325119
1782836011031749000,8.4647490234375,0.03793276846408844,0.3182741105556488,0.07183846086263657
1782836011041677800,8.474677734375,0.09961104393005371,0.3812546730041504,0.03431238979101181
1782836011051607800,8.48460791015625,0.15649427473545074,0.3348149359226227,0.012512135319411755
1782836011061538000,8.4945380859375,0.20100395381450653,0.2641950845718384,0.03127250820398331
1782836011071467000,8.504467041015625,0.22898858785629272,0.18727430701255798,0.08206849545240402
1782836011081396700,8.514396728515624,0.22056394815444946,0.10138364136219025,0.14352892339229584
1782836011091327000,8.524326904296874,0.19201964139938354,-0.012104499153792858,0.19675716757774353
1782836011101257000,8.534257080078126,0.151058629155159,-0.11710787564516068,0.22339622676372528
1782836011111185700,8.544185546875,0.11631413549184799,-0.2180386632680893,0.21672971546649933
1782836011121116000,8.554115966796875,0.11410637944936752,-0.2737940847873688,0.17527255415916443
1782836011131046000,8.5640458984375,0.152252659201622,-0.26873326301574707,0.10046516358852386
1782836011140975000,8.57397509765625,0.2071494609117508,-0.24001505970954895,0.011201328597962856
1782836011150904800,8.58390478515625,0.24728095531463623,-0.16311122477054596,-0.05121465027332306
1782836011160834800,8.593834716796875,0.2457674741744995,-0.08995898813009262,-0.08900250494480133
1782836011170764000,8.603763916015625,0.21408380568027496,-0.08298203349113464,-0.09171493351459503
1782836011180693800,8.61369384765625,0.17062979936599731,-0.12045350670814514,-0.07747554033994675
1782836011190624000,8.6236240234375,0.11346616595983505,-0.14413341879844666,-0.0663929432630539
1782836011200553000,8.633552978515626,0.04504503309726715,-0.16044262051582336,-0.09011504799127579
1782836011210483000,8.64348291015625,-0.05056361109018326,-0.1969486027956009,-0.16338135302066803
1782836011220413000,8.653412841796875,-0.14783690869808197,-0.212372824549675,-0.24801261723041534
1782836011230343000,8.663343017578125,-0.2407769113779068,-0.18547971546649933,-0.32585257291793823
1782836011240272000,8.67327197265625,-0.31725168228149414,-0.13117626309394836,-0.3549113869667053
1782836011250201900,8.683201904296874,-0.37161028385162354,-0.016575921326875687,-0.33242765069007874
1782836011260131800,8.6931318359375,-0.3910132646560669,0.11457730829715729,-0.2706567049026489
1782836011270060800,8.703060791015625,-0.3788810968399048,0.24610987305641174,-0.18519914150238037
1782836011279990800,8.71299072265625,-0.34946221113204956,0.31029844284057617,-0.10754669457674026
1782836011289920800,8.722920654296875,-0.3087541460990906,0.31876862049102783,-0.030563950538635254
1782836011299850000,8.73285009765625,-0.2773818373680115,0.2851400673389435,0.05381404608488083
1782836011309780000,8.742780029296876,-0.2639847695827484,0.20746903121471405,0.13090099394321442
1782836011319709700,8.752709716796875,-0.28565943241119385,0.1124088242650032,0.1804397851228714
1782836011329640000,8.762639892578125,-0.317083477973938,0.019419385120272636,0.18927070498466492
1782836011339569000,8.77256884765625,-0.3262671232223511,-0.04195209592580795,0.15582486987113953
1782836011349499000,8.782498779296875,-0.3047545254230499,-0.08521829545497894,0.07470040768384933
1782836011359428900,8.792428955078124,-0.28010618686676025,-0.14637087285518646,-0.00790020078420639
1782836011369357800,8.80235791015625,-0.2885565459728241,-0.14052651822566986,-0.05242963880300522
1782836011379288000,8.8122880859375,-0.32790902256965637,-0.08610988408327103,-0.06109369546175003
1782836011389217800,8.8222177734375,-0.3595638573169708,-0.004098572768270969,-0.0479118749499321
1782836011399146800,8.832146728515625,-0.3653604984283447,0.07489344477653503,-0.013674807734787464
1782836011409077000,8.842076904296874,-0.3541632890701294,0.14813438057899475,0.03794276714324951
1782836011419006700,8.8520068359375,-0.3313802182674408,0.17397502064704895,0.09410803020000458
1782836011428937000,8.86193701171875,-0.31415680050849915,0.1153964251279831,0.14042629301548004
1782836011438866000,8.871865966796875,-0.30958840250968933,0.028335023671388626,0.1850414276123047
1782836011448796000,8.8817958984375,-0.3193751573562622,0.00640717800706625,0.2012266218662262
1782836011458726000,8.891725830078125,-0.3079536557197571,0.038971249014139175,0.17244982719421387
1782836011468654800,8.90165478515625,-0.2551596760749817,0.11724569648504257,0.10015401244163513
1782836011478585000,8.911585205078126,-0.1925133317708969,0.2090110182762146,0.006310612894594669
1782836011488514800,8.921514892578125,-0.13538095355033875,0.2396673709154129,-0.08838146179914474
1782836011498443800,8.93144384765625,-0.09699201583862305,0.22109848260879517,-0.16582165658473969
1782836011508374000,8.9413740234375,-0.0882791131734848,0.17883315682411194,-0.21326231956481934
1782836011518303700,8.9513037109375,-0.10683256387710571,0.13783378899097443,-0.2397485226392746
1782836011528232700,8.961232666015626,-0.15387991070747375,0.09285265952348709,-0.24506060779094696
1782836011538163000,8.971162841796875,-0.2152457982301712,0.030251599848270416,-0.24630562961101532
1782836011548093000,8.981093017578125,-0.2647702395915985,-0.010620733723044395,-0.2332952916622162
1782836011558023000,8.99102294921875,-0.31764599680900574,-0.00417647510766983,-0.201002299785614
1782836011567952000,9.000951904296874,-0.3687785565853119,0.05248811095952988,-0.15783879160881042
1782836011577881900,9.0108818359375,-0.4081033170223236,0.11087872087955475,-0.1069367378950119
1782836011587811800,9.020811767578126,-0.43672022223472595,0.1874857097864151,-0.07286033034324646
1782836011597740800,9.03074072265625,-0.4705061614513397,0.27093881368637085,-0.05329594761133194
1782836011607670800,9.0406708984375,-0.511425256729126,0.3739190399646759,-0.05889902263879776
1782836011617601000,9.05060107421875,-0.5234478712081909,0.4598882496356964,-0.06679476052522659
1782836011627530000,9.060530029296874,-0.510033130645752,0.5152578949928284,-0.07623156905174255
1782836011637460000,9.0704599609375,-0.5065323710441589,0.5368907451629639,-0.054634932428598404
1782836011647390000,9.080389892578125,-0.501033365726471,0.531129777431488,0.0029773004353046417
1782836011657319700,9.090319580078125,-0.49367374181747437,0.49985623359680176,0.10964834690093994
1782836011667249000,9.100248779296875,-0.49398499727249146,0.4807168245315552,0.24989181756973267
1782836011677179000,9.110178955078124,-0.49097877740859985,0.4536748230457306,0.41565895080566406
1782836011687109000,9.120109130859374,-0.49529358744621277,0.40180426836013794,0.5501018762588501
1782836011697037800,9.130037841796875,-0.49913284182548523,0.3381403684616089,0.5966432690620422
1782836011706967800,9.1399677734375,-0.458994597196579,0.32967451214790344,0.5488556623458862
1782836011716898000,9.14989794921875,-0.36760395765304565,0.31031814217567444,0.43473631143569946
1782836011726827000,9.159826904296875,-0.2533291280269623,0.24087831377983093,0.2845974266529083
1782836011736756700,9.1697568359375,-0.17095622420310974,0.13879641890525818,0.1567409336566925
1782836011746687000,9.17968701171875,-0.13659639656543732,-0.008292843587696552,0.06747060269117355
1782836011756616000,9.189615966796875,-0.1585823893547058,-0.19076783955097198,0.006707916036248207
1782836011766546000,9.1995458984375,-0.2189922332763672,-0.34008336067199707,-0.06341991573572159
1782836011776476000,9.209475830078125,-0.2946624755859375,-0.4564563035964966,-0.15140143036842346
1782836011786406000,9.219406005859375,-0.3646166920661926,-0.5406060218811035,-0.25095364451408386
1782836011796335000,9.229335205078126,-0.404716432094574,-0.5513314008712769,-0.3215194046497345
1782836011806264800,9.239264892578126,-0.4095000624656677,-0.5016466975212097,-0.3511151075363159
1782836011816195000,9.249195068359375,-0.39165690541267395,-0.3882730007171631,-0.3385348618030548
1782836011826124000,9.2591240234375,-0.334157794713974,-0.24072390794754028,-0.2930563688278198
1782836011836053800,9.2690537109375,-0.2556246221065521,-0.10755281150341034,-0.21674750745296478
1782836011845984000,9.27898388671875,-0.1745382696390152,0.00573858805000782,-0.14635086059570312
1782836011855913000,9.288912841796876,-0.11859564483165741,0.0904228463768959,-0.1166217178106308
1782836011865843000,9.298843017578125,-0.0747656300663948,0.12043501436710358,-0.10377299785614014
1782836011875773000,9.30877294921875,-0.03892933949828148,0.12043367326259613,-0.09103989601135254
1782836011885702000,9.318701904296875,-0.014287474565207958,0.07752039283514023,-0.07319626957178116
1782836011895632000,9.3286318359375,-0.009796853177249432,0.019924473017454147,-0.05328567698597908
1782836011905561900,9.338561767578126,-0.022004250437021255,-0.027095234021544456,-0.04066549241542816
1782836011915491800,9.348491943359376,-0.048915982246398926,-0.0373399518430233,-0.041086435317993164
1782836011925421000,9.358421142578125,-0.09460890293121338,-0.02030184678733349,-0.06049448996782303
1782836011935350800,9.368350830078125,-0.16130715608596802,-0.029010269790887833,-0.10765673220157623
1782836011945280800,9.37828076171875,-0.21770945191383362,-0.05202637240290642,-0.1683501899242401
1782836011955210000,9.3882099609375,-0.2609403133392334,-0.12169040739536285,-0.2596348822116852
1782836011965140000,9.398139892578126,-0.28186503052711487,-0.223798930644989,-0.3516274094581604
1782836011975070000,9.408070068359375,-0.2696652114391327,-0.3239635229110718,-0.4095943868160248
1782836011984999000,9.4179990234375,-0.24292199313640594,-0.42327040433883667,-0.4097067713737488
1782836011994929000,9.427928955078125,-0.22317609190940857,-0.48737019300460815,-0.33494871854782104
1782836012004859000,9.43785888671875,-0.21691979467868805,-0.4804750084877014,-0.22977890074253082
1782836012014787800,9.447787841796876,-0.21563073992729187,-0.43929070234298706,-0.1351335048675537
1782836012024717800,9.4577177734375,-0.21224373579025269,-0.37604278326034546,-0.08078132569789886
1782836012034646800,9.467646728515625,-0.19975805282592773,-0.296872079372406,-0.06872826814651489
1782836012044575700,9.47757568359375,-0.1778482347726822,-0.22996070981025696,-0.07588551193475723
1782836012054505700,9.487505615234374,-0.14281712472438812,-0.1776685118675232,-0.07430700957775116
1782836012064435700,9.497435791015626,-0.10238288342952728,-0.1426095962524414,-0.0583496131002903
1782836012074366000,9.507365966796876,-0.07607250660657883,-0.13133862614631653,-0.013370383530855179
1782836012084295000,9.517294921875,-0.0699395090341568,-0.13352374732494354,0.04894092679023743
1782836012094224600,9.527224609375,-0.08850745856761932,-0.1684540957212448,0.12164997309446335
1782836012104155000,9.53715478515625,-0.1308104395866394,-0.24539043009281158,0.18179212510585785
1782836012114083800,9.547083740234376,-0.17909830808639526,-0.2990019619464874,0.20126019418239594
1782836012124013600,9.557013671875,-0.21866142749786377,-0.31390368938446045,0.18647858500480652
1782836012133943800,9.56694384765625,-0.2508883774280548,-0.3119223713874817,0.14405126869678497
1782836012143872800,9.576872802734375,-0.2754901349544525,-0.2789660096168518,0.08434347063302994
1782836012153802800,9.586802734375,-0.28454652428627014,-0.2302670180797577,0.038783587515354156
1782836012163732700,9.596732666015624,-0.2972860336303711,-0.1908101588487625,0.00964674074202776
1782836012173661700,9.60666162109375,-0.3027343451976776,-0.17851366102695465,0.003195103257894516
1782836012183592000,9.616592041015625,-0.28948405385017395,-0.1924542486667633,0.01712716370820999
1782836012193521700,9.626521728515625,-0.27380576729774475,-0.21207569539546967,0.03985380753874779
1782836012203452000,9.636451904296875,-0.2516935467720032,-0.24720704555511475,0.0676518902182579
1782836012213380900,9.646380859375,-0.2198227047920227,-0.2515839636325836,0.08373764902353287
1782836012223310600,9.656310546875,-0.16819413006305695,-0.2085517942905426,0.0924440547823906
1782836012233240800,9.66624072265625,-0.12056282162666321,-0.14821413159370422,0.10529667139053345
1782836012243169800,9.676169677734375,-0.059418242424726486,-0.06341242790222168,0.14248691499233246
1782836012253099800,9.686099853515625,0.02871682681143284,-0.0008781645447015762,0.18024711310863495
1782836012263029800,9.69602978515625,0.1087283045053482,-0.009151274338364601,0.2082473188638687
1782836012272958700,9.705958740234376,0.1875312477350235,-0.07799912244081497,0.24589164555072784
1782836012282889000,9.715888916015626,0.23768523335456848,-0.21880391240119934,0.2627936601638794
1782836012292818700,9.725818603515625,0.27024391293525696,-0.330361932516098,0.25942692160606384
1782836012302747600,9.73574755859375,0.25786128640174866,-0.4227730631828308,0.2476869374513626
1782836012312678000,9.745677978515625,0.2114831507205963,-0.5354135036468506,0.22592875361442566
1782836012322607900,9.75560791015625,0.18789713084697723,-0.632656991481781,0.25356972217559814
1782836012332537900,9.765537841796874,0.16049030423164368,-0.6837723851203918,0.29896578192710876
1782836012342466800,9.775466796875,0.10800100117921829,-0.7357937693595886,0.3203027546405792
1782836012352396800,9.785396728515625,0.03397386893630028,-0.7505868077278137,0.3074702322483063
1782836012362326800,9.795326904296875,-0.024334445595741272,-0.7052115797996521,0.2745823264122009
1782836012372255700,9.805255859375,-0.06458999216556549,-0.5984552502632141,0.24028584361076355
1782836012382185700,9.815185791015624,-0.08503055572509766,-0.4411452114582062,0.21034260094165802
1782836012392115700,9.82511572265625,-0.11097311973571777,-0.23282533884048462,0.18513813614845276
1782836012402044700,9.835044677734375,-0.1378590613603592,-0.025627152994275093,0.1392342895269394
1782836012411974700,9.844974609375,-0.17036575078964233,0.13441182672977448,0.0678226426243782
1782836012421905000,9.85490478515625,-0.21105219423770905,0.27632206678390503,-0.01438167691230774
1782836012431833900,9.864833740234374,-0.2745439410209656,0.37265416979789734,-0.05360012128949165
1782836012441763800,9.874763916015626,-0.3126450181007385,0.4238630533218384,-0.010165562853217125
1782836012451693800,9.88469384765625,-0.31728237867355347,0.3338729739189148,0.10527980327606201
1782836012461622800,9.894622802734375,-0.2596489191055298,0.21002346277236938,0.27702653408050537
1782836012471552800,9.904552734375,-0.16189368069171906,0.18320819735527039,0.46308526396751404
1782836012481482800,9.914482666015624,-0.07702326774597168,0.22699721157550812,0.5820646286010742
1782836012491413000,9.9244130859375,-0.016870293766260147,0.26550596952438354,0.5554416179656982
1782836012501342700,9.9343427734375,-0.0032812468707561493,0.2501829266548157,0.3965803384780884
1782836012511272700,9.944272705078125,-0.038695164024829865,0.1773047298192978,0.1829170435667038
1782836012521202700,9.95420263671875,-0.153703510761261,0.10285632312297821,-0.019580669701099396
1782836012531131600,9.964131591796875,-0.3161803185939789,0.03330334648489952,-0.18847674131393433
1782836012541062000,9.974061767578124,-0.47040125727653503,-0.011376658454537392,-0.30980998277664185
1782836012550992000,9.983991943359374,-0.5292667150497437,-0.02786322310566902,-0.4319777190685272
1782836012560921600,9.993921630859376,-0.4445982277393341,-0.017358485609292984,-0.5229125618934631
1782836012570850800,10.003850830078125,-0.23967063426971436,0.05964042618870735,-0.5254084467887878
1782836012580780800,10.01378076171875,0.02463793382048607,0.1445939987897873,-0.4362586736679077
1782836012590710800,10.023710693359375,0.2747012972831726,0.24928739666938782,-0.3129255771636963
1782836012600639700,10.0336396484375,0.48965996503829956,0.3851924240589142,-0.19614823162555695
1782836012610569700,10.04356982421875,0.7000762820243835,0.5355275869369507,-0.05763775482773781
1782836012620500000,10.0535,0.841202974319458,0.6375073790550232,0.08719513565301895
1782836012630428700,10.0634287109375,0.843450129032135,0.6522546410560608,0.18962377309799194
1782836012640358700,10.073358642578125,0.7122542858123779,0.6533735394477844,0.22463993728160858
1782836012650289000,10.083288818359375,0.5227466821670532,0.6293678283691406,0.20795948803424835
1782836012660217900,10.0932177734375,0.3310609757900238,0.6312022805213928,0.177212193608284
1782836012670147600,10.103147705078126,0.14610284566879272,0.5873339176177979,0.11441511660814285
1782836012680077800,10.113077880859375,0.03327593952417374,0.5000065565109253,-0.011798091232776642
1782836012690006800,10.1230068359375,0.017429333180189133,0.40418386459350586,-0.16445474326610565
1782836012699936800,10.132936767578125,0.06237763166427612,0.31319111585617065,-0.30398282408714294
1782836012709866800,10.14286669921875,0.1514475792646408,0.39985382556915283,-0.25333428382873535
1782836012719796700,10.152796630859376,0.1415211707353592,0.3127638101577759,-0.02666717953979969
1782836012729726000,10.162725830078125,0.16122616827487946,-0.028556490316987038,0.1651448756456375
1782836012739655700,10.17265576171875,0.23040719330310822,-0.13645894825458527,0.19435757398605347
1782836012749586000,10.1825859375,0.25318413972854614,-0.0005186842754483223,0.04614679515361786
1782836012759515000,10.192514892578124,0.15939019620418549,0.28607356548309326,-0.1848316639661789
1782836012769444600,10.202444580078126,-0.05599162355065346,0.7205376625061035,-0.44813254475593567
1782836012779374800,10.212374755859376,-0.2954549193382263,1.1269521713256836,-0.5989949107170105
1782836012789303800,10.2223037109375,-0.465390682220459,1.2104684114456177,-0.5853859186172485
1782836012799233800,10.23223388671875,-0.47393161058425903,0.7572927474975586,-0.5230395793914795
1782836012809163800,10.242163818359375,-0.30670347809791565,0.08567069470882416,-0.49272850155830383
1782836012819092700,10.2520927734375,-0.04399164393544197,-0.2675495743751526,-0.5479040145874023
1782836012829023000,10.26202294921875,0.1701592653989792,-0.2476658672094345,-0.6660687327384949
1782836012838952700,10.27195263671875,0.3439822793006897,-0.16818365454673767,-0.6660154461860657
1782836012848881700,10.281881591796875,0.39714616537094116,-0.21713308990001678,-0.4615064561367035
1782836012858812000,10.29181201171875,0.28853464126586914,-0.25737497210502625,-0.08884297311306
1782836012868741600,10.30174169921875,0.12692230939865112,-0.04275960102677345,0.3151521682739258
1782836012878670600,10.311670654296876,0.07337598502635956,0.27228230237960815,0.5756539106369019
1782836012888600800,10.321600830078125,0.15871989727020264,0.4507303237915039,0.6253445148468018
1782836012898530800,10.33153076171875,0.3057669997215271,0.38074392080307007,0.5049759745597839
1782836012908460800,10.341460693359375,0.3957059383392334,0.22597642242908478,0.3141098916530609
1782836012918389800,10.3513896484375,0.41883939504623413,0.07510790973901749,0.1412656009197235
1782836012928319700,10.36131982421875,0.44308480620384216,-0.05839821696281433,0.006762915290892124
1782836012938249700,10.371249755859376,0.49857786297798157,-0.121246837079525,-0.04946569353342056
1782836012948178700,10.3811787109375,0.5401849150657654,-0.15603838860988617,-0.03947431221604347
1782836012958108700,10.391108642578125,0.5608071088790894,-0.17859019339084625,0.0162989292293787
1782836012968039000,10.401038818359375,0.5735580921173096,-0.17524392902851105,0.1143202930688858
1782836012977967600,10.410967529296874,0.594832718372345,-0.09327363967895508,0.28126975893974304
1782836012987897900,10.42089794921875,0.5895196795463562,0.10610684752464294,0.4585159122943878
1782836012997827800,10.430827880859376,0.5323436856269836,0.31257864832878113,0.5664889812469482
1782836013007756800,10.4407568359375,0.5020582675933838,0.4517357349395752,0.5475491285324097
1782836013017686800,10.450686767578125,0.5444923639297485,0.5043947100639343,0.3980219066143036
1782836013027616800,10.46061669921875,0.6341111660003662,0.37640291452407837,0.2034151256084442
1782836013037542100,10.470542236328125,0.7042599320411682,0.17647020518779755,0.052251026034355164
1782836013047472000,10.48047216796875,0.7000241875648499,-0.03599385544657707,-0.014180460013449192
1782836013057402000,10.490402099609375,0.6484964489936829,-0.19840718805789948,-0.0014422009699046612
1782836013067331000,10.5003310546875,0.5713699460029602,-0.29984191060066223,0.014301875606179237
1782836013077261300,10.51026123046875,0.4810672402381897,-0.3261297941207886,0.005218208767473698
1782836013087191000,10.52019091796875,0.36902859807014465,-0.2395557463169098,-0.025035301223397255
1782836013097121000,10.53012109375,0.2659829556941986,-0.06222156435251236,-0.043512359261512756
1782836013107050200,10.54005029296875,0.18192265927791595,0.11078643053770065,-0.0492570661008358
1782836013116980000,10.54997998046875,0.14898906648159027,0.22074812650680542,-0.04740754887461662
1782836013126910200,10.55991015625,0.1708861142396927,0.3069186806678772,-0.04618702083826065
1782836013136839200,10.569839111328125,0.22236089408397675,0.37556061148643494,-0.09489284455776215
1782836013146769200,10.57976904296875,0.3169694244861603,0.4614875018596649,-0.12305682897567749
1782836013156699100,10.58969921875,0.4358697831630707,0.6274518966674805,-0.10474219173192978
1782836013166628000,10.599628173828124,0.5238084197044373,0.7848796248435974,-0.07626260817050934
1782836013176558000,10.60955810546875,0.5625395178794861,0.8365067839622498,0.20157141983509064
1782836013186488000,10.619488037109376,0.3819553852081299,0.23906280100345612,0.5489158034324646
1782836013196417000,10.6294169921875,0.35246288776397705,-0.6600515842437744,0.5743930339813232
1782836013206347000,10.639346923828125,0.5222194194793701,-0.9421514272689819,0.3221173584461212
1782836013216277200,10.64927734375,0.6883445382118225,-0.6484556794166565,0.10326632857322693
1782836013226206000,10.6592060546875,0.6653254628181458,-0.13676364719867706,-0.03989562392234802
1782836013236136200,10.66913623046875,0.47318828105926514,0.36079642176628113,-0.05220929905772209
1782836013246066200,10.679066162109375,0.3191984295845032,0.5793276429176331,0.1284632831811905
1782836013255995100,10.6889951171875,0.2702854871749878,0.4244592785835266,0.3336576223373413
1782836013265925000,10.698925048828125,0.31139057874679565,0.07484374195337296,0.4091750383377075
1782836013275855000,10.708855224609374,0.3984025716781616,-0.24242860078811646,0.24460183084011078
