time,seconds_elapsed,z,y,x
1782829448903489300,0.0824892578125,-0.08230185111165046,-0.007818135538185014,0.013866941582597792
1782829448913418500,0.09241845703125,-0.08170446974039078,-0.014682189788506366,0.01194563639750704
1782829448923347500,0.102347412109375,-0.08095861980915069,-0.014244414859171956,-0.009538693986786528
1782829448933275400,0.112275390625,-0.07826631198525429,-0.0227604512673337,-0.008820818907860666
1782829448943204400,0.122204345703125,-0.0748234780550003,-0.01923821825820487,-0.011300744356401264
1782829448953133300,0.13213330078125,-0.06719079121947288,-0.014329508459893985,-0.0032021113764028994
1782829448963061200,0.142061279296875,-0.0644973143517971,-0.00830583229016047,0.006162623416120186
1782829448972990500,0.151990478515625,-0.07317337276041508,-0.014294889237661845,0.006472082090936601
1782829448982919400,0.16191943359375,-0.07316986562907696,-0.010960657647880725,0.012064367406349629
1782829448992847400,0.171847412109375,-0.0736164403527975,-0.01643963933152845,-0.002337402572156861
1782829449002776300,0.1817763671875,-0.06179390061199665,-0.015322369121876544,-0.0025910211401991546
1782829449012705500,0.19170556640625,-0.06792728880047798,-0.016894573174929244,-0.013894806837057693
1782829449022634500,0.201634521484375,-0.07226677930951118,-0.012284750425070523,-0.010563306060479954
1782829449032562400,0.2115625,-0.0692728581905365,-0.00818157800611807,0.0014496508190408347
1782829449042491400,0.221491455078125,-0.08318389464318751,0.005872323816211428,0.006344711117912083
1782829449052420400,0.23142041015625,-0.07540040116012096,0.0015400918817380443,0.004115244165947661
1782829449062348300,0.241348388671875,-0.08059913884699345,-0.011126186940516345,-0.010020257825497538
1782829449072273200,0.251273193359375,-0.07138005960285664,0.004113821677130181,-0.013826362977037205
1782829449082202000,0.2612021484375,-0.07883271369636058,-0.00415178820049623,-0.020407248337846247
1782829449092131000,0.271131103515625,-0.07564180870056152,0.003544181121099973,-0.011091759514529257
1782829449102059000,0.28105908203125,-0.07966273477971553,0.0061446185436157975,0.003799154820945114
1782829449111988000,0.290988037109375,-0.08580956697165966,0.0029915875979932022,0.010542181074060498
1782829449121917200,0.300917236328125,-0.07595394338965415,-0.00033268885335419323,0.011287546948110684
1782829449131845000,0.31084521484375,-0.08224924414157866,0.0040822346622007896,0.002971645355084911
1782829449141774000,0.320774169921875,-0.07850713500380516,0.0060173126443172804,0.000021764307236298916
1782829449151703000,0.330703125,-0.07445639830827712,-0.0030347508862847462,-0.005125197526626288
1782829449161631200,0.34063134765625,-0.07847732438743114,-0.0032654018539818933,-0.006097933282610029
1782829449171560000,0.350559814453125,-0.0796639038234949,-0.004932515365583822,-0.00580809262371622
1782829449181489200,0.3604892578125,-0.07697451860904693,0.0014679833434638567,0.006804958173958584
1782829449191418000,0.370418212890625,-0.06157061325013637,0.004849686787184328,0.01500327953561209
1782829449201346000,0.380345947265625,-0.08402443712055682,0.006840253249625675,0.013970374557608738
1782829449211275000,0.39027490234375,-0.0759475136488676,0.011564952817116864,0.01150564667819999
1782829449221204000,0.400203857421875,-0.07983984491229057,0.0022596086451900192,-0.005172324603982269
1782829449231132200,0.410132080078125,-0.07475041281878948,0.0032656347494223153,-0.005031372630177065
1782829449241061000,0.42006103515625,-0.074296239310503,0.0004604023196734488,-0.0036095140003599225
1782829449250990000,0.429989990234375,-0.07160042435526848,-0.0052959258674760345,-0.0031089623333886264
1782829449260918000,0.43991796875,-0.07699205426573753,0.004865156067663337,0.006389372243545949
1782829449270847000,0.449846923828125,-0.07236088733375072,0.0045482515886193136,0.017706766340648755
1782829449280776200,0.459776123046875,-0.08194353919327259,0.004441348014888353,0.015001233708998188
1782829449290705200,0.469705078125,-0.0791068544626236,-0.002556865425559226,0.00034280382199212907
1782829449300633000,0.479633056640625,-0.07266834584772586,0.00010199906975030899,-0.008774029757222161
1782829449310562000,0.48956201171875,-0.0753594846278429,-0.008370725636358838,-0.014679774069134146
1782829449320491000,0.499490966796875,-0.08313947097957133,-0.002254153868649155,-0.00019402473475784061
1782829449330419000,0.5094189453125,-0.07864858930110931,0.005281767194671556,-0.004232175943348557
1782829449340348200,0.51934814453125,-0.0789496180742979,-0.0007592482689302414,0.0013574242246337234
1782829449350277000,0.529277099609375,-0.07701134348809718,-0.0026390113006578755,0.012178120845975353
1782829449360205000,0.539205078125,-0.07177928805351257,0.0038757134887622666,-0.0006808036047033965
1782829449370134000,0.549134033203125,-0.08539455642998219,0.0009375023291097022,0.0037460181279107925
1782829449380063000,0.55906298828125,-0.08434417059421538,-0.009247729949885979,-0.010933847272768617
1782829449389992200,0.5689921875,-0.08239245200455188,0.0008850118067581206,-0.019001409261068327
1782829449399920000,0.578920166015625,-0.08164367946386336,-0.0032726238959236067,-0.0005542637487407773
1782829449409849000,0.58884912109375,-0.08074351575374603,-0.0019052308331243694,0.004023172835167497
1782829449419778000,0.598778076171875,-0.07520575537085533,0.0037903070774977093,0.014550585598358883
1782829449429706000,0.6087060546875,-0.07685469162166118,0.006223865783796645,0.005040021727513521
1782829449439635200,0.61863525390625,-0.08463584701716899,-0.0006383024701150134,-0.003033065819274634
1782829449449564200,0.628564208984375,-0.07296411392390728,-0.0052814178515109235,-0.004202575389528647
1782829449459492000,0.6384921875,-0.06847147867977618,-0.0035302176694734953,-0.004208621537825093
1782829449469421000,0.648421142578125,-0.07639701098203659,0.001864006056881044,-0.00303735840190202
1782829449479350000,0.65835009765625,-0.07400105575621127,0.0019927995187230406,0.006232912173354998
1782829449489279200,0.668279296875,-0.07145721649229526,0.00025513467169366777,0.0038376602004282175
1782829449499207200,0.678207275390625,-0.08298165006935596,-0.0007772816825425252,0.007811778862634673
1782829449509136100,0.68813623046875,-0.07774433393776416,0.0011682537615066394,0.003195325442589819
1782829449519065000,0.698065185546875,-0.0768447547495365,0.0019530040811630896,0.0033345238507259635
1782829449528993000,0.707992919921875,-0.06741641666889191,-0.002930251615482848,-0.0173744199805893
1782829449538922000,0.717921875,-0.08507306939065457,-0.0005516470999689773,0.006588210150739178
1782829449548851200,0.727851318359375,-0.07848726125955581,0.003054798160470091,-0.0023919183715246616
1782829449558779100,0.737779052734375,-0.0716039314866066,0.0020300445228815076,-0.00792442719056271
1782829449568708000,0.7477080078125,-0.06980828024148941,0.00024699474772205577,0.019160454013990236
1782829449578637000,0.757636962890625,-0.07998480634093284,0.005534876589349005,0.0034642237781547006
1782829449588566000,0.76756591796875,-0.07654372597634791,0.0011921757764997891,-0.0013713522852864116
1782829449598494000,0.777493896484375,-0.08088321648538112,0.0011225811390089802,-0.00436110868579708
1782829449608423200,0.787423095703125,-0.07609013698995112,0.0029022082645096814,-0.009214667930500582
1782829449618352000,0.79735205078125,-0.07369710437357425,0.008618973909539637,-0.0015502707824576645
1782829449628280000,0.807280029296875,-0.07893325146138667,0.005302930996997747,-0.004860217314353213
1782829449638209000,0.817208984375,-0.07578852369487285,0.000667887040914502,0.005807654232298955
1782829449648138000,0.827137939453125,-0.07818564796447754,-0.009119660290540196,0.009039083034731447
1782829449658067200,0.837067138671875,-0.07294950087666512,-0.0014472077002050355,0.0003380545816384256
1782829449667995100,0.8469951171875,-0.07190262217223643,0.00024123857708182185,-0.01018459980804473
1782829449677924000,0.856924072265625,-0.08058218771219253,-0.0016671454776427707,-0.006809543017530813
1782829449687853000,0.86685302734375,-0.07983166160583495,-0.0009198730575852096,-0.0024227701675146817
1782829449697781000,0.876781005859375,-0.06875789440572261,-0.002632113485701848,0.006656580945523455
1782829449707710200,0.886710205078125,-0.08222410970032215,-0.007130669297254644,0.004844928413676098
1782829449717639200,0.89663916015625,-0.08162672832906245,-0.006555081915983464,-0.001862104077450931
1782829449727567000,0.906567138671875,-0.08132979120910168,0.001494364460313227,0.006769950792659074
1782829449737496000,0.91649609375,-0.07010813997089863,-0.00019469830490415914,0.010572201752988621
1782829449747425000,0.926425048828125,-0.06426993533670902,0.0004960855544079095,0.0017698957493528724
1782829449757354200,0.936354248046875,-0.07564063965678215,-0.0011459391817101277,-0.008695484628295525
1782829449767282200,0.9462822265625,-0.07818389439880848,0.003720984151354059,-0.004022816642140969
1782829449777211100,0.956211181640625,-0.07788695727884769,0.0017247916657244786,-0.012150593518232927
1782829449787140000,0.96614013671875,-0.08536942198872566,-0.005537228376639541,-0.0032640706967096774
1782829449797068000,0.976068115234375,-0.07773673515319823,0.0005016796115553006,0.009407386624161154
1782829449806997000,0.9859970703125,-0.0769891316562891,0.006437083842791617,0.008935969720128924
1782829449816926200,0.99592626953125,-0.08372223930358887,0.006224715167167596,0.006574528685258701
1782829449826854100,1.005854248046875,-0.07324877608418465,0.0010581147677847184,0.004877305446472018
1782829449836783000,1.015783203125,-0.06905775413513184,-0.00041419312434736637,-0.005526499203359708
1782829449846712000,1.025712158203125,-0.07653963432312011,0.0022786878049955704,0.004944753792649134
1782829449856641000,1.03564111328125,-0.07055179208517075,-0.005317391063901595,0.007699495860887691
1782829449866569000,1.04556884765625,-0.08117372386455536,0.00005052461083978414,0.006263763969345018
1782829449876498200,1.055498291015625,-0.08057751153707504,0.005300478745007421,0.0036443387185689058
1782829449886427100,1.06542724609375,-0.07968143948018551,0.008014649057551287,-0.0009992219041101635
1782829449896355000,1.07535498046875,-0.07713818473815917,0.0036452657337533306,-0.005868892033398151
1782829449906284000,1.085283935546875,-0.07579261534810065,0.0018606541891698725,-0.0032862185964360833
1782829449916213200,1.095213134765625,-0.07818564796447754,0.009502270966535433,0.002183837711950764
1782829449926141200,1.10514111328125,-0.0826747760772705,0.0018995956767816095,0.002777127429982647
1782829449936070100,1.115070068359375,-0.07668868740499019,0.0049860721837263556,0.004582688147760927
1782829449945999000,1.1249990234375,-0.06591594897806644,-0.0008078389342990704,0.011431795990699902
1782829449955928000,1.134927978515625,-0.0669634122043848,0.0008524795103352517,-0.0024574487552512436
1782829449965856000,1.14485595703125,-0.0687584789276123,0.004246377998637035,0.0016206691375467925
1782829449975785200,1.15478515625,-0.07369418176412582,0.006070784980780445,-0.0017739234704989939
1782829449985714200,1.164714111328125,-0.07788111205995082,-0.0049173908616881815,-0.0040358953194227064
1782829449995642000,1.17464208984375,-0.08072422653138638,-0.00399426640109159,-0.004317726201796904
1782829450005571000,1.184571044921875,-0.08252046229839324,0.007944650277972686,0.014776402844022958
1782829450015500000,1.1945,-0.07907821289002895,-0.0010661816265201195,0.0037649785567075013
1782829450025428000,1.204427978515625,-0.07473989142477512,-0.012248528334219008,0.009790906049031763
1782829450035357200,1.214357177734375,-0.07159633270204067,-0.0034568898550700394,0.0033877884079236537
1782829450045286100,1.2242861328125,-0.07144786414206028,-0.0014675221191602758,0.005996299539040774
1782829450055215000,1.234215087890625,-0.07593699225485324,0.0028679018528200684,-0.0005622095931787043
1782829450065143300,1.244143310546875,-0.0721966366827488,-0.0038965416476596146,-0.0042093156575690955
1782829450075072500,1.254072509765625,-0.07174713934957981,0.0005232544058351778,0.0033468718756455925
1782829450085001500,1.26400146484375,-0.0742921476572752,0.0021808192043798044,0.0038645299410447476
1782829450094929400,1.273929443359375,-0.06965104385316372,0.0005984956161119043,0.008097482202528044
1782829450104858400,1.2838583984375,-0.07533902636170386,-0.004972849659260828,0.006542233850853518
1782829450114787300,1.293787353515625,-0.07129939558207989,-0.008641676648403518,0.005582732035778463
1782829450124715300,1.30371533203125,-0.07279635614156722,0.004447127018414903,0.00210236084042117
1782829450134644500,1.31364453125,-0.07713584665060043,0.0013431765035726128,0.00015292553938925265
1782829450144573400,1.323573486328125,-0.06905366248190403,0.003941291821550112,0.0016687917287461459
1782829450154502400,1.33350244140625,-0.07429097861349582,0.00026416736152023074,0.009894320757733657
1782829450164430300,1.343430419921875,-0.07728431521058082,-0.007096520432480611,0.00834490849180147
1782829450174359300,1.353359375,-0.0638175153940916,0.0022788978675496764,0.00579003637721762
1782829450184288500,1.36328857421875,-0.07354454416036606,0.004580898049473763,-0.002369898335961625
1782829450194216400,1.373216552734375,-0.0832715729266405,0.0021754831588477828,-0.0033129056739620863
1782829450204145400,1.3831455078125,-0.0715992553114891,0.0016906656338367611,0.0007755235502962022
1782829450214074400,1.393074462890625,-0.0768365714430809,-0.0019697725528734734,-0.0013380619370378553
1782829450224002300,1.403002197265625,-0.08506722417175769,0.004677186614356469,-0.003342944619199261
1782829450233931300,1.41293115234375,-0.0792325266689062,0.0017288787523750215,0.003153888320503756
1782829450243860500,1.422860595703125,-0.07743862898945808,-0.003696310934401117,0.0007447813521604985
1782829450253789400,1.43278955078125,-0.08626724761128425,-0.00042252256127540017,0.005251161993853747
1782829450263717400,1.44271728515625,-0.07893500502705574,-0.0015997153977747075,-0.0005700915055349469
1782829450273646300,1.452646240234375,-0.07848784578144549,0.005460872921510599,0.007390110251307487
1782829450283575300,1.4625751953125,-0.06771393831074238,0.0016678464472526684,0.0015713683694135398
1782829450293503500,1.47250341796875,-0.0768412476181984,0.006603882643906399,-0.004521368148270994
1782829450303432400,1.482432373046875,-0.08551847507059573,-0.0003579100595787167,0.010767322466289624
1782829450313361400,1.492361328125,-0.06965747359395026,-0.0037750729757477525,0.000544135080371052
1782829450323290400,1.502290283203125,-0.0669634122043848,0.0032318078283453356,0.002550040675839409
1782829450333218300,1.51221826171875,-0.06516776095926761,0.0013225903732702136,0.004303715942753478
1782829450343147500,1.5221474609375,-0.0825268920391798,0.0023260295114829205,-0.00583313573342748
1782829450353076500,1.532076416015625,-0.07744096707701682,-0.006938462060247548,0.002288951187394559
1782829450363004400,1.54200439453125,-0.06771452283263206,-0.002154221175110433,0.006170404863776639
1782829450372933400,1.551933349609375,-0.06352466992735863,0.0030627782542374912,0.005789314858010038
1782829450382862300,1.5618623046875,-0.07759118920266628,0.006595612572482787,-0.0001337641811929643
1782829450392790300,1.571790283203125,-0.07175473813414573,-0.003327274409320671,0.00934296135213226
1782829450402719500,1.581719482421875,-0.07085749703347682,-0.001375708799995482,0.003763836912391707
1782829450412648400,1.5916484375,-0.0753460406243801,0.001075588775682263,0.01040805156668648
1782829450422577400,1.601577392578125,-0.07579495343565941,0.0010863636147347279,0.008614774941746145
1782829450432505300,1.61150537109375,-0.07384908006489277,-0.005524524158693384,0.008606545969517902
1782829450442434300,1.621434326171875,-0.07788871084451675,-0.0034758936663507483,-0.0016652480647899209
1782829450452363500,1.631363525390625,-0.08192892614603042,0.0014551329950452782,0.0014671682094223796
1782829450462291500,1.64129150390625,-0.08013327490091324,0.0023747708739014343,-0.00002956402120180428
1782829450472220400,1.651220458984375,-0.07145370936095714,0.0004107544916681945,0.004395175352180376
1782829450482149400,1.6611494140625,-0.07953472448587418,-0.006672876776487101,-0.0011701123584527521
1782829450492077300,1.671077392578125,-0.07998363729715346,0.0019590251132845875,0.0037884050980675965
1782829450502006300,1.68100634765625,-0.08656769186258316,0.004627741999039426,-0.0005402443565428257
1782829450511935500,1.690935546875,-0.07983458421528339,0.002128620942973066,0.004501850597048178
1782829450521864400,1.700864501953125,-0.07624328172504902,0.0007054174561519175,-0.0004396152599714696
1782829450531792400,1.71079248046875,-0.06921089887022971,0.0008522100822767242,0.0026283666090574113
1782829450541721300,1.720721435546875,-0.0828273362904787,-0.007524301407474558,0.003122159741679206
1782829450551650600,1.730650634765625,-0.06487023931741714,-0.004951032836386002,-0.00446966536049731
1782829450561578500,1.74057861328125,-0.07968436208963393,-0.0017038744585704988,0.0026956870910711584
1782829450571507500,1.750507568359375,-0.08177987306416035,-0.00016453149550361558,0.010740151331573725
1782829450581436400,1.7604365234375,-0.06352466992735863,0.0023996450202539562,0.0018973945865407584
1782829450591364400,1.7703642578125,-0.07190612930357455,0.004772415733314119,-0.005979384936857968
1782829450601293300,1.780293212890625,-0.07893851215839386,0.00046033153772586955,-0.0010247125383932142
1782829450611222500,1.790222412109375,-0.07399930219054221,-0.0013838304576580412,-0.01023751730537042
1782829450621151500,1.8001513671875,-0.07040741517841816,-0.0013436011952580884,-0.006731207951158284
1782829450631079400,1.810079345703125,-0.07235211950540542,0.0011135210497188381,0.0010609528955537826
1782829450641008400,1.82000830078125,-0.06696399672627448,-0.0022666640070616267,-0.010495391923421993
1782829450650937300,1.829937255859375,-0.06651566843688488,-0.0032017072343151084,0.0027764424433931708
1782829450660865300,1.839865234375,-0.07414660170674324,-0.0020659423867473376,0.004515440730983391
1782829450670794500,1.84979443359375,-0.08372340834736823,-0.007264673223753925,-0.004474542465014383
1782829450680723500,1.859723388671875,-0.06666530604064465,-0.0037359602414886463,0.0015029610420111566
1782829450690652400,1.86965234375,-0.07220189737975596,-0.0006758899675682186,-0.0018779592337086796
1782829450700580400,1.879580322265625,-0.07953297092020511,-0.001595653427299112,0.0006105057143140584
1782829450710509300,1.88950927734375,-0.07654080336689949,-0.0019407040053047238,-0.0028531152756419032
1782829450720438500,1.8994384765625,-0.07354805129170418,-0.0053547525157802735,-0.002421354528563097
1782829450730366500,1.909366455078125,-0.0702571930527687,0.0014171938711428082,0.006295958339050412
1782829450740295400,1.91929541015625,-0.07579495343565941,-0.00640576168934349,0.011124200479406862
1782829450750224400,1.929224365234375,-0.07788871084451675,-0.0012313707091496325,0.004149055104004219
1782829450760152300,1.93915234375,-0.08088204744160175,0.0012038639310048892,-0.0006277947758324444
1782829450770081500,1.94908154296875,-0.07639175028502941,0.004484630034188739,0.005292589982785284
1782829450780010500,1.959010498046875,-0.0720522597759962,0.0024501239653211084,-0.003501660578558221
1782829450789939500,1.968939453125,-0.07938450236022472,-0.0023153323042439293,-0.0009548895720392465
1782829450799867400,1.978867431640625,-0.08567103528380393,0.009025221189449074,0.000262724323105067
1782829450809796400,1.98879638671875,-0.07609364412128924,-0.0018852726071956567,-0.008651928614359348
1782829450819725600,1.9987255859375,-0.07175356909036636,-0.0004833493704209104,0.0003828801040537655
1782829450829653500,2.008653564453125,-0.0766921945363283,0.004882130035350565,-0.01087713951631449
1782829450839582500,2.01858251953125,-0.07848843030333519,-0.0006035257009672932,-0.0006071721129119396
1782829450849511400,2.028511474609375,-0.07459843712747097,0.002643616693827789,0.003501322651840746
1782829450859439400,2.038439453125,-0.0775906046807766,0.0021386605630861594,0.004882346947770565
1782829450869368300,2.048368408203125,-0.08252981464862823,-0.007290008594410028,0.0014982209348119795
1782829450879297500,2.058297607421875,-0.08133212929666042,0.0009259648716542869,0.0036063539288938044
1782829450889226500,2.0682265625,-0.06681552816629409,-0.009270012563641648,-0.0004488032134249806
1782829450899154400,2.078154541015625,-0.07414893979430198,-0.004908435803675093,0.004871451094420626
1782829450909083400,2.08808349609375,-0.06935936743021011,-0.0009135346483439207,-0.0031217030839528885
1782829450919012400,2.098012451171875,-0.06606734014749527,0.0028749229653622023,-0.0034185671386774627
1782829450928940300,2.107940185546875,-0.08147942881286144,0.01021767781045055,0.00217240300248377
1782829450938869500,2.117869384765625,-0.08567045076191425,0.00303735840190202,-0.001916638143127784
1782829450948798500,2.127798583984375,-0.07878712098896502,-0.008267498157324735,-0.003313179668597877
1782829450958727400,2.1377275390625,-0.07384908006489277,-0.014159809882217086,-0.004174518338823691
1782829450968655400,2.1476552734375,-0.07489537424743176,-0.004813295732974074,-0.0018630265260580925
1782829450978584600,2.15758447265625,-0.06980711119771003,0.0018087847213260828,0.01046357201305218
1782829450988513500,2.167513427734375,-0.07100479654967784,0.0031459401927771977,0.0038201702095102515
1782829450998441500,2.17744140625,-0.0781868170082569,-0.007682483077293727,0.0008758512527681886
1782829451008370400,2.187370361328125,-0.08282558272480964,-0.0031189973869244565,0.0001821242344100028
1782829451018299400,2.19729931640625,-0.07279810970723628,0.004146116511535365,-0.007760514466278254
1782829451028227300,2.207227294921875,-0.07773556610941887,-0.0010170977708068676,0.0010116977931931615
1782829451038156500,2.217156494140625,-0.06771043117940426,0.004157028347905725,0.005892336841067299
1782829451048085500,2.22708544921875,-0.07579027726054191,-0.008235822094138711,-0.007593825263017788
1782829451058014500,2.237014404296875,-0.06905658509135246,0.0027106038157013244,0.004387384771369397
1782829451067946500,2.246946533203125,-0.07159983983337878,-0.0005026226097601465,0.0014461436877027153
1782829451077875700,2.256875732421875,-0.07025134783387184,-0.003679974004242103,-0.0020269118508789686
1782829451087804700,2.2668046875,-0.08042728941142559,-0.00915924566554604,-0.0012861216872464864
1782829451097732600,2.276732666015625,-0.0747410604685545,-0.003659787449450232,-0.0030218411723617463
1782829451107661600,2.28666162109375,-0.07189677695333957,-0.0020759477575309575,0.006970624463912099
1782829451117590500,2.296590576171875,-0.08207213400900364,-0.000824847151315771,0.009239409646112471
1782829451127519500,2.30651953125,-0.06426350559592246,0.0029470155206159686,-0.0023147523489315063
1782829451137447700,2.31644775390625,-0.07503741306662559,0.0056093437647796235,0.00965298628252931
1782829451147376600,2.326376708984375,-0.07039864735007285,-0.005175943616463337,-0.00428087392328307
1782829451157305600,2.3363056640625,-0.05917641158998012,0.00330925926201744,0.009985323509434237
1782829451167233500,2.346233642578125,-0.08132336146831512,0.00014691364042228086,0.000515922766039148
1782829451177162800,2.356162841796875,-0.07967734782695769,0.0037249867563252334,0.0023331373889930547
1782829451187091700,2.366091796875,-0.06890460940003394,-0.009320811169117224,0.0005766308441758156
1782829451197019600,2.37601953125,-0.07025193235576152,-0.008581080451409798,-0.0006506733279209583
1782829451206948600,2.385948486328125,-0.07474164499044418,-0.0010508242271840573,-0.001004236005945131
1782829451216877600,2.395877685546875,-0.07578910821676253,0.0002956744613475166,0.002818180959578603
1782829451226806500,2.405806640625,-0.07758534398376941,0.0026603189501678568,0.00861959724733606
1782829451236734700,2.415734619140625,-0.08282207559347152,0.006427784008195158,0.005782684187823906
1782829451246663700,2.42566357421875,-0.0828232446372509,0.00017345458747586233,-0.0022369104729034004
1782829451256592600,2.435592529296875,-0.07698737809062003,0.004326299950608518,0.005220922119216993
1782829451266520600,2.4455205078125,-0.07444178526103497,-0.0001248296727775596,-0.0012715269063133746
1782829451276449500,2.455449462890625,-0.08147475263774394,0.003677359638758935,0.004548758478695527
1782829451286378500,2.46537841796875,-0.07070084516704082,0.0038476792709436266,0.0018629169282037763
1782829451296307500,2.475307373046875,-0.07638648958802223,-0.00271708150554914,-0.0005186261797789484
1782829451306235600,2.485235595703125,-0.07983107708394527,0.0012286924115847795,0.010508041342440991
1782829451316164600,2.49516455078125,-0.07175240004658699,0.004994766946835443,-0.0012913823842536658
1782829451326093300,2.50509326171875,-0.08043079654276371,0.0045058965845033525,-0.007273233272833749
1782829451336021500,2.515021484375,-0.07833762365579605,-0.006418381425610278,-0.0003831540986895561
1782829451345950700,2.52495068359375,-0.0698088647633791,-0.0000027376630692742763,-0.0012434698556084186
1782829451355879400,2.53487939453125,-0.07594459103941917,-0.0019090325086959636,0.007710090320138261
1782829451365807600,2.5448076171875,-0.07265314827859401,0.004331074307137169,-0.003275916398130357
1782829451375736600,2.554736572265625,-0.07310206108987331,0.0021927014384185892,-0.008817065181350335
1782829451385665500,2.56466552734375,-0.08118190717101097,-0.004739869737159461,0.004988620333839207
1782829451395594500,2.574594482421875,-0.07399930219054221,-0.008055300728348083,0.0054595075149089095
1782829451405522700,2.584522705078125,-0.08058101866841316,-0.00500276987348916,0.003451364296581596
1782829451415451600,2.59445166015625,-0.0733984136879444,0.0005986942622228526,0.004692696994030848
1782829451425380400,2.60438037109375,-0.0768412476181984,-0.00019460697335889563,0.003856437966134399
1782829451435308500,2.61430859375,-0.07833879269957542,0.007056599414045922,0.0033596308925189075
1782829451445237800,2.62423779296875,-0.07564531583189964,-0.0012054074341198429,0.0060310511920135465
1782829451455166500,2.63416650390625,-0.07400164027810097,0.0023043611023691483,0.005665396217396482
1782829451465095400,2.644095458984375,-0.07011281614601611,-0.0007120915088220499,0.001063035254785791
1782829451475023600,2.654023681640625,-0.07325520582497119,-0.0014123053501825778,0.003563172374293208
1782829451484952600,2.66395263671875,-0.07654781762957573,0.0038337443604250436,0.008332670064736158
1782829451494881500,2.673881591796875,-0.07205868951678275,0.00448473049888853,0.007107238189317286
1782829451504809700,2.683809814453125,-0.08223580013811588,-0.0008830162124941125,-0.001519382453849539
1782829451514738400,2.693738525390625,-0.07475508899390697,0.0011943517505656927,0.0032131168276071545
1782829451524667400,2.70366748046875,-0.0832850169301033,-0.009256812872062436,-0.0008574114137794822
1782829451534596400,2.713596435546875,-0.07984335204362869,-0.001542466501914896,0.0027058614252135154
1782829451544524500,2.723524658203125,-0.07969429896175861,0.005457982278103009,-0.0013983772895298898
1782829451554453500,2.73345361328125,-0.07311024439632892,0.001551044817303773,-0.0020080153541639444
1782829451564382500,2.743382568359375,-0.07535597749650477,-0.00338391595040448,-0.0006577606558334082
1782829451574310700,2.753310546875,-0.07505670228898524,0.000051239280181471254,-0.0009828004922717809
1782829451584239400,2.7632392578125,-0.07730243538916111,0.0019348450866760686,-0.0008077087868470698
1782829451594168300,2.773168212890625,-0.08314064002335071,0.0014366337905521503,0.0020237243799492714
1782829451604096800,2.7830966796875,-0.06533493421971798,0.008204858417005743,0.01137780991429463
1782829451614025500,2.793025390625,-0.0678781889617443,-0.0010984536280389875,0.0003707878074608743
1782829451623954400,2.802954345703125,-0.07775368628799915,-0.005897065531823318,-0.006633684127125889
1782829451633883400,2.81288330078125,-0.07101882507503032,0.002900637361931149,0.0024316658600233494
1782829451643811600,2.8228115234375,-0.08658055134415626,0.003854686683753971,0.010580275461589917
1782829451653740500,2.832740478515625,-0.07206511925756931,-0.00001496010711416602,0.002525399424927309
1782829451663669500,2.84266943359375,-0.08044307150244713,0.001563509289943613,-0.0011540928054135293
1782829451673597700,2.85259765625,-0.0738607705026865,-0.004636843187524936,-0.002322615994978696
1782829451683526400,2.8625263671875,-0.0811935976088047,0.001935285761381965,-0.003880430763075128
1782829451693455400,2.872455322265625,-0.07520750893652439,0.004565232406172436,-0.00415260790111497
1782829451703384600,2.882384521484375,-0.08089432240128516,-0.002990996226237621,-0.007626485423604026
1782829451713312500,2.8923125,-0.0868798265516758,-0.0008913479327107779,-0.00478850378501229
1782829451723241500,2.902241455078125,-0.07595920408666133,-0.00048040849466342474,-0.0023190175320953127
1782829451733170400,2.91217041015625,-0.08523790456354617,0.004537917424272745,0.001349935037922114
1782829451743098600,2.9220986328125,-0.07102291672825813,-0.003013831395842135,0.0021574520285241303
1782829451753027300,2.93202734375,-0.0710240857720375,0.0004433073376887478,-0.0010995952723547816
1782829451762956500,2.94195654296875,-0.08179799324274063,-0.004403577854344621,-0.004247081251535565
1782829451772884500,2.951884521484375,-0.08449030106663703,-0.0011896230598096736,0.002410559139912948
1782829451782813400,2.9618134765625,-0.07057166582942008,-0.001300579470861703,-0.0025069504527840763
1782829451792742400,2.971742431640625,-0.07341478030085563,-0.005645077231863979,0.0006461158838123082
1782829451802671400,2.98167138671875,-0.08778115930557251,-0.0047816379360971035,0.008507999232178553
1782829451812599300,2.991599365234375,-0.07341594934463501,-0.002069020259822719,0.004601310649840161
1782829451822528500,3.001528564453125,-0.07910042472183704,0.006201249809900764,-0.0021256960502360014
1782829451832457500,3.01145751953125,-0.08553659524917602,-0.0017941260083112864,0.004597830917965621
1782829451842385400,3.021385498046875,-0.07072422604262829,-0.0018048232155502774,-0.0012185728763695807
1782829451852314400,3.031314453125,-0.07955167562067508,0.0005007411799277179,-0.0010229863721877336
1782829451862243600,3.04124365234375,-0.08523673551976681,0.00820629232226638,0.0016077274575829505
1782829451872172500,3.051172607421875,-0.08014964151382446,0.00654069948089309,-0.006816858674306422
1782829451882100500,3.0611005859375,-0.08613631470799446,0.007706368559668771,0.000006137479841709137
1782829451892029400,3.071029541015625,-0.09301905995905399,0.0018864530674181877,0.0003114314361941069
1782829451901958400,3.08095849609375,-0.09301730639338493,0.004401237483497243,0.0016407986101228743
1782829451911886300,3.09088623046875,-0.07820376814305782,0.006523851094080601,0.003549098183168098
1782829451921815600,3.100815673828125,-0.07685936779677867,-0.005141943165450357,0.006337952583562582
1782829451931744500,3.11074462890625,-0.06922901904881,0.00031464174001011997,-0.00047744478601962324
1782829451941672400,3.12067236328125,-0.08254793482720851,-0.0016481097003212197,0.0012373049763031304
1782829451951601400,3.130601318359375,-0.06728489924371242,-0.004190419160854071,0.005273830483388155
1782829451961530400,3.1405302734375,-0.0814987180352211,-0.0020075746794580482,-0.0019484123877249657
1782829451971459600,3.15045947265625,-0.08119944282770157,-0.0024635474191862156,0.0032800902497489
1782829451981387500,3.160387451171875,-0.08089958309829234,0.008805792585376183,-0.002652350272843614
1782829451991316500,3.17031640625,-0.08090075214207172,0.0025053978165145963,-0.0014037110517732799
1782829452001245400,3.180245361328125,-0.07685878327488899,-0.005414761907595675,0.004662877244502306
1782829452011173400,3.19017333984375,-0.07716039656996726,-0.003177999848453328,-0.002649610326485708
1782829452021102300,3.200102294921875,-0.0764139621168375,-0.0024830672536976634,0.0013548395419027655
1782829452031031600,3.210031494140625,-0.07731295678317546,0.002981853938556742,0.008914223679201676
1782829452040960500,3.21996044921875,-0.07895955494642257,-0.0020413308185874483,-0.0012881127149332314
1782829452050888400,3.229888427734375,-0.07746376343071461,0.0026854214253835378,-0.004353911760030314
1782829452060817400,3.2398173828125,-0.07985738056898116,0.005842549732455518,-0.0035545141438022253
1782829452070742000,3.249741943359375,-0.08060498406589031,-0.0016779157501179724,-0.009480287463590501
1782829452080670000,3.259669921875,-0.07207622517347335,-0.003480900918319821,-0.0021776363000273703
1782829452090599000,3.269598876953125,-0.07267360654473304,-0.0011673381627653725,0.0008951952740550041
1782829452100527900,3.27952783203125,-0.07327040339410304,0.00157000296281185,0.0017734942122362553
1782829452110456800,3.289456787109375,-0.07671206828057765,0.0024134452167432754,-0.00003193864137865603
1782829452120385000,3.299385009765625,-0.0684837536394596,0.002439824050304014,0.006608056495524942
1782829452130314000,3.30931396484375,-0.0699783761113882,-0.005360748431726824,-0.0016272906745783983
1782829452140242700,3.31924267578125,-0.06578852320611477,-0.00018130910036852582,0.001665969583997503
1782829452150171000,3.3291708984375,-0.06923077261447906,0.004154724509676452,0.0007538688409142195
1782829452160099800,3.339099853515625,-0.06459200689792632,0.003942846741108223,-0.0019610709398984907
1782829452170028800,3.34902880859375,-0.08748831383883952,0.00619447300924221,0.0002868358510546386
1782829452179957000,3.35895703125,-0.07461947991549968,0.0048970033774967305,-0.006021214784588664
1782829452189886000,3.368885986328125,-0.07880816377699375,-0.0034641324466094373,-0.0010409969529137015
1782829452199815000,3.37881494140625,-0.07207564065158367,-0.003047761064907536,-0.004842334597790613
1782829452209743600,3.38874365234375,-0.0789578013807535,-0.00004893544195219874,0.005248476846423
1782829452219671800,3.398671875,-0.07955576727390289,-0.0005802361569250934,0.004866290862113237
1782829452229601000,3.40860107421875,-0.0809013366639614,0.0008490066283266059,-0.004741093579865992
1782829452239529700,3.41852978515625,-0.07521510772109032,0.000631911545235198,0.0023968959407415238
1782829452249458000,3.4284580078125,-0.07551379840672015,0.004192293740820605,0.00693694139001891
1782829452259387000,3.438386962890625,-0.08164952468276024,0.00557911987316329,-0.0032731033865362404
1782829452269315800,3.44831591796875,-0.08000175747573375,-0.0013313285188633016,-0.005539751410577446
1782829452279244800,3.458244873046875,-0.08134849590957165,-0.00240972802285105,-0.0045502015171106905
1782829452289173000,3.468173095703125,-0.07147241406142711,0.0037000304115819742,-0.006636661535501479
1782829452299102000,3.47810205078125,-0.0798515353500843,0.0013845451269997283,-0.0061679571783635765
1782829452309030700,3.48803076171875,-0.07521218511164188,0.00278068251038203,0.0017816044534556567
1782829452318958800,3.497958740234375,-0.08344049975275993,0.006981696130486671,-0.0007465349178295582
1782829452328888000,3.50788818359375,-0.07521101606786251,-0.0032409318497171624,0.0006953983856365085
1782829452338816800,3.517816650390625,-0.07236673255264758,0.005879570974328089,-0.00011938859596848487
1782829452348745700,3.527745849609375,-0.09825345348119735,0.0016120702725602313,-0.004826086715888232
1782829452358674000,3.537673828125,-0.07565759079158306,0.004307471952552442,0.007164064676780253
1782829452368603000,3.547602783203125,-0.07266425419449805,-0.0007365089974482543,-0.005810713839065283
1782829452378531800,3.55753173828125,-0.07625555668473244,-0.004662461685971357,-0.0021976013758219777
1782829452388460000,3.5674599609375,-0.07341361125707625,-0.0014435772712808102,-0.00411041272720322
1782829452398388700,3.577388671875,-0.08433774085342884,0.0012096771838609128,-0.0026665797275956717
1782829452408317700,3.587317626953125,-0.07550970675349235,0.006423105549789034,0.0029490133981686082
1782829452418246700,3.59724658203125,-0.07161796001195907,0.0003262408462585881,0.0034609815082978453
1782829452428174800,3.6071748046875,-0.08194178562760353,-0.00012809705880936233,-0.0016581150711048394
1782829452438103800,3.617103759765625,-0.0713163467168808,0.007228188554709777,-0.001993712834175676
1782829452448032800,3.62703271484375,-0.08238952939510345,0.0033034665587591007,-0.006996133364504203
1782829452457961000,3.6369609375,-0.07625497216284274,0.0039504386758082545,-0.006284350099647417
1782829452467889700,3.6468896484375,-0.07969605252742767,0.0078017757751396855,-0.005920594821171835
1782829452477818600,3.656818603515625,-0.07939736184179783,0.003758046492421999,-0.003832764829602092
1782829452487746800,3.666746826171875,-0.07640460976660252,0.0014348436922649852,-0.0007256656597368419
1782829452497675800,3.67667578125,-0.07400923906266689,-0.0017627353562042116,0.0014671590762678534
1782829452507604700,3.686604736328125,-0.06533084256649017,-0.004614450975914951,0.002326935977069661
1782829452517533700,3.69653369140625,-0.07670446949601173,0.0032780101738055234,-0.003429526924109086
1782829452527462000,3.7064619140625,-0.06997136184871196,-0.00024899490856332705,-0.003948399699060246
1782829452537390600,3.716390625,-0.07550853770971298,0.0014354236475774087,0.0020085359439719467
1782829452547319800,3.72631982421875,-0.08194353919327259,0.0021680145217338577,-0.0028051662143785505
1782829452557248000,3.736248046875,-0.08104629809260368,0.003142289214255288,0.00587776032644324
1782829452567176700,3.7461767578125,-0.07730477347671985,0.0024211787153384646,-0.00439333958812058
1782829452577105700,3.756105712890625,-0.08343874618709086,0.0015466905858833341,0.006299145809980109
1782829452587035000,3.766034912109375,-0.0880775119036436,0.008179468247422482,-0.002423656083503738
1782829452596962800,3.775962890625,-0.07790098580420017,-0.007643502773775253,-0.0032750396152958273
1782829452606891800,3.785891845703125,-0.07864742025732993,0.012707416833529713,0.010811161608016118
1782829452616820700,3.79582080078125,-0.08044365602433681,0.001564751398959197,-0.004921464248606935
1782829452626749000,3.8057490234375,-0.07939736184179783,-0.00419366599728819,0.0008052519682794809
1782829452636677600,3.815677734375,-0.07565700626969336,0.006803878178435843,-0.0013170008827000856
1782829452646606800,3.82560693359375,-0.0704185210943222,0.00445853661170695,0.0016018457060679792
1782829452656535800,3.835535888671875,-0.07864917382299899,-0.0021695808577351272,-0.0005291475737933069
1782829452666463700,3.845463623046875,-0.07730360443294047,-0.000686977617163211,-0.00325585085763596
1782829452676392700,3.855392822265625,-0.0802957719862461,0.0005295585657469928,-0.001861638286570087
1782829452686321700,3.86532177734375,-0.0762567257285118,-0.0008941883437684736,0.0004328749919310212
1782829452696249600,3.87524951171875,-0.08089490692317486,-0.008031412962684408,-0.004164261806290597
1782829452706178800,3.8851787109375,-0.08478548462092876,-0.0010169036912731826,0.0018314988766331224
1782829452716107800,3.895107666015625,-0.07236497898697852,0.004168300943879876,-0.004411578497709706
1782829452726036700,3.90503662109375,-0.06877426101863383,0.003384669435652904,-0.0016269344815518707
1782829452735964700,3.914964599609375,-0.06473404571712017,0.0012041447755065746,0.00015695326053537427
1782829452745893600,3.9248935546875,-0.07311667413711548,-0.0013079522098531015,-0.008147513623023406
1782829452755822800,3.93482275390625,-0.07401566880345344,0.0006427388999261892,-0.0002863883264828473
1782829452765750800,3.944750732421875,-0.07506254750788212,0.0023041419066605158,-0.003957697250368073
1782829452775679700,3.9546796875,-0.08224456796646118,0.0037990726225543767,-0.00480129933450371
1782829452785608700,3.964608642578125,-0.08867723136246204,0.0013055638899444602,0.003996284828241914
1782829452795537700,3.97453759765625,-0.07685469162166118,0.0038020637306617573,0.00438963152738288
1782829452805465900,3.9844658203125,-0.06907353622615336,0.005389065777335781,0.003036171091813594
1782829452815394800,3.994394775390625,-0.07490881825089454,0.004803443342528771,-0.00021809059693478046
1782829452825323800,4.00432373046875,-0.08194237014949321,-0.003825232260406483,-0.006145571816619485
1782829452835251700,4.014251708984375,-0.08897416848242283,0.004798383574921172,0.0012754358964506536
1782829452845180700,4.0241806640625,-0.06982113972306252,0.0001414611471700482,0.0029054025853052735
1782829452855110000,4.03410986328125,-0.0823918674826622,0.0004451864842325449,0.0005744662865530699
1782829452865038800,4.044038818359375,-0.08269055816829204,0.0022992259862367062,-0.00010050123240798711
1782829452874966800,4.053966796875,-0.07580898196101188,-0.0022446987704257478,0.0021604568363633005
1782829452884895700,4.063895751953125,-0.07401274619400501,-0.00496027330547804,-0.005992280951049179
1782829452894824700,4.07382470703125,-0.07371464003026484,-0.006102970217331312,-0.008351904488168657
1782829452904752600,4.083752685546875,-0.08269289625585079,0.0000854794765007682,0.00044707704721949995
1782829452914681900,4.093681884765625,-0.07700491374731064,-0.0049624584126984695,0.002208972153207287
1782829452924610800,4.10361083984375,-0.07266542323827743,0.00562480847868137,-0.00032879356294870373
1782829452934538800,4.113538818359375,-0.07416179927587509,-0.0024942302518174983,0.005985778145026415
1782829452944467700,4.1234677734375,-0.07116846267879008,0.00016067958758212626,-0.0053610247096512464
1782829452954396700,4.133396728515625,-0.06892331410050392,0.0018026381083298473,0.0033852767904289064
1782829452964326000,4.143325927734375,-0.06353752940893173,0.010583618196146562,0.004786275295307859
1782829452974253800,4.15325390625,-0.07116904720067978,0.0009583008052548393,-0.002397727057803422
1782829452984182800,4.163182861328125,-0.08254325865209103,-0.0012483332603937015,-0.0008640146845020353
1782829452994111700,4.17311181640625,-0.07610825716853141,0.0007527203467325307,0.006054039341956377
1782829453004039700,4.183039794921875,-0.07476151873469353,-0.0019638519854517653,-0.00024506080225110053
1782829453013969000,4.192968994140625,-0.07940028445124625,-0.002552143584669102,0.00021032741558738052
1782829453023897900,4.20289794921875,-0.07954875301122664,-0.0007291773576522246,0.005080390270520001
1782829453033826800,4.212826904296875,-0.07910042472183704,-0.0008909620569320395,0.003411589408619329
1782829453043754800,4.222754638671875,-0.07924947780370711,0.00207355030446779,-0.005064325051708147
1782829453053683700,4.23268359375,-0.07670505401790141,0.0021474489410291423,-0.0027339641416911035
1782829453063613000,4.242613037109375,-0.08194178562760353,0.0049840811560396105,-0.007467486336454748
1782829453073541400,4.252541259765625,-0.07700374470353126,0.0004049047061940655,0.0016255371089093386
1782829453083470300,4.26247021484375,-0.08238952939510345,0.0008738510919269174,0.00008919438710436225
1782829453093399600,4.272399658203125,-0.08119242856502533,0.0027585483103874137,0.001877685239072889
1782829453103328500,4.28232861328125,-0.0656301177740097,0.00004957476276904344,-0.0017544150524307041
1782829453113256400,4.29225634765625,-0.08104396000504493,0.0027285116484388706,0.004588460301421582
1782829453123185400,4.302185302734375,-0.07116904720067978,0.006832939876138698,0.0018175708159804344
1782829453133114400,4.3121142578125,-0.07445990543961524,0.002442968138749711,0.0015818988965824246
1782829453143042300,4.322042236328125,-0.0725146165907383,0.004346566420502494,-0.0033523061025887728
1782829453152971500,4.331971435546875,-0.0837380213946104,0.006456073954340536,0.0026208865555003283
1782829453162900500,4.341900390625,-0.07326572721898555,-0.003619270492682699,0.0014093096754979341
1782829453172829400,4.351829345703125,-0.07984978178441524,-0.0005658126226393505,0.0006537329346872866
1782829453182757400,4.36175732421875,-0.08778291287124157,0.00021126128063770009,0.006038576911343262
1782829453192686300,4.371686279296875,-0.08239595913589,0.00903307798563037,-0.0013360709093511104
1782829453202615600,4.381615478515625,-0.07371756263971328,0.005545480181754101,0.007147798528568818
1782829453212543500,4.39154345703125,-0.06952829425632953,-0.003991517321579158,0.0008243219949305058
1782829453222472400,4.401472412109375,-0.07850713500380516,0.0036665984994382595,-0.0033030692665372043
1782829453232401400,4.4114013671875,-0.08164952468276024,-0.00041722076507285234,0.003283880508877337
1782829453242330400,4.421330322265625,-0.07327040339410304,0.0051629699704586526,-0.008414621860301121
1782829453252258300,4.43125830078125,-0.0856903245061636,0.004996164319477975,0.005959511192608624
1782829453262187500,4.4411875,-0.07237257777154445,0.000013528485142160206,-0.004997269431175664
1782829453272116500,4.451116455078125,-0.07865677260756491,-0.004172415429993998,-0.005800877431640401
1782829453282044400,4.46104443359375,-0.0764139621168375,-0.00492457637101179,-0.0038492593066766856
1782829453291973400,4.470973388671875,-0.07791150719821453,0.005747738455317448,-0.004205525398440659
1782829453301902300,4.48090234375,-0.07776303863823414,-0.004202374460129067,-0.001160997470235452
1782829453311830500,4.49083056640625,-0.07851064213514328,-0.007490125143236946,-0.0033760157717391847
1782829453321759500,4.500759521484375,-0.06638882718682289,-0.0012588272549444808,-0.004688221748312935
1782829453331688400,4.5106884765625,-0.08329729188978671,-0.007495835648104548,-0.01230015805675648
1782829453341617400,4.520617431640625,-0.07805822219252585,-0.0024015241667977535,0.004570321856532246
1782829453351545300,4.53054541015625,-0.07865677260756491,-0.002907480377960019,0.0007064312363043427
1782829453361474600,4.540474609375,-0.08030220172703266,-0.006014684579102322,0.006462711474392563
1782829453371403500,4.550403564453125,-0.07985211987197399,-0.0013163729783263987,-0.0033192806158214806
1782829453381331500,4.56033154296875,-0.07790566197931766,-0.003242315522627905,0.0024973789068404584
1782829453391260400,4.570260498046875,-0.08014964151382446,-0.0006612198381102643,0.0034299287829082457
1782829453401189400,4.580189453125,-0.0759609576523304,-0.0037757602456258608,-0.005667597307637334
1782829453411118600,4.59011865234375,-0.08419161038100718,-0.0013451561148161999,-0.0005987148118205368
1782829453421046500,4.600046630859375,-0.08598667710423469,-0.0030838210422662084,-0.004159065041365101
1782829453430975500,4.6099755859375,-0.07386720024347306,0.0001181601866846904,-0.0017237276532221584
1782829453440904400,4.619904541015625,-0.08089899857640266,0.0008597335183178074,-0.0007576591000426561
1782829453450832400,4.629832275390625,-0.08823124116063118,-0.0006371311430470086,0.004629203303763643
1782829453460761300,4.63976123046875,-0.07476385682225227,-0.004645275372441392,0.0014617979145608842
1782829453470690600,4.649690673828125,-0.0771586430042982,-0.003184397623199038,-0.005291156077524646
1782829453480619500,4.65961962890625,-0.0822433989226818,0.009101247851015067,-0.0058219750185962765
1782829453490547500,4.66954736328125,-0.09107026397883891,0.0056744951225933616,0.003463821919355541
1782829453500476400,4.679476318359375,-0.07820084553360938,-0.0001209138327743858,0.0032240857461933044
1782829453510405400,4.6894052734375,-0.09061959760189056,-0.0017880456106853671,-0.001757986115850508
1782829453520333600,4.69933349609375,-0.07879764238297939,-0.0018565465529216453,0.0033372637970838694
1782829453530262500,4.709262451171875,-0.06936988882422447,0.0011006775511661544,-0.0045372507039923215
1782829453540191500,4.71919140625,-0.07924713971614837,-0.000890432333969511,-0.005521439435752108
1782829453550120400,4.729120361328125,-0.07595511243343353,0.0001893165935995057,-0.0018053323889151214
1782829453560048400,4.73904833984375,-0.08253916699886321,0.007166505512327421,0.0022239231271669268
1782829453569977600,4.7489775390625,-0.07146656884253025,0.006029156062449329,-0.0037932182705029843
1782829453579906600,4.758906494140625,-0.08179214802384376,-0.00011278532524593173,-0.0023301965132355687
1782829453589834500,4.76883447265625,-0.08732873936295509,-0.0008525982413440942,0.00364635714571923
1782829453599763500,4.778763427734375,-0.07476093421280383,-0.0014307269228622317,0.006352602163422852
1782829453609692400,4.7886923828125,-0.07730418895483017,0.0013464986885315738,0.008930498960567638
1782829453619621600,4.79862158203125,-0.06787760443985462,0.005018086173629853,-0.0012350856197532265
1782829453629549600,4.808549560546875,-0.08059504719376563,0.0024239688940462653,-0.00021053747814148664
1782829453639478500,4.818478515625,-0.08194120110571385,-0.0029577903596684336,0.00011420096419751644
1782829453649407500,4.828407470703125,-0.08987199410498142,0.005570566673949361,-0.0028928536309860645
1782829453659335400,4.83833544921875,-0.06877309197485447,0.011087476065056398,-0.004497832009056583
1782829453669264400,4.848264404296875,-0.07790040128231047,-0.005154222691711038,0.002731388592114672
1782829453679193600,4.858193603515625,-0.08972177197933197,0.0021448985076276583,-0.005771258611511439
1782829453689122600,4.86812255859375,-0.07071604273617267,0.0015636440039728768,-0.010443424274167045
1782829453699050500,4.878050537109375,-0.07535480845272541,-0.006230224742635618,-0.0037160157152917235
1782829453708979500,4.8879794921875,-0.06368424440324306,0.0021903496511280537,-0.007384447695501149
1782829453718908400,4.897908447265625,-0.07969605252742767,0.0049782199541223236,0.0014126250105910003
1782829453728836400,4.90783642578125,-0.07655366284847259,-0.0008928845859598368,-0.00477480405322276
1782829453738765600,4.917765625,-0.08867313970923424,0.004071391324489377,-0.0004852079673670232
1782829453748694500,4.927694580078125,-0.0810410373955965,0.005855975469609256,-0.006154321378655732
1782829453758623500,4.93762353515625,-0.07071662725806235,0.0029469561551115474,-0.0005216309876181185
1782829453768551400,4.947551513671875,-0.07475684255957603,0.001604076479061041,-0.0053064997771289195
1782829453778480400,4.95748046875,-0.07670154688656329,-0.0017321210222318768,0.00009654657649807631
1782829453788409300,4.967409423828125,-0.07340951960384845,0.007463858190819155,0.006973510540742427
1782829453798337500,4.977337646484375,-0.07700082209408282,0.0014358186565106735,0.0008458671064581722
1782829453808266500,4.9872666015625,-0.07759820346534252,-0.0013950756541686131,-0.007260273326560854
1782829453818195500,4.997195556640625,-0.0838818137794733,-0.0048977774123428386,-0.004030643755570054
1782829453828124400,5.00712451171875,-0.07654781762957573,0.0037534342493861913,0.0013159323036205023
1782829453838052600,5.017052490234375,-0.07819324674904346,0.004239580648380797,-0.008250581271853297
1782829453847981600,5.026981689453125,-0.08013795107603072,-0.004063150935817975,-0.004015738447383046
1782829453857910300,5.03691015625,-0.07475158186256885,0.000690509864676278,0.007161288197804242
1782829453867838500,5.04683837890625,-0.08253332177996635,-0.007368014867219608,0.006202434836700558
1782829453877767400,5.056767333984375,-0.07550035440325736,0.0059043492225580845,0.007584153252374381
1782829453887696400,5.0666962890625,-0.07819383127093314,-0.0015406992365140466,-0.0031774427260272205
1782829453897625300,5.076625244140625,-0.07564999200701714,0.0014774681244394741,-0.006052815499249845
1782829453907553500,5.086553466796875,-0.07400397836565971,-0.001977405586768873,-0.005006174256838858
1782829453917482500,5.096482421875,-0.0741524469256401,0.00495978468171088,-0.006253288241103291
1782829453927411200,5.1064111328125,-0.07564823844134808,0.0001932347168913111,0.00638360922303982
1782829453937339400,5.11633935546875,-0.0829798965036869,-0.004135282306978479,0.0024995251981541513
1782829453947268600,5.1262685546875,-0.08058569484353065,0.004310036085685715,-0.005145454863365739
1782829453957197300,5.136197265625,-0.07834171530902385,0.012079857236426322,-0.0031246256934013214
1782829453967126300,5.146126220703125,-0.07968962278664111,0.004693162784911692,0.003969698215415701
1782829453977054500,5.156054443359375,-0.08163666520118713,-0.007035049735940992,0.00179722214769572
1782829453986983400,5.1659833984375,-0.07340893508195877,0.004261269607092254,-0.0009477017794270068
1782829453996912400,5.175912353515625,-0.06128887369930744,0.008842039792402646,0.00019121172316372394
1782829454006840600,5.185840576171875,-0.07550386153459548,-0.005519338810211047,-0.004962901370692998
1782829454016769500,5.19576953125,-0.07939210114479064,-0.0024392281119711696,0.005821728423424065
1782829454026698200,5.2056982421875,-0.0822352156162262,-0.000519432180665899,-0.002119202377367765
1782829454036626400,5.21562646484375,-0.09555062426328659,0.0005691393741755746,0.006510742734046652
1782829454046555400,5.225555419921875,-0.0787923816859722,0.002990471069852356,-0.008098276786971836
1782829454056484400,5.235484375,-0.0749018039882183,0.0026216286243055946,0.0010175978110171853
1782829454066413300,5.245413330078125,-0.08133563642799854,0.003785856947954744,0.006310580519447103
1782829454076341200,5.25534130859375,-0.08058686388731003,0.00958544888809556,-0.0018644056323915718
1782829454086270200,5.265270263671875,-0.07474982829689979,-0.0021433230384718623,0.0007858896806836128
1782829454096199200,5.27519921875,-0.08462474110126494,-0.009511732914624735,0.0004098046435974538
1782829454106127400,5.28512744140625,-0.08178045758605003,-0.001099065549392253,0.005486706049088389
1782829454116056300,5.295056396484375,-0.07774024228453635,-0.005082783157005906,-0.007384146301401779
1782829454125985000,5.304985107421875,-0.0689110391408205,-0.0014318206181167623,0.00029134762939065696
1782829454135914000,5.3149140625,-0.07295066992044448,0.0034437860616133545,-0.00972543046423234
1782829454145842400,5.324842529296875,-0.08118073812723159,0.0008988097199588083,-0.0038998021838255225
1782829454155771100,5.334771240234375,-0.06965805811583996,0.0002667771604261361,-0.0017651830416172741
1782829454165700000,5.3447001953125,-0.06861176393330097,-0.0037329211843200026,-0.0042250246833544225
1782829454175628300,5.354628173828125,-0.0766921945363283,-0.0009988588612177408,-0.0006495316836051643
1782829454185557200,5.36455712890625,-0.07998363729715346,0.004354302202386316,-0.0068678034102544186
1782829454195486200,5.374486328125,-0.08103110052347183,0.008461655322823208,-0.007419692538818344
1782829454205415200,5.384415283203125,-0.07863806790709495,-0.00012495525365229695,0.004961385267041624
1782829454215343400,5.39434326171875,-0.08582184193134307,-0.0072416782239452,0.0011372056026943027
1782829454225272000,5.40427197265625,-0.082679452252388,0.00176428570918506,-0.010156259629549459
1782829454235201000,5.414200927734375,-0.07414952431619166,0.002919654872943647,0.006812282963888719
1782829454245129200,5.424129150390625,-0.07878770551085472,-0.0002866075221914798,0.0017421766253653912
1782829454255058200,5.43405810546875,-0.07713993830382823,-0.004283154928626027,0.0020307386426255108
1782829454264987100,5.443987060546875,-0.07025602400898932,-0.0003693516189116053,0.0023841277907136827
1782829454274916000,5.453916015625,-0.06875906344950199,0.005632799988891929,0.01051718363012187
1782829454284844300,5.46384423828125,-0.07743862898945808,0.008094598408986348,0.0016432097629178314
1782829454294773000,5.47377294921875,-0.08073007175028324,0.0005038327527348883,0.0005150733826681972
1782829454304702200,5.4837021484375,-0.07803659488260746,-0.00013271386842243372,-0.004835621729213744
1782829454314630100,5.493630126953125,-0.07354746676981448,0.004356149382889271,0.0015948040439281613
1782829454324559000,5.50355908203125,-0.07863514529764652,0.005161552048218436,0.005761294339923188
1782829454334488000,5.513488037109375,-0.07713760021626949,0.007129580168577376,0.0017723160353023558
1782829454344417000,5.5234169921875,-0.07608896794617176,0.005309568517049774,-0.003986174426181242
1782829454354345000,5.533344970703125,-0.0819254190146923,0.007646792992693371,0.008077069602161646
1782829454364274200,5.543274169921875,-0.08117664647400379,0.004192661350290291,0.010531066025001928
1782829454374203100,5.553203125,-0.07638882767558097,0.00932039104400901,-0.0014889599161222577
1782829454384131000,5.563131103515625,-0.07264788758158683,0.0008109898726106621,0.006470967846084386
1782829454394060000,5.57306005859375,-0.0708545744240284,-0.0034266065979492847,-0.0011723134486936032
1782829454403989200,5.5829892578125,-0.07818798605203628,0.0005140093701658771,-0.00233850768385455
1782829454413918200,5.592918212890625,-0.07953530900776386,-0.003678649696835782,-0.005542226495454087
1782829454423846100,5.60284619140625,-0.08447334993183613,0.0029702936482150105,-0.006598055691318586
1782829454433775000,5.612775146484375,-0.07145370936095714,-0.00020716506083263083,0.0017436927290167658
1782829454443704000,5.6227041015625,-0.07848784578144549,-0.0004583245270187035,-0.003460807978361845
1782829454453632000,5.632632080078125,-0.07758885111510753,-0.0030300427451264112,-0.0047322070205118505
1782829454463561200,5.642561279296875,-0.0741477707505226,-0.003386591964680701,0.0009305497152265161
1782829454473490200,5.652490234375,-0.07115326510965823,0.007259127115667797,0.0025714305237401276
1782829454483419100,5.662419189453125,-0.07773731967508793,-0.0011860360133694485,0.003208833378134295
1782829454493347000,5.67234716796875,-0.08940963729023933,0.0016525689630187115,-0.002232599623966962
1782829454503276000,5.682276123046875,-0.07474573664367198,0.0016812516348087229,-0.0009118267484474927
1782829454513205200,5.692205322265625,-0.07115443415343761,0.003687506573437713,-0.0028669702710583805
1782829454523133200,5.70213330078125,-0.07729016042947769,0.005303572601103224,0.0010989011526107788
1782829454533062100,5.712062255859375,-0.07624328172504902,0.008294436396600213,-0.004208767668297514
1782829454542991000,5.7219912109375,-0.07160451600849628,0.000034511907666455955,0.004007609939854592
1782829454552920000,5.731920166015625,-0.07354922033548354,-0.0014207558014080858,0.008082229834469035
1782829454562848000,5.741847900390625,-0.07609189055562018,-0.0040590729823219585,0.0014404354661237447
1782829454572777200,5.751777099609375,-0.07683949405252934,0.0005269282172434031,0.00838129497943446
1782829454582706200,5.7617060546875,-0.07160042435526848,0.0012349189396831206,-0.0017966102263424545
1782829454592634000,5.771634033203125,-0.07608955246806144,-0.005502303193730768,0.0020156689376570284
1782829454602563000,5.78156298828125,-0.07594108390808105,-0.004509321517450734,0.0005523001205176114
1782829454612492000,5.791491943359375,-0.08207622566223144,0.0043301427253754805,-0.0005154569751583039
1782829454622421200,5.801421142578125,-0.07609013698995112,0.004325649213348515,0.005858480237238109
1782829454632349200,5.81134912109375,-0.07818447892069816,0.01132872834187001,0.009626774129038677
1782829454642278100,5.821278076171875,-0.0727975251853466,0.002078605505498126,0.008385386632662266
1782829454652207000,5.83120703125,-0.07384381936788559,0.005445581737544853,0.015783004336990415
1782829454662135000,5.841135009765625,-0.07219839024841786,0.001456114809156861,0.003010698723839596
1782829454672064300,5.851064208984375,-0.07788461919128895,-0.001520243253663648,0.004932542765047401
1782829454681993200,5.8609931640625,-0.08431903615295887,0.0028841817007632924,-0.0022466190161649136
1782829454691922200,5.870922119140625,-0.07578969273865223,0.004497446133277844,0.001967500680685043
1782829454701850000,5.88085009765625,-0.07354571320414542,0.008698576201102697,0.004049540252285078
1782829454711779000,5.890779052734375,-0.09045476242899894,0.00401834596300032,0.0029715357572305946
1782829454721708300,5.900708251953125,-0.07429448574483394,-0.005427673904807306,0.004746098548546433
1782829454731636200,5.91063623046875,-0.07145312483906746,-0.002512069585896097,-0.004546813116781413
1782829454741565200,5.920565185546875,-0.08118132264912128,0.00025506160645745696,-0.004401641625585034
1782829454751494100,5.930494140625,-0.0850713158249855,0.00031588841560296714,-0.0024581428749952464
1782829454761423000,5.940423095703125,-0.07624211268126964,-0.0005862731720670126,0.00822400379218161
1782829454771351000,5.95035107421875,-0.07354805129170418,0.003613868231780361,-0.0010043638701085
1782829454781282300,5.9602822265625,-0.07549217109680176,0.0016719837662531063,0.002213602662552148
1782829454791211000,5.9702109375,-0.08102817791402339,-0.006325481261056847,0.000163364735012874
1782829454801140200,5.98014013671875,-0.07938333331644534,-0.0005839739004150033,-0.00010097615644335746
1782829454811068400,5.990068359375,-0.0702571930527687,-0.00035937821416882795,-0.000044405397307127715
1782829454820997000,5.9999970703125,-0.07863689886331558,0.0007557776702102273,-0.004358432671520859
1782829454830926000,6.009926025390625,-0.07175356909036636,0.007302546132286079,0.0006928137029055505
1782829454840855000,6.01985498046875,-0.06891220818459987,0.002564761037647258,0.0074048785621766
1782829454850783200,6.029783203125,-0.07624561981260776,0.0024063967047375625,0.002089784486638382
1782829454860712200,6.039712158203125,-0.08253156821429729,0.0006247991011478006,0.0054344187394250185
1782829454870641200,6.04964111328125,-0.08402677520811558,-0.009942840641154907,-0.0005229826944880187
1782829454880569300,6.0595693359375,-0.07834171530902385,0.0010512215194059535,-0.00017058906024321912
1782829454890498000,6.069498046875,-0.09106032710671425,-0.003204364982282277,-0.00583486189963296
1782829454900427000,6.079427001953125,-0.07579846056699753,0.008075284070451744,-0.0009805628694128244
1782829454910355200,6.089355224609375,-0.08283025889992714,-0.0035928140273084864,0.0029996841394808143
1782829454920284200,6.0992841796875,-0.0846270791888237,0.0029874205962405536,0.0062091294389683745
1782829454930213000,6.109213134765625,-0.08477613227069378,0.0024210234517115167,0.006680802071327343
1782829454940142000,6.11914208984375,-0.08522562960386276,0.001990861006674822,0.00008021649620495736
1782829454950070000,6.129070068359375,-0.07909048784971237,-0.0034881663427455347,0.00498525933297351
1782829454959999000,6.1389990234375,-0.07669511714577674,0.003490139104123227,0.006894508754089475
1782829454969928200,6.14892822265625,-0.08327858718931674,0.0057509578922879875,-0.001150722671393305
1782829454979856100,6.158856201171875,-0.07744330516457557,0.0012650286668678746,0.007215603067772462
1782829454989785000,6.16878515625,-0.0747492437750101,0.002459574496967252,-0.0010103278200142085
1782829454999714000,6.178714111328125,-0.07654723310768603,0.0033943802622030486,0.0009068126466125249
1782829455009643300,6.188643310546875,-0.07265607088804245,-0.0031222967389971015,0.002430158889526501
1782829455019571200,6.1985712890625,-0.0846270791888237,-0.005102764215820934,0.008122132586594671
1782829455029500200,6.208500244140625,-0.07849076839089393,0.003651608709571883,0.0013401716957334429
1782829455039429000,6.21842919921875,-0.08103402313292025,0.004176723995641805,0.0019927355866413564
1782829455049358000,6.228358154296875,-0.08522504508197307,0.0012432597930543124,0.004298583109909668
1782829455059286000,6.2382861328125,-0.08342939383685588,0.001792897599027492,0.006359296765690669
1782829455069215000,6.248215087890625,-0.07939151662290096,0.007394756743672769,0.0005250102547928691
1782829455079144200,6.258144287109375,-0.07789572510719299,0.0023241480816504918,-0.0007299765086732804
1782829455089072000,6.268072021484375,-0.0847790548801422,-0.00111657152333064,0.002676233471930027
1782829455099001000,6.2780009765625,-0.07460369782447815,0.008292749046301468,-0.0008737962929997593
1782829455108930000,6.287929931640625,-0.07609948934018611,0.010244239307101815,-0.0034870931970886884
1782829455118859000,6.29785888671875,-0.06966624142229556,-0.0019024749037460423,0.005253673611348495
1782829455128787000,6.307786865234375,-0.08328326336443424,0.004933510879427195,0.004844179495004937
1782829455138716200,6.317716064453125,-0.08627484639585017,-0.0032777201961493117,-0.00628754670373164
1782829455148645000,6.32764501953125,-0.07415303144752979,-0.00723270718291169,-0.002614356350013986
1782829455158573000,6.337572998046875,-0.07519991015195845,-0.00008819430668372661,0.010889040016662329
1782829455168502000,6.347501953125,-0.0832803407549858,0.0006773878049105406,-0.004101398303685709
1782829455178431200,6.35743115234375,-0.0828314279437065,-0.0022077483105007556,-0.001386376324482262
1782829455188360200,6.367360107421875,-0.06906476839780808,0.001292583394073881,-0.0000623977117240429
1782829455198288100,6.3772880859375,-0.07415127788186072,0.001818803791841492,0.002222215227270499
1782829455208217000,6.387217041015625,-0.06876373962461949,0.0032810903301695358,0.0006373754549305886
1782829455218146000,6.39714599609375,-0.07834113078713417,-0.0053367122523020945,-0.00703260205052793
1782829455228074000,6.407073974609375,-0.08387830664813518,-0.0009495512432185932,0.001015935576893389
1782829455238003200,6.417003173828125,-0.06696867290139198,0.00251834177976707,-0.004034132620599121
1782829455247932200,6.42693212890625,-0.07325403678119183,0.00717620720572304,0.005785268870554864
1782829455257861000,6.436861083984375,-0.07190788286924361,-0.002338080708880443,0.005466622242284939
1782829455267789000,6.4467890625,-0.07250526424050331,-0.0005463270374573767,0.0029845413692761212
1782829455277718000,6.456718017578125,-0.08881576305031776,0.006056578358914703,0.0028167653206270186
1782829455287647200,6.466647216796875,-0.0669675038576126,0.000928270993172191,0.0024377211414743213
1782829455297575200,6.4765751953125,-0.070109309014678,0.006102744171756785,0.0015965941422153263
1782829455307504000,6.486504150390625,-0.08073416340351104,0.0016554984223330392,0.008904396404931321
1782829455317433000,6.49643310546875,-0.08028408154845237,0.0033106749009690246,-0.00637209231518209
1782829455327362000,6.506362060546875,-0.07863748338520526,0.00992910209345864,0.00112554256436415
1782829455337290000,6.5162900390625,-0.07429740835428238,0.016841767558746504,0.011796482850937172
1782829455347219200,6.52621923828125,-0.0811801536053419,-0.00009664932448649779,0.0007759528085589408
1782829455357148200,6.536148193359375,-0.07998071468770504,0.005276552163437008,0.004239007542934268
1782829455367076000,6.546076171875,-0.0754904175311327,-0.0007535446139285341,-0.0006083959556184708
1782829455377005000,6.556005126953125,-0.08551555246114731,0.00578973498311825,0.006158367366110906
1782829455386934000,6.56593408203125,-0.06995265714824199,0.006841472525754943,0.005034514435334131
1782829455396863200,6.57586328125,-0.07952887926697731,-0.00290758312594844,-0.00221402278766036
1782829455406791200,6.585791259765625,-0.07713467760682105,-0.0048188966399873604,-0.001476054768776521
1782829455416720100,6.59572021484375,-0.07429273217916488,0.003558535015082452,0.0027693459823261947
1782829455426649000,6.605649169921875,-0.08102700887024403,-0.005310598280222621,-0.0013318239924963564
1782829455436577000,6.615576904296875,-0.07623802102804184,-0.0033450817773584274,0.00477230156888254
1782829455446506200,6.62550634765625,-0.06815642138123512,0.009531572409544605,0.004396682322677224
1782829455456435200,6.635435302734375,-0.07908055097758769,0.005015280011901632,0.0019412063288036733
1782829455466363100,6.645363037109375,-0.07563947061300277,0.002604120367078576,0.0014771324810106306
1782829455476292000,6.6552919921875,-0.08162322119772433,-0.0006763146592536941,-0.0034861433490179475
1782829455486221000,6.665220947265625,-0.08297112867534161,-0.0010982070328667758,-0.009081442605424673
1782829455496150300,6.675150390625,-0.08057692701518535,0.00926528387288563,0.003305781813431531
1782829455506078200,6.685078125,-0.07668693383932113,0.005480897362809628,0.0022188998921774325
1782829455516007200,6.695007080078125,-0.07189794599711895,0.0011850382162374444,0.005091340922797098
1782829455525936000,6.70493603515625,-0.07518880423605441,0.0020569896120228802,0.007793083295319229
1782829455535865000,6.714864990234375,-0.07234627428650856,0.00258615545212524,0.0008723167219664901
1782829455545793000,6.72479296875,-0.0696516283750534,0.0016036449375096708,0.004613202017033472
1782829455555722200,6.73472216796875,-0.07174538578391075,0.0027751295524300074,0.006053902344638482
1782829455565651200,6.744651123046875,-0.07818097178936004,0.003642681051022373,-0.000803443603683263
1782829455575579100,6.7545791015625,-0.07010229475200176,0.005447362702677492,-0.0019952198046725243
1782829455585508000,6.764508056640625,-0.07937982618510722,-0.002139343266387004,-0.0008035806010011583
1782829455595437000,6.77443701171875,-0.07234685880839824,-0.0009646620473824441,0.009228084534499794
1782829455605366300,6.7843662109375,-0.08252396942973136,0.002149152274348307,0.005505118488613516
1782829455615294200,6.794294189453125,-0.08117781551778316,-0.000018257175898179412,-0.003204248534562066
1782829455625223200,6.80422314453125,-0.07489420520365238,-0.0014694103988585993,0.0001255078095011413
1782829455635152100,6.814152099609375,-0.06516717643737793,-0.006236101927573326,0.004658639460802078
1782829455645080000,6.824080078125,-0.08312310436666011,0.0018162396587082183,-0.00126535289385356
1782829455655009300,6.83400927734375,-0.08087912483215332,-0.000909972718078643,-0.003220450750691816
1782829455664938200,6.843938232421875,-0.07175240004658699,-0.004610560252086724,0.00360976972868666
1782829455674867200,6.8538671875,-0.0787841983795166,0.007178524743684102,-0.003974465722078457
1782829455684795100,6.863795166015625,-0.08073007175028324,0.008155550799006596,-0.0007450096810236573
1782829455694724000,6.87372412109375,-0.08955810585021973,0.005815052087465301,-0.0004205726327840239
1782829455704653300,6.8836533203125,-0.06890870105326176,0.0012040283277863636,0.0016261581634171307
1782829455714581200,6.893581298828125,-0.07923369571268558,0.0003628236967138946,-0.0030307003322523085
1782829455724510200,6.90351025390625,-0.0726490566253662,0.004807245018100366,0.0046392589068971575
1782829455734439200,6.913439208984375,-0.08267536059916018,0.010317989529902115,0.0030003965255338697
1782829455744368000,6.9233681640625,-0.0774380444675684,-0.003941931142366957,0.013335848646890372
1782829455754296000,6.933296142578125,-0.07145195579528808,-0.00011257526269182562,-0.00010325944507494568
1782829455764225300,6.943225341796875,-0.0819295106679201,0.00837514151657233,-0.0034516108917538074
1782829455774154200,6.953154296875,-0.08641922330260277,-0.0009755853001959621,0.006050934069417416
1782829455784082200,6.963082275390625,-0.07130465627908707,0.0013156742920051327,0.000027691724523901936
1782829455794011100,6.97301123046875,-0.07070493682026863,0.003632235005532857,0.0032951051557902245
1782829455803940000,6.982940185546875,-0.07115268058776855,-0.006632202272803988,0.001737692246492952
1782829455813869300,6.992869384765625,-0.07189911504089831,-0.0010943665413884445,0.00040677243629470464
1782829455823797200,7.00279736328125,-0.0798299080401659,0.002909064980270341,0.0008773947558831423
1782829455833726200,7.012726318359375,-0.07878127577006816,0.0008332268205936997,-0.00018862704043276607
1782829455843655200,7.0226552734375,-0.07803250322937964,0.005063907209888566,0.004366159320250153
1782829455853583000,7.0325830078125,-0.07818447892069816,0.002612426971120294,-0.00735799807999283
1782829455863512300,7.04251220703125,-0.07444353882670401,-0.0017283239132375456,0.00242039554733783
1782829455873441300,7.052441162109375,-0.07908288906514645,-0.0006652818085858598,0.009845275717927142
1782829455883370200,7.062370361328125,-0.07818564796447754,-0.0025767551528289912,0.006036019628075882
1782829455893298200,7.072298095703125,-0.07489420520365238,0.0018568913295050151,0.004058773871511221
1782829455903227100,7.08222705078125,-0.06846154180765152,-0.0008617085629841312,0.004372835656208917
1782829455913156400,7.09215625,-0.07624269720315932,-0.005391369615565054,0.008562779893027618
1782829455923084300,7.102084228515625,-0.07729074495136737,0.004555464497406501,0.007464691591169685
1782829455933013200,7.11201318359375,-0.08073357888162136,-0.00028881089572096243,0.007672507389262318
1782829455942942200,7.121942138671875,-0.08342822479307652,0.00008622154530603438,0.007139076365996152
1782829455952871200,7.13187109375,-0.07444821500182151,-0.0047067255193833256,0.005746516895899549
1782829455962799000,7.141799072265625,-0.06128010587096214,0.0008621629374218172,-0.0005367920241318643
1782829455972728300,7.151728271484375,-0.08282850533425808,0.0012558886624756268,-0.0006024959377944469
1782829455982657300,7.1616572265625,-0.07998480634093284,-0.005309589066647458,0.0021366923682857304
1782829455992585200,7.171585205078125,-0.07504734993875026,-0.0018157989840023219,0.004039813442714512
1782829456002514200,7.18151416015625,-0.06951075859963894,0.004865770272305235,0.0023857443590648473
1782829456012443100,7.191443115234375,-0.08746727105081081,0.0038582097981125114,-0.002664177707955241
1782829456022372400,7.201372314453125,-0.07938684044778346,-0.0004340988346375525,0.0016931955176405608
1782829456032300300,7.21130029296875,-0.07579729152321815,0.0023460174201638435,0.004684422356029973
1782829456042229200,7.221229248046875,-0.07325345225930213,-0.0013649088447680697,-0.00014679719270206987
1782829456052158200,7.231158203125,-0.07475041281878948,-0.002158164414577186,-0.006887585822958499
1782829456062086100,7.241086181640625,-0.06696984194517135,0.0019402633305988274,-0.011824813896277918
1782829456072016000,7.251015869140625,-0.08447568801939487,-0.0009310999877867288,-0.0009537935934960842
1782829456081944800,7.26094482421875,-0.07923895640969277,0.00009416053987806663,-0.00755555734555237
1782829456091873500,7.27087353515625,-0.07115852580666542,0.00384102805115981,-0.0011368402765132486
1782829456101801700,7.2808017578125,-0.07130933245420455,0.015313576177356299,0.0019109207883942871
1782829456111730700,7.290730712890625,-0.06547405042946339,0.003390446155890822,0.0018736027189996092
1782829456121659600,7.30065966796875,-0.06637246057391166,-0.0016972894541569985,0.0037767785923555493
1782829456131587800,7.310587890625,-0.08193477136492729,-0.0015454918593517503,-0.0035329051001928746
1782829456141516800,7.320516845703125,-0.07654781762957573,-0.0005373742627329193,-0.0047529940802138295
1782829456151445500,7.330445556640625,-0.07714695256650447,0.0013957400911604053,-0.0016697963757440447
1782829456161374500,7.34037451171875,-0.07639934906959533,-0.009215633761591744,0.006122538000904024
1782829456171302700,7.350302734375,-0.08163724972307682,0.005210350492852739,-0.007555109820980579
1782829456181231600,7.360231689453125,-0.07834639148414134,0.004832372609490994,-0.000005726487888023257
1782829456191160600,7.37016064453125,-0.07071545821428299,-0.005527259538474027,0.003706014911085367
1782829456201088800,7.3800888671875,-0.0796948834836483,-0.0065151586142601445,-0.004041512209456414
1782829456211017700,7.390017822265625,-0.08268705103695392,0.0030578326510614716,0.0036093587367329746
1782829456220946400,7.399946533203125,-0.07999240512549877,0.0021250293299555777,-0.016956404631072654
1782829456230875600,7.409875732421875,-0.07730009730160235,0.0033302107185008934,-0.0050499768659472465
1782829456240803800,7.419803955078125,-0.07819792292416096,-0.004026988210470881,0.007669411249877884
1782829456250732500,7.429732666015625,-0.08119301308691501,-0.0003010607392294332,0.0026100637673866
1782829456260661500,7.43966162109375,-0.06608136867284774,0.006802136029209941,0.00037413054201751943
1782829456270589700,7.449589599609375,-0.07341302673518657,0.004300199678260833,0.000003251403011381626
1782829456280518700,7.4595185546875,-0.07505962489843368,0.00892719504191773,-0.005875413105729967
1782829456290447600,7.469447509765625,-0.0749105718165636,-0.00439732164349407,-0.011279610236827284
1782829456300376600,7.47937646484375,-0.07670505401790141,-0.001756040753936395,-0.011334975419566035
1782829456310304800,7.4893046875,-0.06443535503149032,0.0051966484777745785,0.00043293892401270566
1782829456320233500,7.4992333984375,-0.07041969013810158,-0.0020823911980492995,0.0012307291050441562
1782829456330162700,7.50916259765625,-0.07850187430679798,-0.006327917530026752,0.00033356106961145995
1782829456340091600,7.519091552734375,-0.07236790159642696,-0.007626085848093498,-0.0021564291152171788
1782829456350019600,7.52901953125,-0.08449088558852672,-0.002234211625740863,-0.0065492389803752295
1782829456359948500,7.538948486328125,-0.07730944965183735,-0.0035304985139751805,0.002389881678065285
1782829456369877500,7.54887744140625,-0.08119944282770157,0.0017404687254689633,0.003778769620042294
1782829456379805400,7.558805419921875,-0.07566226696670054,0.005849105054116808,0.0006680445878300815
1782829456389734700,7.568734619140625,-0.07581190457046032,-0.001159394601616077,0.008032079682964832
1782829456399663600,7.57866357421875,-0.08479016079604625,-0.005182973862159997,0.002039442538889125
1782829456409592600,7.588592529296875,-0.07267009941339492,-0.007170453318371437,0.000923663316713646
1782829456419520500,7.5985205078125,-0.07700900540053844,-0.005892215826769825,0.006045664239255711
1782829456429449500,7.608449462890625,-0.07162263618707657,-0.0011222021130961365,0.007222809126693755
1782829456439378700,7.618378662109375,-0.07641045498549938,0.0003417352429125458,0.0002659483266528696
1782829456449306600,7.628306640625,-0.08179623967707157,-0.0016780664471676573,0.0077248860304709515
1782829456459235600,7.638235595703125,-0.07222001755833625,-0.004883009101473726,0.005706431480683386
1782829456469164500,7.64816455078125,-0.08404255729913711,0.0031192736648488787,-0.0039327728716656565
1782829456479093500,7.658093505859375,-0.08150047160089015,-0.006713103755598422,-0.0030376963286194948
1782829456489021700,7.668021728515625,-0.0707283176958561,-0.009222912885749246,-0.0009327599386218934
1782829456498950700,7.67795068359375,-0.07491875512301921,-0.0044430924474028865,-0.0012542287116404623
1782829456508879600,7.687879638671875,-0.0737210697710514,-0.0009178454972803592,-0.005582923832023516
1782829456518807600,7.6978076171875,-0.08269932599663735,-0.003377810436603613,0.007211009091045707
1782829456528736500,7.707736572265625,-0.07297405079603195,-0.001407674840837717,0.00041386889736168086
1782829456538665700,7.717665771484375,-0.07447101135551928,-0.004519157924875616,-0.0029417890729382633
1782829456548594700,7.7275947265625,-0.07881167090833187,-0.00021882581587415187,-0.0010870554511900991
1782829456558522600,7.737522705078125,-0.0818032539397478,-0.0024253320173593237,0.0003673994071315974
1782829456568451600,7.74745166015625,-0.07013035180270671,0.0010955424350337125,-0.0017774032023735343
1782829456578380500,7.757380615234375,-0.07791033815443515,-0.0014287906941026448,-0.0049758521838113665
1782829456588308500,7.76730859375,-0.07551613649427891,-0.0024177583489683454,-0.01096523792487569
1782829456598237700,7.77723779296875,-0.08269815695285797,0.002872500396124087,0.00182516960054636
1782829456608166700,7.787166748046875,-0.08359656709730624,-0.002398775087285321,-0.00378296173796989
1782829456618095600,7.797095703125,-0.08015431768894195,0.0016266673367819747,-0.00032873876402154565
1782829456628023600,7.8070234375,-0.08225041318535804,-0.004431445392093156,-0.005536500007566064
1782829456637952500,7.816952392578125,-0.08135141851902007,-0.008085017729888204,-0.00033571649407967925
1782829456647881700,7.8268818359375,-0.07626432451307773,-0.002633647855662275,-0.0037639830428641287
1782829456657809700,7.8368095703125,-0.07596563382744789,0.004112476820126176,0.001266750266496092
1782829456667738600,7.846738525390625,-0.07327157243788242,-0.003912721030903048,-0.006603462518798187
1782829456677667600,7.85666748046875,-0.08075286810398101,-0.002454517012648284,0.006887293562013655
1782829456687596500,7.866596435546875,-0.08494272100925446,-0.001221885928174015,0.002878286249516532
1782829456697524500,7.8765244140625,-0.0765624306768179,-0.0001243296325672418,0.0004070555640850216
1782829456707453700,7.88645361328125,-0.08254676578342914,0.003924847576825413,0.0011292780245654285
1782829456717382700,7.896382568359375,-0.07027531323134899,0.0025671995899057944,-0.0023952611060813066
1782829456727310600,7.906310546875,-0.07162205166518688,-0.00394742701810319,-0.012728776998678222
1782829456737239600,7.916239501953125,-0.08075111453831195,-0.003943625342531595,0.002890177616709843
1782829456747168500,7.92616845703125,-0.06788403418064116,0.0013164574600057675,-0.005169328929297626
1782829456757097700,7.93609765625,-0.07312193483412266,-0.0009023465340491384,-0.006283181055868044
1782829456767025700,7.946025634765625,-0.0829974321603775,0.0017744143775547854,-0.0028836474112235006
1782829456776954600,7.95595458984375,-0.08943184912204742,0.008533709062170236,-0.0021642105628736316
1782829456786883600,7.965883544921875,-0.07970423583388328,-0.0005496035566437058,-0.00486057350737974
1782829456796811500,7.9758115234375,-0.06758242088556289,0.0011227912015630863,-0.0005872070371173322
1782829456806740700,7.98574072265625,-0.0732680653065443,0.0009776151437894441,-0.0023636238588020204
1782829456816669700,7.995669677734375,-0.07955459823012352,-0.0029088777506025504,-0.0014046152340713887
1782829456826598700,8.0055986328125,-0.07865677260756491,0.003661728244787082,-0.0015658154114615171
1782829456836526600,8.015526611328125,-0.07087620173394679,-0.000982761676365044,0.004039758643787354
1782829456846455600,8.02545556640625,-0.07581365813612938,0.0023692453154129907,0.0060235985379200425
1782829456856384800,8.035384765625,-0.0660877984136343,-0.003346675512823276,0.0017730832202825695
1782829456866313700,8.045313720703126,-0.07611468690931797,-0.0035508768650121055,0.004553388988040388
1782829456876241700,8.05524169921875,-0.06893266645073891,-0.006566021151817403,0.005714934447547421
1782829456886170600,8.065170654296875,-0.07611585595309733,-0.0026537111128680404,0.0012413418306037782
1782829456896099600,8.075099609375,-0.08614157540500164,-0.003086102047609165,0.007329520904179662
1782829456906027500,8.085027587890625,-0.08030512433648108,-0.0000019955942640081048,-0.0011540654059499502
1782829456915956700,8.094956787109375,-0.08509411217868328,0.0013898332234704865,-0.0015203779676929115
1782829456925885700,8.1048857421875,-0.07461947991549968,-0.004060851664165966,0.013632502639060838
1782829456935813600,8.114813720703125,-0.07701309705376624,0.0033318820857792157,0.006896938173193484
1782829456945742600,8.12474267578125,-0.07506956177055835,-0.0016583137172157874,-0.0019106285274494439
1782829456955671600,8.134671630859375,-0.06938450187146664,-0.0013957035585423,0.0008391816373448819
1782829456965600800,8.144600830078126,-0.07896072399020194,-0.007802636574953794,-0.00722935759848915
1782829456975528700,8.15452880859375,-0.07911036159396172,-0.0033529385735397224,-0.005394506854144856
1782829456985457700,8.164457763671875,-0.07701601966321468,-0.004535104412678629,0.005766016180813312
1782829456995386600,8.17438671875,-0.08569675424695014,-0.0016487444545608013,-0.005425194253353402
1782829457005315600,8.184315673828126,-0.0891407572209835,0.0038018057190463877,-0.008779783644573762
1782829457015243800,8.194243896484375,-0.07717091796398162,-0.007171873523900285,0.0057941097641363735
1782829457025172700,8.2041728515625,-0.07672200515270233,-0.004016619796794839,-0.0016708740879781544
1782829457035101700,8.214101806640626,-0.08345452827811241,0.003073126118315849,0.005875540969893336
1782829457045029600,8.224029541015625,-0.07627250781953335,-0.004323952729895245,-0.00018028847035020588
1782829457054958600,8.23395849609375,-0.07088555408418178,-0.0059882783460780045,-0.0000026851474307477474
1782829457064887800,8.2438876953125,-0.07268120532929898,-0.0032944247357780112,-0.009543561958149075
1782829457074816300,8.253816162109375,-0.07731938652396202,-0.0010192486286978238,-0.010557259912183507
1782829457084744200,8.263744140625,-0.07597323261201382,-0.006342386730085127,-0.0008357019054703414
1782829457094673200,8.273673095703124,-0.07672258967459201,0.0011981397264054976,0.002200816246215254
1782829457104602000,8.28360205078125,-0.08345745088756083,0.0007435369598562828,-0.0004222166005987674
1782829457114530000,8.293530029296875,-0.07238426820933819,-0.009742466080712619,-0.002924837938137352
1782829457124459300,8.303459228515624,-0.07612520830333233,-0.001091980504768435,-0.001235560543788597
1782829457134388200,8.31338818359375,-0.07926584441661834,-0.0007500762984971515,-0.0012594620091840624
1782829457144317200,8.323317138671875,-0.0669938073426485,-0.0037533041019341905,0.003325345030426979
1782829457154245000,8.3332451171875,-0.07597206356823444,-0.009746884244214743,-0.00955166306621395
1782829457164174300,8.34317431640625,-0.06818973912894725,0.0016848341146716848,0.0003784961898811161
1782829457174103300,8.353103271484375,-0.07986205674409866,0.002568017007235903,0.0016935425775125622
1782829457184031200,8.36303125,-0.07657002946138382,-0.005384323386847973,0.0006769128808751702
1782829457193960200,8.372960205078124,-0.08150748586356639,0.002903002848953474,0.006020411066990345
1782829457203889200,8.38288916015625,-0.08046002263724804,-0.006132175762217957,0.005877614195970818
1782829457213818400,8.392818359375,-0.08030980051159858,-0.006860421538108494,-0.0012646405078005046
1782829457223746300,8.402746337890624,-0.07402502115368842,-0.003404954171855934,0.0005258048392366618
1782829457233675300,8.41267529296875,-0.0852455033481121,-0.01046285506042186,-0.0012652889617718755
1782829457243604200,8.422604248046875,-0.07088029338717461,-0.005655979935079812,-0.006382412779796868
1782829457253532200,8.4325322265625,-0.07357377025485039,-0.0021510588203556835,-0.009855943242413923
1782829457263461000,8.442461181640626,-0.07282382867038249,-0.0018180503065930679,0.004197670885547996
1782829457273390300,8.452390380859375,-0.07821019788384437,-0.0038460604193038305,0.00106762009835802
1782829457283319300,8.4623193359375,-0.07357260121107101,-0.0031821554337628185,-0.0105528211990837
1782829457293247200,8.472247314453124,-0.07117898407280444,-0.0013826180313946679,0.0010778309651184826
1782829457303176200,8.48217626953125,-0.08015899386405945,0.000026652828196529296,-0.001529967779945582
1782829457313105200,8.492105224609375,-0.07447393396496772,-0.004773271966550964,0.010918384842155501
1782829457323033000,8.502033203125,-0.07193184826672076,0.001222561781608965,-0.008384427651437
1782829457332962300,8.51196240234375,-0.07582301048636436,-0.0035994332810514603,-0.002895913237752393
1782829457342891300,8.521891357421875,-0.0830056154668331,-0.005125364206696395,-0.006518871241575107
1782829457352820200,8.5318203125,-0.08270517121553421,0.0023857306593330577,-0.008999180282605811
1782829457362748200,8.541748046875,-0.0705839407891035,-0.006058281692233868,-0.012983044020691887
1782829457372677000,8.551677001953125,-0.07821604310274123,0.004330784329480957,0.00116949130394496
1782829457382606300,8.5616064453125,-0.0830061999887228,0.0033614209908060725,0.002838639225717634
1782829457392534300,8.5715341796875,-0.07537526671886444,0.0007351664237328805,-0.0018270418972242623
1782829457402463200,8.581463134765626,-0.07926525989472866,-0.009370783224108163,-0.005599610105343163
1782829457412392200,8.59139208984375,-0.07313011814057827,-0.0015854105944978073,-0.0006310735783074051
1782829457422321400,8.6013212890625,-0.07492693842947483,0.00670043607027037,0.00001863163523375988
1782829457432249300,8.611249267578126,-0.07223404608368873,-0.0048279270465252915,0.0052304479993879795
1782829457442178300,8.62117822265625,-0.08629939631521702,-0.009764148189558182,-0.005524809569772333
1782829457452107300,8.631107177734375,-0.0816594615548849,-0.00018242791179800405,0.00014445910514332354
1782829457462035200,8.64103515625,-0.07492576938569545,0.0019055824595736338,-0.0028817020493093876
1782829457471964200,8.650964111328125,-0.09033785805106162,0.005090582870971411,-0.0016437486190348863
1782829457481893400,8.660893310546875,-0.08360358135998248,-0.006433887238707393,-0.00551179482457228
1782829457491822300,8.670822265625,-0.07238076107800007,-0.006760938652430195,-0.001918528706114739
1782829457501750300,8.680750244140626,-0.078962477555871,0.0048420537532889284,-0.0027849180107936264
1782829457511679200,8.69067919921875,-0.07686813562512397,0.000019675098138395695,-0.0026793296113144607
1782829457521608200,8.700608154296875,-0.0785141492664814,-0.005541308613424189,-0.006710201695747673
1782829457531537400,8.710537353515624,-0.07626900068819523,-0.008279647536133415,0.0018784980898257345
1782829457541465300,8.72046533203125,-0.08779168069958686,-0.004654634572542273,-0.0003892002469860017
1782829457551394300,8.730394287109375,-0.0810579885303974,0.0025154716859571635,0.0019377448632381855
1782829457561323300,8.7403232421875,-0.08225392031669616,-0.00007200579028576612,-0.002295627523353323
1782829457571251200,8.750251220703126,-0.08150339421033859,-0.01284380223007174,-0.00931842056591995
1782829457581180200,8.76018017578125,-0.0749193396449089,0.0020332776595838368,-0.0007936528620310127
1782829457591109400,8.770109375,-0.07925999919772148,-0.002244264945585746,0.001532890389394015
1782829457601037300,8.780037353515626,-0.08808861781954765,-0.0016483106297207994,-0.007775282777147367
1782829457610966300,8.78996630859375,-0.0895849938571453,-0.006644137022481299,0.0023075371568556874
1782829457620895200,8.799895263671875,-0.08374854278862476,-0.003881800736254081,-0.005016083729499951
1782829457630824200,8.80982421875,-0.07103051551282405,-0.00215650218045339,0.0028562296813353896
1782829457640752400,8.81975244140625,-0.06205459737479686,-0.00032610156565206124,-0.0018080084031913428
1782829457650681300,8.829681396484375,-0.07402502115368842,-0.005464624364732299,-0.0019653909219894557
1782829457660610300,8.8396103515625,-0.07641980733573436,-0.0008356037240591831,-0.004730426055379212
1782829457670539300,8.849539306640626,-0.07642097637951374,-0.0037767763090669174,-0.005439779901131987
1782829457680467200,8.85946728515625,-0.07163374210298061,0.0011288350665709004,-0.0006225888777524232
1782829457690396400,8.869396484375,-0.07058510983288288,-0.0042630391557817345,-0.010267958109406753
1782829457700325400,8.879325439453124,-0.08390168752372264,0.0007286088187829591,0.004500964681059122
1782829457710253300,8.88925341796875,-0.08524901047945022,0.0007137811424094252,0.0008528083038982004
1782829457720182300,8.899182373046875,-0.07222820086479187,-0.004485853876895271,0.0036015955553855743
1782829457730111200,8.909111328125,-0.08000818721652031,-0.010532584411941933,-0.0005436327568721026
1782829457740040200,8.919040283203126,-0.08509528122246265,0.004490018595359288,-0.0048385078060440715
1782829457749968400,8.928968505859375,-0.08599310684502125,0.006449769794428721,0.0017286047577392309
1782829457759897300,8.9388974609375,-0.0732727414816618,-0.00546663822530536,0.004684038763539866
1782829457769826000,8.948825927734376,-0.07821078240573406,-0.003865098479914013,-0.00532567940163426
1782829457779754200,8.958754150390625,-0.07282149058282375,-0.00043491853525629264,-0.009224659601552412
1782829457789683200,8.96868310546875,-0.08090309022963046,-0.006717832446354441,-0.0006203786543570459
1782829457799612200,8.978612060546874,-0.07402034497857093,-0.006779670752363745,0.0041210711185354736
1782829457809541000,8.988541015625,-0.06698737760186195,-0.0006957089128904044,-0.00243862532377243
1782829457819469300,8.99846923828125,-0.07042904248833656,-0.002158879083918873,-0.004821209611371159
1782829457829398300,9.008398193359374,-0.08314882332980632,-0.0007846567048225551,0.006028685704991221
1782829457839327000,9.018326904296876,-0.07776245411634444,-0.00538522528585745,-0.011080863661179318
1782829457849255200,9.028255126953125,-0.0797077429652214,-0.005458199190523009,0.00003524484331719577
1782829457859184400,9.038184326171875,-0.07731061869561671,0.005125734099454712,-0.0031555779540911313
1782829457869113000,9.048113037109376,-0.08509177409112453,0.007726954689971171,-0.0009535287320148199
1782829457879042000,9.0580419921875,-0.07476736395359039,-0.0026562683961354194,-0.00636973596131429
1782829457888970200,9.06797021484375,-0.07312193483412266,-0.0019159189072088336,-0.007788215323956683
1782829457898899200,9.077899169921874,-0.08180150037407874,-0.0013261020711855963,-0.010183732158364727
1782829457908828200,9.087828125,-0.08509469670057296,0.001713094378064852,-0.005615867120400071
1782829457918756400,9.09775634765625,-0.06668751787245274,-0.007399195456772576,0.006332189563056454
1782829457928685300,9.107685302734374,-0.0770107589662075,-0.004950283917714841,-0.005376952931145206
1782829457938614000,9.117614013671876,-0.08703589389622211,-0.0003723769763484597,0.008327391101419925
1782829457948543200,9.127543212890625,-0.08269640338718891,0.00029640054713236166,-0.0009497202065773308
1782829457958471400,9.137471435546875,-0.07745967177748679,-0.0019467844029306433,-0.005934075357252731
1782829457968400100,9.147400146484374,-0.07775836246311664,-0.0028415572685888037,-0.004073359519289806
1782829457978329000,9.1573291015625,-0.08045125480890274,-0.0029593635455355976,-0.001801158537296578
1782829457988257300,9.16725732421875,-0.07730769608616829,-0.005242608794639818,-0.0016818247402552514
1782829457998186000,9.17718603515625,-0.07865326547622681,-0.005265907471836544,-0.0030857641208916903
1782829458008115200,9.187115234375,-0.08434007894098758,-0.0038488483147229996,0.0027268128816969692
1782829458018044200,9.197044189453125,-0.08434007894098758,0.0010051447548205033,0.0020097963192965834
1782829458027972000,9.20697216796875,-0.07775543985366822,-0.004041710855567362,0.000873038241174072
1782829458037901000,9.216901123046876,-0.07595978860855102,0.0007783068791381083,-0.006763758513890206
1782829458047830000,9.226830078125,-0.07326689626276493,-0.005312991166708525,-0.003675208780867979
1782829458057758200,9.23675830078125,-0.07087327912449837,0.0013381669683149083,-0.0030032369365915654
1782829458067687200,9.246687255859374,-0.07027355966567993,0.0027752528500161132,0.0021597079176921396
1782829458077616400,9.256616455078126,-0.07521043154597282,-0.0038951899407897142,-0.0010504771673120557
1782829458087545300,9.26654541015625,-0.08254267413020133,-0.004719301873166114,0.0005647486101370304
1782829458097473300,9.276473388671874,-0.07955167562067508,-0.004924498739198316,0.00613601853698492
1782829458107402200,9.28640234375,-0.08628536778986454,0.004175461337028537,-0.009834736057603731
1782829458117331500,9.29633154296875,-0.0746142192184925,0.006109397674829233,-0.014708278644410893
1782829458127259400,9.30625927734375,-0.07476385682225227,0.001075122984801419,0.004335873779840767
1782829458137188400,9.316188232421876,-0.08164718659520148,-0.0003568780131172389,0.00987513200007379
1782829458147115500,9.326115478515625,-0.06069850659072399,-0.004310275830992032,0.007889264545636251
1782829458157043500,9.33604345703125,-0.07700958992242812,-0.008621056268771644,-0.002961352289933711
1782829458166972400,9.345972412109376,-0.0889800137013197,0.005683137370063923,0.0020278342994861304
1782829458176901400,9.3559013671875,-0.07311784318089484,0.001778508314071223,-0.0024327801048755642
1782829458186830600,9.36583056640625,-0.07805471506118775,-0.010793253775278571,-0.0016158011661842465
1782829458196758500,9.375758544921876,-0.08104805165827274,-0.00007743545065168292,-0.009596735183801502
1782829458206687500,9.3856875,-0.0820955148845911,-0.004577587280957959,-0.006405519660748541
1782829458216616400,9.395616455078125,-0.07955284466445446,-0.0029990379687980747,0.004185121931228787
1782829458226544400,9.40554443359375,-0.07790800006687641,0.005680011547927279,0.004414236245676875
1782829458236473300,9.415473388671876,-0.07730886512994765,0.0005469572251196951,0.0016368165547493844
1782829458246402600,9.425402587890625,-0.07087386364638805,-0.005810538025840651,-0.004046772906463593
1782829458256331500,9.43533154296875,-0.06877952171564101,-0.005667352995753753,-0.004998064015619456
1782829458266259500,9.445259521484376,-0.08000175747573375,-0.003963832446921151,0.0026351251434069125
1782829458276188400,9.4551884765625,-0.08852993184626103,0.006939037448982708,0.0008098368118517101
1782829458286117400,9.465117431640625,-0.07655833902359008,0.0005322437131777406,0.009233646625606343
1782829458296045300,9.47504541015625,-0.08508768243789672,0.004251065590197686,-0.0038164073498453944
1782829458305974500,9.484974609375,-0.07760638677179812,0.004119123473332729,0.0013914086926262825
1782829458315903500,9.494903564453125,-0.07640928594172,-0.0012145816878415643,0.0021460173190571367
1782829458325832400,9.50483251953125,-0.07835574383437634,-0.0006607494806521572,0.004766803409857675
1782829458335760400,9.514760498046876,-0.07596154217422008,0.004116381243686192,-0.0072023599937092505
1782829458345689300,9.524689453125,-0.0744663351804018,0.002893821745365858,-0.004455481571517884
1782829458355618600,9.53461865234375,-0.07476619490981101,-0.006893931082065682,-0.004609411757905036
1782829458365546500,9.54454638671875,-0.08075228358209133,0.0029245205610175617,0.0019198347472120076
1782829458375475500,9.554475341796875,-0.07716098109185696,-0.0016135612600366583,-0.006162285489402711
1782829458385404400,9.564404296875,-0.06773498109877109,-0.002556892825022805,-0.0026208134902641175
1782829458395333600,9.574333740234374,-0.07716273465752602,-0.004894795437389985,0.007025222461670637
1782829458405261600,9.584261474609375,-0.08045476194024086,0.0018436688050394877,0.0014626564310863614
1782829458415190500,9.5941904296875,-0.07850830404758453,0.001443362642149441,-0.0027790545255877075
1782829458425119500,9.604119384765625,-0.0756640205323696,-0.003926923086191528,0.0001662690781522542
1782829458435047400,9.61404736328125,-0.08943009555637836,-0.0042254037092672656,-0.004729266144754365
1782829458444976400,9.623976318359375,-0.0882341637700796,-0.0028723268661880862,0.003759334267210215
1782829458454905600,9.633905517578125,-0.07027706679701805,-0.0001427420720923692,0.0015789945534430442
1782829458464834600,9.64383447265625,-0.07087503269016743,-0.0008497738133068196,-0.006881877601379528
1782829458474762500,9.653762451171875,-0.07341828743219375,-0.002855517295282334,-0.006226089706923813
1782829458484691500,9.66369140625,-0.08703355580866336,0.0004730700050015002,-0.011218582498282193
1782829458494620400,9.673620361328124,-0.08912789773941039,-0.006741937124438118,0.0009410619760863482
1782829458504549400,9.68354931640625,-0.08538754216730594,-0.008944669049815274,0.004503841624734923
1782829458514477600,9.6934775390625,-0.09047522069513797,0.000866423554008361,0.007177472147624939
1782829458524406500,9.703406494140625,-0.08359072187840938,0.004744057288509794,-0.010121900702221319
1782829458534335500,9.71333544921875,-0.08523556647598743,0.0018742625894141382,-0.006907258637808263
1782829458544263400,9.723263427734375,-0.08059680075943469,-0.008843526213301811,-0.004339116049697622
1782829458554192400,9.7331923828125,-0.07580722839534282,0.001864759542129468,0.00652449726476334
1782829458564121600,9.74312158203125,-0.08643149826228617,-0.0006183328277431428,0.0044211409104987975
1782829458574050300,9.75305029296875,-0.07820259909927844,-0.006610693693894427,0.005839958199858665
1782829458583978500,9.762978515625,-0.06922434287369252,-0.0018188060751301235,-0.0027081081812269986
1782829458593907500,9.772907470703124,-0.07625847929418086,0.00446502115142066,-0.0002771638404112309
1782829458603836400,9.78283642578125,-0.07805237697362899,-0.0032076072521391324,0.008348022897494957
1782829458613764600,9.7927646484375,-0.08254267413020133,-0.0003268893002299592,0.009913290319684893
1782829458623693600,9.802693603515625,-0.07610825716853141,-0.008084597604779992,0.0006437321304809301
1782829458633622500,9.81262255859375,-0.07985095082819461,-0.005457078095804899,-0.009955859952932224
1782829458643551200,9.82255126953125,-0.08074819192886352,0.004988969676999841,-0.000319404680095613
1782829458653479400,9.8324794921875,-0.07371288646459578,-0.009384617669926956,-0.0005719272695947438
1782829458663408600,9.84240869140625,-0.06802607299983501,-0.00927116334111197,0.0033801713570486753
1782829458673337300,9.85233740234375,-0.07445990543961524,0.008005700849404093,0.008512693673605099
1782829458683265500,9.862265625,-0.06727496237158775,-0.005686868263687938,0.001040933020832017
1782829458693194500,9.872194580078125,-0.0758037212640047,-0.0016686707144486716,-0.0013053013117518275
1782829458703123500,9.88212353515625,-0.082836104118824,-0.0008322358733275904,0.004843357511097565
1782829458713052400,9.892052490234375,-0.06697510264217853,0.006489697662729304,0.0025383137054275718
1782829458722980600,9.901980712890625,-0.08029343389868736,0.0002204652171116322,0.0032699433150701223
1782829458732909600,9.91190966796875,-0.07909633306860923,0.00046000274416292084,-0.006900143910432234
1782829458742838300,9.92183837890625,-0.07221124972999096,0.000983953553030733,-0.00035825711945071815
1782829458752766500,9.931766357421875,-0.07610299647152423,0.0005986326134297997,-0.0018672369102947413
1782829458762695400,9.9416953125,-0.07415712310075759,-0.008022510420309844,-0.0004836553310975432
1782829458772624400,9.951624267578126,-0.07221124972999096,-0.005800592020561453,-0.0010389054605271667
1782829458782553300,9.96155322265625,-0.0744575673520565,-0.00878790301894769,-0.0042885731725487855
1782829458792481500,9.9714814453125,-0.07505377967953682,0.0008292835811269469,0.000020303002512082456
1782829458802410200,9.98141015625,-0.07445522926449775,0.00020993925652001053,0.00017548443106934428
1782829458812339200,9.991339111328125,-0.082836104118824,-0.008853609215898905,0.00993062504697591
1782829458822267400,10.001267333984375,-0.07325812843441963,-0.0037489955362863835,-0.004689692186191678
1782829458832196400,10.0111962890625,-0.07580079865455627,-0.0005567137174424716,-0.0046028176203370096
1782829458842125300,10.021125244140626,-0.08298398815691471,-0.0006159627741435542,0.0005596705762203782
1782829458852054300,10.03105419921875,-0.06981587902605534,0.0035910376287531104,0.0031169629767537114
1782829458861982500,10.040982421875,-0.06532616639137268,-0.004216517149913125,0.0015786292272619903
1782829458871911400,10.050911376953126,-0.07460311330258845,-0.006309427458688151,0.005043364462070167
1782829458881840400,10.06084033203125,-0.07894260381162166,0.009192380750167648,-0.0057101304082665585
1782829458891769300,10.070769287109375,-0.07236088733375072,0.004772586979961488,-0.0012786507668439298
1782829458901697300,10.080697265625,-0.05156710563004017,-0.004123356690455693,-0.0027378000665921718
1782829458911626200,10.090626220703125,-0.08224924414157866,-0.006848080363054759,-0.0012306651729624717
1782829458921555500,10.100555419921875,-0.08135667921602725,-0.009504915014770812,-0.010504269349621608
1782829458931483400,10.1104833984375,-0.09437573526501655,-0.008143529284361285,-0.0008552925219293683
1782829458941412400,10.120412353515626,-0.07986088770031928,-0.00006697342214174568,0.0069580207106657325
1782829458951341300,10.13034130859375,-0.08015899386405945,0.008957469165883959,0.017279891831241546
1782829458961270300,10.140270263671875,-0.09841419700086117,-0.008552438878815155,0.007891739630512892
1782829458971198200,10.1501982421875,-0.0726753601104021,-0.0031338638792047274,0.007286047088634223
1782829458981127400,10.16012744140625,-0.09466799620985984,-0.0032491037397296167,-0.0028106004413217304
1782829458991056400,10.170056396484375,-0.0880775119036436,-0.015671846996538806,-0.010208355142967775
1782829459000984300,10.179984375,-0.061737201988697046,-0.006056468761060386,-0.005973484919033944
1782829459010913300,10.189913330078125,-0.05275894576311111,0.013008915964176412,-0.0034544604359660297
1782829459020842200,10.19984228515625,-0.07206219664812087,0.008586238400428556,0.0013750786123331636
1782829459030771500,10.209771484375,-0.0880734202504158,-0.006212869465746916,-0.008801164359319954
