time,seconds_elapsed,z,y,x
1782829448903489300,0.0824892578125,-0.0010293852537870407,-0.0012993831187486649,0.0003733830526471138
1782829448913418500,0.09241845703125,0.0008706897497177124,-0.0052613443695008755,-0.0007830788381397724
1782829448923347500,0.102347412109375,-0.0013578440994024277,-0.0004253098741173744,-0.0009559178724884987
1782829448933275400,0.112275390625,-0.0002319561317563057,-0.0008186530321836472,-0.0007248562760651112
1782829448943204400,0.122204345703125,0.003796074539422989,0.0010186610743403435,0.0006847549229860306
1782829448953133300,0.13213330078125,-0.0012172237038612366,0.001982932910323143,-0.0028258617967367172
1782829448963061200,0.142061279296875,0.0003455188125371933,0.0018060989677906036,0.0035665230825543404
1782829448972990500,0.151990478515625,-0.0020149750635027885,-0.001470046117901802,0.00036357156932353973
1782829448982919400,0.16191943359375,-0.0012993831187486649,-0.0009981337934732437,0.00177664402872324
1782829448992847400,0.171847412109375,0.00020633917301893234,0.0008868435397744179,0.0030760327354073524
1782829449002776300,0.1817763671875,-0.003243786282837391,0.0029063187539577484,0.0011178096756339073
1782829449012705500,0.19170556640625,-0.00006294064223766327,0.0017776498571038246,-0.0009510312229394913
1782829449022634500,0.201634521484375,-0.0004946393892168999,0.004191539250314236,-0.0019238837994635105
1782829449032562400,0.2115625,0.00001352652907371521,0.0004852684214711189,0.0012461990118026733
1782829449042491400,0.221491455078125,0.0011943718418478966,-0.0004265978932380676,0.002491760067641735
1782829449052420400,0.23142041015625,0.002690116874873638,-0.0004844609647989273,-0.0005305795930325985
1782829449062348300,0.241348388671875,0.00014173798263072968,-0.0008349325507879257,0.00033042021095752716
1782829449072273200,0.251273193359375,-0.0002928599715232849,-0.0012692520394921303,-0.0008176211267709732
1782829449082202000,0.2612021484375,0.0007995683699846268,-0.0014234492555260658,-0.0022650491446256638
1782829449092131000,0.271131103515625,-0.0006910208612680435,-0.0002707904204726219,-0.0006763888522982597
1782829449102059000,0.28105908203125,0.0014698682352900505,-0.0012039616703987122,0.000993945635855198
1782829449111988000,0.290988037109375,-0.0020534172654151917,-0.001050727441906929,-0.001550666056573391
1782829449121917200,0.300917236328125,-0.0011314311996102333,0.00033544842153787613,-0.0006451914086937904
1782829449131845000,0.31084521484375,-0.0020554140210151672,0.0008175261318683624,0.00001766066998243332
1782829449141774000,0.320774169921875,-0.0013685841113328934,-0.0008070021867752075,-0.0028473674319684505
1782829449151703000,0.330703125,-0.000004536472260951996,0.0008293222635984421,0.001481001265347004
1782829449161631200,0.34063134765625,-0.0020077666267752647,-0.0021936316043138504,-0.0008756304159760475
1782829449171560000,0.350559814453125,-0.0012097042053937912,-0.001520632766187191,0.0010194070637226105
1782829449181489200,0.3604892578125,0.002664395608007908,0.000794985331594944,0.00007558241486549377
1782829449191418000,0.370418212890625,0.001437351107597351,0.0013865996152162552,0.000463985837996006
1782829449201346000,0.380345947265625,0.0010618455708026886,0.0018087103962898254,-0.0007482850924134254
1782829449211275000,0.39027490234375,0.0030746208503842354,0.002184191718697548,0.00011257920414209366
1782829449221204000,0.400203857421875,-0.001633848063647747,0.002792191691696644,-0.0019324622116982937
1782829449231132200,0.410132080078125,0.00042897462844848633,0.0026684626936912537,-0.001963245216757059
1782829449241061000,0.42006103515625,0.0014220671728253365,0.002905484288930893,-0.0008103628642857075
1782829449250990000,0.429989990234375,0.0009854789823293686,0.0017324825748801231,-0.001740671694278717
1782829449260918000,0.43991796875,-0.000863286666572094,0.0007487107068300247,0.0004660235717892647
1782829449270847000,0.449846923828125,-0.0011034542694687843,-0.00019807647913694382,-0.001420297659933567
1782829449280776200,0.459776123046875,0.000673939473927021,0.0008663889020681381,0.0004423167556524277
1782829449290705200,0.469705078125,-0.0017326194792985916,-0.0014477334916591644,0.0026375334709882736
1782829449300633000,0.479633056640625,0.00048339739441871643,0.0007288679480552673,0.001540577970445156
1782829449310562000,0.48956201171875,-0.00014984142035245895,-0.0011695697903633118,-0.0010037748143076897
1782829449320491000,0.499490966796875,-0.0015434734523296356,0.0016296785324811935,-0.002750542014837265
1782829449330419000,0.5094189453125,0.00005974434316158295,-0.001843467354774475,-0.0013301605358719826
1782829449340348200,0.51934814453125,-0.0004052435979247093,-0.0007680831477046013,-0.00001242849975824356
1782829449350277000,0.529277099609375,-0.0010980702936649323,0.0006928704679012299,-0.0022589052096009254
1782829449360205000,0.539205078125,-0.000057573430240154266,-0.003169512376189232,0.0021036192774772644
1782829449370134000,0.549134033203125,0.0003345189616084099,0.0017040763050317764,-0.00019830139353871346
1782829449380063000,0.55906298828125,-0.0003698868677020073,-0.0016914540901780128,0.0002666870132088661
1782829449389992200,0.5689921875,0.00045584142208099365,0.00007178355008363724,0.0011368440464138985
1782829449399920000,0.578920166015625,-0.0027767037972807884,-0.00111412163823843,0.0018910514190793037
1782829449409849000,0.58884912109375,-0.0009283749386668205,0.0010987557470798492,-0.0013389484956860542
1782829449419778000,0.598778076171875,0.0004708506166934967,-0.0009952886030077934,-0.001685958355665207
1782829449429706000,0.6087060546875,0.0006279489025473595,0.001295439898967743,-0.0003317873924970627
1782829449439635200,0.61863525390625,-0.0013268114998936653,-0.0007799612358212471,0.0006093736737966537
1782829449449564200,0.628564208984375,0.00012049917131662369,0.00019398238509893417,-0.0004718597047030926
1782829449459492000,0.6384921875,0.0003255624324083328,0.002327973023056984,-0.0026463307440280914
1782829449469421000,0.648421142578125,0.0017707906663417816,0.0007414435967803001,-0.00005352124571800232
1782829449479350000,0.65835009765625,0.0018666647374629974,0.00021280627697706223,0.0006815111264586449
1782829449489279200,0.668279296875,-0.0006003342568874359,0.0002105245366692543,-0.0017156675457954407
1782829449499207200,0.678207275390625,-0.00024746544659137726,-0.0022406484931707382,0.003894813358783722
1782829449509136100,0.68813623046875,0.0004652971401810646,-0.002175571396946907,0.0004534916952252388
1782829449519065000,0.698065185546875,-0.0011203484609723091,0.0006569670513272285,0.0014375299215316772
1782829449528993000,0.707992919921875,0.0027842670679092407,-0.0001248372718691826,-0.0002814857289195061
1782829449538922000,0.717921875,0.002821817994117737,-0.0012023523449897766,0.0011494308710098267
1782829449548851200,0.727851318359375,0.0002896934747695923,-0.001995413564145565,-0.0005597579292953014
1782829449558779100,0.737779052734375,0.00019541755318641663,-0.0011290870606899261,0.0014282921329140663
1782829449568708000,0.7477080078125,0.0004171682521700859,-0.0008526286110281944,-0.0000851508229970932
1782829449578637000,0.757636962890625,0.0006179707124829292,0.0004773540422320366,-0.0008081994019448757
1782829449588566000,0.76756591796875,0.000025435350835323334,-0.0018570749089121819,-0.0005269669927656651
1782829449598494000,0.777493896484375,-0.00029520876705646515,-0.0011476092040538788,0.002755645662546158
1782829449608423200,0.787423095703125,0.001505788415670395,-0.0006981585174798965,-0.0012777876108884811
1782829449618352000,0.79735205078125,0.0006040418520569801,0.0014616651460528374,0.0009507453069090843
1782829449628280000,0.807280029296875,0.0022493647411465645,-0.0007318761199712753,-0.0013480568304657936
1782829449638209000,0.817208984375,0.001614733599126339,0.0005168803036212921,-0.0026564677245914936
1782829449648138000,0.827137939453125,-0.0008881464600563049,-0.00027483515441417694,-0.0030262861400842667
1782829449658067200,0.837067138671875,0.0017417250201106071,0.0019502360373735428,-0.00242973817512393
1782829449667995100,0.8469951171875,-0.0005137724801898003,0.001867649145424366,0.00030387379229068756
1782829449677924000,0.856924072265625,-0.0023116720840334892,-0.0006895177066326141,0.001990719698369503
1782829449687853000,0.86685302734375,0.0008675046265125275,0.00021634530276060104,0.00011047348380088806
1782829449697781000,0.876781005859375,-0.0009226715192198753,-0.000529605895280838,-0.0018376288935542107
1782829449707710200,0.886710205078125,-0.0001425091177225113,-0.0009064320474863052,-0.000150307547301054
1782829449717639200,0.89663916015625,0.003054083324968815,-0.0006100218743085861,-0.0004139603115618229
1782829449727567000,0.906567138671875,0.0006019696593284607,0.00039464328438043594,-0.0015246933326125145
1782829449737496000,0.91649609375,0.0005329931154847145,0.0007405877113342285,-0.0005944510921835899
1782829449747425000,0.926425048828125,0.0014491286128759384,-0.0014391960576176643,-0.0009794463403522968
1782829449757354200,0.936354248046875,0.0002890555188059807,-0.0009031016379594803,0.0012267166748642921
1782829449767282200,0.9462822265625,0.0009418437257409096,-0.0011009853333234787,-0.0004899259656667709
1782829449777211100,0.956211181640625,-0.002093893475830555,0.0014809491112828255,-0.0010633044876158237
1782829449787140000,0.96614013671875,0.00028923992067575455,-0.0003012837842106819,0.0004188641905784607
1782829449797068000,0.976068115234375,0.00017365813255310059,-0.000018722377717494965,-0.00003254227340221405
1782829449806997000,0.9859970703125,0.00038570258766412735,-0.002325066365301609,-0.0005161142908036709
1782829449816926200,0.99592626953125,0.002363632433116436,-0.0010731145739555359,-0.001566198654472828
1782829449826854100,1.005854248046875,0.00010117795318365097,-0.0001426665112376213,0.0006234291940927505
1782829449836783000,1.015783203125,0.0011877482756972313,0.001712491735816002,0.0003797495737671852
1782829449846712000,1.025712158203125,0.002656099386513233,0.0014829887077212334,-0.00027441373094916344
1782829449856641000,1.03564111328125,-0.0030228253453969955,-0.002219604328274727,-0.00003419630229473114
1782829449866569000,1.04556884765625,-0.0014954935759305954,0.0012175757437944412,0.0010660942643880844
1782829449876498200,1.055498291015625,0.002075538970530033,0.00016189832240343094,0.0014333445578813553
1782829449886427100,1.06542724609375,-0.0005689011886715889,0.0009739575907588005,0.000749640166759491
1782829449896355000,1.07535498046875,0.0006548212841153145,0.0004780776798725128,0.0033392980694770813
1782829449906284000,1.085283935546875,-0.0013681072741746902,0.0002149771898984909,0.0015202751383185387
1782829449916213200,1.095213134765625,-0.0011819526553153992,0.00045013427734375,-0.00007469207048416138
1782829449926141200,1.10514111328125,0.002811719663441181,0.0006391284987330437,0.000675588846206665
1782829449936070100,1.115070068359375,-0.001357991248369217,0.00016055814921855927,-0.0004378785379230976
1782829449945999000,1.1249990234375,-0.000594104640185833,-0.0009902967140078545,-0.0026436024345457554
1782829449955928000,1.134927978515625,0.0025668013840913773,-0.00111360102891922,-0.0004390380345284939
1782829449965856000,1.14485595703125,-0.0008106706663966179,-0.0021463315933942795,0.001548255793750286
1782829449975785200,1.15478515625,0.0005890866741538048,-0.0020813504233956337,-0.0009966609068214893
1782829449985714200,1.164714111328125,-0.00042276550084352493,-0.00010475143790245056,-0.00034117884933948517
1782829449995642000,1.17464208984375,-0.0006291605532169342,-0.001702648587524891,-0.0018714307807385921
1782829450005571000,1.184571044921875,0.0006833979859948158,-0.0015449309721589088,0.00023105647414922714
1782829450015500000,1.1945,0.000888461247086525,-0.0009305393323302269,0.003171718679368496
1782829450025428000,1.204427978515625,-0.002473411150276661,-0.00013629533350467682,0.00021454226225614548
1782829450035357200,1.214357177734375,-0.0004387563094496727,0.002078656107187271,0.0024531949311494827
1782829450045286100,1.2242861328125,-0.001809399574995041,0.001957726664841175,0.00046681053936481476
1782829450055215000,1.234215087890625,0.0007522944360971451,0.001926567405462265,-0.0005494519136846066
1782829450065143300,1.244143310546875,0.001983094960451126,0.00023310910910367966,-0.001968040131032467
1782829450075072500,1.254072509765625,-0.000997781753540039,0.003111453726887703,0.0007414594292640686
1782829450085001500,1.26400146484375,0.000887562520802021,0.0004910118877887726,0.0006978763267397881
1782829450094929400,1.273929443359375,0.0008588004857301712,0.0010129911825060844,-0.0019093584269285202
1782829450104858400,1.2838583984375,-0.0013808682560920715,0.000029968097805976868,-0.001587094273418188
1782829450114787300,1.293787353515625,0.0004146350547671318,0.0003988156095147133,0.0013045659288764
1782829450124715300,1.30371533203125,-0.00004916451871395111,-0.00018511898815631866,0.0011597098782658577
1782829450134644500,1.31364453125,-0.0013312110677361488,-0.00022133812308311462,-0.0013071764260530472
1782829450144573400,1.323573486328125,-0.0010008793324232101,-0.0010679224506020546,0.0002316311001777649
1782829450154502400,1.33350244140625,-0.001794234849512577,0.000020245090126991272,0.00036878418177366257
1782829450164430300,1.343430419921875,0.00006359070539474487,-0.0007676566019654274,-0.0023543257266283035
1782829450174359300,1.353359375,-0.00048022717237472534,-0.0008102674037218094,0.0020627928897738457
1782829450184288500,1.36328857421875,0.00015265308320522308,-0.0012127673253417015,0.0000695968046784401
1782829450194216400,1.373216552734375,0.0004195021465420723,-0.0005035679787397385,0.00023444648832082748
1782829450204145400,1.3831455078125,-0.0010255780071020126,-0.0007222825661301613,0.00041312631219625473
1782829450214074400,1.393074462890625,0.0009427638724446297,0.00010809116065502167,0.001641642302274704
1782829450224002300,1.403002197265625,0.0009070700034499168,-0.0003395034000277519,0.0002109929919242859
1782829450233931300,1.41293115234375,-0.001300424337387085,-0.0009954394772648811,-0.0008699838072061539
1782829450243860500,1.422860595703125,-0.00031028036028146744,0.0003172280266880989,-0.0009684260003268719
1782829450253789400,1.43278955078125,-0.0013960516080260277,-0.0010385867208242416,0.000509362667798996
1782829450263717400,1.44271728515625,-0.0012059016153216362,0.0008558696135878563,-0.0012385817244648933
1782829450273646300,1.452646240234375,0.0004540467634797096,0.0022116852924227715,-0.001107820775359869
1782829450283575300,1.4625751953125,0.000558534637093544,0.0010793311521410942,-0.00043653324246406555
1782829450293503500,1.47250341796875,-0.0006745094433426857,-0.0001446576789021492,-0.002730047795921564
1782829450303432400,1.482432373046875,0.002502037212252617,0.0004714168608188629,0.0030813412740826607
1782829450313361400,1.492361328125,0.0014945641160011292,0.0010860739275813103,8.624047040939331e-7
1782829450323290400,1.502290283203125,-0.0002974141389131546,-0.0005084536969661713,0.0011066095903515816
1782829450333218300,1.51221826171875,-0.0007032798603177071,0.0012463023886084557,0.0021833255887031555
1782829450343147500,1.5221474609375,-0.0009351382032036781,0.001182008534669876,-0.0029121069237589836
1782829450353076500,1.532076416015625,0.0000550244003534317,0.0011045103892683983,-0.0013472335413098335
1782829450363004400,1.54200439453125,0.0007464829832315445,0.0002926187589764595,-0.0014634700492024422
1782829450372933400,1.551933349609375,-0.0005392907187342644,-0.0030296742916107178,-0.0009574694558978081
1782829450382862300,1.5618623046875,0.00024115107953548431,-0.00079298485070467,0.0005321493372321129
1782829450392790300,1.571790283203125,0.0010329093784093857,-0.0003658132627606392,-0.00008091051131486893
1782829450402719500,1.581719482421875,0.0019657909870147705,-0.001462508924305439,-0.0007610307075083256
1782829450412648400,1.5916484375,-0.002768777310848236,-0.0021882206201553345,0.0000051604583859443665
1782829450422577400,1.601577392578125,-0.0013250168412923813,-0.000040493905544281006,-0.00007816683501005173
1782829450432505300,1.61150537109375,-0.0004935776814818382,-0.00018883217126131058,0.00015352852642536163
1782829450442434300,1.621434326171875,0.00046106986701488495,-0.00029739830642938614,-0.0013151885941624641
1782829450452363500,1.631363525390625,-0.00048488471657037735,-0.00023827608674764633,0.0035634562373161316
1782829450462291500,1.64129150390625,0.00090784952044487,-0.00040167197585105896,-0.0001999414525926113
1782829450472220400,1.651220458984375,-0.00006766710430383682,-0.000059721991419792175,-0.0013211322948336601
1782829450482149400,1.6611494140625,-0.00011567678302526474,0.0007697660475969315,-0.0003031175583600998
1782829450492077300,1.671077392578125,-0.0011700224131345749,0.0019122622907161713,-0.002679988741874695
1782829450502006300,1.68100634765625,0.0011837240308523178,-0.0011155623942613602,0.0016425158828496933
1782829450511935500,1.690935546875,-0.00047888699918985367,0.00004317890852689743,-0.0009519360028207302
1782829450521864400,1.700864501953125,0.0006434759125113487,0.0010009994730353355,0.000623549334704876
1782829450531792400,1.71079248046875,-0.00006758794188499451,0.001646815799176693,0.0002645552158355713
1782829450541721300,1.720721435546875,-0.0013175057247281075,-0.0009348234161734581,-0.00009998586028814316
1782829450551650600,1.730650634765625,0.0005285982042551041,-0.0007577231153845787,0.00031360331922769547
1782829450561578500,1.74057861328125,-0.0008428199216723442,-0.0009928327053785324,-0.00048341555520892143
1782829450571507500,1.750507568359375,0.00035427045077085495,-0.001425330527126789,-0.002718606498092413
1782829450581436400,1.7604365234375,-0.00027724169194698334,-0.0014964770525693893,-0.0011918479576706886
1782829450591364400,1.7703642578125,0.0007763048633933067,0.00012272503226995468,-0.0025982633233070374
1782829450601293300,1.780293212890625,-0.0008651632815599442,-0.0010980768129229546,0.0011154115200042725
1782829450611222500,1.790222412109375,-0.000973554328083992,-0.001989702694118023,0.0007777223363518715
1782829450621151500,1.8001513671875,0.0004315720871090889,-0.001277124509215355,-0.00021718163043260574
1782829450631079400,1.810079345703125,0.0002076001837849617,-0.0011679353192448616,0.0008374303579330444
1782829450641008400,1.82000830078125,0.000880691222846508,-0.000956222414970398,-0.0011097597889602184
1782829450650937300,1.829937255859375,0.00008786842226982117,-0.00148086529225111,-0.00030335457995533943
1782829450660865300,1.839865234375,0.0006285021081566811,0.0013106921687722206,-0.0002832319587469101
1782829450670794500,1.84979443359375,0.0004822947084903717,0.0008904449641704559,-0.0019972422160208225
1782829450680723500,1.859723388671875,0.0004471195861697197,0.0009213369339704514,-0.0032715247943997383
1782829450690652400,1.86965234375,-0.0014700908213853836,-0.0013599265366792679,0.00020043831318616867
1782829450700580400,1.879580322265625,0.00008348561823368073,0.002971877343952656,-0.0036800624802708626
1782829450710509300,1.88950927734375,0.0008201152086257935,0.00070978794246912,-0.00119719747453928
1782829450720438500,1.8994384765625,-0.0019489200785756111,0.0034898268058896065,0.0007429784163832664
1782829450730366500,1.909366455078125,-0.00028337910771369934,0.0028402823954820633,0.000239640474319458
1782829450740295400,1.91929541015625,-0.0013874517753720284,-0.0011288020759820938,0.0030735954642295837
1782829450750224400,1.929224365234375,0.00035691820085048676,0.0005782842636108398,-0.0013083694502711296
1782829450760152300,1.93915234375,0.005729250144213438,-0.00037226174026727676,-0.0007966626435518265
1782829450770081500,1.94908154296875,-0.0006612706929445267,-0.0004966314882040024,0.0005399780347943306
1782829450780010500,1.959010498046875,0.0014926260337233543,0.0009979456663131714,-0.0018751658499240875
1782829450789939500,1.968939453125,-0.002324216067790985,0.0009385570883750916,-0.0009771483018994331
1782829450799867400,1.978867431640625,-0.0009735682979226112,0.0009006736800074577,-0.00036904821172356606
1782829450809796400,1.98879638671875,0.0004155365750193596,-0.002570757642388344,-0.002577075269073248
1782829450819725600,1.9987255859375,0.0010995995253324509,-0.0017117168754339218,0.00018424727022647858
1782829450829653500,2.008653564453125,0.0007275557145476341,-0.00021528638899326324,0.00127507746219635
1782829450839582500,2.01858251953125,-0.0006863037124276161,-0.000258374959230423,-0.00014657387509942055
1782829450849511400,2.028511474609375,0.00007828976958990097,0.00032565556466579437,-0.00040330272167921066
1782829450859439400,2.038439453125,0.0010460717603564262,-0.0014094822108745575,0.0013217348605394363
1782829450869368300,2.048368408203125,0.0005760239437222481,-0.00014634430408477783,0.0017148172482848167
1782829450879297500,2.058297607421875,-0.0012804390862584114,-0.00036664027720689774,0.0002027619630098343
1782829450889226500,2.0682265625,-0.0012173214927315712,0.0008560167625546455,-0.000813234131783247
1782829450899154400,2.078154541015625,-0.0014620311558246613,0.0004322268068790436,-0.001544496975839138
1782829450909083400,2.08808349609375,0.0005241548642516136,-0.00016804970800876617,-0.001000413205474615
1782829450919012400,2.098012451171875,0.0008633974939584732,0.0014457283541560173,0.002325592562556267
1782829450928940300,2.107940185546875,0.0009627332910895348,-0.0010238215327262878,0.0022028209641575813
1782829450938869500,2.117869384765625,0.0003043990582227707,0.002023562788963318,-0.002466307021677494
1782829450948798500,2.127798583984375,-0.002490588463842869,-0.00006914976984262466,0.0021340372040867805
1782829450958727400,2.1377275390625,0.00006614625453948975,0.000010128132998943329,-0.0009220554493367672
1782829450968655400,2.1476552734375,0.0016946690157055855,-0.0011129267513751984,-0.001575062982738018
1782829450978584600,2.15758447265625,-0.0028993356972932816,0.0006339969113469124,0.0005478104576468468
1782829450988513500,2.167513427734375,0.0013835597783327103,0.0008521098643541336,0.0003422144800424576
1782829450998441500,2.17744140625,-0.0013673948124051094,-0.000733179971575737,0.0003420636057853699
1782829451008370400,2.187370361328125,-0.00025685690343379974,-0.0024746209383010864,-0.0007610172033309937
1782829451018299400,2.19729931640625,0.001273762434720993,-0.0010651834309101105,-0.001356202643364668
1782829451028227300,2.207227294921875,-0.0014301454648375511,-0.0006148423999547958,-0.002664347179234028
1782829451038156500,2.217156494140625,-0.0014484589919447899,-0.0014362651854753494,0.002746613696217537
1782829451048085500,2.22708544921875,0.0001499708741903305,-0.0002437010407447815,0.001928490586578846
1782829451058014500,2.237014404296875,-0.0020071296021342278,-0.00020834803581237793,0.00014378037303686142
1782829451067946500,2.246946533203125,0.00014550331979990005,-0.0026259655132889748,0.0013291537761688232
1782829451077875700,2.256875732421875,0.001445811241865158,-0.001004503108561039,-0.0007793353870511055
1782829451087804700,2.2668046875,0.00008387025445699692,0.00010150764137506485,-0.002005454618483782
1782829451097732600,2.276732666015625,-0.000268496572971344,-0.0014804210513830185,-0.002628477755934
1782829451107661600,2.28666162109375,0.0015504425391554832,0.0003992374986410141,-0.0012966305948793888
1782829451117590500,2.296590576171875,0.0005110939964652061,-0.00011044461280107498,-0.00035818060860037804
1782829451127519500,2.30651953125,0.001630154438316822,0.00008636340498924255,-0.0015659243799746037
1782829451137447700,2.31644775390625,0.0010115532204508781,0.0012095784768462181,0.0024852510541677475
1782829451147376600,2.326376708984375,-0.002938447520136833,0.001345665194094181,0.00034327059984207153
1782829451157305600,2.3363056640625,0.001913619227707386,0.003035619854927063,0.0011802185326814651
1782829451167233500,2.346233642578125,-0.000548473559319973,0.0013764705508947372,-0.0007345946505665779
1782829451177162800,2.356162841796875,0.0016945544630289078,0.0005391854792833328,0.0005284268409013748
1782829451187091700,2.366091796875,0.00330283772200346,0.000014542602002620697,0.00041897036135196686
1782829451197019600,2.37601953125,0.0013895342126488686,0.00048087816685438156,0.001344024669378996
1782829451206948600,2.385948486328125,0.0016015218570828438,-0.0007351217791438103,0.00197040056809783
1782829451216877600,2.395877685546875,-0.0005133403465151787,-0.002727578394114971,0.0023821587674319744
1782829451226806500,2.405806640625,-0.0009578214958310127,-0.00020263530313968658,0.0015866723842918873
1782829451236734700,2.415734619140625,-0.0018720859661698341,-0.000675438903272152,-0.00021517323330044746
1782829451246663700,2.42566357421875,-0.003255065530538559,0.0002587977796792984,0.0011664750054478645
1782829451256592600,2.435592529296875,-0.001664821058511734,-0.002774566411972046,0.0026259925216436386
1782829451266520600,2.4455205078125,-0.00018943008035421371,-0.000854959711432457,0.0011370191350579262
1782829451276449500,2.455449462890625,-0.0008438834920525551,-0.0008710315451025963,0.00005538575351238251
1782829451286378500,2.46537841796875,0.0001590624451637268,-0.0006353417411446571,0.003355841152369976
1782829451296307500,2.475307373046875,-0.00022637750953435898,0.0010132351890206337,-0.0008463868871331215
1782829451306235600,2.485235595703125,-0.0018256055191159248,0.0017053904011845589,-0.00021175574511289597
1782829451316164600,2.49516455078125,-2.3283064365386963e-8,0.0012134872376918793,-0.0013355868868529797
1782829451326093300,2.50509326171875,-0.0012335991486907005,0.001586063764989376,-0.0005126702599227428
1782829451336021500,2.515021484375,0.00019507482647895813,0.001345604658126831,0.00037960801273584366
1782829451345950700,2.52495068359375,0.0015588793903589249,0.0016694450750946999,0.0018555326387286186
1782829451355879400,2.53487939453125,0.00035645999014377594,0.0025111520662903786,-0.002565832808613777
1782829451365807600,2.5448076171875,0.00015459302812814713,0.00042962562292814255,-0.0008113421499729156
1782829451375736600,2.554736572265625,-0.000037388876080513,0.0007315734401345253,0.002654417883604765
1782829451385665500,2.56466552734375,-0.000049639493227005005,0.001288440078496933,-0.00011633476242423058
1782829451395594500,2.574594482421875,0.0010104123502969742,-0.0013580787926912308,-0.00010292092338204384
1782829451405522700,2.584522705078125,0.0008921679109334946,-0.0007724501192569733,-0.00009013758972287178
1782829451415451600,2.59445166015625,-0.0008501354604959488,0.002474929206073284,-0.0028222580440342426
1782829451425380400,2.60438037109375,0.002055905759334564,0.0008402811363339424,-0.0007386007346212864
1782829451435308500,2.61430859375,-0.0010684579610824585,-0.0007330020889639854,0.0005028140731155872
1782829451445237800,2.62423779296875,0.001153683289885521,-0.0010272813960909843,0.00026552705094218254
1782829451455166500,2.63416650390625,0.0008609704673290253,0.0016293823719024658,0.00017238827422261238
1782829451465095400,2.644095458984375,-0.000970751978456974,-0.00009048730134963989,-0.000008440576493740082
1782829451475023600,2.654023681640625,0.0010527735576033592,-0.00309089757502079,-0.0015744450502097607
1782829451484952600,2.66395263671875,0.0009403880685567856,-0.0002469085156917572,-0.00018507381901144981
1782829451494881500,2.673881591796875,-0.0012714890763163567,-0.0009554727002978325,-0.0021021259017288685
1782829451504809700,2.683809814453125,0.000590858981013298,0.00003202725201845169,-0.001154040452092886
1782829451514738400,2.693738525390625,-0.0012623853981494904,0.0018688859418034554,-0.0017553409561514854
1782829451524667400,2.70366748046875,0.00018450990319252014,-0.0015562055632472038,0.0012803967110812664
1782829451534596400,2.713596435546875,-0.0007604388520121574,0.0010030558332800865,0.0007992144674062729
1782829451544524500,2.723524658203125,0.000789787620306015,0.002284036949276924,-0.0012852419167757034
1782829451554453500,2.73345361328125,-0.001058666966855526,0.003932175226509571,0.000893780030310154
1782829451564382500,2.743382568359375,0.00047398172318935394,0.0008370503783226013,0.0032128607854247093
1782829451574310700,2.753310546875,-0.0012306217104196548,0.0020009195432066917,0.0009474069811403751
1782829451584239400,2.7632392578125,0.0001108124852180481,0.002230217680335045,0.00008694035932421684
1782829451594168300,2.773168212890625,-0.002077466808259487,0.004118897952139378,-0.0015793903730809689
1782829451604096800,2.7830966796875,0.00036625005304813385,0.00022722035646438599,-0.002581804059445858
1782829451614025500,2.793025390625,0.0011759055778384209,0.0017477702349424362,0.001042680349200964
1782829451623954400,2.802954345703125,-0.0013469066470861435,-0.0001718364655971527,-0.00032804813235998154
1782829451633883400,2.81288330078125,0.0007202178239822388,-0.0010527167469263077,-0.001744752749800682
1782829451643811600,2.8228115234375,0.0015497924759984016,-0.0012210290879011154,0.0018049748614430428
1782829451653740500,2.832740478515625,-0.00020108185708522797,-0.000026571564376354218,0.0009677973575890064
1782829451663669500,2.84266943359375,-0.0013009672984480858,-0.0010199304670095444,0.00009641097858548164
1782829451673597700,2.85259765625,0.000660737045109272,-0.0017889328300952911,0.002193882130086422
1782829451683526400,2.8625263671875,-0.002046366222202778,-0.0013662893325090408,0.0002910532057285309
1782829451693455400,2.872455322265625,0.002319958060979843,0.00024723727256059647,-0.001901575829833746
1782829451703384600,2.882384521484375,0.00012684427201747894,-0.0005807401612401009,-0.0017814673483371735
1782829451713312500,2.8923125,0.001324453391134739,0.0010136701166629791,0.0011393935419619083
1782829451723241500,2.902241455078125,-0.0001583946868777275,-0.0003378838300704956,-0.0000798017717897892
1782829451733170400,2.91217041015625,0.00013566017150878906,0.0004582135006785393,-0.0018161283805966377
1782829451743098600,2.9220986328125,0.0008299462497234344,0.00034476257860660553,0.0009817881509661674
1782829451753027300,2.93202734375,0.0007863938808441162,0.0025658197700977325,0.0019432022236287594
1782829451762956500,2.94195654296875,0.001434873789548874,-0.0008009476587176323,-0.001164973247796297
1782829451772884500,2.951884521484375,0.0002767704427242279,0.0015844376757740974,0.0020932117477059364
1782829451782813400,2.9618134765625,-0.0009357668459415436,-0.0006853751838207245,0.0006444519385695457
1782829451792742400,2.971742431640625,-0.00012336019426584244,0.002829715609550476,-0.002467778977006674
1782829451802671400,2.98167138671875,0.0006098076701164246,0.0011548539623618126,0.0006004483439028263
1782829451812599300,2.991599365234375,-0.0002568662166595459,-0.0011197132989764214,0.0016363146714866161
1782829451822528500,3.001528564453125,-0.0026742173358798027,0.0008193338289856911,-0.0007192515768110752
1782829451832457500,3.01145751953125,0.001423729583621025,0.0029393862932920456,0.0002287016250193119
1782829451842385400,3.021385498046875,0.00029934290796518326,0.0019076773896813393,-0.0013782498426735401
1782829451852314400,3.031314453125,0.0010748887434601784,-0.0006235837936401367,-0.00037757400423288345
1782829451862243600,3.04124365234375,-0.0007429849356412888,-0.0005215844139456749,0.0018107458017766476
1782829451872172500,3.051172607421875,0.0009547760710120201,0.0004008244723081589,-0.0010952204465866089
1782829451882100500,3.0611005859375,-0.000394381582736969,-0.0014308970421552658,0.0000866907648742199
1782829451892029400,3.071029541015625,-0.0012068422511219978,-0.0012423517182469368,0.002204581629484892
1782829451901958400,3.08095849609375,-0.00018871575593948364,-0.002049289643764496,-0.0002950616180896759
1782829451911886300,3.09088623046875,0.002161569893360138,0.0003184545785188675,0.0012489170767366886
1782829451921815600,3.100815673828125,-0.00008720345795154572,0.001241239719092846,-0.0018014670349657536
1782829451931744500,3.11074462890625,0.000014312565326690674,-0.0011320868507027626,0.0003184624947607517
1782829451941672400,3.12067236328125,0.0004998063668608665,0.00025222357362508774,-0.0023646727204322815
1782829451951601400,3.130601318359375,0.00016250181943178177,-0.0001727985218167305,0.0021614395081996918
1782829451961530400,3.1405302734375,0.00007488392293453217,-0.0006401827558875084,0.000657285563647747
1782829451971459600,3.15045947265625,-0.0012653209269046783,-0.0001614391803741455,0.0011235689744353294
1782829451981387500,3.160387451171875,-0.00015025492757558823,0.0014886558055877686,0.0005216943100094795
1782829451991316500,3.17031640625,0.00023521576076745987,0.0002576792612671852,0.001653042621910572
1782829452001245400,3.180245361328125,-0.0015400471165776253,0.0017690230160951614,-0.00010490976274013519
1782829452011173400,3.19017333984375,-0.0012935986742377281,0.003076259046792984,-0.0013953503221273422
1782829452021102300,3.200102294921875,-0.002393750473856926,0.0013851514086127281,-0.0010131867602467537
1782829452031031600,3.210031494140625,-0.0012439368292689323,-0.0009992597624659538,-0.00010193418711423874
1782829452040960500,3.21996044921875,0.0016823448240756989,0.000882529653608799,-0.00011924467980861664
1782829452050888400,3.229888427734375,-0.0002998020499944687,0.0003229323774576187,0.0013582915998995304
1782829452060817400,3.2398173828125,0.00016811583191156387,-0.0016680462285876274,-0.0005519934929907322
1782829452070742000,3.249741943359375,0.00006951205432415009,-0.00017869286239147186,-0.0005788165144622326
1782829452080670000,3.259669921875,-0.00254864152520895,-0.000389881432056427,0.0013740789145231247
1782829452090599000,3.269598876953125,0.0009240554645657539,-0.001794327050447464,0.0006832797080278397
1782829452100527900,3.27952783203125,0.0013722656294703484,-0.0028995387256145477,0.00059459637850523
1782829452110456800,3.289456787109375,0.00037860870361328125,0.0009870156645774841,-0.0010768515057861805
1782829452120385000,3.299385009765625,0.002044948749244213,-0.0010313941165804863,0.0011791125871241093
1782829452130314000,3.30931396484375,-0.0035423357039690018,-0.0004520844668149948,-0.00030886055901646614
1782829452140242700,3.31924267578125,-0.0012147333472967148,-0.00013756565749645233,-0.0017999648116528988
1782829452150171000,3.3291708984375,0.0016235969960689545,-0.0005427394062280655,-0.00014089280739426613
1782829452160099800,3.339099853515625,-0.00240523274987936,0.0009361132979393005,0.0005917423404753208
1782829452170028800,3.34902880859375,-0.0007507558912038803,0.001995147205889225,-0.0005246573127806187
1782829452179957000,3.35895703125,-0.0003534127026796341,-0.0011476492509245872,0.00047749001532793045
1782829452189886000,3.368885986328125,-0.0005376804620027542,0.00008177291601896286,0.00054119061678648
1782829452199815000,3.37881494140625,0.0014445111155509949,-0.00019066780805587769,-0.0011954568326473236
1782829452209743600,3.38874365234375,-0.0016224700957536697,-0.0008728355169296265,-0.0001247180625796318
1782829452219671800,3.398671875,-0.0007356377318501472,-0.000024884939193725586,-0.0027133109979331493
1782829452229601000,3.40860107421875,-0.00019869115203619003,-0.0009117359295487404,-0.0003920667804777622
1782829452239529700,3.41852978515625,0.00011662766337394714,0.0012424951419234276,0.0005685356445610523
1782829452249458000,3.4284580078125,0.0019336622208356857,-0.0009636487811803818,-0.0024914578534662724
1782829452259387000,3.438386962890625,0.00015999656170606613,0.0011306609958410263,0.001715271733701229
1782829452269315800,3.44831591796875,-0.00018209777772426605,0.00038234610110521317,0.0013446556404232979
1782829452279244800,3.458244873046875,0.00014946609735488892,-0.0005068834871053696,0.0003896458074450493
1782829452289173000,3.468173095703125,-0.00030497461557388306,-0.001434890553355217,0.0030845929868519306
1782829452299102000,3.47810205078125,0.000047361478209495544,-0.0007302183657884598,-0.0009423727169632912
1782829452309030700,3.48803076171875,0.0006896378472447395,-0.0012036273255944252,0.002618584781885147
1782829452318958800,3.497958740234375,0.0009868461638689041,0.0004973337054252625,0.0007855314761400223
1782829452328888000,3.50788818359375,0.0012700250372290611,-0.0020468970760703087,0.0001888810656964779
1782829452338816800,3.517816650390625,-0.0015468001365661621,-0.003076741471886635,0.0008317683823406696
1782829452348745700,3.527745849609375,-0.0007084626704454422,0.0023086685687303543,-0.000575406476855278
1782829452358674000,3.537673828125,-0.002453099936246872,-0.0015774164348840714,-0.0002592895179986954
1782829452368603000,3.547602783203125,-0.0018322663381695747,-0.0003085266798734665,0.0011361031793057919
1782829452378531800,3.55753173828125,-0.00022931024432182312,0.0017370479181408882,0.0009488831274211407
1782829452388460000,3.5674599609375,0.00360737182199955,0.0037680277600884438,-0.00016107643023133278
1782829452398388700,3.577388671875,-0.0002361023798584938,0.0010963436216115952,-0.0012748106382787228
1782829452408317700,3.587317626953125,-0.00038921739906072617,-0.000006872229278087616,0.0033526024781167507
1782829452418246700,3.59724658203125,-0.00002596154808998108,-0.002186935395002365,-0.00005650985985994339
1782829452428174800,3.6071748046875,0.0002565775066614151,0.0004326179623603821,-0.0009409580379724503
1782829452438103800,3.617103759765625,-0.0015146909281611443,0.00004752445966005325,0.00026172539219260216
1782829452448032800,3.62703271484375,-0.0014207055792212486,0.003048243932425976,0.0017529069446027279
1782829452457961000,3.6369609375,0.0004949057474732399,-0.0002130633220076561,-0.0017874990589916706
1782829452467889700,3.6468896484375,0.0002926541492342949,-0.000576438382267952,-0.0007506664842367172
1782829452477818600,3.656818603515625,0.0006982535123825073,0.0007620668038725853,0.00009834952652454376
1782829452487746800,3.666746826171875,-0.0001071905717253685,-0.0008747251704335213,0.0002650124952197075
1782829452497675800,3.67667578125,-0.00044993963092565536,-0.00034209340810775757,-0.0007717562839388847
1782829452507604700,3.686604736328125,-0.00013453233987092972,-0.000029771588742733002,-0.0016955016180872917
1782829452517533700,3.69653369140625,0.00022259727120399475,0.0018083415925502777,0.0004776380956172943
1782829452527462000,3.7064619140625,0.0007692379876971245,-0.00010042916983366013,-0.0009033787064254284
1782829452537390600,3.716390625,-0.0006510261446237564,0.00020876340568065643,-0.002625645138323307
1782829452547319800,3.72631982421875,0.0014009932056069374,0.00023129582405090332,0.00031266873702406883
1782829452557248000,3.736248046875,0.0009450605139136314,-0.0021074917167425156,0.0006101434119045734
1782829452567176700,3.7461767578125,-0.0010330695658922195,-0.0013258494436740875,-0.0004724077880382538
1782829452577105700,3.756105712890625,-0.00007086992263793945,-0.0006568636745214462,0.00005942583084106445
1782829452587035000,3.766034912109375,-0.0026293201372027397,-0.0009249411523342133,0.0027087070047855377
1782829452596962800,3.775962890625,-0.001024765893816948,0.001104920171201229,0.00032757408916950226
1782829452606891800,3.785891845703125,0.0016173440963029861,-0.005102251656353474,0.00025039631873369217
1782829452616820700,3.79582080078125,-0.0010087992995977402,0.0011130338534712791,-0.002058830577880144
1782829452626749000,3.8057490234375,0.001269843429327011,0.0013245660811662674,0.000911700539290905
1782829452636677600,3.815677734375,0.0007931375876069069,-0.001181202009320259,0.0014813505113124847
1782829452646606800,3.82560693359375,0.0005364539101719856,0.00017295405268669128,-0.0012193634174764156
1782829452656535800,3.835535888671875,0.0006219418719410896,0.00006376486271619797,-0.002520584035664797
1782829452666463700,3.845463623046875,-0.0011048903688788414,0.0003347955644130707,-0.0014973306097090244
1782829452676392700,3.855392822265625,-0.00257069431245327,0.0006735501810908318,0.0007000435143709183
1782829452686321700,3.86532177734375,-0.0025330428034067154,0.0009556282311677933,0.000361686572432518
1782829452696249600,3.87524951171875,0.0012137582525610924,-0.0006364090368151665,-0.0004244791343808174
1782829452706178800,3.8851787109375,-0.0005752192810177803,-0.0009076837450265884,0.0031868712976574898
1782829452716107800,3.895107666015625,0.0003984319046139717,-0.0004267171025276184,0.0007628621533513069
1782829452726036700,3.90503662109375,0.0014059115201234818,-0.001003785990178585,-0.0006081233732402325
1782829452735964700,3.914964599609375,-0.0013640420511364937,0.0008252738043665886,0.0018414519727230072
1782829452745893600,3.9248935546875,-0.0006971331313252449,0.0008975006639957428,0.000019395723938941956
1782829452755822800,3.93482275390625,-0.0008558575063943863,-0.0005986634641885757,-0.0029692035168409348
1782829452765750800,3.944750732421875,-0.00016597099602222443,-0.0002853507176041603,-0.0004824995994567871
1782829452775679700,3.9546796875,-0.0018259193748235703,-0.0023828567937016487,0.0006003417074680328
1782829452785608700,3.964608642578125,-0.0004893513396382332,-0.0015035197138786316,0.0011396827176213264
1782829452795537700,3.97453759765625,0.0006757816299796104,-0.0010390644893050194,-0.00019402801990509033
1782829452805465900,3.9844658203125,-0.0005808332934975624,-0.00012248940765857697,0.00019707996398210526
1782829452815394800,3.994394775390625,-0.00023888330906629562,-0.0002641696482896805,-0.0010823030024766922
1782829452825323800,4.00432373046875,-0.0016746735200285912,-0.0009079212322831154,0.003360842354595661
1782829452835251700,4.014251708984375,0.0011823661625385284,-0.0007148422300815582,0.0010811761021614075
1782829452845180700,4.0241806640625,-0.0005095666274428368,-0.0010565966367721558,-0.0020567416213452816
1782829452855110000,4.03410986328125,-0.0006765462458133698,0.002077944576740265,-0.0003176974132657051
1782829452865038800,4.044038818359375,-0.0014091841876506805,0.0011441316455602646,-0.003589809872210026
1782829452874966800,4.053966796875,-0.0005516465753316879,0.00015290267765522003,0.0008289068937301636
1782829452884895700,4.063895751953125,-0.00216018408536911,0.0007080333307385445,-0.0005657617002725601
1782829452894824700,4.07382470703125,0.00015250500291585922,0.0026870276778936386,-0.0001063663512468338
1782829452904752600,4.083752685546875,-0.00035194680094718933,-0.00032942183315753937,0.0027308911085128784
1782829452914681900,4.093681884765625,-0.0003391643986105919,-0.00014566350728273392,0.0012570973485708237
1782829452924610800,4.10361083984375,0.0017044348642230034,-0.00038406625390052795,-0.0011603310704231262
1782829452934538800,4.113538818359375,0.0004610056057572365,-0.001008843071758747,0.00002983585000038147
1782829452944467700,4.1234677734375,0.00011140666902065277,0.001114347018301487,0.0022499458864331245
1782829452954396700,4.133396728515625,0.00018464401364326477,-0.00008806958794593811,-0.00059138098731637
1782829452964326000,4.143325927734375,-0.0013014096766710281,-0.0009849891066551208,-0.0012653730809688568
1782829452974253800,4.15325390625,0.0005870377644896507,0.001926644705235958,-0.0006571072153747082
1782829452984182800,4.163182861328125,-0.0013626599684357643,-0.00024263374507427216,-0.00017760088667273521
1782829452994111700,4.17311181640625,0.00013350415974855423,-0.001065017655491829,0.0013294825330376625
1782829453004039700,4.183039794921875,-0.0016029458492994308,-0.0012516342103481293,-0.0014639259316027164
1782829453013969000,4.192968994140625,0.0004024142399430275,-0.0006918376311659813,0.001032254658639431
1782829453023897900,4.20289794921875,0.0003823786973953247,-0.0010810093954205513,-0.0011357828043401241
1782829453033826800,4.212826904296875,0.0009240657091140747,0.00020263437181711197,0.00017529167234897614
1782829453043754800,4.222754638671875,-0.00028531160205602646,-0.0011354293674230576,-0.00029611075296998024
1782829453053683700,4.23268359375,0.00006702449172735214,-0.0016901660710573196,-0.0012633707374334335
1782829453063613000,4.242613037109375,-0.001158660277724266,-0.0006327414885163307,0.0013866452500224113
1782829453073541400,4.252541259765625,-0.0015576016157865524,-0.00006708595901727676,0.0009227227419614792
1782829453083470300,4.26247021484375,0.002579418011009693,-0.00018965918570756912,-0.0010047401301562786
1782829453093399600,4.272399658203125,-0.0010893521830439568,0.0002689370885491371,0.0030046487227082253
1782829453103328500,4.28232861328125,0.0012489119544625282,0.002102075144648552,0.00017279572784900665
1782829453113256400,4.29225634765625,-0.0003990521654486656,0.003251495771110058,0.0004351167008280754
1782829453123185400,4.302185302734375,-0.002622254192829132,0.000022542662918567657,0.001295960508286953
1782829453133114400,4.3121142578125,-0.0024813730269670486,-0.0010017091408371925,0.0008679898455739021
1782829453143042300,4.322042236328125,-0.00042782723903656006,0.0016749277710914612,-0.0027765464037656784
1782829453152971500,4.331971435546875,0.00028004124760627747,0.0008735833689570427,-0.001005011610686779
1782829453162900500,4.341900390625,0.0010852338746190071,0.0010002348572015762,-0.0005200691521167755
1782829453172829400,4.351829345703125,0.0014567449688911438,0.0005805203691124916,-0.0013035712763667107
1782829453182757400,4.36175732421875,0.0003600073978304863,0.00044421758502721786,-0.0009579784236848354
1782829453192686300,4.371686279296875,-0.001375041902065277,0.0006865654140710831,0.00004257168620824814
1782829453202615600,4.381615478515625,0.00003632623702287674,-0.00021557416766881943,0.000388316810131073
1782829453212543500,4.39154345703125,0.0016323588788509369,0.0013586198911070824,0.0024112537503242493
1782829453222472400,4.401472412109375,-0.0014829505234956741,0.002137061208486557,-0.001689255703240633
1782829453232401400,4.4114013671875,-0.0013729613274335861,-0.00005258992314338684,0.001176837831735611
1782829453242330400,4.421330322265625,-0.00151141919195652,-0.0009271902963519096,-0.003385694231837988
1782829453252258300,4.43125830078125,0.0013400278985500336,-0.00002011749893426895,0.00040345173329114914
1782829453262187500,4.4411875,0.0003421073779463768,-0.0014985781162977219,-0.0018184930086135864
1782829453272116500,4.451116455078125,0.001950923353433609,0.002320927567780018,-0.0005577527917921543
1782829453282044400,4.46104443359375,-0.001046774908900261,0.0027287686243653297,0.0008530477061867714
1782829453291973400,4.470973388671875,0.001894952729344368,0.0038334475830197334,-0.00007932540029287338
1782829453301902300,4.48090234375,-0.0010317768901586533,-0.0012254547327756882,0.0032582255080342293
1782829453311830500,4.49083056640625,0.0012782495468854904,0.00004167761653661728,0.0021884338930249214
1782829453321759500,4.500759521484375,0.002037373371422291,0.0018401173874735832,0.0029467567801475525
1782829453331688400,4.5106884765625,-0.003706797957420349,-0.0018704645335674286,0.0011299485340714455
1782829453341617400,4.520617431640625,-0.001409083604812622,-0.0006849756464362144,-0.0022713197395205498
1782829453351545300,4.53054541015625,-0.0007571419700980186,-0.0000980151817202568,0.0005966387689113617
1782829453361474600,4.540474609375,0.0013142609968781471,0.000931992195546627,-0.0021918234415352345
1782829453371403500,4.550403564453125,0.00031477678567171097,0.0002004215493798256,-0.0003340025432407856
1782829453381331500,4.56033154296875,-0.00021148286759853363,-0.0020671188831329346,0.0012106550857424736
1782829453391260400,4.570260498046875,-0.0011723507195711136,-0.0006513828411698341,0.0010484689846634865
1782829453401189400,4.580189453125,-0.0006754128262400627,0.0006321519613265991,0.0005227038636803627
1782829453411118600,4.59011865234375,0.0008870633319020271,-0.00020993966609239578,0.0008811652660369873
1782829453421046500,4.600046630859375,-0.001338697038590908,-0.00021902844309806824,0.0012418236583471298
1782829453430975500,4.6099755859375,-0.00035599060356616974,-0.00010903924703598022,-0.00007883831858634949
1782829453440904400,4.619904541015625,0.0016012582927942276,-0.0008061006665229797,0.004399102181196213
1782829453450832400,4.629832275390625,-0.00024111662060022354,-0.00047720037400722504,-0.0004044417291879654
1782829453460761300,4.63976123046875,0.0010730931535363197,0.00022518914192914963,0.0006096279248595238
1782829453470690600,4.649690673828125,-0.0000757947564125061,-0.00004112720489501953,0.0001150788739323616
1782829453480619500,4.65961962890625,-0.0005134213715791702,-0.002046935260295868,-0.0010185688734054565
1782829453490547500,4.66954736328125,0.0005425214767456055,0.0010308800265192986,0.0003023585304617882
1782829453500476400,4.679476318359375,-0.0009220726788043976,0.0015341155230998993,0.000433947890996933
1782829453510405400,4.6894052734375,-0.0010187458246946335,0.0002773702144622803,0.0016235820949077606
1782829453520333600,4.69933349609375,0.00040560681372880936,-0.0021163970232009888,-0.00019094767048954964
1782829453530262500,4.709262451171875,0.000011991709470748901,0.0007952367886900902,0.00048309843987226486
1782829453540191500,4.71919140625,0.0008654817938804626,0.0010702433064579964,0.00043123262003064156
1782829453550120400,4.729120361328125,0.0008524321019649506,0.000257980078458786,-0.0006023398600518703
1782829453560048400,4.73904833984375,0.0004936018958687782,0.0017612800002098083,0.00012555206194519997
1782829453569977600,4.7489775390625,0.00107523612678051,-0.0008028112351894379,0.0018832380883395672
1782829453579906600,4.758906494140625,-0.001886710524559021,-0.00040131062269210815,-0.0014891652390360832
1782829453589834500,4.76883447265625,0.0004518115893006325,-0.00028200075030326843,-0.0022798581048846245
1782829453599763500,4.778763427734375,-0.0013065673410892487,0.0005780616775155067,0.0010740216821432114
1782829453609692400,4.7886923828125,-0.000022923573851585388,-0.002003607340157032,-0.0003062947653234005
1782829453619621600,4.79862158203125,-0.001043735072016716,-0.0010153008624911308,-0.0018116706050932407
1782829453629549600,4.808549560546875,-0.0019366927444934845,-0.0016307570040225983,0.0013271309435367584
1782829453639478500,4.818478515625,-0.00020372867584228516,-0.0005679400637745857,0.0017824438400566578
1782829453649407500,4.828407470703125,0.0022815335541963577,-0.0012142891064286232,-0.0005201250314712524
1782829453659335400,4.83833544921875,-0.0011747907847166061,-0.0016313986852765083,0.0021813809871673584
1782829453669264400,4.848264404296875,0.0008087316527962685,-0.0002766484394669533,-0.0015475773252546787
1782829453679193600,4.858193603515625,-0.0008061816915869713,-0.001540093682706356,0.0002895062789320946
1782829453689122600,4.86812255859375,-0.0005630357190966606,-0.0008620526641607285,0.00010814517736434937
1782829453699050500,4.878050537109375,0.0009945807978510857,0.0009506428614258766,-0.0016722562722861767
1782829453708979500,4.8879794921875,0.0012052375823259354,0.0011546416208148003,0.002045782282948494
1782829453718908400,4.897908447265625,-0.0003809817135334015,0.002502819523215294,-0.0006875027902424335
1782829453728836400,4.90783642578125,-0.0009082872420549393,0.00022954493761062622,0.001773524098098278
1782829453738765600,4.917765625,-0.0003924733027815819,-0.0023579848930239677,0.00035229651257395744
1782829453748694500,4.927694580078125,0.0012967698276042938,0.0023201238363981247,0.000716350506991148
1782829453758623500,4.93762353515625,-0.0009751161560416222,-0.00013862084597349167,0.00045557180419564247
1782829453768551400,4.947551513671875,-0.000197472982108593,0.0019237315282225609,0.0004742140881717205
1782829453778480400,4.95748046875,-0.0014829253777861595,0.00021708104759454727,0.0011500660330057144
1782829453788409300,4.967409423828125,-0.0010480312630534172,-0.0004066312685608864,-0.0017980532720685005
1782829453798337500,4.977337646484375,0.0013213790953159332,0.0003942027688026428,0.0005353386513888836
1782829453808266500,4.9872666015625,0.0016372296959161758,-0.0005016839131712914,-0.0018497887067496777
1782829453818195500,4.997195556640625,0.00005285441875457764,0.00002407841384410858,0.0012127561494708061
1782829453828124400,5.00712451171875,0.001348748803138733,-0.0002659400925040245,0.00346472579985857
1782829453838052600,5.017052490234375,-0.002236703410744667,-0.0005274750292301178,0.0015877080149948597
1782829453847981600,5.026981689453125,-0.0011274972930550575,-0.00015915930271148682,-0.0021891873329877853
1782829453857910300,5.03691015625,-0.00006573088467121124,0.0006149662658572197,0.0014845295809209347
1782829453867838500,5.04683837890625,0.0014674514532089233,0.000040522776544094086,-0.0006529232487082481
1782829453877767400,5.056767333984375,-0.001517116092145443,-0.001044319011271,0.0022611431777477264
1782829453887696400,5.0666962890625,0.0009343232959508896,0.00006195809692144394,0.0021285172551870346
1782829453897625300,5.076625244140625,-0.0020156316459178925,0.0013517970219254494,-0.000649601686745882
1782829453907553500,5.086553466796875,0.00010078307241201401,-0.001466626301407814,-0.0007625198923051357
1782829453917482500,5.096482421875,-0.000046467408537864685,0.0001258067786693573,-0.0004874514415860176
1782829453927411200,5.1064111328125,-0.002100563608109951,0.000026470981538295746,-0.000670410692691803
1782829453937339400,5.11633935546875,0.0009814118966460228,-0.00034750718623399734,-0.0006827465258538723
1782829453947268600,5.1262685546875,-0.002470044419169426,0.000038918107748031616,0.002125023864209652
1782829453957197300,5.136197265625,-0.002310369163751602,-0.00029336661100387573,0.0020245076157152653
1782829453967126300,5.146126220703125,0.00044333934783935547,0.00091544259339571,-0.0029023406095802784
1782829453977054500,5.156054443359375,0.00048659835010766983,0.0023499801754951477,-0.00015859538689255714
1782829453986983400,5.1659833984375,-0.0012689568102359772,0.00134330615401268,-0.0016451715491712093
1782829453996912400,5.175912353515625,0.00015171803534030914,-0.0006307698786258698,0.000008979812264442444
1782829454006840600,5.185840576171875,-0.003136754035949707,-0.001967676915228367,0.002521672286093235
1782829454016769500,5.19576953125,0.00044426415115594864,0.00000106077641248703,-0.0018376540392637253
1782829454026698200,5.2056982421875,0.0014304323121905327,-0.0017244014889001846,0.000581562053412199
1782829454036626400,5.21562646484375,-0.0007376819849014282,0.00034613534808158875,-0.0018317545764148235
1782829454046555400,5.225555419921875,0.0011963052675127983,-0.0003936905413866043,-0.000590987503528595
1782829454056484400,5.235484375,-0.002142704091966152,-0.0014877161011099815,-0.0023479918017983437
1782829454066413300,5.245413330078125,-0.0009842291474342346,-0.0010735951364040375,0.00181293161585927
1782829454076341200,5.25534130859375,0.0005080262199044228,-0.0020612189546227455,-0.002555600367486477
1782829454086270200,5.265270263671875,-0.00031702127307653427,-0.0016950350254774094,0.0009951922111213207
1782829454096199200,5.27519921875,0.0004107402637600899,-0.001317501999437809,-0.001319668721407652
1782829454106127400,5.28512744140625,0.0011388491839170456,-0.0012780874967575073,-0.000006197486072778702
1782829454116056300,5.295056396484375,0.00038258545100688934,-0.0012229979038238525,-0.00010222010314464569
1782829454125985000,5.304985107421875,0.00043425150215625763,0.00017116684466600418,0.000875160563737154
1782829454135914000,5.3149140625,-0.0011232011020183563,-0.001145905815064907,0.0027091801166534424
1782829454145842400,5.324842529296875,0.00039480067789554596,0.0008152462542057037,-0.000754527747631073
1782829454155771100,5.334771240234375,-0.00008221250027418137,0.0013202326372265816,0.0011510145850479603
1782829454165700000,5.3447001953125,-0.00011097453534603119,0.0010776184499263763,-0.0017835223115980625
1782829454175628300,5.354628173828125,0.00007153116166591644,0.0001328885555267334,0.00011041946709156036
1782829454185557200,5.36455712890625,-0.0006451252847909927,0.0011115996167063713,-0.0023085298016667366
1782829454195486200,5.374486328125,-0.0006111683323979378,0.0019017253071069717,-0.004705003462731838
1782829454205415200,5.384415283203125,0.0008876584470272064,0.0025323620066046715,-0.0009126621298491955
1782829454215343400,5.39434326171875,0.0004437752068042755,0.0012601865455508232,0.00041716592386364937
1782829454225272000,5.40427197265625,-0.0002712830901145935,0.0015757707878947258,0.0003167646937072277
1782829454235201000,5.414200927734375,0.0017136037349700928,-0.0009221518412232399,0.0031092860735952854
1782829454245129200,5.424129150390625,-0.0012867134064435959,-0.001970105804502964,0.0009870133362710476
1782829454255058200,5.43405810546875,-0.001436423510313034,-0.00146558228880167,0.003268892876803875
1782829454264987100,5.443987060546875,0.0022027865052223206,-0.0009135082364082336,0.0012169266119599342
1782829454274916000,5.453916015625,-0.0007941704243421555,-0.0023151617497205734,0.0009825779125094414
1782829454284844300,5.46384423828125,0.0022868402302265167,0.0005815578624606133,0.001088305376470089
1782829454294773000,5.47377294921875,0.0014820694923400879,-0.0019025849178433418,-0.0008880337700247765
1782829454304702200,5.4837021484375,0.0009164148941636086,-0.0007750028744339943,-0.0013122749514877796
1782829454314630100,5.493630126953125,0.00031681638211011887,0.00023135636001825333,-0.000340320635586977
1782829454324559000,5.50355908203125,-0.0012901350855827332,0.00048196036368608475,0.0012170965783298016
1782829454334488000,5.513488037109375,0.00004812795668840408,-0.0018439088016748428,0.002681175246834755
1782829454344417000,5.5234169921875,-0.00004721339792013168,0.0004986077547073364,0.0001860596239566803
1782829454354345000,5.533344970703125,-0.002563212066888809,-0.0006141876801848412,0.0006625493988394737
1782829454364274200,5.543274169921875,-0.0010657161474227905,0.0005448199808597565,-0.001866122242063284
1782829454374203100,5.553203125,-0.0008421195670962334,0.001306762918829918,0.0016767545603215694
1782829454384131000,5.563131103515625,-0.0012703565880656242,0.0034769726917147636,-0.0038967086002230644
1782829454394060000,5.57306005859375,-0.000859919935464859,0.0025045396760106087,0.0004198690876364708
1782829454403989200,5.5829892578125,-0.0010841581970453262,0.0025037406012415886,0.00212828628718853
1782829454413918200,5.592918212890625,0.00010535214096307755,-0.0002186894416809082,-0.0015100347809493542
1782829454423846100,5.60284619140625,-0.0010797549039125443,0.0005032932385802269,0.0008356776088476181
1782829454433775000,5.612775146484375,-0.0007516080513596535,0.0005825432017445564,-0.0013375510461628437
1782829454443704000,5.6227041015625,-0.0003974074497818947,0.00040144845843315125,0.0007799286395311356
1782829454453632000,5.632632080078125,-0.00025488901883363724,-0.0007153172045946121,-0.0019591450691223145
1782829454463561200,5.642561279296875,0.0009073149412870407,-0.0008641881868243217,0.0012235986068844795
1782829454473490200,5.652490234375,-0.00010501407086849213,-0.0010359128937125206,0.0006426386535167694
1782829454483419100,5.662419189453125,-0.0010637519881129265,-0.0014670789241790771,0.00000880565494298935
1782829454493347000,5.67234716796875,-0.00017134007066488266,-0.0011848248541355133,-0.002939312718808651
1782829454503276000,5.682276123046875,0.00025929324328899384,-0.00003860052675008774,-0.001269510481506586
1782829454513205200,5.692205322265625,-0.0010861651971936226,-0.0008937455713748932,0.0002095680683851242
1782829454523133200,5.70213330078125,-0.000900808721780777,0.001682063564658165,0.0025313114747405052
1782829454533062100,5.712062255859375,-0.000021414831280708313,0.00004169624298810959,-0.0007223943248391151
1782829454542991000,5.7219912109375,0.0005330555140972137,-0.0004307487979531288,0.0006866846233606339
1782829454552920000,5.731920166015625,0.00029318220913410187,-0.00013143476098775864,0.0019215475767850876
1782829454562848000,5.741847900390625,0.0014481954276561737,0.0004504658281803131,0.001230456866323948
1782829454572777200,5.751777099609375,0.00021668057888746262,-0.0012561483308672905,-0.001682467758655548
1782829454582706200,5.7617060546875,-0.0015958668664097786,-0.0010452261194586754,-0.0005154707469046116
1782829454592634000,5.771634033203125,0.0006008483469486237,0.002428063191473484,-0.0017846710979938507
1782829454602563000,5.78156298828125,-0.0004106201231479645,0.0014972882345318794,-0.0009769345633685589
1782829454612492000,5.791491943359375,0.0015535671263933182,0.0014549707993865013,0.001232946291565895
1782829454622421200,5.801421142578125,0.0014409152790904045,0.0010823952034115791,0.001195661723613739
1782829454632349200,5.81134912109375,-0.0003983424976468086,-0.0007399013265967369,0.0020281868055462837
1782829454642278100,5.821278076171875,-0.000778641551733017,0.000823640264570713,0.0017956923693418503
1782829454652207000,5.83120703125,-0.0006288457661867142,0.001064518466591835,-0.0006612436845898628
1782829454662135000,5.841135009765625,0.0015562772750854492,0.0017015468329191208,0.00010041985660791397
1782829454672064300,5.851064208984375,-0.00012070406228303909,-0.00042716600000858307,-0.0018051941879093647
1782829454681993200,5.8609931640625,-0.0005598589777946472,-0.0008479449898004532,-0.0002179499715566635
1782829454691922200,5.870922119140625,-0.00025754794478416443,-0.0005510393530130386,-0.0014361473731696606
1782829454701850000,5.88085009765625,0.0011786939576268196,-0.0009201532229781151,-0.0020161839202046394
1782829454711779000,5.890779052734375,0.00010908488184213638,-0.0004402017220854759,-0.00021213339641690254
1782829454721708300,5.900708251953125,0.0007913867011666298,0.0009672790765762329,-0.0007069488056004047
1782829454731636200,5.91063623046875,-0.0010371087118983269,-0.0000837845727801323,0.0011904845014214516
1782829454741565200,5.920565185546875,-0.0010003577917814255,0.0008922647684812546,-0.0007661404088139534
1782829454751494100,5.930494140625,-0.0009628599509596825,-0.0005122218281030655,0.00044735707342624664
1782829454761423000,5.940423095703125,-0.0009093303233385086,-0.0019982652738690376,0.001844717189669609
1782829454771351000,5.95035107421875,0.0016323067247867584,0.0013848477974534035,-0.00024089403450489044
1782829454781282300,5.9602822265625,-0.0013506999239325523,0.00022876914590597153,0.0003151744604110718
1782829454791211000,5.9702109375,0.00029138848185539246,0.00020206812769174576,-0.0008193724788725376
1782829454801140200,5.98014013671875,0.0014357483014464378,0.000980776734650135,-0.0031946455128490925
1782829454811068400,5.990068359375,-0.0005550337955355644,0.0015084994956851006,-0.0012857806868851185
1782829454820997000,5.9999970703125,0.0008628331124782562,-0.000012697651982307434,0.00154862180352211
1782829454830926000,6.009926025390625,-0.00007077306509017944,0.0030033234506845474,0.001484200358390808
1782829454840855000,6.01985498046875,-0.00043482705950737,0.0027188975363969803,0.0017885994166135788
1782829454850783200,6.029783203125,-0.0006862189620733261,0.00089255440980196,-0.00032456405460834503
1782829454860712200,6.039712158203125,-0.0015727858990430832,0.001902424730360508,0.0013396451249718666
1782829454870641200,6.04964111328125,-0.0005348660051822662,-0.0026161447167396545,0.0009424528107047081
1782829454880569300,6.0595693359375,-0.0006539095193147659,0.0016379887238144875,0.0016348743811249733
1782829454890498000,6.069498046875,-0.0016228929162025452,-0.0013898825272917747,-0.0004559415392577648
1782829454900427000,6.079427001953125,-0.0015283506363630295,-0.0020567383617162704,-0.001765417866408825
1782829454910355200,6.089355224609375,-0.0029105348512530327,-0.0022134240716695786,0.0003339620307087898
1782829454920284200,6.0992841796875,0.0004647551104426384,-0.000483168289065361,0.000058591365814208984
1782829454930213000,6.109213134765625,0.0014954488724470139,-0.0007959064096212387,0.0012419549748301506
1782829454940142000,6.11914208984375,0.0009558927267789841,-0.00041960179805755615,0.0008022673428058624
1782829454950070000,6.129070068359375,-0.002477128989994526,-0.0007699960842728615,-0.0013553248718380928
1782829454959999000,6.1389990234375,-0.0012600645422935486,-0.000027772970497608185,-0.0004692911170423031
1782829454969928200,6.14892822265625,0.0014634933322668076,-0.001146739348769188,-0.00042395200580358505
1782829454979856100,6.158856201171875,0.0006544254720211029,0.0006343824788928032,0.0008711433038115501
1782829454989785000,6.16878515625,0.001696692779660225,0.0013552596792578697,-0.0011914796195924282
1782829454999714000,6.178714111328125,-0.0009531518444418907,0.0004588402807712555,0.0003249244764447212
1782829455009643300,6.188643310546875,-0.00007027480751276016,0.0011512553319334984,-0.0008835219778120518
1782829455019571200,6.1985712890625,0.00000562518835067749,-0.0018189679831266403,-0.0006057540886104107
1782829455029500200,6.208500244140625,-0.00020307116210460663,0.0010828934609889984,-0.00047638826072216034
1782829455039429000,6.21842919921875,0.0025775358080863953,-0.0011802604421973228,0.0014906227588653564
1782829455049358000,6.228358154296875,-0.00020565465092658997,0.0023891516029834747,-0.0010674861259758472
1782829455059286000,6.2382861328125,0.00033842865377664566,0.0029564043506979942,0.00026009976863861084
1782829455069215000,6.248215087890625,0.0021685417741537094,0.0008470136672258377,-0.00126541405916214
1782829455079144200,6.258144287109375,0.0009477483108639717,0.0016646049916744232,0.0004515256732702255
1782829455089072000,6.268072021484375,0.0017345165833830833,0.00033594202250242233,0.002394787035882473
1782829455099001000,6.2780009765625,-0.0008716527372598648,-0.0012238714843988419,-0.0018186005763709545
1782829455108930000,6.287929931640625,0.001422828994691372,-0.0007977504283189774,-0.00038772495463490486
1782829455118859000,6.29785888671875,0.002367718145251274,-0.0012981584295630455,-0.0017083864659070969
1782829455128787000,6.307786865234375,-0.00006725918501615524,-0.0009664427489042282,-0.0015277843922376633
1782829455138716200,6.317716064453125,-0.0009484989568591118,-0.0032849907875061035,0.0019630873575806618
1782829455148645000,6.32764501953125,-0.0014432771131396294,0.000021632760763168335,0.0004911664873361588
1782829455158573000,6.337572998046875,-0.0013292944058775902,-0.0002385573461651802,-0.0007416112348437309
1782829455168502000,6.347501953125,-0.0013187061995267868,-0.0014515332877635956,0.0016802409663796425
1782829455178431200,6.35743115234375,0.002699737437069416,0.0004105484113097191,0.00044373515993356705
1782829455188360200,6.367360107421875,-0.0009864075109362602,0.00009808968752622604,0.0014968439936637878
1782829455198288100,6.3772880859375,0.001385936513543129,-0.0011306926608085632,0.000956488773226738
1782829455208217000,6.387217041015625,0.0008634962141513824,0.00029472634196281433,-0.0007608481682837009
1782829455218146000,6.39714599609375,0.00020463019609451294,0.0031059589236974716,-0.000033272430300712585
1782829455228074000,6.407073974609375,0.0023827245458960533,-0.000012408941984176636,-0.0008049383759498596
1782829455238003200,6.417003173828125,-0.0014596842229366302,0.00008532870560884476,-0.0000339532271027565
1782829455247932200,6.42693212890625,0.0029472149908542633,0.003536316566169262,0.0011503007262945175
1782829455257861000,6.436861083984375,-0.0016946746036410332,0.0012614447623491287,0.00004402361810207367
1782829455267789000,6.4467890625,-0.0011337315663695335,-0.0010170834138989449,0.000008109025657176971
1782829455277718000,6.456718017578125,0.0006628371775150299,0.0011038584634661674,0.003566625528037548
1782829455287647200,6.466647216796875,0.0013324366882443428,-0.0003680214285850525,-0.0006446344777941704
1782829455297575200,6.4765751953125,-0.00035334471613168716,-0.000725683756172657,-0.0029453393071889877
1782829455307504000,6.486504150390625,0.0014032740145921707,0.0019268793985247612,-0.003037937916815281
1782829455317433000,6.49643310546875,-0.001850842498242855,-0.0008763642981648445,0.0014601415023207664
1782829455327362000,6.506362060546875,-0.000020325183868408203,-0.00170192401856184,0.0008262023329734802
1782829455337290000,6.5162900390625,-0.0024062516167759895,-0.00014930032193660736,0.0004443051293492317
1782829455347219200,6.52621923828125,-0.0032157637178897858,-0.0032165441662073135,-0.00019417842850089073
1782829455357148200,6.536148193359375,0.0003243768587708473,-0.002804553136229515,-0.0003068302758038044
1782829455367076000,6.546076171875,-0.0007813563570380211,-0.0016135992482304573,0.0024726828560233116
1782829455377005000,6.556005126953125,0.0019137626513838768,-0.0015643304213881493,-0.00008768029510974884
1782829455386934000,6.56593408203125,-0.0033337920904159546,-0.00024828221648931503,-0.002162147779017687
1782829455396863200,6.57586328125,-0.0014551980420947075,-0.0018515046685934067,-0.0006516026332974434
1782829455406791200,6.585791259765625,-0.001398070715367794,-0.0004886211827397346,0.00015759281814098358
1782829455416720100,6.59572021484375,0.0006616180762648582,0.0017692074179649353,0.0016292557120323181
1782829455426649000,6.605649169921875,-0.0022205691784620285,-0.00016741454601287842,-0.0013645724393427372
1782829455436577000,6.615576904296875,-0.0009821997955441475,0.0004211440682411194,-0.0002993079833686352
1782829455446506200,6.62550634765625,-0.0012661833316087723,0.00006021559238433838,0.0019086170941591263
1782829455456435200,6.635435302734375,-0.0025261249393224716,0.0015172306448221207,-0.0007995516061782837
1782829455466363100,6.645363037109375,0.0009992169216275215,0.00008323043584823608,-0.00015918398275971413
1782829455476292000,6.6552919921875,-0.002465556375682354,-0.0009173192083835602,-0.0013996842317283154
1782829455486221000,6.665220947265625,-0.0010999320074915886,0.001241348683834076,-0.0006207963451743126
1782829455496150300,6.675150390625,-0.00024425797164440155,-0.0029075900092720985,0.0033651571720838547
1782829455506078200,6.685078125,-0.00151889119297266,0.001260865479707718,-0.0016104108653962612
1782829455516007200,6.695007080078125,-0.0002086162567138672,-0.0010070828720927238,-0.000875378493219614
1782829455525936000,6.70493603515625,-0.0015264088287949562,-0.0028106197714805603,-0.0008672662079334259
1782829455535865000,6.714864990234375,-0.0015399903059005737,-0.0016380306333303452,-0.00048004230484366417
1782829455545793000,6.72479296875,0.000058338046073913574,-0.001286366954445839,0.0011933175846934319
1782829455555722200,6.73472216796875,0.002414969727396965,0.0017152819782495499,-0.0003081732429563999
1782829455565651200,6.744651123046875,0.0005527976900339127,-0.0007013622671365738,0.0016708066686987877
1782829455575579100,6.7545791015625,-0.0009521543979644775,-0.000973803922533989,0.00045853573828935623
1782829455585508000,6.764508056640625,-0.0008072387427091599,-0.0009433301165699959,0.0003828173503279686
1782829455595437000,6.77443701171875,0.001568833366036415,0.0004297960549592972,0.0006525963544845581
1782829455605366300,6.7843662109375,-0.0011873813346028328,-0.0014269817620515823,-0.0008238037116825581
1782829455615294200,6.794294189453125,-0.0011050896719098091,0.0018175477162003517,-0.00048265233635902405
1782829455625223200,6.80422314453125,-0.0011631501838564873,-0.00019919965416193008,0.0008047949522733688
1782829455635152100,6.814152099609375,-0.0007815193384885788,-0.00016697589308023453,0.0004644431173801422
1782829455645080000,6.824080078125,-0.00004148948937654495,0.0002359570935368538,-0.002869923133403063
1782829455655009300,6.83400927734375,0.0011233771219849586,-0.000006124377250671387,-0.00036868220195174217
1782829455664938200,6.843938232421875,-0.0009947391226887703,0.0026898421347141266,-0.001442828681319952
1782829455674867200,6.8538671875,-0.0017822356894612312,0.0009276289492845535,0.0037543298676609993
1782829455684795100,6.863795166015625,-0.0000962214544415474,0.0012247459962964058,0.0011086668819189072
1782829455694724000,6.87372412109375,-0.001355895772576332,0.00022685900330543518,-0.0004934906028211117
1782829455704653300,6.8836533203125,0.001628197729587555,0.0021296413615345955,0.0009680576622486115
1782829455714581200,6.893581298828125,-0.000699138268828392,0.00041190255433321,0.0002892175689339638
1782829455724510200,6.90351025390625,-0.0018112584948539734,0.0010009640827775002,-0.0024251583963632584
1782829455734439200,6.913439208984375,0.000778665766119957,-0.00017695128917694092,-0.002765776589512825
1782829455744368000,6.9233681640625,-0.0005761878564953804,-0.00015039276331663132,0.00017448607832193375
1782829455754296000,6.933296142578125,0.0010302308946847916,0.0008917022496461868,-0.0026391432620584965
1782829455764225300,6.943225341796875,0.00010987278074026108,0.0015875278040766716,-0.00023461226373910904
1782829455774154200,6.953154296875,0.0012486409395933151,-0.0026809871196746826,-0.0022527556866407394
1782829455784082200,6.963082275390625,-0.0006897393614053726,-0.0018137386068701744,-0.0008525284938514233
1782829455794011100,6.97301123046875,0.0014887265861034393,-0.002117072232067585,-0.0009433426894247532
1782829455803940000,6.982940185546875,0.0011440832167863846,-0.0029912488535046577,-0.0006458749994635582
1782829455813869300,6.992869384765625,0.000545404851436615,-0.0029891179874539375,-0.0010666544549167156
1782829455823797200,7.00279736328125,-0.0013424232602119446,-0.0019468199461698532,0.0009958073496818542
1782829455833726200,7.012726318359375,0.0005332408472895622,-0.0009534610435366631,-0.0028609824366867542
1782829455843655200,7.0226552734375,-0.0001727379858493805,0.002710629254579544,-0.0014263512566685677
1782829455853583000,7.0325830078125,0.0012712273746728897,0.0013897009193897247,-0.0005411161109805107
1782829455863512300,7.04251220703125,-0.002481512725353241,0.00005776248872280121,-0.0003766007721424103
1782829455873441300,7.052441162109375,0.0025231000036001205,0.002895892597734928,-0.0003036302514374256
1782829455883370200,7.062370361328125,-0.0022838804870843887,0.0027631940320134163,0.0005062995478510857
1782829455893298200,7.072298095703125,0.00019019655883312225,0.0018377453088760376,-0.00013845181092619896
1782829455903227100,7.08222705078125,0.00020814407616853714,0.0005499152466654778,0.0010609431192278862
1782829455913156400,7.09215625,0.0010164128616452217,0.0016306256875395775,-0.0017239246517419815
1782829455923084300,7.102084228515625,0.0014782007783651352,0.0017775166779756546,0.000039509497582912445
1782829455933013200,7.11201318359375,-0.0006749648600816727,0.0014033429324626923,0.0011955881491303444
1782829455942942200,7.121942138671875,0.00006710458546876907,0.00017697084695100784,-0.00016422104090452194
1782829455952871200,7.13187109375,0.00019493605941534042,-0.0018616793677210808,-0.0017456058412790298
1782829455962799000,7.141799072265625,-0.003322497010231018,-0.00029232725501060486,0.0011863261461257935
1782829455972728300,7.151728271484375,-0.0005192533135414124,-0.0011922093108296394,-0.00003127101808786392
1782829455982657300,7.1616572265625,-0.001070563681423664,-0.0007920153439044952,-0.00008635176345705986
1782829455992585200,7.171585205078125,0.0010165562853217125,-0.00019040703773498535,-0.00004667043685913086
1782829456002514200,7.18151416015625,0.004407697357237339,-0.001046421006321907,-0.0007345885969698429
1782829456012443100,7.191443115234375,-0.0010200915858149529,0.00027530547231435776,0.000048381276428699493
1782829456022372400,7.201372314453125,-0.0013148747384548187,0.0007042773067951202,0.0003653280436992645
1782829456032300300,7.21130029296875,0.0012582717463374138,0.0018126852810382843,0.0008686650544404984
1782829456042229200,7.221229248046875,-0.0026161139830946922,0.0015401067212224007,-0.00298025319352746
1782829456052158200,7.231158203125,-0.00027333106845617294,-0.0009510144591331482,0.000025657005608081818
1782829456062086100,7.241086181640625,0.0003777462989091873,0.00021514669060707092,-0.0008517950773239136
1782829456072016000,7.251015869140625,0.0010539228096604347,-0.0003555687144398689,0.0008590193465352058
1782829456081944800,7.26094482421875,0.0006655072793364525,0.001140601933002472,-0.0019393921829760075
1782829456091873500,7.27087353515625,-0.0006953682750463486,0.0009310105815529823,-0.0004663979634642601
1782829456101801700,7.2808017578125,0.0013273349031805992,0.0021747201681137085,-0.004267493262887001
1782829456111730700,7.290730712890625,0.0014911191537976265,0.0013648523017764091,0.00044896453619003296
1782829456121659600,7.30065966796875,-0.0015813959762454033,0.00028473976999521255,-0.0008769333362579346
1782829456131587800,7.310587890625,0.00032116658985614777,-0.0007211361080408096,-0.00012698723003268242
1782829456141516800,7.320516845703125,0.00004459265619516373,0.0009488845244050026,0.00003099348396062851
1782829456151445500,7.330445556640625,-0.0010819239541888237,-0.000394945964217186,0.0005479129031300545
1782829456161374500,7.34037451171875,-0.000329858623445034,0.000944097526371479,0.000001926906406879425
1782829456171302700,7.350302734375,-0.0033815745264291763,-0.002039708197116852,-0.0018811947666108608
1782829456181231600,7.360231689453125,0.00011833291500806808,-0.0005511287599802017,0.0013911910355091095
1782829456191160600,7.37016064453125,0.0003710668534040451,-0.0009149173274636269,0.00017998553812503815
1782829456201088800,7.3800888671875,0.00042322929948568344,-0.0018695136532187462,0.0022893911227583885
1782829456211017700,7.390017822265625,-0.0003389669582247734,-0.0010162368416786194,0.002333599142730236
1782829456220946400,7.399946533203125,-0.0011669127270579338,-0.00018628686666488647,-0.000005350448191165924
1782829456230875600,7.409875732421875,-0.0005216291174292564,-0.0007554041221737862,-0.0019425335340201855
1782829456240803800,7.419803955078125,0.00098315067589283,0.0007910476997494698,-0.00512093398720026
1782829456250732500,7.429732666015625,-0.0012110285460948944,0.0024765627458691597,-0.0036439448595046997
1782829456260661500,7.43966162109375,-0.0016049370169639587,0.001668519340455532,-0.0018168389797210693
1782829456270589700,7.449589599609375,-0.0005516568198800087,-0.0029400810599327087,-0.0018338831141591072
1782829456280518700,7.4595185546875,-0.0007928665727376938,0.0012043239548802376,-0.0007220800034701824
1782829456290447600,7.469447509765625,0.0004596179351210594,0.0009039193391799927,-0.001040593720972538
1782829456300376600,7.47937646484375,-0.0006450321525335312,0.0011468548327684402,-0.00041634170338511467
1782829456310304800,7.4893046875,0.00016909651458263397,0.0020818905904889107,-0.002088273875415325
1782829456320233500,7.4992333984375,0.0038051865994930267,0.0020730067044496536,0.0028851525858044624
1782829456330162700,7.50916259765625,0.00026211701333522797,0.0007017459720373154,0.000264069065451622
1782829456340091600,7.519091552734375,0.00030914973467588425,0.0013599880039691925,-0.0007494739256799221
1782829456350019600,7.52901953125,-0.0007294835522770882,0.0017703808844089508,0.002234065905213356
1782829456359948500,7.538948486328125,-0.00040422286838293076,-0.0002359878271818161,0.00025571417063474655
1782829456369877500,7.54887744140625,-0.001435399055480957,0.0002601584419608116,-0.00164897833019495
1782829456379805400,7.558805419921875,0.0035967882722616196,-0.0007897177711129189,-0.000109097920358181
1782829456389734700,7.568734619140625,-0.0010664062574505806,-0.000026722438633441925,0.0011082328855991364
1782829456399663600,7.57866357421875,0.0016169538721442223,0.0011285822838544846,-0.000627386849373579
1782829456409592600,7.588592529296875,-0.0015793722122907639,-0.0011976882815361023,-0.0007725292816758156
1782829456419520500,7.5985205078125,0.0013191504403948784,-0.00017319060862064362,-0.0006179721094667912
1782829456429449500,7.608449462890625,0.00237908773124218,-0.0014312677085399628,-0.0016813725233078003
1782829456439378700,7.618378662109375,0.0005968203768134117,-0.0014269156381487846,0.000567777082324028
1782829456449306600,7.628306640625,-0.00044847093522548676,0.0002817688509821892,-0.0029225614853203297
1782829456459235600,7.638235595703125,-0.0006271032616496086,-0.00012842286378145218,0.000919894315302372
1782829456469164500,7.64816455078125,-0.0014976905658841133,0.0022934554144740105,-0.0025206441059708595
1782829456479093500,7.658093505859375,0.0017317431047558784,0.0015592481940984726,0.00005769170820713043
1782829456489021700,7.668021728515625,0.003358934074640274,-0.001349455676972866,-0.0001809275709092617
1782829456498950700,7.67795068359375,0.0006017405539751053,0.0014947066083550453,0.0002453429624438286
1782829456508879600,7.687879638671875,0.0023900531232357025,0.001034245826303959,0.0006538722664117813
1782829456518807600,7.6978076171875,0.0014797411859035492,0.0015389379113912582,0.0021617403253912926
1782829456528736500,7.707736572265625,0.0015098350122570992,-0.0008938591927289963,-0.00020394567400217056
1782829456538665700,7.717665771484375,0.000050028786063194275,0.002764631062746048,0.0007530814036726952
1782829456548594700,7.7275947265625,0.0009586997330188751,0.000046076253056526184,0.00021618790924549103
1782829456558522600,7.737522705078125,0.001032952219247818,-0.00014194846153259277,-0.000801384449005127
1782829456568451600,7.74745166015625,0.0026311157271265984,-0.0004793712869286537,0.001117689535021782
1782829456578380500,7.757380615234375,0.0015010545030236244,-0.00015069637447595596,-0.0008305092342197895
1782829456588308500,7.76730859375,0.0009910594671964645,-0.0009038383141160011,0.0007452834397554398
1782829456598237700,7.77723779296875,-0.0012777484953403473,0.0011448562145233154,-0.0009054453112185001
1782829456608166700,7.787166748046875,-0.0012519164010882378,-0.00013745669275522232,0.0008895257487893105
1782829456618095600,7.797095703125,-0.0017722370103001595,0.00027973856776952744,0.0013700434938073158
1782829456628023600,7.8070234375,0.0005590943619608879,-0.000956234522163868,-0.0006598173640668392
1782829456637952500,7.816952392578125,-0.00034636538475751877,-0.0006381366401910782,-0.0016258563846349716
1782829456647881700,7.8268818359375,-0.0007061585783958435,-0.0017406847327947617,0.0011805826798081398
1782829456657809700,7.8368095703125,-0.000540686771273613,0.0005126018077135086,-0.0007528997957706451
1782829456667738600,7.846738525390625,0.002252703532576561,-0.00041364599019289017,-0.00047380058094859123
1782829456677667600,7.85666748046875,0.0003365762531757355,0.00021620839834213257,0.0007640458643436432
1782829456687596500,7.866596435546875,0.0005299216136336327,-0.0007419968023896217,-0.0005957637913525105
1782829456697524500,7.8765244140625,0.0011021969839930534,0.0006338385865092278,-0.0010471008718013763
1782829456707453700,7.88645361328125,0.0006212294101715088,-0.0008964138105511665,0.0010762372985482216
1782829456717382700,7.896382568359375,-0.001439036801457405,-0.0010410761460661888,0.0019077826291322708
1782829456727310600,7.906310546875,0.003231348469853401,0.00190065149217844,0.0010811379179358482
1782829456737239600,7.916239501953125,0.00035156402736902237,0.0010968800634145737,-0.0015595550648868084
1782829456747168500,7.92616845703125,0.001209634356200695,0.0017283158376812935,0.0006631193682551384
1782829456757097700,7.93609765625,-0.0009985975921154022,-0.00033162161707878113,-0.0006748870946466923
1782829456767025700,7.946025634765625,-0.0003352044150233269,-0.0009614592418074608,-0.002117255236953497
1782829456776954600,7.95595458984375,0.0007641147822141647,-0.0011834967881441116,-0.001531002577394247
1782829456786883600,7.965883544921875,-0.0012292610481381416,-0.0022610118612647057,0.001187552697956562
1782829456796811500,7.9758115234375,0.0015777312219142914,-0.0002554450184106827,0.002710883505642414
1782829456806740700,7.98574072265625,0.001106351613998413,0.001542721875011921,0.00022402312606573105
1782829456816669700,7.995669677734375,-0.001255623996257782,0.0004316624253988266,-0.0021749166771769524
1782829456826598700,8.0055986328125,-0.0012787934392690659,-0.0005731489509344101,0.0011039674282073975
1782829456836526600,8.015526611328125,0.0019129477441310883,-0.00010069739073514938,-0.0007869331166148186
1782829456846455600,8.02545556640625,-0.00031398795545101166,-0.0016589127480983734,0.0015923352912068367
1782829456856384800,8.035384765625,0.0017815623432397842,0.0002442849799990654,0.0003934437409043312
1782829456866313700,8.045313720703126,0.0015831571072340012,-0.000586886890232563,-0.0023783743381500244
1782829456876241700,8.05524169921875,0.001002269797027111,-0.0012674108147621155,-0.0015809191390872002
1782829456886170600,8.065170654296875,0.0025362512096762657,0.0011371579021215439,-0.0006048707291483879
1782829456896099600,8.075099609375,-0.001391235738992691,0.001290198415517807,-0.000055857934057712555
1782829456906027500,8.085027587890625,-0.0008319728076457977,-0.0008331397548317909,0.0008514812216162682
1782829456915956700,8.094956787109375,-0.0003471262753009796,-0.00028162822127342224,0.0010605640709400177
1782829456925885700,8.1048857421875,-0.00047975126653909683,-0.0001151813194155693,0.000694911926984787
1782829456935813600,8.114813720703125,0.0010018525645136833,0.0025272276252508163,0.0021718936040997505
1782829456945742600,8.12474267578125,-0.0013337396085262299,0.0037956908345222473,0.0006381785497069359
1782829456955671600,8.134671630859375,0.0015980182215571404,0.00027365516871213913,-0.0006384770385921001
1782829456965600800,8.144600830078126,0.0007460722699761391,-0.00002541765570640564,-0.0023623411543667316
1782829456975528700,8.15452880859375,-0.0008464762941002846,0.001286064274609089,0.0012087905779480934
1782829456985457700,8.164457763671875,0.0004004156216979027,0.00022559333592653275,-0.0012234742753207684
1782829456995386600,8.17438671875,-0.0013386225327849388,0.0038783513009548187,-0.0012717433273792267
1782829457005315600,8.184315673828126,0.0014603594318032265,0.000439411960542202,-0.0029332893900573254
1782829457015243800,8.194243896484375,0.0015737349167466164,0.0015476485714316368,0.000472367275506258
1782829457025172700,8.2041728515625,0.0015263305976986885,-0.0000055069103837013245,0.0017192591913044453
1782829457035101700,8.214101806640626,-0.0001125875860452652,-0.00013244710862636566,-0.0006237318739295006
1782829457045029600,8.224029541015625,-0.0004036705940961838,-0.00016999710351228714,-0.0009265332482755184
1782829457054958600,8.23395849609375,-0.001173725351691246,-0.00019961781799793243,0.00022614095360040665
1782829457064887800,8.2438876953125,0.0023831920698285103,-0.000053942203521728516,-0.0012692240998148918
1782829457074816300,8.253816162109375,-0.00045945774763822556,0.000033031217753887177,-0.0002382798120379448
1782829457084744200,8.263744140625,0.000488894060254097,0.0007148003205657005,0.00018542911857366562
1782829457094673200,8.273673095703124,0.0004493054002523422,0.0007893508300185204,-0.00240775803104043
1782829457104602000,8.28360205078125,0.0008250772953033447,-0.0007888376712799072,-0.002681264653801918
1782829457114530000,8.293530029296875,-0.0004508979618549347,-0.0009088506922125816,-0.0007511633448302746
1782829457124459300,8.303459228515624,0.0016298294067382812,-0.00039352942258119583,0.001240881159901619
1782829457134388200,8.31338818359375,-0.0018704412505030632,-0.0021311556920409203,0.001195461954921484
1782829457144317200,8.323317138671875,0.0014308132231235504,0.0011384068056941032,0.0022263717837631702
1782829457154245000,8.3332451171875,-0.0006747376173734665,0.0010510487481951714,0.0020730867981910706
1782829457164174300,8.34317431640625,-0.0005287956446409225,0.001349322497844696,0.00016386620700359344
1782829457174103300,8.353103271484375,-0.0020655859261751175,0.0023975279182195663,-0.0005067829042673111
1782829457184031200,8.36303125,-0.0009396011009812355,-0.0011628521606326103,-0.0009587216190993786
1782829457193960200,8.372960205078124,0.000035567209124565125,0.0005403365939855576,-0.00007568672299385071
1782829457203889200,8.38288916015625,0.0008646091446280479,-0.0006042895838618279,0.0001482851803302765
1782829457213818400,8.392818359375,0.0011987928301095963,-0.000013540498912334442,0.00130951264873147
1782829457223746300,8.402746337890624,-0.0006156191229820251,0.0008626393973827362,0.00031215837225317955
1782829457233675300,8.41267529296875,0.0018138643354177475,-0.00108342245221138,0.0011138813570141792
1782829457243604200,8.422604248046875,0.0016263779252767563,-0.0010261638090014458,0.002127479761838913
1782829457253532200,8.4325322265625,-0.0009570391848683357,-0.0016925474628806114,0.0018245195969939232
1782829457263461000,8.442461181640626,0.0003018379211425781,-0.0018808329477906227,0.003117217682301998
1782829457273390300,8.452390380859375,-0.0032520918175578117,-0.0002864496782422066,0.00021958816796541214
1782829457283319300,8.4623193359375,-0.0012707002460956573,0.0018174480646848679,-0.0025948407128453255
1782829457293247200,8.472247314453124,0.00159516092389822,-0.0019879527390003204,-0.0015996433794498444
1782829457303176200,8.48217626953125,0.00019487086683511734,0.0001385807991027832,-0.0009975028224289417
1782829457313105200,8.492105224609375,0.0005009658634662628,0.0013831546530127525,0.0011855973862111568
1782829457323033000,8.502033203125,0.00016008131206035614,0.000952254980802536,-0.00043333834037184715
1782829457332962300,8.51196240234375,0.00020187348127365112,0.0003199102357029915,0.0006776433438062668
1782829457342891300,8.521891357421875,0.0012018904089927673,0.0008996808901429176,0.0015429044142365456
1782829457352820200,8.5318203125,0.00007846765220165253,-0.0010161036625504494,-0.0014090193435549736
1782829457362748200,8.541748046875,0.0005106981843709946,-0.0003074370324611664,-0.0003070035018026829
1782829457372677000,8.551677001953125,0.0015707165002822876,0.002559480257332325,-0.001355492975562811
1782829457382606300,8.5616064453125,0.00018054619431495667,0.00276800524443388,-0.0014825258404016495
1782829457392534300,8.5715341796875,-0.0017639854922890663,0.000027935020625591278,-0.00070173479616642
1782829457402463200,8.581463134765626,0.001294921152293682,0.0000015692785382270813,-0.0008620568551123142
1782829457412392200,8.59139208984375,0.0006560813635587692,0.0023879026994109154,-0.00008117826655507088
1782829457422321400,8.6013212890625,0.0013298606500029564,-0.000153285451233387,-0.00010887486860156059
1782829457432249300,8.611249267578126,-0.0006205979734659195,0.0008982215076684952,-0.00003728829324245453
1782829457442178300,8.62117822265625,0.0004036538302898407,0.0015328526496887207,-0.0017957733944058418
1782829457452107300,8.631107177734375,-0.0020310692489147186,-0.0009442903101444244,0.0019089425913989544
1782829457462035200,8.64103515625,0.0010597947984933853,0.001260274089872837,0.0005770954303443432
1782829457471964200,8.650964111328125,0.0015079276636242867,-0.0005958294495940208,0.0007179086096584797
1782829457481893400,8.660893310546875,0.00044106505811214447,-0.0019385945051908493,0.0009216410107910633
1782829457491822300,8.670822265625,-0.0006513018161058426,0.0002207523211836815,0.0023735244758427143
1782829457501750300,8.680750244140626,0.000033396296203136444,-0.0035074064508080482,0.0021697930060327053
1782829457511679200,8.69067919921875,-0.0012540621683001518,-0.0007672319188714027,-0.0028844326734542847
1782829457521608200,8.700608154296875,0.00005914270877838135,-0.002363264560699463,-0.0019014598801732063
1782829457531537400,8.710537353515624,0.0016596540808677673,-0.0023922761902213097,-0.00009525846689939499
1782829457541465300,8.72046533203125,-0.0002588871866464615,0.0003537088632583618,0.0013652192428708076
1782829457551394300,8.730394287109375,0.00036435481160879135,-0.0011687641963362694,0.0004537669010460377
1782829457561323300,8.7403232421875,-0.0017781583592295647,-0.0016936734318733215,0.00032007554545998573
1782829457571251200,8.750251220703126,-0.00033384840935468674,-0.0004046158865094185,0.0024150069802999496
1782829457581180200,8.76018017578125,0.0017833644524216652,0.0009354874491691589,-0.0007717320695519447
1782829457591109400,8.770109375,-0.00024974439293146133,0.001966710202395916,0.0006568734534084797
1782829457601037300,8.780037353515626,0.0002533271908760071,-0.000035987235605716705,-0.0021498319692909718
1782829457610966300,8.78996630859375,0.0006749918684363365,0.0013314727693796158,0.0002792985178530216
1782829457620895200,8.799895263671875,-0.002203885465860367,0.0009120255708694458,-0.0015388410538434982
1782829457630824200,8.80982421875,-0.00029269978404045105,0.001687774434685707,0.0003152410499751568
1782829457640752400,8.81975244140625,0.0006519239395856857,0.0024398518726229668,-0.0017926506698131561
1782829457650681300,8.829681396484375,-0.0012902794405817986,-0.0016856370493769646,0.004021272528916597
1782829457660610300,8.8396103515625,-0.0014055939391255379,0.000887775793671608,-0.0017836196348071098
1782829457670539300,8.849539306640626,-0.0024101892486214638,0.002174593508243561,0.0002781003713607788
1782829457680467200,8.85946728515625,-0.0022637154906988144,0.000038205645978450775,0.000044541433453559875
1782829457690396400,8.869396484375,0.0005916962400078773,-0.0020675258710980415,-0.0004469258710741997
1782829457700325400,8.879325439453124,0.00004521571099758148,0.0005559548735618591,-0.0019489489495754242
1782829457710253300,8.88925341796875,0.001626037061214447,-0.0024603847414255142,-0.000808254349976778
1782829457720182300,8.899182373046875,0.0003988528624176979,-0.00246464554220438,0.003069574013352394
1782829457730111200,8.909111328125,-0.0006879325956106186,-0.002641586586833,0.0023762998171150684
1782829457740040200,8.919040283203126,0.00007719360291957855,0.0015736650675535202,0.00037546688690781593
1782829457749968400,8.928968505859375,-0.0018761195242404938,-0.0028470968827605247,-0.0006884224712848663
1782829457759897300,8.9388974609375,0.00025014858692884445,-0.0006803497672080994,-0.0016857762821018696
1782829457769826000,8.948825927734376,-0.0005092881619930267,-0.0016681356355547905,0.003409375436604023
1782829457779754200,8.958754150390625,-0.0015316763892769814,0.00014680903404951096,0.0008042715489864349
1782829457789683200,8.96868310546875,0.0031730663031339645,-0.00001108366996049881,0.0007503591477870941
1782829457799612200,8.978612060546874,-0.0012802714481949806,-0.001016426831483841,-0.001567389816045761
1782829457809541000,8.988541015625,6.556510925292969e-7,0.0011879568919539452,-0.0013099582865834236
1782829457819469300,8.99846923828125,0.002266739495098591,0.0007613189518451691,-0.00040501588955521584
1782829457829398300,9.008398193359374,-0.000952521339058876,0.002453729510307312,-0.0004328670911490917
1782829457839327000,9.018326904296876,-0.0014617182314395905,0.002755732275545597,-0.0016501983627676964
1782829457849255200,9.028255126953125,-0.000008077360689640045,-0.0012907441705465317,-0.0007365774363279343
1782829457859184400,9.038184326171875,0.0003517158329486847,-0.0005980562418699265,0.00018327869474887848
1782829457869113000,9.048113037109376,-0.0011597294360399246,0.00011378247290849686,0.0009399829432368279
1782829457879042000,9.0580419921875,0.00015134457498788834,0.000012049451470375061,0.0011290675029158592
1782829457888970200,9.06797021484375,0.00043539702892303467,0.00014151446521282196,-0.00015915650874376297
1782829457898899200,9.077899169921874,0.0006630979478359222,0.0003423169255256653,-0.00022493675351142883
1782829457908828200,9.087828125,-0.002821684814989567,0.0008706031367182732,-0.0012202314101159573
1782829457918756400,9.09775634765625,-0.0022791987285017967,-0.0019118674099445343,0.0012799445539712906
1782829457928685300,9.107685302734374,0.002233981154859066,-0.0009998297318816185,-0.0005081295967102051
1782829457938614000,9.117614013671876,0.001494421623647213,-0.0008528223261237144,0.00015100324526429176
1782829457948543200,9.127543212890625,-0.0008453270420432091,-0.00025346875190734863,-0.0005401340313255787
1782829457958471400,9.137471435546875,0.00033418647944927216,-0.0010585421696305275,-0.0008362773805856705
1782829457968400100,9.147400146484374,0.0010876795276999474,-0.002430482767522335,-0.00027801888063549995
1782829457978329000,9.1573291015625,-0.0002915710210800171,0.0008095186203718185,0.00042239250615239143
1782829457988257300,9.16725732421875,-0.0014895489439368248,-0.003004145808517933,0.0013559828512370586
1782829457998186000,9.17718603515625,-0.0006743557751178741,-0.001446995884180069,-0.0014422000385820866
1782829458008115200,9.187115234375,0.00010241102427244186,-0.0009361868724226952,-0.0007451674900949001
1782829458018044200,9.197044189453125,0.0020888634026050568,-0.0018688254058361053,-0.0023076441138982773
1782829458027972000,9.20697216796875,-0.00216101948171854,-0.0017505614086985588,-0.0017079869285225868
1782829458037901000,9.216901123046876,0.0017042933031916618,0.001682785339653492,-0.00011408468708395958
1782829458047830000,9.226830078125,0.0010351724922657013,0.0014437651261687279,0.0013034883886575699
1782829458057758200,9.23675830078125,0.00003542192280292511,0.00003841519355773926,-0.000797745306044817
1782829458067687200,9.246687255859374,-0.0004632221534848213,0.0005857087671756744,0.0009126830846071243
1782829458077616400,9.256616455078126,-0.00014097988605499268,-0.0010473411530256271,0.002386743202805519
1782829458087545300,9.26654541015625,0.0010923687368631363,0.0032753851264715195,-0.0011270423419773579
1782829458097473300,9.276473388671874,-0.00057210773229599,0.0006098272278904915,-0.002407489810138941
1782829458107402200,9.28640234375,0.0007273051887750626,0.0015329783782362938,0.001067820005118847
1782829458117331500,9.29633154296875,0.0012530134990811348,0.00018515251576900482,-0.0026068100705742836
1782829458127259400,9.30625927734375,-0.0012377109378576279,-0.0015496602281928062,-0.0005421391688287258
1782829458137188400,9.316188232421876,-0.001080583781003952,0.000991261564195156,-0.0006302897818386555
1782829458147115500,9.326115478515625,-0.00014330539852380753,0.0011200550943613052,0.00015398487448692322
1782829458157043500,9.33604345703125,-0.0020669065415859222,-0.0002914201468229294,0.001290888525545597
1782829458166972400,9.345972412109376,0.0007426105439662933,-0.00024283584207296371,-0.00022888369858264923
1782829458176901400,9.3559013671875,0.0013929549604654312,-0.0022330153733491898,0.00039802491664886475
1782829458186830600,9.36583056640625,0.001108221709728241,0.0021995948627591133,0.0020497404038906097
1782829458196758500,9.375758544921876,-0.0006950041279196739,-0.0009511904790997505,0.0004316037520766258
1782829458206687500,9.3856875,-0.004102567210793495,0.0006442107260227203,-0.0016490723937749863
1782829458216616400,9.395616455078125,0.00035849399864673615,0.0011360971257090569,-0.002221918199211359
1782829458226544400,9.40554443359375,-0.00016022194176912308,-0.0005112700164318085,0.0007331785745918751
1782829458236473300,9.415473388671876,0.0005628261715173721,0.00041870586574077606,0.001275131944566965
1782829458246402600,9.425402587890625,0.00014531519263982773,0.0009470703080296516,0.00130818085744977
1782829458256331500,9.43533154296875,0.000060360878705978394,-0.0008585527539253235,0.0002644886262714863
1782829458266259500,9.445259521484376,-0.0004956144839525223,0.0007485337555408478,0.0010510780848562717
1782829458276188400,9.4551884765625,0.001330249011516571,0.0003993930295109749,0.000630298163741827
1782829458286117400,9.465117431640625,0.000013249926269054413,0.0009636124595999718,0.0006344467401504517
1782829458296045300,9.47504541015625,0.000018309801816940308,0.000645897351205349,0.001315949484705925
1782829458305974500,9.484974609375,0.00013725552707910538,0.001549004577100277,-0.0007885363884270191
1782829458315903500,9.494903564453125,-0.0027426863089203835,0.0011308882385492325,-0.0021174540743231773
1782829458325832400,9.50483251953125,0.0010843966156244278,0.00037717167288064957,0.0005554701201617718
1782829458335760400,9.514760498046876,-0.0007566474378108978,-0.001262536272406578,0.0001442781649529934
1782829458345689300,9.524689453125,-0.00018965080380439758,0.0013857223093509674,-0.0014397231861948967
1782829458355618600,9.53461865234375,0.00038399454206228256,0.00010660570114850998,-0.003306332975625992
1782829458365546500,9.54454638671875,-0.002209935337305069,-0.0006103171035647392,0.001250258181244135
1782829458375475500,9.554475341796875,0.0008732061833143234,-0.0003381418064236641,-0.0026416853070259094
1782829458385404400,9.564404296875,0.00023174099624156952,0.0007700091227889061,0.002558971755206585
1782829458395333600,9.574333740234374,-0.0008423123508691788,-0.0009386744350194931,0.0023922575637698174
1782829458405261600,9.584261474609375,0.0017614392563700676,-0.0018131062388420105,0.0016413191333413124
1782829458415190500,9.5941904296875,0.0005153464153409004,-0.0014759507030248642,-0.0010482068173587322
1782829458425119500,9.604119384765625,-0.001757800579071045,-0.001460891216993332,0.0011647562496364117
1782829458435047400,9.61404736328125,-0.0010595200583338737,0.0005458006635308266,0.000014004763215780258
1782829458444976400,9.623976318359375,-0.00047488510608673096,0.00037616118788719177,-0.001547880470752716
1782829458454905600,9.633905517578125,-0.0011721011251211166,0.0020576808601617813,-0.0021630707196891308
1782829458464834600,9.64383447265625,0.0007075034081935883,-0.00001231953501701355,-0.000718260183930397
1782829458474762500,9.653762451171875,-0.0007220814004540443,0.000777573324739933,-0.0000775037333369255
1782829458484691500,9.66369140625,-0.0003315908834338188,-0.0010815346613526344,0.0026605320163071156
1782829458494620400,9.673620361328124,0.00013872329145669937,-0.00036381278187036514,-0.002188551239669323
1782829458504549400,9.68354931640625,0.000970086082816124,0.0029465975239872932,0.0009868205524981022
1782829458514477600,9.6934775390625,0.0017914054915308952,-0.0030809352174401283,0.001285893376916647
1782829458524406500,9.703406494140625,-0.002523999661207199,0.0006034113466739655,0.00010422104969620705
1782829458534335500,9.71333544921875,-0.000405188649892807,-0.001329510472714901,-0.0029019550420343876
1782829458544263400,9.723263427734375,0.002064347267150879,-0.000046226195991039276,0.0006521944887936115
1782829458554192400,9.7331923828125,0.00026564765721559525,-0.0006430409848690033,0.0012711132876574993
1782829458564121600,9.74312158203125,-0.00003073178231716156,-0.00015999935567378998,-0.001421936322003603
1782829458574050300,9.75305029296875,0.0011559724807739258,-0.0013837218284606934,0.00005478644743561745
1782829458583978500,9.762978515625,-0.0024480707943439484,0.0006309449672698975,-0.00020821066573262215
1782829458593907500,9.772907470703124,0.002224178984761238,-0.0015722885727882385,0.0044472613371908665
1782829458603836400,9.78283642578125,-0.0013814307749271393,0.00048699136823415756,-0.0005041048862040043
1782829458613764600,9.7927646484375,-0.00016649626195430756,-0.00006801076233386993,0.0006682183593511581
1782829458623693600,9.802693603515625,-0.000942532904446125,-0.00018537789583206177,-0.0002937242388725281
1782829458633622500,9.81262255859375,-0.0021952837705612183,0.0004354054108262062,0.0012983130291104317
1782829458643551200,9.82255126953125,-0.0015386994928121567,-0.0010241111740469933,-0.00012455787509679794
1782829458653479400,9.8324794921875,-0.00000471901148557663,-0.0010981475934386253,-0.0016481522470712662
1782829458663408600,9.84240869140625,-0.0018687918782234192,-0.0006029577925801277,0.0017836322076618671
1782829458673337300,9.85233740234375,0.0013025002554059029,-0.0009017651900649071,-0.00027312710881233215
1782829458683265500,9.862265625,0.00050400011241436,-0.0009488686919212341,0.00045313499867916107
1782829458693194500,9.872194580078125,0.00010106340050697327,0.001484462060034275,0.002378067933022976
1782829458703123500,9.88212353515625,0.0039893765933811665,0.00007183849811553955,0.0005932673811912537
1782829458713052400,9.892052490234375,-0.0001217452809214592,0.001584780402481556,-0.00023044832050800323
1782829458722980600,9.901980712890625,-0.000045428983867168427,0.0006824890151619911,-0.0012653772719204426
1782829458732909600,9.91190966796875,-0.000698436051607132,0.0016580047085881233,-0.0001282072626054287
1782829458742838300,9.92183837890625,0.00010935403406620026,-0.000987175852060318,0.0001642606221139431
1782829458752766500,9.931766357421875,0.0009905938059091568,-0.00044469069689512253,-0.0009300322271883488
1782829458762695400,9.9416953125,0.000475824810564518,-0.0011363932862877846,-0.0007870765402913094
1782829458772624400,9.951624267578126,-0.0011654812842607498,0.001810927875339985,0.0006361170671880245
1782829458782553300,9.96155322265625,0.00008429959416389465,-0.0011359313502907753,0.0008663581684231758
1782829458792481500,9.9714814453125,-0.000010775402188301086,0.0006204238161444664,0.0009542424231767654
1782829458802410200,9.98141015625,-0.00030595436692237854,-0.0013558696955442429,0.0022116824984550476
1782829458812339200,9.991339111328125,-0.00016986671835184097,0.00044549256563186646,0.0031003793701529503
1782829458822267400,10.001267333984375,0.002781551331281662,-0.0033839037641882896,0.003295042086392641
1782829458832196400,10.0111962890625,0.0007152045145630836,-0.0007071606814861298,0.0020287097431719303
1782829458842125300,10.021125244140626,-0.0009546270594000816,0.0004398152232170105,-0.0012526940554380417
1782829458852054300,10.03105419921875,0.00011223554611206055,-0.0017812615260481834,-0.0018878579139709473
1782829458861982500,10.040982421875,0.0014640642330050468,-0.0009327642619609833,0.0022072624415159225
1782829458871911400,10.050911376953126,-0.00046406500041484833,-0.0005500679835677147,-0.0017121117562055588
1782829458881840400,10.06084033203125,-0.0007915087044239044,0.0019592996686697006,-0.0008059162646532059
1782829458891769300,10.070769287109375,0.0016122609376907349,0.006738075986504555,0.003310798667371273
1782829458901697300,10.080697265625,-0.0004875157028436661,0.008305603638291359,0.0043475935235619545
1782829458911626200,10.090626220703125,0.0004682932049036026,0.00674685463309288,0.00023034680634737015
1782829458921555500,10.100555419921875,0.0005930718034505844,0.0024296874180436134,0.0023140376433730125
1782829458931483400,10.1104833984375,-0.001443980261683464,0.0015713507309556007,-0.00014592427760362625
1782829458941412400,10.120412353515626,0.000764830969274044,0.0007816227152943611,-0.002201720140874386
1782829458951341300,10.13034130859375,-0.0006101597100496292,-0.001306029036641121,0.0005317484028637409
1782829458961270300,10.140270263671875,-0.0009920215234160423,0.0001367460936307907,-0.0027636149898171425
1782829458971198200,10.1501982421875,0.0013920404016971588,-0.0023298729211091995,-0.0027263308875262737
1782829458981127400,10.16012744140625,-0.0016233129426836967,-0.005682006012648344,0.0013219923712313175
1782829458991056400,10.170056396484375,0.0012600915506482124,-0.005181598011404276,0.000921985600143671
1782829459000984300,10.179984375,0.0005025872960686684,-0.001128694973886013,-0.000510750338435173
1782829459010913300,10.189913330078125,-0.00035708118230104446,-0.0020647961646318436,-0.00028091948479413986
1782829459020842200,10.19984228515625,-0.0008193952962756157,-0.0010061794891953468,-0.0018173698335886002
1782829459030771500,10.209771484375,0.001109265722334385,0.0002934429794549942,0.00156697491183877
