time,seconds_elapsed,z,y,x
1782830993625503700,0.084503662109375,0.15973346583843231,0.12446575310230254,0.12550565407667308
1782830993635434000,0.09443408203125,0.20816987222731112,0.2405145371235907,0.22881840024143457
1782830993645363000,0.104363037109375,0.1772358047813177,0.1673492015391588,0.23482666421290485
1782830993655292700,0.114292724609375,0.14127484908401966,0.16352642838060855,0.17373364187926052
1782830993665222000,0.124221923828125,0.05144084890186786,0.20980492608323692,0.10660020687021314
1782830993675152000,0.13415185546875,-0.1256266135752201,0.1385775728240609,0.11060418181456624
1782830993685080800,0.144080810546875,-0.21684826872348784,0.06326806481778621,0.1278572221715003
1782830993695010800,0.1540107421875,-0.40440614555478094,0.044977644237130875,0.10346490451917052
1782830993704940800,0.16394091796875,-0.399566304308176,0.045750528305768964,0.004978701728023589
1782830993714869800,0.173869873046875,-0.260069570812583,0.06389788715392351,0.019374343359842894
1782830993724799700,0.1837998046875,-0.19430559752583504,0.02331336330920458,0.08751034300755708
1782830993734728700,0.193728759765625,-0.19233517423570154,-0.1053517411790788,0.2087590337594971
1782830993744659000,0.203658935546875,-0.27755554314255715,-0.25098025542795654,0.24439415503591297
1782830993754588000,0.213587890625,-0.1455459505319595,-0.22411899037882685,0.10650613537859172
1782830993764518000,0.223517822265625,-0.06669394761323928,-0.09314224794730544,-0.019576259140111504
1782830993774446800,0.23344677734375,-0.05828560023009777,-0.1482226223953068,-0.010378295749239623
1782830993784376800,0.243376953125,-0.026209961533546447,-0.2471183193027973,0.06892495806831866
1782830993794306800,0.253306884765625,0.012308277431130409,-0.2667152924373746,0.07180069616772235
1782830993804236000,0.263236083984375,0.07687865701913833,-0.24895664064586162,0.011140293097682297
1782830993814165800,0.273165771484375,0.22251287035644052,-0.20059300723224877,-0.03843235077951103
1782830993824094700,0.2830947265625,0.161876907607913,-0.19077143205031752,0.023593385826982557
1782830993834025000,0.29302490234375,0.060873863157629965,-0.23918767243400216,0.12975837961770592
1782830993843954000,0.302953857421875,0.012542670708894728,-0.19977146171629429,0.06641969724912196
1782830993853883600,0.312883544921875,0.024933950248360634,-0.07792728928923606,-0.09768160840999335
1782830993863812900,0.322812744140625,-0.02481646134853363,-0.018571137218177318,-0.07246979106832295
1782830993873742800,0.332742919921875,-0.07649287257194519,-0.09408902727812528,-0.039230917278677224
1782830993883672800,0.3426728515625,-0.1873626465201378,-0.11016790928915142,-0.06584507569894195
1782830993893601800,0.352601806640625,-0.2970639612108469,-0.15127645700797437,-0.055914267988875506
1782830993903531800,0.36253173828125,-0.230068984824419,-0.11876067332848905,-0.049768933634273704
1782830993913460700,0.372460693359375,-0.16718378184437752,-0.03462926870211959,-0.08182827878315001
1782830993923391000,0.382390869140625,-0.10494506007432937,-0.054155806948989624,-0.05644559838660061
1782830993933319700,0.392319580078125,-0.08429390171170234,-0.13684841094389558,0.0043642961567267775
1782830993943250000,0.40225,-0.043020226559042925,-0.17553469995185733,0.023711641911789774
1782830993953179000,0.412178955078125,0.043599487751722336,-0.1237451837427914,0.0019456907076761125
1782830993963108900,0.42210888671875,0.0788625243127346,-0.06497896038889885,0.013955058257468044
1782830993973038800,0.432038818359375,0.08397650632560252,-0.060651452578604215,0.03198733935859054
1782830993982967800,0.4419677734375,0.04565817384719848,-0.025428894158452748,0.022165508448332545
1782830993992897800,0.451897705078125,-0.022874095109105107,0.01710851731970906,-0.0020615356396883723
1782830994002827000,0.461826904296875,-0.16245383071303365,0.040715895139425994,0.02230298069026321
1782830994012756700,0.4717568359375,-0.28154081338644027,0.06114420453161001,0.04510390096530318
1782830994022685700,0.481685791015625,-0.37240766374766826,0.07807488106638193,0.0012769976658746599
1782830994032616000,0.491615966796875,-0.38229718959927556,0.054421033756434915,-0.044903409957140684
1782830994042545000,0.501544921875,-0.3531722174018621,0.017585341051220893,-0.01234703853894025
1782830994052474600,0.511474609375,-0.2905021184772253,-0.0740646225117147,0.0518798613736406
1782830994062404900,0.52140478515625,-0.1883943276554346,-0.16014511537924409,0.13393719967231155
1782830994072333800,0.531333740234375,-0.13490882118344305,-0.17749664767459034,0.12051803838983177
1782830994082264000,0.54126416015625,-0.08159516414701938,-0.13890987351834774,0.04113346296437084
1782830994092192800,0.55119287109375,-0.024638766694068906,-0.12748276283591986,-0.013092925002798437
1782830994102122800,0.561122802734375,-0.0633382074445486,-0.10392477711588144,-0.01249473991394043
1782830994112051700,0.5710517578125,-0.07330956636071205,-0.09339330009892582,0.02708740195520222
1782830994121982000,0.58098193359375,-0.05505728583335876,-0.07780424743145704,0.05947345830779522
1782830994131911000,0.590910888671875,-0.0919639979481697,-0.05194529129266739,0.030563407502695917
1782830994141841000,0.6008408203125,-0.12206278361380099,-0.06596987112239003,-0.036819508755393325
1782830994151771000,0.61077099609375,-0.12055997783541679,-0.06264204187393188,-0.009678988373465836
1782830994161699800,0.620699951171875,-0.17339958761930466,-0.06775105545073747,0.018793036340549588
1782830994171629800,0.6306298828125,-0.17632687324285506,-0.05416749738678336,0.01683846820667386
1782830994181558800,0.640558837890625,-0.12850129222869872,-0.03984495752379298,0.025833858230151236
1782830994191488800,0.65048876953125,-0.09579027823805808,-0.03442220182269812,0.02535107968188822
1782830994201418000,0.66041796875,-0.04868599723577499,-0.020888766510784626,0.00008186959717422723
1782830994211347700,0.67034765625,0.029357027387619018,0.010326748225092887,-0.03756367818620056
1782830994221278000,0.68027783203125,-0.026656536257266997,0.055646045506745574,-0.025210538700036703
1782830994231207000,0.69020703125,-0.06180792913734912,0.018895692997425793,-0.03583616027384996
1782830994241137000,0.700136962890625,-0.04842062429785728,0.05150763052776455,-0.06524411413110792
1782830994251065900,0.71006591796875,-0.011976268997788428,0.09637889178097248,-0.09590341975633054
1782830994260995800,0.719995849609375,0.050904842329025264,0.04682371049523353,-0.0397660836013034
1782830994270924800,0.7299248046875,0.04301496586203575,0.023517215318232775,0.04635740815773606
1782830994280855000,0.73985498046875,-0.00911444982588291,-0.0014719722487032412,0.062103624148294324
1782830994290784000,0.749783935546875,0.054850949606299396,-0.0028708792611956595,-0.0200514754364267
1782830994300713700,0.759713623046875,0.036848259925842286,0.04642170556560159,-0.033245595791377126
1782830994310644000,0.76964404296875,-0.0016565350353717804,-0.002323912902921438,0.0735184964036569
1782830994320573000,0.779572998046875,-0.03219546568393707,-0.051477381519973275,0.11101480844207107
1782830994330502700,0.789502685546875,0.013166355565190314,0.0056811143763363355,-0.06375120869223028
1782830994340432000,0.799431884765625,-0.011909048980474471,0.03495616256892681,-0.08140987070798873
1782830994350361900,0.80936181640625,-0.16021043570041654,-0.10807254444509744,0.06958886533714831
1782830994360290800,0.819290771484375,-0.23214462205469608,-0.1752294333949685,0.1351156323345378
1782830994370220800,0.829220703125,-0.2063233675777912,-0.09654080434441566,0.022906536073982714
1782830994380149800,0.839149658203125,-0.17449030546545982,-0.08845978921949862,0.014263905010931194
1782830994390079700,0.849079833984375,-0.15122633425593376,-0.12505436664521694,0.059397616592608386
1782830994400010000,0.859010009765625,-0.1272334642499685,-0.13431041689887643,0.07282525344248861
1782830994409938700,0.868938720703125,-0.07145780101418495,-0.1403117031402886,0.11036430864408611
1782830994419869000,0.878868896484375,-0.055735915747284884,-0.13411241010874508,0.1060659538630396
1782830994429798000,0.8887978515625,-0.028568507358431815,-0.0769162125505507,0.0925074571751058
1782830994439727900,0.898727783203125,-0.05542670366764068,-0.048385114593058824,0.08541622027251869
1782830994449656800,0.90865673828125,-0.07561901234686375,-0.040421296107023955,0.07364215931594371
1782830994459586800,0.9185869140625,-0.03873977276086807,0.017953005319833754,0.09193594089746475
1782830994469515800,0.928515869140625,-0.04992343007624149,0.03724924194216728,0.013308120389748363
1782830994479446000,0.938446044921875,-0.10868600016832351,0.025456074426323173,0.003941431102156639
1782830994489375700,0.948375732421875,-0.06619476591944694,0.018035569036751985,0.03756429924070835
1782830994499304700,0.9583046875,-0.07865209643244743,0.04435103677138686,0.004543305985443294
1782830994509235000,0.96823486328125,-0.08688567177057266,-0.013220862231403589,0.00044867534926161165
1782830994519164000,0.978163818359375,-0.053554480054974554,-0.07409720960706472,0.029093718542624263
1782830994529093600,0.98809375,0.005910685348510742,-0.06740618753582239,0.007264182316698133
1782830994539022800,0.99802294921875,-0.016243278792500496,-0.10241408029198645,-0.032362638944387435
1782830994548952800,1.007952880859375,-0.027831425255537032,-0.14621844296604394,-0.052433275739010424
1782830994558881800,1.0178818359375,-0.012602876463532448,-0.11562690534740686,-0.06996789124999195
1782830994568811800,1.027811767578125,-0.08386369360089302,-0.12360665205493569,-0.08331930279219522
1782830994578742000,1.037741943359375,-0.12511749500930308,-0.2084336377300322,-0.05740554772624746
1782830994588671000,1.0476708984375,-0.10744155306518077,-0.1936972563691437,-0.09212368202190846
1782830994598601000,1.05760107421875,-0.16467267580628395,-0.16196239393427966,-0.08218987863715738
1782830994608530000,1.067530029296875,-0.19600012648403645,-0.19660116111710665,0.011571725051198155
1782830994618460000,1.0774599609375,-0.18876082288026808,-0.1314836690403521,-0.017647866627108304
1782830994628388900,1.087388916015625,-0.12229074715077877,-0.0918465090483427,-0.10831943187825381
1782830994638319000,1.097319091796875,-0.1316869365274906,-0.13905191233754158,-0.026878764173202216
1782830994648248000,1.107248046875,-0.07522621363699436,-0.1746529486812651,0.07367491080807521
1782830994658177800,1.117177734375,0.01122983454465866,-0.11967866495624184,-0.00133802540441975
1782830994668108000,1.12710791015625,0.05321954901218414,-0.042709407044202084,-0.014774941539298743
1782830994678037000,1.137037109375,0.05888882682025432,-0.06290083894059062,-0.02238669518465176
1782830994687966700,1.146966796875,0.034732290685176845,-0.04407689600512385,-0.003520283080637455
1782830994697896000,1.15689599609375,-0.010672200661897658,-0.048573915163427586,0.004262552815303206
1782830994707826000,1.166825927734375,-0.006219897428154945,-0.004177139554172754,-0.03044089536787942
1782830994717755000,1.1767548828125,-0.07579612247943877,0.05493351332321763,-0.037564865496288985
1782830994727684900,1.186684814453125,-0.12062310619950294,0.025541268491744994,-0.04050367716085165
1782830994737613800,1.19661376953125,-0.17798340827822684,0.0033159926801919937,-0.03560540199158713
1782830994747543800,1.206543701171875,-0.2516927876114845,-0.034141339054703713,0.008377806114405393
1782830994757474000,1.21647412109375,-0.27322365141808985,-0.09776128605008125,0.00451236285790801
1782830994767403000,1.226403076171875,-0.17784429206848143,-0.023102643167972562,-0.07616365888388826
1782830994777333000,1.2363330078125,-0.15139759916961193,0.008609422913193701,-0.13900816452736034
1782830994787262000,1.246261962890625,-0.09161153124868869,-0.05178147903308272,-0.11532185798622667
1782830994797192000,1.25619189453125,-0.09083703974485396,-0.07440072259828448,-0.07330994995320216
1782830994807121200,1.26612109375,-0.029532968476414678,-0.08639087399095297,-0.06143248342107981
1782830994817051000,1.27605078125,0.056097150275111196,-0.07820873657912016,-0.09742836430128664
1782830994826979800,1.285979736328125,0.029934535014629362,-0.06598360738679766,-0.05859108598269522
1782830994836910000,1.29591015625,0.05485211865007877,-0.1051930434860289,-0.057400195697695014
1782830994846839800,1.30583984375,0.04889350250661373,-0.07517915962487459,-0.0631427396713756
1782830994856768800,1.315768798828125,-0.024511340922117233,-0.07301072954460978,-0.0009879698577336966
1782830994866699000,1.325698974609375,-0.050503275790810584,-0.11589607767760753,0.040834808811359105
1782830994876628000,1.3356279296875,-0.07378887431025505,-0.08685045432671903,-0.06876914645209908
1782830994886557700,1.3455576171875,-0.062252750295400616,-0.04676175117492676,-0.09184080995991825
1782830994896487000,1.35548681640625,-0.05515957716405391,-0.10306275345906615,-0.03053292103288695
1782830994906417000,1.3654169921875,-0.026616204246878623,-0.14173764429017902,0.0007426533271558582
1782830994916345900,1.375345947265625,-0.06894552593231201,-0.136863462382555,0.0062025079019367695
1782830994926276000,1.385276123046875,-0.11015198106765746,-0.13509016909971833,-0.0011211495170369743
1782830994936205800,1.395205810546875,-0.13668342964053154,-0.09946472896710037,0.006744524090457707
1782830994946135000,1.405135009765625,-0.23377251551747322,-0.07388049811646343,0.06814533373164013
1782830994956065000,1.41506494140625,-0.28194705609977244,-0.07208923078551888,0.06845662817051634
1782830994965994000,1.424993896484375,-0.24060966806113718,-0.033845278717577455,-0.004777808861061931
1782830994975924000,1.434924072265625,-0.19212533087730407,-0.02616159234717488,0.0037373050984926518
1782830994985853000,1.44485302734375,-0.15717793613672257,-0.11084098624512552,0.0920520598241128
1782830994995783000,1.454782958984375,-0.08267185346782208,-0.1399552909180522,0.1201863770163618
1782830995005712100,1.464712158203125,-0.04336626351773738,-0.12961407577618955,0.1022931755923666
1782830995015641900,1.474641845703125,0.007286065354943275,-0.11387743133157491,0.059401836109999565
1782830995025571800,1.48457177734375,0.017364391776919366,-0.05215162751972675,0.024139037011004984
1782830995035501000,1.4945009765625,0.025244915893673895,-0.02490443189293146,0.01684866080712527
1782830995045430800,1.5044306640625,0.003215454915165901,-0.011755465853959321,0.0493175914038904
1782830995055359700,1.51435986328125,-0.043377369433641434,-0.010694266363233328,0.028596381746046243
1782830995065290000,1.5242900390625,-0.04269640143215656,-0.03961480202972889,0.000064626201428473
1782830995075219000,1.534218994140625,-0.07142799039781093,-0.0680029843851924,0.05670764685627073
1782830995085149000,1.54414892578125,-0.054176995867490765,-0.09684110246524213,0.04114389302683994
1782830995095078000,1.554077880859375,-0.012978139516711234,-0.08138342109248041,-0.016510058236215264
1782830995105007900,1.5640078125,-0.0006722001731395721,-0.15246858940199018,0.0006215659644454718
1782830995114938000,1.573938232421875,-0.019275778356194494,-0.22307941819801924,0.046606122221797705
1782830995124867000,1.5838671875,-0.011983283260464668,-0.21399419446662066,0.07182066124351695
1782830995134796800,1.593796875,-0.038295536124706264,-0.19998481220602987,0.1118605202849023
1782830995144726000,1.60372607421875,-0.10836568217277526,-0.19286109780594704,0.10905717156827449
1782830995154656000,1.613656005859375,-0.13137947801351546,-0.15454641858935356,0.05541815503500402
1782830995164585000,1.6235849609375,-0.16737725858986377,-0.0775029263973236,0.021988544446229934
1782830995174515000,1.633514892578125,-0.15720774675309657,-0.07168693359494209,0.014789828581176697
1782830995184444000,1.64344384765625,-0.14343582651019096,-0.08854586006775497,0.03637421267330646
1782830995194374000,1.653373779296875,-0.138683663547039,-0.07191767361089586,0.07539972530668601
1782830995204304000,1.663303955078125,-0.07865560356378555,-0.0393495752222836,0.046177393682021645
1782830995214232800,1.67323291015625,-0.05646364549994468,-0.003075315792113542,0.028433300138823687
1782830995224162800,1.683162841796875,-0.03699380587637424,-0.03953092313855886,0.024506719545926897
1782830995234092000,1.693092041015625,0.02848842785954475,-0.03364931775406003,0.03847248186049983
1782830995244022000,1.70302197265625,0.0282727392822504,0.005457242492586374,0.05119396146871149
1782830995253950700,1.71295068359375,-0.014710077875852583,0.017481442285329104,0.07561689345501363
1782830995263881000,1.722880859375,-0.04832534722983837,0.021340601931512354,0.018643581399880347
1782830995273810000,1.732809814453125,-0.04368073629438877,0.0738918962933123,-0.019202603522129356
1782830995283740200,1.742740234375,-0.0008738602250814438,0.08614055249169468,-0.014609357447735965
1782830995293670000,1.752669921875,0.017786416581273078,0.05743877414241433,-0.024149247877765446
1782830995303598800,1.762598876953125,-0.006971008056402206,0.015322072294354437,-0.023608236336242407
1782830995313529000,1.772529052734375,-0.0197679457873106,-0.020560119078308344,0.021285803004354238
1782830995323458000,1.7824580078125,-0.04891396077275276,-0.036251755337417126,0.046595235501602286
1782830995333387800,1.7923876953125,-0.07111936284005642,-0.04288417908921838,0.049231155229453
1782830995343317000,1.80231689453125,-0.12119301504194736,-0.007705021419376135,0.03597704831557348
1782830995353247000,1.8122470703125,-0.12859013955593107,-0.03970291870459914,0.01062271723067388
1782830995363176000,1.822176025390625,-0.09509119005799294,-0.027553046705573795,0.006772307146526873
1782830995373106000,1.83210595703125,-0.0834369926214218,-0.041228520836681125,0.02441938832234591
1782830995383036000,1.842035888671875,-0.0415530766159296,-0.05969371346235275,0.048712392052356154
1782830995392964900,1.85196484375,-0.05329144520461559,-0.05281330629885196,0.03868691006246954
1782830995402894800,1.861894775390625,-0.03226034761369228,-0.08397475275993346,0.01868166665425524
1782830995412823800,1.87182373046875,-0.0700391663879156,-0.09193754833266138,0.012528148993197827
1782830995422753800,1.88175390625,-0.09988017790019511,-0.11029314310401678,0.042232966905180365
1782830995432683000,1.89168310546875,-0.12021452539861202,-0.13811740796640515,0.06762260676547885
1782830995442613000,1.901613037109375,-0.13455226283073424,-0.12485811342075466,0.0841535251266323
1782830995452542000,1.9115419921875,-0.17135317648351192,-0.10793138240873813,0.08353827930511906
1782830995462472000,1.921471923828125,-0.18278116394877433,-0.09866408010870217,0.05877983175413683
1782830995472402000,1.93140185546875,-0.12600713732540605,-0.0512898961238563,-0.012489643613714725
1782830995482331100,1.9413310546875,-0.14245149164795876,-0.03336187911480665,-0.01984957792246714
1782830995492260900,1.9512607421875,-0.176237441393733,-0.0841802122041583,0.07366965011106803
1782830995502189800,1.96118994140625,-0.13320961605012416,-0.07168503389880061,0.045633185536414385
1782830995512120000,1.9711201171875,-0.11374912877678871,0.026634178294986485,0.01181081277038902
1782830995522049000,1.981049072265625,-0.05373568184077739,0.03808028593882918,-0.017373451866209505
1782830995531978800,1.990978759765625,-0.04864741879105568,0.038868952098488806,-0.0033196642083115875
1782830995541908000,2.000907958984375,-0.046460722401738166,0.03461772439479828,0.03199725796440616
1782830995551838000,2.010837890625,-0.05874035826027393,0.059251814913749694,0.04680891478490084
1782830995561768000,2.020767822265625,-0.07815116117298603,-0.006687807200849056,0.03346471843477338
1782830995571697000,2.03069677734375,-0.07862053225040436,-0.008629004396498203,0.010376487384643406
1782830995581630500,2.04063037109375,-0.07088555408418178,0.027226445099711418,-0.011589406838361174
1782830995591559700,2.0505595703125,-0.05454758274555206,-0.013096359068900346,-0.0386640223772265
1782830995601489700,2.06048974609375,-0.05706979469954967,-0.040526217786222694,-0.03969384034899995
1782830995611418400,2.07041845703125,-0.06462532464563846,-0.1009365550853312,0.0019861140496097505
1782830995621348600,2.0803486328125,-0.05674713861644268,-0.1053092172116041,0.03547397589795291
1782830995631277600,2.090277587890625,-0.04382686676681041,-0.10128142300024628,-0.007568827819079161
1782830995641207600,2.10020751953125,-0.06196925717890262,-0.11323358047008514,-0.06491110105076804
1782830995651137500,2.110137451171875,-0.05282207412719726,-0.11133373819813132,-0.06191860470389947
1782830995661066500,2.12006640625,-0.04513736484348774,-0.13144172959476708,-0.047276276568323373
1782830995670996700,2.129996826171875,-0.04671382037997245,-0.1610525856129825,-0.022224417295027523
1782830995680925700,2.13992578125,-0.08588672386109829,-0.17884382449984548,0.01961025274125859
1782830995690855400,2.14985546875,-0.08664134162068367,-0.1822564094223082,0.027633893389441073
1782830995700784400,2.159784423828125,-0.07808511019945144,-0.12050839377865194,-0.024758630214072763
1782830995710714600,2.169714599609375,-0.05913023436069488,-0.07954539201036095,-0.03550152149200439
1782830995720643600,2.1796435546875,-0.1178711771428585,-0.05756985317617654,-0.006507263002172112
1782830995730573600,2.189573486328125,-0.12492635635137557,-0.05279109446704387,0.010899798872694372
1782830995740503600,2.199503662109375,-0.15048574502170084,-0.042699324041604994,0.02526040572375059
1782830995750432500,2.2094326171875,-0.18405133001506327,-0.049413580857962366,0.010414207312837242
1782830995760362800,2.21936279296875,-0.12593465661108494,-0.011627455560117959,-0.02789716570181772
1782830995770291500,2.22929150390625,-0.07750526448488235,0.06844707489088177,-0.04052207133406773
1782830995780221400,2.239221435546875,-0.057221185868978494,0.022359131324291227,-0.015077961340174077
1782830995790150700,2.249150634765625,-0.0698655633866787,-0.01604059582725167,0.020313304710388183
1782830995800080600,2.25908056640625,-0.1308949093669653,-0.023133038306236267,0.031890674051083624
1782830995810009600,2.269009521484375,-0.0934755715548992,-0.025002777700871226,-0.008237666991353034
1782830995819939600,2.278939697265625,-0.03677461016774177,0.061388534681499,-0.042222847369965164
1782830995829869600,2.28886962890625,-0.026271920853853225,0.07108852931037545,-0.0245786340046674
1782830995839798500,2.298798583984375,-0.035517888104915615,-0.00021320435926318166,0.00617726386282593
1782830995849728500,2.308728515625,-0.02288403198122978,-0.016585662489384412,-0.009123948306590319
1782830995859657500,2.318657470703125,-0.07400923906266689,-0.05309431519731879,0.03497442887797952
1782830995869587700,2.328587646484375,-0.12468494881093502,-0.12692469056174158,0.04530601767497137
1782830995879516700,2.3385166015625,-0.025782676032185554,-0.05238251366615295,-0.07748007524469867
1782830995889446400,2.3484462890625,-0.015825345641374586,0.0384064491532743,-0.11899408022556453
1782830995899375400,2.358375244140625,-0.07544014864861964,-0.07796323738545179,-0.049415462287794795
1782830995909305600,2.3683056640625,-0.07754735006093978,-0.08475333591699599,-0.031686895107291634
1782830995919235600,2.378235595703125,-0.07497428470253945,-0.02946720976382494,-0.0459694682860747
1782830995929164500,2.38816455078125,-0.1302759006857872,-0.06814151607304811,-0.027161289175320416
1782830995939094500,2.398094482421875,-0.11579437086880207,-0.06980477311015129,-0.05475402857046574
1782830995949023500,2.4080234375,-0.06349836644232272,-0.011418342854082584,-0.09122532667638733
1782830995958953700,2.41795361328125,-0.04270166212916374,-0.058959261707961556,-0.032606749898567794
1782830995968882700,2.427882568359375,-0.04967793088257313,-0.09633052259460091,0.0038833442393690345
1782830995978812400,2.4378125,-0.04571253438293934,-0.06852028625756501,-0.018278182153590023
1782830995988741600,2.44774169921875,-0.026256723284721374,-0.06454173801541328,-0.030887798885162916
1782830995998671600,2.457671630859375,-0.025943419551849364,-0.04323489222303033,-0.012471413837280124
1782830996008601600,2.4676015625,-0.007725625815987586,-0.014105389980971812,-0.019660064966045318
1782830996018530600,2.477530517578125,-0.04076981728374958,-0.05267506687194109,-0.003609605331905186
1782830996028460500,2.48746044921875,-0.034604864913225175,-0.056288142802566284,-0.011872826889622956
1782830996038389500,2.497389404296875,-0.06368073727190494,-0.005884820254892111,-0.039789117417018856
1782830996048319500,2.507319580078125,-0.09517302312254905,-0.01948050714805722,-0.008377605185005813
1782830996058248400,2.51724853515625,-0.09129062873125075,-0.0022597616255283356,-0.016796894087269903
1782830996068178700,2.5271787109375,-0.11232990962862968,0.023215455892682074,-0.011402286768425255
1782830996078108700,2.537108642578125,-0.127256845125556,-0.010304974784702062,0.049085536213684826
1782830996088037400,2.547037353515625,-0.12710837656557558,-0.014306173250079154,0.04797255173679441
1782830996097967600,2.556967529296875,-0.10318097301125526,0.002803805374354124,0.014159275592677295
1782830996107896600,2.566896484375,-0.1369850429356098,-0.0038118133731186387,0.030965138437692073
1782830996117826600,2.57682666015625,-0.10318974083960056,-0.013068155887722968,0.017715451970603317
1782830996127755500,2.586755615234375,-0.09292904358804226,0.023854922839999196,-0.01314823538661003
1782830996137685500,2.596685546875,-0.12382453258931636,-0.012482611084729433,0.038701194316148754
1782830996147614500,2.606614501953125,-0.11360825900137424,-0.01381137547045946,0.008397241467237472
1782830996157544700,2.616544677734375,-0.054748658275604246,0.01772182691246271,-0.06803723371466622
1782830996167473700,2.6264736328125,-0.0758738638907671,-0.012711889795958995,-0.02056914263498038
1782830996177403400,2.6364033203125,-0.10239946724474429,-0.05784472459480166,0.08726595805874093
1782830996187333600,2.646333740234375,-0.06951894190609455,-0.05097118556350469,0.05170572864944115
1782830996197262600,2.6562626953125,-0.09583119477033615,-0.024748949070274827,0.008588928114436567
1782830996207192600,2.666192626953125,-0.09200608352422714,-0.05001973005756735,0.04679148872606456
1782830996217121500,2.67612158203125,-0.03352992915809154,-0.012648615301400422,0.0064762833420187235
1782830996227051500,2.686051513671875,0.036084874337911604,0.016613573409616948,-0.05364869767706841
1782830996236980500,2.69598046875,0.008836801928281783,-0.08451616616025566,0.015313907254207879
1782830996246910500,2.705910400390625,0.011686930662393569,-0.1204668927244842,0.08473771822275593
1782830996256840400,2.71584033203125,-0.014102759632468223,-0.07356427177414297,0.031821079413592815
1782830996266769700,2.725769775390625,-0.06839607535600661,-0.06633797378242015,0.008949395457282662
1782830996276699600,2.73569970703125,-0.11217501132786273,-0.04309928314462304,0.07157698868075385
1782830996286628600,2.745628662109375,-0.11739829893410206,-0.0015218027397990227,0.0304522570121102
1782830996296558600,2.75555859375,-0.15605799219608307,0.012739800716191529,-0.025190372694842516
1782830996306487600,2.765487548828125,-0.1620212845146656,-0.023448826257139444,0.006528981643635779
1782830996316417500,2.77541748046875,-0.20092296983897684,-0.07233823711052537,0.020229005694109944
1782830996326346800,2.7853466796875,-0.20297990236878394,-0.08965484422296285,0.01547114364253357
1782830996336276500,2.7952763671875,-0.16594050378501415,-0.11169555724784731,0.010981686736177653
1782830996346206700,2.805206787109375,-0.1114659862756729,-0.11001637198925018,-0.05432990314057096
1782830996356135700,2.8151357421875,-0.09901859263479709,-0.10148892827108502,-0.036827710328157987
1782830996366065400,2.8250654296875,-0.04882160631418228,-0.12035261869505047,0.01800089958216995
1782830996375994400,2.834994384765625,-0.020112229180336,-0.07936404409408569,0.023308230476360766
1782830996385924600,2.844924560546875,-0.049587914511561394,-0.050674102313071484,0.010349562845099717
1782830996395853600,2.854853515625,-0.068475570333004,-0.04897913496345281,0.001046056720521301
1782830996405783600,2.864783447265625,-0.11473989337980746,-0.020088263782858846,0.010228694678097963
1782830996415712500,2.87471240234375,-0.08902326832115649,-0.007866641721874476,0.032754067681077866
1782830996425642500,2.884642578125,-0.06846972511410712,0.02191986312419176,-0.02954498770777136
1782830996435572700,2.89457275390625,-0.0713163467168808,0.02003697198703885,-0.017106051367986947
1782830996445501400,2.90450146484375,-0.05310965889692306,-0.005468640669435263,0.001681815607100725
1782830996455431400,2.914431396484375,-0.033959552747011186,0.037505116399377585,0.007633673216216266
1782830996465360600,2.924360595703125,-0.056934185621142386,0.02372910450324416,0.0032095183647237718
1782830996475290600,2.93429052734375,-0.08967851735949516,-0.017246172224730252,0.007434332985524088
1782830996485219600,2.944219482421875,-0.04384147981405258,-0.04540434521660208,-0.029978100161720065
1782830996495149600,2.954149658203125,-0.026653613647818562,-0.04352525347173214,-0.05147314373627305
1782830996505078500,2.96407861328125,-0.07707973254919051,-0.028157442339509724,-0.06728866210337728
1782830996515008500,2.974008544921875,-0.012738485541939735,0.0005967968493700027,0.05826296827318146
1782830996524938500,2.9839384765625,-0.05697451763153076,-0.021907734294980764,-0.017116645827237514
1782830996534867500,2.993867431640625,-0.07180033084154129,-0.01768470977246761,-0.06971256478205323
1782830996544797700,3.003797607421875,-0.0627022476285696,-0.027734686882793902,-0.08674673822391778
1782830996554726700,3.0137265625,-0.10379705908298492,-0.07636895393133163,-0.01834076252840459
1782830996564656400,3.023656494140625,-0.13861527448594568,-0.118632078512758,0.05072124765673652
1782830996574585900,3.0335859375,-0.13017244031131267,-0.10184943214654922,0.022781357058044523
1782830996584515800,3.043515869140625,-0.12205752291679381,-0.09621683308705686,0.012994633993785828
1782830996594445800,3.05344580078125,-0.1444710147768259,-0.08025514771491289,0.03655795347606763
1782830996604374800,3.063374755859375,-0.11613573165237903,-0.0557069819137454,0.03705580172929913
1782830996614305000,3.073304931640625,-0.07620353423655032,-0.00826031721457839,0.009329919207468628
1782830996624234000,3.08323388671875,-0.09933891063034533,-0.013694324962049722,-0.019734500175435096
1782830996634164000,3.0931640625,-0.057629182147979734,-0.008918634992837906,0.026253983338363467
1782830996644093000,3.103093017578125,-0.058008536854386325,0.02268324871212244,0.0596663870640099
1782830996654023000,3.11302294921875,-0.06946984206736087,0.03183671537414193,0.021824494724627583
1782830996663952000,3.122951904296875,-0.0063625207692384715,0.05857566921785474,-0.05507104036407545
1782830996673882000,3.132882080078125,-0.016752981880307195,0.058551849950850006,-0.04076307701570913
1782830996683811800,3.142811767578125,-0.03553367019593715,0.0002777940280735493,0.0205571234036237
1782830996693740800,3.15274072265625,-0.09511457093358039,-0.03051394233778119,0.05600718870302662
1782830996703671000,3.162671142578125,-0.08723346229493617,-0.030499475421011446,0.01871587945111096
1782830996713600000,3.17260009765625,-0.08361118014454841,0.006502806022763252,-0.018851835589390246
1782830996723529700,3.18252978515625,-0.031388240954279896,0.010116758736222982,-0.06270615661870688
1782830996733459000,3.192458984375,0.02339256602525711,0.01555310457125306,-0.05547576697375625
1782830996743389000,3.202388916015625,0.023265140253305432,-0.03616948388144374,0.013556176866684108
1782830996753318000,3.21231787109375,-0.035461189481616015,-0.10444061768352984,0.0443813405781053
1782830996763247900,3.222247802734375,-0.02003331872522831,-0.048859600237011906,-0.006495590830687433
1782830996773177900,3.232177734375,0.007775310176610946,0.030386370435357093,-0.042338692301977426
1782830996783107000,3.242107177734375,-0.0028068741142749784,0.017018062557280063,-0.040416729529760775
1782830996793037000,3.252037109375,-0.012237550282478332,-0.019555033688992262,-0.004123473138175905
1782830996802965800,3.2619658203125,-0.05540566087961197,-0.014727029010653495,0.027535638913046567
1782830996812896000,3.27189599609375,-0.12968787166476248,-0.04834741293117404,0.03551460016928613
1782830996822825000,3.281824951171875,-0.1436164437741041,-0.03797083421498537,0.004566851257812232
1782830996832755000,3.2917548828125,-0.14981471389234066,-0.04005085535943508,0.009539561636466532
1782830996842684000,3.301683837890625,-0.17714637293219565,-0.06767872086688875,0.05773647844735533
1782830996852614000,3.31161376953125,-0.20077859293222428,-0.06002718320041894,0.11780779305044561
1782830996862544000,3.3215439453125,-0.1982148799240589,-0.014015373609960078,0.10568115579653531
1782830996872473000,3.33147314453125,-0.18832710763812063,0.05964066810086369,0.06437315824916585
1782830996882402800,3.34140283203125,-0.15804419757723806,0.08264408867806196,0.02248153386125341
1782830996892331800,3.351331787109375,-0.20660569165050982,0.08058627936542034,0.0425764648469165
1782830996902262000,3.361261962890625,-0.24879005190730094,0.022241788554936647,0.07411284556761384
1782830996912191000,3.37119091796875,-0.20422961016893385,-0.017960457973927257,0.05993245412167161
1782830996922120700,3.38112060546875,-0.1609054322272539,0.006556435906141996,0.01758970669908449
1782830996932050000,3.3910498046875,-0.13553659769296644,-0.04845686465501785,0.03542019988410175
1782830996941980000,3.40097998046875,-0.09420973104834555,-0.08961685030013322,0.014563709941413252
1782830996951910100,3.41091015625,-0.05295008442103862,-0.08944733895212412,-0.0055469848689623175
1782830996961838800,3.4208388671875,-0.03450257358253002,-0.10332520378753542,-0.016361626208852977
1782830996971768800,3.430768798828125,-0.03324234438836574,-0.07408098912462592,-0.04336509447395801
1782830996981698000,3.440697998046875,-0.00241641349196434,-0.04685483628585935,-0.06503317479416727
1782830996991628000,3.4506279296875,0.01869534811973572,-0.04578019279167056,-0.07562951547456905
1782830997001557000,3.460556884765625,-0.0194324302226305,-0.06615691812708974,-0.031226931179035453
1782830997011487000,3.470487060546875,-0.054527124479413026,-0.11329597818180918,0.024921474359277634
1782830997021416000,3.480416015625,-0.017149872243404387,-0.09338336322680116,-0.04450887594791129
1782830997031346000,3.490345947265625,-0.05657119752764701,-0.023891309327632188,-0.058595268967468285
1782830997041276000,3.50027587890625,-0.14085107071399688,-0.08397183015048504,-0.023331008563749492
1782830997051204900,3.510204833984375,-0.10975216809511185,-0.06801262899637221,-0.019996987036522477
1782830997061134800,3.520134765625,-0.11412030017673969,-0.019407880303263663,-0.03739297952810302
1782830997071064000,3.53006396484375,-0.08084697612822056,-0.06504515749290585,-0.021004958502668886
1782830997080993800,3.539993896484375,-0.03309738295972347,-0.04264686320200562,-0.006285838803835213
1782830997090922800,3.5499228515625,-0.012167407655715941,-0.031738077305257316,0.009357373469974846
1782830997100853000,3.55985302734375,-0.055982583984732624,-0.051720542626082895,0.05804733449481427
1782830997110782000,3.569781982421875,-0.07654664858579635,-0.04325038205310702,0.07447355037247762
1782830997120712000,3.5797119140625,-0.09317278921604157,-0.025103899987787007,0.036688813314121216
1782830997130642000,3.589641845703125,-0.07424129425287246,-0.023696955799311397,0.036050789405219254
1782830997140571000,3.59957080078125,-0.08026713041365147,-0.02793693145662546,0.08037597934929654
1782830997150501000,3.609501220703125,-0.09211363555192947,-0.025882337014377116,0.038136418306548146
1782830997160430000,3.61943017578125,-0.09309037162959576,-0.018265578400343655,0.010167977466806769
1782830997170359800,3.62935986328125,-0.12880933526456356,-0.022469752091914413,0.05760446783183142
1782830997180289000,3.6392890625,-0.12805179489552973,-0.019391805951297282,0.0608464271614328
1782830997190219000,3.649218994140625,-0.07080313649773597,-0.017039543736726045,0.02796096991933882
1782830997200148700,3.659148681640625,-0.08492167822122573,-0.03665624448508024,0.03878949365410954
1782830997210078000,3.669077880859375,-0.08561316761672497,-0.05290697593167424,0.07232815410792827
1782830997220008000,3.679008056640625,-0.09309212519526482,-0.0587361204765737,0.08942059707567095
1782830997229937000,3.68893701171875,-0.11787643783986568,-0.09647080784812569,0.09558185965176672
1782830997239867000,3.698866943359375,-0.11591127524673939,-0.07316460493206978,0.13301739967996254
1782830997249795800,3.7087958984375,-0.08554360951185226,0.04339855835214257,0.06644819269124418
1782830997259725800,3.718725830078125,-0.07876841628849506,0.07194046996459365,-0.0020501191965304312
1782830997269655000,3.728655029296875,-0.09906184725463389,0.05107376915514469,0.0053033853714354335
1782830997279584800,3.738584716796875,-0.06909574805796145,0.03827288590148091,0.03176189657226205
1782830997289515000,3.748514892578125,-0.07011807684302329,0.013845277740061283,0.02669727012645453
1782830997299444000,3.75844384765625,-0.08166472225189209,-0.06560133007094264,0.034448121715243904
1782830997309374000,3.7683740234375,-0.05428980859220028,-0.05052358792647719,-0.021851656726188957
1782830997319303000,3.778302978515625,-0.08512918349206447,0.03450008936449885,-0.019497531348094344
1782830997329233000,3.78823291015625,-0.08035363965332508,0.0111997316673398,-0.004070592173468321
1782830997339161900,3.798161865234375,-0.10809972471296786,-0.021997604535520077,-0.01657114077368751
1782830997349092000,3.808092041015625,-0.10700257712602615,-0.03331000279709696,0.0020650245047174392
1782830997359021000,3.81802099609375,-0.06633388212919235,-0.05560016053840518,-0.012256474178656935
1782830997368950800,3.82795068359375,-0.06893325097262859,-0.06219020645320415,-0.06685954997111111
1782830997378881000,3.837881103515625,-0.03782499600350857,-0.10261471743062138,-0.06657728069731965
1782830997388810000,3.84781005859375,-0.05624854144454002,-0.10196969752535223,-0.051227206151187414
1782830997398739700,3.85773974609375,-0.047935471129417415,-0.10672522148936986,-0.028812983638793227
1782830997408669000,3.8676689453125,-0.07778992664515971,-0.1011748938858509,-0.0010657112690620125
1782830997418599000,3.877598876953125,-0.08467325641810894,-0.0798407216951251,0.0026014512026682497
1782830997428527900,3.88752783203125,-0.08118307621479035,-0.04498670432642102,0.02101336100483313
1782830997438457900,3.897457763671875,-0.08931026856899262,0.004739741872996092,0.025531642146874218
1782830997448387800,3.907387939453125,-0.05110416429340839,0.04117401417046785,0.0374694605641067
1782830997458317000,3.917317138671875,-0.09086158966422081,0.05187222605645656,0.08746902461647987
1782830997468247000,3.9272470703125,-0.058633390754461286,0.049260874514281745,0.0740600194018334
1782830997478176000,3.937176025390625,-0.01960311061441898,0.046626580487936733,0.05889041598914191
1782830997488106000,3.94710595703125,0.018542203384637832,0.028547756831347942,0.06449132300242781
1782830997498035000,3.957034912109375,0.02313070021867752,0.033403234038501976,0.1055356646449305
1782830997507965000,3.96696484375,0.03847439982295036,0.026637977687269446,0.11565404908265918
1782830997517894100,3.97689404296875,-0.03041618105173111,0.03600611001327634,0.13208421048307792
1782830997527824000,3.986823974609375,-0.03567629353702068,-0.006863017637282609,0.07953740963330493
1782830997537753900,3.99675390625,-0.047290743485093115,0.012264730550348758,0.07527869274290278
1782830997547683000,4.00668310546875,-0.056060909917950624,-0.004553425520658493,0.06342393123293295
1782830997557612800,4.01661279296875,-0.07901859165728092,-0.08074556158035993,0.07062984402375296
1782830997567541800,4.026541748046875,-0.12702829706668853,-0.15505597554668782,0.04873385496549308
1782830997577471200,4.03647119140625,-0.1247550914376974,-0.1404042037293315,0.006420260572154075
1782830997587400400,4.046400390625,-0.1035585741519928,-0.09800824654847383,-0.0635025128944777
1782830997597330400,4.056330322265625,-0.09837737212181091,-0.1075584574431181,-0.07866252649491652
1782830997607259400,4.06625927734375,-0.10675824697613716,-0.1364637955404818,-0.03386973730539903
1782830997617189400,4.076189453125,-0.09372399335801601,-0.15999562390595673,-0.041812074611987916
1782830997627119400,4.086119384765625,-0.07139993334710598,-0.14087182124108075,-0.03972372403061017
1782830997637048300,4.09604833984375,-0.10086451276242732,-0.09820070038065314,-0.09423095649946481
1782830997646978300,4.105978271484375,-0.1062421141475439,-0.07554156319648027,-0.11178929994590579
1782830997656907300,4.1159072265625,-0.09903671281337738,-0.06762523711398244,-0.09219711258430033
1782830997666837500,4.12583740234375,-0.025399229672551153,-0.03633738779425621,-0.1144039394237101
1782830997676766500,4.135766357421875,0.05354045152962208,-0.016087065317481754,-0.07675325880749151
1782830997686696200,4.1456962890625,0.06837620161175728,-0.04484042772352695,-0.0328299459288828
1782830997696626400,4.15562646484375,0.004085223487019538,-0.05957037934362888,-0.06148614983707666
1782830997706555400,4.165555419921875,0.005385784691572189,-0.052034869272261856,-0.014194328639749437
1782830997716485400,4.1754853515625,-0.010414426508545875,-0.035372196023911236,0.030558804392814633
1782830997726414300,4.185414306640625,0.01817979981303215,0.00013487842604517937,-0.028491478333156555
1782830997736344300,4.19534423828125,0.03204232094883919,0.010837181965261697,-0.07082459941087291
1782830997746273300,4.205273193359375,0.005752864438295364,-0.017037790171056985,-0.0430068373545073
1782830997756203500,4.21520361328125,-0.06341419529020786,-0.0896970759294927,0.0473440080422908
1782830997766132500,4.225132568359375,-0.09783142867684363,-0.08108443814590573,0.10516820130571722
1782830997776062200,4.235062255859375,-0.07979425220489501,-0.010685060143470763,0.06184564906554296
1782830997785992400,4.244992431640625,-0.0729588532269001,0.021363544415682553,0.016540800434350966
1782830997795921400,4.25492138671875,-0.07695464486479758,0.040674832476675506,0.036392168455105275
1782830997805851400,4.264851318359375,-0.11415361792445182,0.003955021236091852,0.09255012727305292
1782830997815780400,4.2747802734375,-0.14258067098557947,-0.060915802603214976,0.09387600558195262
1782830997825710300,4.28471044921875,-0.1535936479091644,-0.09947495810016989,0.10765373451113701
1782830997835639300,4.294639404296875,-0.1725958700209856,-0.11240458230003714,0.09001487317439168
1782830997845569300,4.3045693359375,-0.16456863090991972,-0.09203136409595608,0.03482373182829469
1782830997855498200,4.314498291015625,-0.14735212317109106,-0.1220269816480577,0.003483147674333304
1782830997865428500,4.324428466796875,-0.144640526124835,-0.15275938904210923,-0.03204652219992131
1782830997875358500,4.3343583984375,-0.13906243373155594,-0.15591887598633766,-0.010632654102798551
1782830997885287200,4.344287109375,-0.13525778075158595,-0.14897899372056125,-0.014604644740000366
1782830997895217400,4.354217529296875,-0.12835574627816676,-0.10624109123423695,-0.07943884462965652
1782830997905146400,4.364146484375,-0.12236205882132052,-0.08061696676462889,-0.10521198564851655
1782830997915076400,4.374076416015625,-0.10443535698652266,-0.09615823476761579,-0.04861687752231955
1782830997925005300,4.38400537109375,-0.10010404978394508,-0.11060162453129888,-0.01526497181225568
1782830997934935300,4.393935302734375,-0.09093699298799038,-0.12855959828719496,0.004034972870815545
1782830997944865300,4.403865234375,-0.0818295574247837,-0.14193039038330316,0.03425616107340902
1782830997954794500,4.41379443359375,-0.06692132662832737,-0.0890874195985496,0.006781842159852385
1782830997964724200,4.42372412109375,-0.02178863795995712,-0.04881912209615111,-0.044475667798053474
1782830997974653200,4.433653076171875,0.008528758892416954,-0.03335398806929588,-0.046109954468999056
1782830997984583400,4.44358349609375,0.011816110000014304,-0.033709085117280484,-0.024792696880456058
1782830997994512400,4.453512451171875,-0.027776480197906493,-0.07433511001616716,0.0016257197719998656
1782830998004442400,4.4634423828125,-0.028669629645347593,-0.08764321213960648,0.005757924205902963
1782830998014371300,4.473371337890625,-0.07997662303447722,-0.052689387658238405,-0.012568517536204308
1782830998024301300,4.48330126953125,-0.1147340481609106,0.00019464578926563263,0.005276917489618063
1782830998034231600,4.4932314453125,-0.11646072582304477,0.03382686627805233,0.03327160701546818
1782830998044160300,4.50316015625,-0.07920446961820125,0.056497255508601664,0.010848269614856689
1782830998054090200,4.51309033203125,-0.08083703925609588,0.057629474408924575,0.05318120802948251
1782830998064019500,4.52301953125,-0.07304010176956653,-0.01640796783491969,0.08673086480135098
1782830998073949400,4.532949462890625,-0.09133797500431537,0.025069120935350655,0.06681472444869578
1782830998083878400,4.54287841796875,-0.0759130268573761,0.03195537331774831,0.04165478342473507
1782830998093808400,4.552808349609375,-0.12610825961232183,0.00912774769887328,0.04727870598742738
1782830998103737300,4.5627373046875,-0.13334990130364893,0.0010290507867932318,0.06771021198369562
1782830998113667300,4.572667236328125,-0.11523615246415138,-0.034009237107634545,0.07164037277316675
1782830998123597300,4.582597412109375,-0.0790460641860962,-0.09701660516262053,0.039789628873672336
1782830998133526300,4.5925263671875,-0.09013093730211258,-0.13127557924762367,0.049093390726577486
1782830998143456500,4.60245654296875,-0.04477028509676456,-0.12246025849878787,0.016523136913497
1782830998153385500,4.612385498046875,-0.0442021298199892,-0.09045227821096777,0.0036972836153581737
1782830998163315200,4.622315185546875,-0.09619652095139027,-0.09542933597117662,-0.11234156353380531
1782830998173244200,4.632244140625,-0.10432020617425442,-0.13117299565598367,-0.1488358771891333
1782830998183174400,4.64217431640625,-0.10068155741095543,-0.1281352353952825,-0.06447073687212541
1782830998193104400,4.6521044921875,-0.11968611761033535,-0.14229513204246758,0.004984254685975611
1782830998203033300,4.662033447265625,-0.11201719041764735,-0.12462430466488003,-0.06358449208950623
1782830998212963300,4.67196337890625,-0.061864043238759034,-0.046241526693105696,-0.023309783112630246
1782830998222892300,4.681892333984375,-0.0876461347490549,-0.027740970493108034,0.013084723430033772
1782830998232822500,4.691822509765625,-0.06407178241610527,-0.024807108998298643,-0.006029708618298173
1782830998242751200,4.701751220703125,-0.04805529811680317,0.02002455089688301,0.05540224507981911
1782830998252681200,4.71168115234375,-0.04794774608910084,-0.0019761223785579205,0.0202543593310751
1782830998262610400,4.7216103515625,-0.05885200194120407,-0.04579612101316452,-0.09317952948408201
1782830998272540400,4.73154052734375,-0.03351297802329063,-0.03734788001105189,-0.18660989192407576
1782830998282470100,4.74147021484375,0.08591010473668574,-0.018483020543307065,-0.15454053683783858
1782830998292399400,4.7513994140625,0.04983633631467819,-0.030596944446116683,0.011347889700066298
1782830998302329300,4.761329345703125,0.03095803284347057,-0.046627018879354,0.08067434124136343
1782830998312258300,4.77125830078125,0.019890695384144782,0.02250759988427162,0.04380865525668487
1782830998322188300,4.781188232421875,-0.05206570280194282,0.054980421204864974,0.04246308586662635
1782830998332117200,4.7911171875,-0.09107552467584609,0.02859218049496412,0.08994060236178338
1782830998342047500,4.801047607421875,-0.16794073769152162,-0.00850625479966402,0.067374860815797
1782830998351976400,4.8109765625,-0.27255437385439873,-0.055986091116070745,0.023134645741432903
1782830998361906200,4.82090625,-0.2934516159325838,-0.09452917226105928,-0.02511478670798242
1782830998371836400,4.83083642578125,-0.20274317100346087,-0.07827917146682739,-0.11508466996317729
1782830998381765400,4.840765380859375,-0.1456692846506834,-0.10081263644471763,-0.10142780920099466
1782830998391695400,4.8506953125,-0.12798866653144358,-0.09615881928950548,0.03231598679106682
1782830998401624300,4.860624267578125,-0.12424714191555976,-0.07301292150169611,0.14302008531615137
1782830998411554300,4.87055419921875,-0.1528530586749315,-0.04989829563498497,0.13923786336369812
1782830998421483300,4.880483154296875,-0.10212240386903286,-0.039105098941922184,0.039325226232316345
1782830998431413500,4.89041357421875,-0.07926584441661834,0.008252864560484886,-0.02313042622404173
1782830998441343200,4.90034326171875,-0.08970891249775886,0.004006605292856693,0.0482239874809049
1782830998451272200,4.910272216796875,-0.12815116361677645,-0.031162761635333297,0.07369113129051402
1782830998461202400,4.920202392578125,-0.09846680397093295,-0.026265783374011514,0.03681388273220509
1782830998471131400,4.93013134765625,-0.07289630938470364,-0.020017682764679193,-0.03190101278200745
1782830998481061400,4.940061279296875,-0.03889759367108345,-0.05379661824777722,-0.07567046853946521
1782830998490990300,4.949990234375,0.03220949420928955,-0.009193506411463022,-0.011680738383624703
1782830998500920300,4.95992041015625,-0.05254676431715488,-0.018570844957232473,0.11954038899671286
1782830998510849300,4.969849365234375,0.047853638064861294,-0.04336538673490286,0.12829630770850925
1782830998520779300,4.979779296875,-0.00011865794360637664,0.02538037884160876,-0.005235635631158948
1782830998530709200,4.989709228515625,0.036001872229576105,0.01968012137338519,-0.036366449491959066
1782830998540638500,4.999638427734375,-0.05037585001885891,-0.026360622050613163,-0.032580629076622424
1782830998550568400,5.009568359375,-0.03815232826173305,-0.05505611678957939,0.05896397441569715
1782830998560497400,5.019497314453125,-0.05257423684597015,-0.05959770574197173,0.04618908411981538
1782830998570427400,5.029427490234375,-0.0662660775899887,0.000558656796067953,-0.010196619039401411
1782830998580353300,5.039353271484375,-0.1405541335940361,-0.032044220644980664,-0.08876012387294321
1782830998590283300,5.049283203125,-0.12728782478570938,-0.12686375415474177,-0.12199760942310094
1782830998600212200,5.059212158203125,-0.1451812088727951,-0.17919037291519344,-0.1132242463861592
1782830998610142200,5.06914208984375,-0.16856208446025847,-0.1321452016890049,-0.03130217010602355
1782830998620072200,5.079072265625,-0.2833025623619556,-0.19150266893431545,-0.08578708114521577
1782830998630001400,5.08900146484375,-0.2258691950470209,-0.16464418036416173,-0.16894322926495223
1782830998639931100,5.09893115234375,-0.2631792272657156,-0.05363265985772013,-0.06562679330576211
1782830998649860000,5.108860107421875,-0.258446938046813,0.0023943477906286717,-0.00038202158752828836
1782830998659790300,5.118790283203125,-0.1447071616202593,-0.009043138155341147,0.03695159243615344
1782830998669719300,5.12871923828125,-0.16922902393639086,-0.05442804801911115,0.09718653663573786
1782830998679649000,5.13864892578125,-0.11414368105232715,-0.09534538401477038,0.20977036622650921
1782830998689579300,5.148579345703125,-0.03717617670595646,-0.10586853159479796,-0.019040453496668486
1782830998699508200,5.15850830078125,0.009562193593382834,0.02743913800232112,0.09894877880159765
1782830998709438200,5.168438232421875,0.033031916508078574,0.011862141098827123,0.03233664598660543
1782830998719367200,5.1783671875,0.13100479948222638,0.09038688482455909,0.009647040598932653
1782830998729297200,5.188297119140625,0.09371522552967071,0.10712130813486874,0.0826463902330026
1782830998739226000,5.19822607421875,0.0322159239500761,0.015649258422106505,0.21105063356170428
1782830998749156400,5.20815625,-0.027235797449946402,-0.00786620333045721,0.12795997015992178
1782830998759085000,5.2180849609375,0.05358955136835575,0.10046725707314907,0.048048338653054086
1782830998769015300,5.228015380859375,-0.02527005033493042,0.07695413340814411,-0.08532930917404591
1782830998778945300,5.2379453125,-0.06899170316159725,0.026202801140397785,-0.07080317303035408
1782830998788874200,5.247874267578125,-0.07491524799168109,0.02627352828904986,-0.021350648401491343
1782830998798804200,5.25780419921875,-0.07529986339509487,0.038409883219376204,-0.015146934923157095
1782830998808733200,5.267733154296875,-0.11788637471199034,0.03600874036177992,0.022360355166997758
1782830998818663200,5.2776630859375,-0.15682956109046936,0.02045687789954245,0.05890994267351925
1782830998828592400,5.28759228515625,-0.17969488837122916,-0.0006728577602654695,0.016697415768168865
1782830998838522000,5.297522216796875,-0.15450608657896517,0.029668285293877123,-0.005139974970649928
1782830998848451000,5.307451171875,-0.12835866888761518,0.03332015886493027,0.00874800939997658
1782830998858377200,5.317377197265625,-0.1285936466872692,0.03428118591681122,0.0045863048769533635
1782830998868307200,5.32730712890625,-0.035094109734892846,-0.00716492319330573,-0.01122329520601779
1782830998878237200,5.3372373046875,-0.02491173841655254,-0.03071735595539212,-0.010039601846784353
1782830998888166100,5.347166259765625,0.06147182905077934,-0.045072482913732524,-0.06668602003511041
1782830998898096400,5.357096435546875,0.07887947544753551,-0.022039543981105088,-0.06205905435420572
1782830998908025300,5.367025390625,-0.0037497079223394393,-0.07618249144852161,0.001587031729426235
1782830998917955000,5.376955078125,-0.01887128920853138,-0.08618029998019337,0.051070316822733726
1782830998927884000,5.386884033203125,-0.0795990218937397,-0.026127543947100637,0.008840765717346221
1782830998937814300,5.396814208984375,-0.08075754427909851,0.029511195036023855,-0.08389249957026913
1782830998947743200,5.4067431640625,-0.160839965775609,-0.001756196017563343,-0.08536881920052691
1782830998957673200,5.416673095703125,-0.07447568753063678,-0.019845687198638915,-0.05678051116308197
1782830998967603200,5.426603271484375,-0.056581134399771686,0.004629705627262592,0.023484153298847375
1782830998977532200,5.4365322265625,-0.09795242470800876,-0.0814474262394011,0.031132768355868756
1782830998987462400,5.44646240234375,-0.07338380064070224,-0.0712967652335763,-0.00699466292662546
1782830998997391000,5.45639111328125,-0.15976678358614443,-0.03681450378671288,-0.09218807076131924
1782830999007321000,5.466321044921875,-0.12052256843447684,-0.027874095353484153,-0.04934409581832588
1782830999017250300,5.476250244140625,-0.13192191432714462,-0.015240677621215582,0.00662646893505007
1782830999027180300,5.48618017578125,-0.05943243217766284,-0.012191811444610356,0.02681156242219731
1782830999037110300,5.4961103515625,-0.10420797797143459,-0.010403174462169408,0.05050318445926532
1782830999047039200,5.506039306640625,-0.12648644527494907,-0.0136604226924479,-0.014540073337499052
1782830999056969200,5.51596923828125,-0.053069911408424375,0.05341112606152892,-0.08275869150105863
1782830999066898200,5.525898193359375,-0.009796586871147156,0.05164309347569942,0.010305285311955958
1782830999076828200,5.535828125,-0.07796236060261726,-0.07528451969549059,-0.08261033253893256
1782830999086757000,5.545757080078125,-0.0541582911670208,-0.056114101409912104,-0.04231253494741395
1782830999096687400,5.555687255859375,0.0054226095706224435,-0.049686114189028734,-0.012987784127891063
1782830999106616300,5.5656162109375,-0.10244973612725734,-0.040878392224758864,0.04361488625025377
1782830999116546000,5.575546142578125,-0.15102993490099906,-0.07015197911262512,-0.029183716647326944
1782830999126476300,5.585476318359375,-0.07312076579034328,0.006367050813883543,-0.11563874191567301
1782830999136405200,5.5954052734375,-0.07151683772504329,0.055608782236278055,-0.06171184835173189
1782830999146335200,5.605335205078125,-0.08766776205897331,-0.02970262595489621,-0.02095847074612975
1782830999156264200,5.61526416015625,-0.05666589007377624,-0.05868526707217097,-0.014682093890383838
1782830999166194200,5.625194091796875,-0.014517185652256012,-0.02466565470099449,0.012282923794165252
1782830999176123100,5.635123046875,-0.08177753497660159,-0.05045227625593543,0.060112505130004136
1782830999186053400,5.645053466796875,-0.08027940537333488,-0.06419847753569484,0.045098074012715365
1782830999195982300,5.654982421875,-0.11297697536051272,0.0067556117400527,0.009649871876835822
1782830999205912000,5.664912109375,-0.11783318322002886,0.038237522327154876,-0.003880403363611549
1782830999215842300,5.67484228515625,-0.09327508054673671,0.017071838571131228,0.019355985719244927
1782830999225771300,5.684771240234375,-0.09113573043048381,0.008356032674014567,0.06767946978555991
1782830999235701200,5.694701171875,-0.11529109752178192,-0.03470584106966853,0.08877360440902411
1782830999245630200,5.704630126953125,-0.09218728531002998,-0.02531637369468808,0.07497594693666323
1782830999255560200,5.714560302734375,-0.06539747806191444,0.03274579304307699,0.0553525789855048
1782830999265489200,5.7244892578125,-0.055817748811841005,0.04655629173070192,0.0456329846070148
1782830999275419100,5.734419189453125,-0.051726680105924606,-0.014827420645207166,0.048959370817057785
1782830999285349000,5.74434912109375,-0.024875498059391973,-0.05879442653506994,0.031617282203491776
1782830999295278300,5.7542783203125,-0.05847966149747371,-0.09759075178876518,0.028985691590886563
1782830999305208300,5.764208251953125,-0.062245736032724375,-0.09307122853770851,0.023447017892543224
1782830999315137000,5.774136962890625,-0.13167583061158655,-0.06278276551887392,0.013125073706731199
1782830999325067300,5.7840673828125,-0.18826514831781385,-0.06884820303767919,-0.035351408964209255
1782830999334996200,5.793996337890625,-0.17098551221489905,-0.018704992730915547,-0.06241844398481771
1782830999344926200,5.80392626953125,-0.18823650674521922,-0.037814766870439054,-0.06346665612980723
1782830999354855400,5.81385546875,-0.21532208206951617,-0.10679171085432171,-0.034884576903749256
1782830999364785200,5.82378515625,-0.1845294689208269,-0.15093626526817677,-0.022041224481537936
1782830999374715400,5.83371533203125,-0.08974749094247818,-0.10328107238486409,-0.08577420339733362
1782830999384644400,5.843644287109375,-0.0581622661113739,-0.03147095080167055,0.04652523900531232
1782830999394574000,5.853573974609375,-0.1045388173609972,-0.06544131720364094,0.04558414049660787
1782830999404503000,5.8635029296875,-0.06147182905077934,0.03723243693783879,0.0021188005185686053
1782830999414433300,5.873433349609375,0.019513094243407247,0.1017170379385352,-0.02528254449032247
1782830999424362200,5.8833623046875,0.03450315810441971,0.058232262607663864,-0.021567506022565065
1782830999434292200,5.893292236328125,0.0753729286313057,-0.014651771817356347,0.010661971528828144
1782830999444221200,5.90322119140625,0.10345160664618015,-0.03545680556744337,0.006068908117525279
1782830999454151200,5.913151123046875,0.06974281378984451,-0.03470671785250306,0.07359369879802688
1782830999464081400,5.923081298828125,0.04314180711209774,-0.05390300123170018,0.058223056387901304
1782830999474010000,5.933010009765625,-0.03474222755730152,0.030001316640526056,0.025465919966902582
1782830999483940000,5.942940185546875,-0.093371526658535,0.04070917313769459,-0.03136805668277666
1782830999493869300,5.952869384765625,-0.104621234947443,0.048545565851777786,-0.02922960161566734
1782830999503800000,5.962800048828125,-0.13701251546442508,0.04540303004235029,0.01815205328958109
1782830999513730300,5.972730224609375,-0.1760246754258871,-0.044200230123847724,0.027592392335273323
1782830999523659300,5.9826591796875,-0.15148527745306492,-0.0827551478371024,-0.0060722508520819245
1782830999533589200,5.99258935546875,-0.1362058752566576,-0.03687836280316114,-0.036218784649576986
1782830999543518200,6.002518310546875,-0.17941197977662085,-0.023890140283852813,-0.009225801245868205
1782830999553448200,6.0124482421875,-0.22903204299211502,-0.0869021845139563,-0.014794523022603243
1782830999563377200,6.022377197265625,-0.20306816517412662,-0.04478416749164462,-0.047556755743827665
1782830999573307400,6.032307373046875,-0.12342822674810885,0.014416063365340232,-0.06053568071182817
1782830999583240700,6.04224072265625,-0.11250877332687377,-0.002955634935200214,-0.026136439639609304
1782830999593169700,6.052169677734375,-0.11573358059227466,-0.06430003821402788,-0.024558047874365
1782830999603100000,6.062099853515625,-0.06117898358404636,-0.06956906465813517,-0.018347466263826936
1782830999613028900,6.07202880859375,-0.09076514355242252,-0.027729572316259145,0.03714722460610792
1782830999622958800,6.081958740234375,-0.07099953585267066,-0.05913096501305699,0.05061497427066788
1782830999632887800,6.0918876953125,-0.04222527678906917,-0.0073678984194993965,-0.014521807028446345
1782830999642817800,6.10181787109375,-0.025309797823429105,0.025020459488034247,-0.011320782497432083
1782830999652747000,6.1117470703125,-0.015793196937441824,-0.004708323821425438,0.01551934843212366
1782830999662676700,6.1216767578125,-0.003615852409601211,-0.018330460330098865,0.022532405531965196
1782830999672606700,6.131606689453125,-0.00275017549097538,0.0031095103226602074,0.008814809292182325
1782830999682536000,6.141535888671875,0.03545066808760166,-0.017959581191092727,-0.031008210394438355
1782830999692465700,6.151465576171875,0.07088555408418178,-0.012779109813272953,-0.04910285267466679
1782830999702394600,6.16139453125,-0.0028927988320589064,-0.047621875135600567,-0.015303093599248677
1782830999712324900,6.171324951171875,-0.04515022432506084,-0.07924743197709322,0.031492340649571265
1782830999722253800,6.18125390625,-0.12128361593484878,-0.10417349117994308,0.009585410072188823
1782830999732183800,6.191183837890625,-0.07082768641710281,-0.02563873751685023,-0.036793789792247115
1782830999742112800,6.20111279296875,-0.07305997551381588,0.008388619769364595,-0.033080998080503195
1782830999752042800,6.211042724609375,-0.11178805783689022,-0.05070975814834237,-0.010611684380006044
1782830999761973000,6.220972900390625,-0.11965396890640258,-0.056315615331381554,-0.009411934935115277
1782830999771902000,6.23090185546875,-0.06728314567804336,-0.031984453281760215,-0.025926285753957924
1782830999781831700,6.240831787109375,-0.11834522439539431,-0.01915551297739148,0.03458634287584573
1782830999791760600,6.2507607421875,-0.07983458421528339,-0.04002119087353349,0.05769309596335515
1782830999801691000,6.26069091796875,-0.07360533443689346,0.011085749898850918,0.023953962767682968
1782830999811619800,6.270619873046875,-0.04544365431368351,0.02973287496268749,0.00239332487732172
1782830999821549800,6.2805498046875,-0.03024433161616325,0.006259937177598476,0.019327398945577442
1782830999831479800,6.290479736328125,-0.050158992397785186,-0.008082476429641246,0.05550222572241909
1782830999841408800,6.30040869140625,-0.11138415321111679,-0.01817556202933192,0.08324910536650568
1782830999851338800,6.3103388671875,-0.15027239453196525,-0.07263970427513122,0.05284972018594853
1782830999861267700,6.320267822265625,-0.12246084302067756,-0.044353228728473186,-0.014185451213549822
1782830999871197700,6.33019775390625,-0.1281283672630787,-0.0008237374730408191,-0.038176969512645154
1782830999881127000,6.340126953125,-0.1333645143508911,-0.041037674439698454,0.012418441541027277
1782830999891057000,6.350056884765625,-0.13537936130464076,-0.06939633843973278,0.010034797807503491
1782830999900985600,6.359985595703125,-0.056225160568952555,-0.060539078245311975,-0.010523914765007794
1782830999910915800,6.369915771484375,-0.04334522072970867,-0.07796484482064843,0.03043188094436191
1782830999920845800,6.379845703125,-0.08093582345545292,-0.12199936298877,0.04869654602925293
1782830999930774800,6.38977490234375,-0.05650339298844337,-0.07119798103421926,-0.005313340509869158
1782830999940704800,6.399704833984375,-0.06575754354596137,0.012457768904417752,-0.03886964621823281
1782830999950633700,6.4096337890625,-0.06830255185365676,0.00488075777888298,-0.06916594548365101
1782830999960564000,6.41956396484375,-0.07737550062537193,-0.022474866658449173,-0.06101110707069747
1782830999970493000,6.429492919921875,-0.06247253052592277,-0.04759206451922655,-0.02493555768355727
1782830999980422700,6.439422607421875,0.014362871873378752,-0.04295154523700476,-0.05034357345076278
1782830999990352000,6.449351806640625,-0.024291560691595077,-0.05410290771797299,-0.02836675597494468
1782831000000281900,6.45928173828125,-0.10378244603574276,-0.08933481848835945,0.010374313693866133
1782831000010211600,6.469211669921875,-0.04778291091620922,-0.02338116784840822,-0.004967796741519123
1782831000020140800,6.479140869140625,-0.08107435514330863,0.016773001755028962,0.01304767022212036
1782831000030070800,6.48907080078125,-0.06762450646162033,-0.08664923266619444,-0.013854538758751004
1782831000039999700,6.498999755859375,-0.05036240601539611,-0.0563476179048419,-0.03357676397450268
1782831000049930000,6.508929931640625,-0.06748539025187492,-0.06000277941152453,0.005139828840177506
1782831000059858700,6.518858642578125,-0.08702244989275931,-0.08199906877279281,0.032204169580200684
1782831000069788700,6.52878857421875,-0.09435410795509815,-0.017993629591166974,0.0030012367757502943
1782831000079719000,6.538718994140625,-0.084313190934062,0.023876988541334868,-0.032150530563667415
1782831000089647900,6.54864794921875,-0.08311433653831482,0.010573708723485469,0.01572036003009416
1782831000099577900,6.558577880859375,-0.10375964968204497,-0.012021131052821874,0.02168706814846955
1782831000109506800,6.5685068359375,-0.1059463460713625,-0.05817863272428512,-0.00014940927489660679
1782831000119436800,6.578436767578125,-0.09367021734416485,-0.09018559009879827,0.038599350510025394
1782831000129365800,6.58836572265625,-0.10098667783737182,-0.07771072392910719,0.08671194090517237
1782831000139295700,6.598295654296875,-0.15055179599523544,-0.04206657909601927,0.0830185388804879
1782831000149224700,6.608224609375,-0.12543956657052038,-0.027125907334685322,-0.00939723055632785
1782831000159155000,6.618155029296875,-0.0518576130092144,0.01263517129793763,-0.045584505822788925
1782831000169084700,6.628084716796875,-0.059492053410410875,0.0008569090902805328,0.00798923605508171
1782831000179013600,6.638013671875,-0.04609481169879436,-0.042741263487190005,0.016247881902381776
1782831000188944000,6.64794384765625,-0.025974399212002754,-0.060338002715259784,0.00800348377614282
1782831000198872800,6.657872802734375,-0.046208793467283245,-0.05112418416813016,-0.010620086882170289
1782831000208802800,6.667802734375,-0.10251169544756412,-0.03751140000969171,0.034832737118657676
1782831000218731800,6.677731689453125,-0.15295593452751635,-0.06897402137443423,0.0521794745078776
1782831000228661800,6.687661865234375,-0.13494038536548614,-0.0342681803047657,-0.03205206602471881
1782831000238590700,6.6975908203125,-0.029274609801173208,0.016663403900712727,-0.06888686368078924
1782831000248521000,6.70752099609375,-0.01576513988673687,-0.013888240098953246,-0.013376299388287587
1782831000258450700,6.71745068359375,-0.0874152486026287,-0.1412197578959167,0.04961273842556402
1782831000268379600,6.727379638671875,-0.049556350329518314,-0.1405088331475854,0.000467343517113477
1782831000278310000,6.737309814453125,-0.028330606949329373,-0.026359891398251054,-0.018877152693737298
1782831000288238800,6.74723876953125,-0.07315583710372447,-0.052823243170976635,0.0032851408842019736
1782831000298168800,6.7571689453125,-0.08529635675251483,-0.027409984973073002,-0.018042528500501066
1782831000308097800,6.767097900390625,-0.11916706217229366,0.04088146096467971,-0.018007877312228082
1782831000318027800,6.77702783203125,-0.1410147368431091,-0.008809329399466515,-0.004175340322731063
1782831000327957000,6.78695703125,-0.120028062915802,-0.013473521818220615,-0.0062448766057845205
1782831000337886700,6.79688671875,-0.06233925953507423,0.009863806888461113,0.008024818825116381
1782831000347816700,6.806816650390625,-0.06314999139606953,-0.011004501356184481,0.055224760487908496
1782831000357746000,6.816745849609375,-0.058605918225646016,-0.020108283657580613,0.009974299791920929
1782831000367676000,6.826676025390625,0.007729717469215393,0.03675546707585454,-0.04998622964676469
1782831000377604600,6.8366044921875,-0.02323474511504173,0.038199382273852826,-0.006525894637405872
1782831000387534800,6.846534912109375,-0.13500935894846916,-0.04419496942684054,0.03774215829195454
1782831000397463800,6.8564638671875,-0.13910101217627524,-0.057852177248895166,-0.009842718434659763
1782831000407393800,6.866393798828125,-0.0848755009919405,0.0022378420546650887,-0.06106886513992212
1782831000417323800,6.87632373046875,-0.13284019821584223,-0.019022095856070516,-0.01969244199884124
1782831000427252700,6.886252685546875,-0.15728431912064553,-0.08331979598253965,0.04205392054384574
1782831000437183000,6.896182861328125,-0.07648001309037208,-0.049940673471987246,0.002864065927919
1782831000447112000,6.90611181640625,-0.05044073194861412,-0.025908202107995746,-0.030764546964829786
1782831000457041700,6.916041748046875,-0.07402852828502654,-0.07969371443986892,0.014790477035148068
1782831000466970600,6.925970703125,-0.04568973802924156,-0.05509133423343301,0.023227493390347808
1782831000476900900,6.93590087890625,-0.003925064489245415,0.022267945909500122,0.03122070236764848
1782831000486829800,6.945829833984375,-0.08505962538719176,0.014426730889827013,0.05059286290355958
1782831000496759800,6.955759765625,-0.1312333475410938,-0.00396992654427886,0.04590748156630434
1782831000506689800,6.965689697265625,-0.10169511836767196,0.04367869046777487,0.01244462629505433
1782831000516618800,6.97561865234375,-0.05369359626471996,0.046211131554841994,0.007595533162914216
1782831000526548700,6.985548828125,-0.011920739418268203,0.017385872956365345,0.040923062483547254
1782831000536477700,6.995477783203125,0.006191255855560302,0.012391279539465904,0.02695135448537767
1782831000546407700,7.00540771484375,0.028391981747746466,0.01117751983553171,0.011207513114996254
1782831000556337000,7.0153369140625,0.00911795695722103,-0.027262100934982297,0.03456393924779259
1782831000566267000,7.025266845703125,-0.0563017329365015,-0.03960121189579367,0.06595834508137777
1782831000576195800,7.03519580078125,-0.07877426150739192,-0.012464198645204304,-0.0016832951781339943
1782831000586122000,7.0451220703125,-0.09005904110968112,-0.007443740134686231,-0.049893318065768105
1782831000596052000,7.055052001953125,-0.11551964558064937,-0.0008183306455612182,-0.032039051279518754
1782831000605981200,7.064981201171875,-0.13869476946294307,-0.05161050638034939,-0.001113505066698417
1782831000615911000,7.074910888671875,-0.14518880765736103,-0.05468699121624231,-0.0006905852132011205
1782831000625839900,7.08483984375,-0.12938801193535326,-0.0775555333673954,-0.02033124222587794
1782831000635770000,7.09477001953125,-0.09967910237014294,-0.10223580111563205,-0.0308905296983663
1782831000645699000,7.104698974609375,-0.12459960861504077,-0.09186799022778869,-0.009723119776137172
1782831000655629000,7.114629150390625,-0.0939157165378332,-0.06362798417136073,-0.032886197027610614
1782831000665559000,7.12455908203125,-0.07983516873717307,-0.021756050864607093,-0.02427847288115881
1782831000675488000,7.134488037109375,-0.08848024748563765,-0.002541939567774534,-0.04580161917218938
1782831000685418200,7.144418212890625,-0.09593874679803847,0.006651566843688487,-0.03634681320972741
1782831000695347000,7.154346923828125,-0.1456336288154125,-0.007880962508171796,-0.009531935452437027
1782831000705277000,7.16427685546875,-0.11096154388487338,0.008973872311413288,-0.0036576548578683287
1782831000715206100,7.1742060546875,-0.11603987006247043,0.016110300062596797,0.040702761663217096
1782831000725136100,7.18413623046875,-0.11234978337287903,-0.028213264179974794,0.02539140255912207
1782831000735065000,7.194065185546875,-0.07459025382101535,-0.0006897358298301697,-0.022114728109166024
1782831000744995000,7.2039951171875,-0.05803367129564285,-0.012781740161776542,-0.022182961906632406
1782831000754925000,7.213925048828125,-0.029870822128653524,-0.05046089795380831,-0.025599163558287546
1782831000764854000,7.22385400390625,-0.02632569686770439,-0.04900894557982683,-0.01812645305744372
1782831000774784000,7.233783935546875,0.010065466940402983,-0.052612523029744625,-0.023158483274746684
1782831000784713000,7.243712890625,-0.03242401374280453,-0.013390373579412697,-0.021042221773136405
1782831000794643200,7.253643310546875,-0.029057752180099487,0.017748568788915873,-0.05987206570394337
1782831000804572200,7.263572265625,-0.02936345712840557,0.010330401486903429,-0.062258129723416634
1782831000814502000,7.273501953125,-0.05929799214303493,-0.015048369919508696,-0.039517396936705335
1782831000824430800,7.283430908203125,-0.04197860855162144,-0.076095982208848,-0.03893925912203267
1782831000834361000,7.293361083984375,-0.026540216401219365,-0.10189955489858984,-0.03432327149286866
1782831000844291000,7.303291015625,-0.056120531150698656,-0.10951529059931635,0.025329315374651922
1782831000854220000,7.313219970703125,-0.11969722352623939,-0.11515578070431948,0.0016792765901423989
1782831000864150000,7.32314990234375,-0.08610182791650295,-0.044442806708067654,-0.07380995363090187
1782831000874079000,7.333078857421875,-0.1110135663330555,0.028159049774706364,-0.06568722738926298
1782831000884009200,7.34300927734375,-0.17423603844344615,-0.0011009469792246818,-0.02515059780688025
1782831000893938200,7.352938232421875,-0.15400573584139346,-0.03319894363805651,-0.01509563399418257
1782831000903868000,7.362867919921875,-0.11383563801646232,-0.027301994553953407,-0.003746264723083004
1782831000913797000,7.372797119140625,-0.14849486346542834,-0.029151567943394182,0.03706427729669958
1782831000923727000,7.38272705078125,-0.11943477319777011,-0.028571868359297512,0.04508066622018814
1782831000933657000,7.392656982421875,-0.05907587382495403,0.006403437301516533,0.022257113988231866
1782831000943586000,7.4025859375,-0.07389525729417801,-0.007236234863847494,0.010186901362985373
1782831000953516000,7.41251611328125,-0.0957896937161684,-0.07073942361176014,0.016304489194136112
1782831000963445000,7.422445068359375,-0.060488078710436814,-0.05193754637762904,0.012234253213694318
1782831000973375000,7.432375,-0.06310322964489459,-0.04144610911011696,0.023607003360381348
1782831000983304000,7.442303955078125,-0.07839899845421314,-0.06749722682014107,0.001799624167336151
1782831000993234200,7.452234130859375,-0.04955225867629051,-0.03510916117355227,-0.019764630452217533
1782831001003164200,7.4621640625,-0.061657122489809986,-0.009709054718166589,-0.06406973658949136
1782831001013093000,7.472093017578125,-0.06491933915615082,-0.05035144622996449,-0.030855695847002786
1782831001023023000,7.482023193359375,-0.06883329772949218,-0.03997895916700363,0.017381342911720273
1782831001032952000,7.4919521484375,-0.049366380715370174,-0.054273003587871786,0.03348595301904715
1782831001042882000,7.501882080078125,-0.05871873095035553,-0.07806333675906062,0.026514360440755263
1782831001052811300,7.511811279296875,-0.09272153831720352,-0.0705278266876936,0.015632937474967912
1782831001062741000,7.521740966796875,-0.08133622094988822,-0.012537263881415128,-0.00983601469923742
1782831001072670000,7.531669921875,-0.11330547666251659,0.0040131811641156674,-0.03144585289303213
1782831001082600200,7.54160009765625,-0.11407529199123381,0.029031302564591167,-0.05073580590505153
1782831001092530000,7.551530029296875,-0.1314519587278366,0.04458908331096172,-0.011486412254767491
1782831001102459000,7.561458984375,-0.11295125639736651,-0.0011900865674018858,-0.0032062486954033374
1782831001112389000,7.57138916015625,-0.09320669148564338,-0.0008599778302013874,0.008962227539392187
1782831001122318000,7.581318115234375,-0.057391281738877295,-0.023953122517466542,0.03015108210844919
1782831001132248000,7.591248046875,-0.07600245870649815,-0.05104907310530543,0.05068444104399532
1782831001142177000,7.601177001953125,-0.048054129073023796,-0.03193111565932631,0.02983176875989884
1782831001152107000,7.61110693359375,-0.03621288463175296,0.029861762039363384,0.017096662485133855
1782831001162036000,7.621035888671875,-0.04408639448583126,0.011960194645822047,-0.003928644685819745
1782831001171966000,7.630966064453125,-0.07620528780221938,0.00226458393111825,-0.00007242591539397835
1782831001181896000,7.64089599609375,-0.0985474679917097,0.01426949450150132,0.04879764091670513
1782831001191825200,7.6508251953125,-0.14799801985919475,-0.004421469704061746,0.05713947153543122
1782831001201755100,7.660755126953125,-0.12963818730413912,-0.031264468444138764,0.037154193203011526
1782831001211684000,7.67068408203125,-0.12277940745055675,-0.01135930614322424,0.03273072333810851
1782831001221614000,7.680614013671875,-0.13330138598680497,-0.007836538844555615,0.07750839715688489
1782831001231543000,7.69054296875,-0.12521861729621886,-0.003915712139010429,0.025173430693196133
1782831001241473000,7.70047314453125,-0.14103110345602035,-0.01896452044993639,-0.018064110144646837
1782831001251403000,7.710403076171875,-0.14698212081491946,-0.05494271954298019,-0.010662893977435304
1782831001261332000,7.72033203125,-0.0723269850641489,-0.03177607122808695,-0.021039828886650503
1782831001271262200,7.73026220703125,-0.06802490395605564,0.017919395311176776,-0.031204180491110307
1782831001281191200,7.740191162109375,-0.06156418350934982,-0.006055062255263328,-0.04072958573806099
1782831001291121000,7.750120849609375,-0.09360708898007869,0.022450170608609914,-0.029363009603833777
1782831001301049900,7.7600498046875,-0.11629121447503567,0.014836042343080042,0.006189200895791873
1782831001310980000,7.76997998046875,-0.08710545200109482,0.019618454314023256,-0.033784945098776366
1782831001320909000,7.779908935546875,-0.0387426953703165,0.04168357112780213,-0.039424841548735275
1782831001330839000,7.789839111328125,-0.03077858462333679,-0.010622077909857034,-0.013299352561403065
1782831001340769000,7.79976904296875,-0.03834112883210182,-0.028910160402953623,0.018264299758709968
1782831001350698000,7.809697998046875,-0.08070844444036483,-0.035473610571771855,0.017217996443016453
1782831001360628200,7.819628173828125,-0.004985387197136879,0.0017146949633955954,-0.07402275613136589
1782831001370557200,7.82955712890625,0.02637538122832775,0.07604220619499683,-0.09373498054291121
1782831001380487000,7.83948681640625,-0.014750994408130646,0.03857201497852802,-0.042874963736301286
1782831001390416100,7.849416015625,-0.05780161610543728,-0.023939970774948596,-0.03715351734957657
1782831001400346000,7.85934619140625,-0.02622106744945049,-0.014431553195416927,-0.0674512139876373
1782831001410275000,7.869275146484375,-0.0812111332654953,-0.0069105100408196445,0.01021567993289791
1782831001420205000,7.879205078125,-0.10318155753314494,-0.04770370820015669,0.06501943852975964
1782831001430135000,7.889135009765625,-0.1099631804972887,-0.0029430677145719526,0.022764077129680663
1782831001440064000,7.89906396484375,-0.12360592140257358,0.02509527828991413,0.007680124440137296
1782831001449994000,7.908993896484375,-0.1465922447144985,-0.0045949265748262405,0.003777655375190079
1782831001459923000,7.9189228515625,-0.10902911451756954,-0.01801291881352663,-0.01979634076473303
1782831001469853200,7.928853271484375,-0.13730477640926836,-0.015054945790767668,-0.02153637109878473
1782831001479782100,7.9387822265625,-0.1642132416009903,-0.05047711843624711,0.007296522816875949
1782831001489711900,7.9487119140625,-0.16675006660223007,-0.031896774998307224,-0.013736693665897472
1782831001499642000,7.95864208984375,-0.12083762573301791,0.018080284961313007,-0.07290370723986998
1782831001509571000,7.968571044921875,-0.08678454948365688,0.026965017684549092,-0.050871588513394815
1782831001519501000,7.9785009765625,-0.11125322030782699,0.0063366556756198405,0.010250833444669842
1782831001529430300,7.98843017578125,-0.08500292676389216,-0.0004720014259219169,-0.0027315255894325673
1782831001539360000,7.998360107421875,-0.07609072151184082,0.008209171549230813,-0.0008974785626865923
1782831001549289000,8.0082890625,-0.07783902648389339,-0.00874766234010458,-0.006377572207897901
1782831001559219200,8.01821923828125,-0.08388064473569393,-0.0013275953419506548,-0.00000358019657433033
1782831001569148200,8.028148193359375,-0.06853694513142108,0.006316051279008388,0.001029516577674076
1782831001579078000,8.038077880859374,-0.02876782932281494,0.04378668088689446,-0.059384346119081596
1782831001589008100,8.048008056640626,0.012045827102661132,0.07614552043899893,-0.05689759820410981
1782831001598937000,8.05793701171875,-0.039105098941922184,0.036966479478031396,-0.0162573164510075
1782831001608867000,8.0678671875,-0.06410393112003802,-0.004629121105372906,0.004432694350974634
1782831001618796000,8.077796142578125,-0.07718903814256191,-0.007105301960557699,-0.03241762053463608
1782831001628726000,8.08772607421875,-0.05456161127090454,0.020115444050729275,-0.08096260186452418
1782831001638655000,8.097655029296876,-0.08120178091526031,-0.013764759849756955,-0.014506143668433651
1782831001648585000,8.1075849609375,-0.060545361855626104,-0.026197394312918183,-0.032392230365052815
1782831001658514000,8.117513916015625,-0.07631751600503921,-0.0010734744504094123,-0.045900074577983466
1782831001668444200,8.127444091796875,-0.0742833798289299,-0.014460487028956413,-0.06079486137097701
1782831001678374100,8.1373740234375,-0.01866203037202358,-0.0012713351100683212,-0.054428943068254736
1782831001688303000,8.14730322265625,0.0014747487276792525,-0.024703502493351695,-0.011196370666474104
1782831001698233000,8.157233154296875,-0.01460135680437088,-0.08258373679295182,-0.03732991509609856
1782831001708162000,8.167162109375,-0.018464461973309514,-0.05467559303939342,-0.047761055277427654
1782831001718092000,8.177092041015625,-0.06577683276832104,-0.05188493940755724,0.017009039000608028
1782831001728021200,8.187021240234374,-0.11644435921013355,-0.0437220912180841,0.025810139427846296
1782831001737951000,8.196950927734376,-0.14127894073724745,-0.010526216319948434,-0.002783228377206251
1782831001747880000,8.2068798828125,-0.16285422820746898,-0.017392887219041586,-0.01956652319738641
1782831001757810200,8.21681005859375,-0.1444663386017084,-0.04740691721066832,-0.0038625389133580025
1782831001767740000,8.226739990234375,-0.1375216340303421,-0.08075783654004334,0.02914985091034323
1782831001777668900,8.2366689453125,-0.05426175154149532,-0.08477598614022135,0.012189802150614559
1782831001787599000,8.24659912109375,-0.042014848908782,-0.06177519591152668,0.013681565945176407
1782831001797528000,8.256528076171875,-0.07338380064070224,-0.07197714871317147,0.027876689169369636
1782831001807458000,8.2664580078125,-0.06272972015738487,-0.029964784022420643,-0.006710777084482833
1782831001817387000,8.276386962890625,-0.05521802935302257,0.008157149101048708,0.0056434675133787094
1782831001827317000,8.28631689453125,-0.05219546666145324,-0.015074381143599748,0.027168321704305706
1782831001837247200,8.296247314453124,-0.05019698632061481,0.017108078928291796,-0.012930163055984302
1782831001847176200,8.30617626953125,-0.10012801518142223,0.009327069663256407,0.004204182824725285
1782831001857106000,8.31610595703125,-0.1127642093926668,-0.053070495930314064,-0.002541336779575795
1782831001867035100,8.32603515625,-0.05060381355583667,0.005974690495431423,-0.015486140282265842
1782831001876965000,8.335965087890624,-0.07286942137777805,-0.011032120015472173,0.016059291394567115
1782831001886894000,8.34589404296875,-0.12139058344066142,-0.08960939764603972,0.05037890049247071
1782831001896824000,8.355823974609375,-0.053848494565486904,-0.03887552796974778,-0.006183693603612483
1782831001906753000,8.3657529296875,-0.03714695061147213,-0.00784939832612872,-0.013287479460518807
1782831001916683000,8.37568310546875,-0.06778115832805633,-0.0673934741847217,0.04627023219778202
1782831001926613000,8.385613037109374,-0.1397866563528776,-0.1100927982263267,0.05158163647889159
1782831001936542000,8.3955419921875,-0.09857786312997341,-0.07846928721144796,-0.01923382064430043
1782831001946472200,8.40547216796875,-0.08789397203028201,-0.06425970620363951,-0.039223692953446875
1782831001956401200,8.415401123046875,-0.11750175930857658,-0.11230214483886956,0.022153461817512286
1782831001966331000,8.425330810546875,-0.09675415483415126,-0.08794263347759843,-0.02317537047746591
1782831001976259800,8.435259765625,-0.06888532017767429,-0.06615136516913771,-0.08924762426209636
1782831001986190000,8.445190185546876,-0.06756254714131354,-0.10670827035456895,-0.05345466380915604
1782831001996119000,8.455119140625,-0.001743044275045395,-0.11434694853946566,0.026313083981303498
1782831002006049300,8.46504931640625,0.023320085310935972,-0.10793152853921055,0.02432063152245246
1782831002015979000,8.47497900390625,-0.00511690462231636,-0.13498378611579537,0.008455236998479812
1782831002025908000,8.484907958984374,-0.032547932383418084,-0.11759469828903675,-0.005082052504643797
1782831002035838200,8.494838134765626,-0.07677461212277412,-0.09157558315247297,-0.006744770685629919
1782831002045767200,8.50476708984375,-0.08408464287519454,-0.04057780184298754,-0.020941008154675363
1782831002055697000,8.51469677734375,-0.1094791963726282,-0.026187457440793514,-0.05279868411845527
1782831002065626000,8.524626220703125,-0.1487888779759407,-0.05267419008910656,-0.00836982373734936
1782831002075556000,8.53455615234375,-0.17791443469524382,-0.06650996934846043,0.021118209618795663
1782831002085485800,8.54448583984375,-0.1370072547674179,-0.03799421509057283,0.0032172815460711716
1782831002095415000,8.5544150390625,-0.12485738276839256,-0.03197670836672187,0.01020433655497618
1782831002105345000,8.564344970703125,-0.12632044105827808,-0.03995674733519554,0.034456588149489834
1782831002115274000,8.57427392578125,-0.0957417629212141,0.005832651676237583,0.0384130706903059
1782831002125204000,8.584203857421874,-0.08508417530655861,0.04416106715723872,0.04420852302815765
1782831002135133000,8.5941328125,-0.07420856102705001,0.039692397310584784,0.02935947507303208
1782831002145063200,8.604063232421876,-0.12257833192050456,-0.004254588704556227,0.018398036540439353
1782831002154992000,8.6139921875,-0.09584814590513706,-0.040030981615185736,0.029402930622268467
1782831002164922000,8.623922119140625,-0.05898351936638355,-0.006815086842328309,0.04073749504988081
1782831002174852000,8.63385205078125,-0.014889526095986365,0.007075491344183683,0.017499471132364122
1782831002184781000,8.643781005859376,-0.0296148015409708,-0.008191489762067794,0.00044575273981317876
1782831002194711000,8.6537109375,-0.0014326631516218184,-0.02702259309068322,-0.01651275251680054
1782831002204640300,8.66364013671875,0.015746435186266897,-0.01074511976763606,-0.01281988021507859
1782831002214570000,8.673570068359375,-0.09485913486778735,-0.07361717100515962,0.022453613807866347
1782831002224499000,8.6834990234375,-0.13975392312705515,-0.10806041561588645,0.024538484657369554
1782831002234429200,8.69342919921875,-0.09154372670948505,-0.00443155270665884,0.006498833100544288
1782831002244358100,8.703358154296875,-0.09373042309880256,0.045142771670967335,-0.02320084284543991
1782831002254288000,8.713287841796875,-0.1145253738462925,0.009591419687867165,-0.03146291362568736
1782831002264218000,8.723218017578125,-0.08458733170032501,0.030979660153388974,-0.0018279369463678448
1782831002274147000,8.73314697265625,-0.08126198666989803,0.012186550747603178,0.005665295752696692
1782831002284077000,8.7430771484375,-0.031653613892197605,-0.03356324690580368,-0.008227209529420361
1782831002294006000,8.753006103515625,0.007221767947077751,-0.016736176875978708,-0.001110061867441982
1782831002303936000,8.76293603515625,-0.04053074783086776,-0.04313669254556298,0.02417375213135965
1782831002313865000,8.772864990234375,-0.11726911959648131,-0.06389481841400266,0.057636242076428604
1782831002323795200,8.782795166015624,-0.09219137696325778,0.002983838116377592,-0.023300576892867682
1782831002333724000,8.792723876953126,-0.044381578040122986,0.08265461007207632,-0.07050685696490108
1782831002343654100,8.802654052734376,-0.09969488446116447,0.007479980491846799,-0.003193115219194442
1782831002353584000,8.812584228515625,-0.08902969806194305,-0.05039762345924973,0.038946666110353544
1782831002363513000,8.82251318359375,-0.08178513376116753,-0.030848434989154336,0.02549156586481258
1782831002373443000,8.832443115234375,-0.10170388619601727,-0.09640490300506353,-0.0030743842103518543
1782831002383372000,8.8423720703125,-0.09216565800011157,-0.07980433520749211,-0.018570370033197104
1782831002393302000,8.852302001953126,-0.037597032466530796,-0.010503127705305815,-0.053627846685284745
1782831002403231200,8.862231201171875,-0.05363865120708942,-0.03802914027348161,-0.01260900481021963
1782831002413161000,8.872160888671875,-0.08731821796894072,-0.05294160885363817,-0.019637780069001017
1782831002423091000,8.882091064453125,-0.05774608652591705,0.022426497472077606,-0.0821292710237205
1782831002433020200,8.892020263671874,-0.0759907682687044,0.03527633443400264,-0.07396411214615217
1782831002442950000,8.901949951171876,-0.12723229520618914,-0.015332155296951531,-0.01943545329677872
1782831002452878800,8.91187890625,-0.11095862127542495,0.00007496493235230446,-0.014547799986228346
1782831002462809000,8.92180908203125,-0.09773848969638348,-0.01591609266474843,-0.019269120286544785
1782831002472738000,8.931738037109374,-0.117435708335042,-0.03773103410974145,-0.01961158618181944
1782831002482668300,8.941668212890624,-0.05156652110815048,-0.0004626490756869316,-0.00852600981290452
1782831002492597000,8.951596923828125,-0.049151276659965513,0.025130349603295323,-0.03557666908744722
1782831002502527000,8.96152685546875,-0.027853052565455436,0.03597659165784716,-0.023389077160228044
1782831002512457200,8.971457275390625,-0.06917173590362072,0.04241963031738996,0.034847624160535634
1782831002522386200,8.98138623046875,-0.08625731073915958,0.006940028396248817,0.020311870805127544
1782831002532316000,8.99131591796875,-0.10775076514482497,0.04358370566070079,0.002867381263012066
1782831002542245000,9.0012451171875,-0.11280571044683456,0.03175838944092393,-0.004348541465168818
1782831002552175000,9.011175048828125,-0.13350713769197464,-0.0037457623995840548,0.0036013398270588366
1782831002562104000,9.02110400390625,-0.08301379877328872,-0.006795651489496231,-0.020584595932438967
1782831002572034000,9.031033935546875,-0.0493827473282814,-0.02910787493214011,-0.05564449287047609
1782831002581963000,9.040962890625,-0.008546879070997238,-0.04262830463200808,-0.020374442046787587
1782831002591897300,9.0508974609375,0.016906711137294767,-0.05082490896061063,-0.011032777602598071
1782831002601827000,9.0608271484375,0.04222469226717949,-0.0369563964754343,-0.01655791596593335
1782831002611756000,9.070756103515626,0.010137363132834434,-0.05315568999573588,-0.029236268818471578
1782831002621686300,9.080686279296875,-0.02051028858721256,-0.06545622251182794,-0.029018881474435328
1782831002631615200,9.090615234375,-0.010057868155837058,-0.05000000244379043,-0.03076110376557335
1782831002641545000,9.100544921875,-0.04112403754889965,-0.0533313388235867,-0.008872932687588035
1782831002651474200,9.11047412109375,-0.07292904261052609,-0.08334756077229977,0.0629221831227187
1782831002661404200,9.120404052734376,-0.12421440868973731,-0.027737901753187178,0.007972093124035745
1782831002671333000,9.1303330078125,-0.18993454283475875,-0.003279460062086582,-0.04531484030224383
1782831002681263000,9.14026318359375,-0.2014011087447405,0.010206044454872608,-0.026846505871415138
1782831002691193000,9.150193115234375,-0.2170551894724369,0.026048779622465372,0.015792475418234243
1782831002701122300,9.160122314453124,-0.217713361120224,-0.01603504286929965,0.03220626107258722
1782831002711052300,9.17005224609375,-0.15805705705881118,-0.02906973487883806,0.020305751591594888
1782831002720981200,9.179981201171875,-0.08378712123334407,-0.01919365303069353,0.006804264054214582
1782831002730911200,9.1899111328125,-0.057685296249389645,-0.05149477104619145,0.0479605233722832
1782831002740840200,9.199840087890625,-0.07614625109136104,-0.08482552437037229,0.05754574164822697
1782831002750770200,9.209770263671874,-0.07600888844728469,-0.05206935606375336,0.04418553487821482
1782831002760700200,9.2197001953125,-0.07534136444926262,-0.025643705952912568,0.02810974900657311
1782831002770629000,9.229629150390625,-0.07759235824644566,-0.010070289245992898,0.009430000314768403
1782831002780559000,9.23955908203125,-0.10071078350543976,-0.015823445945233106,0.02051722978465259
1782831002790488300,9.24948828125,-0.09702011229395865,-0.03005143939256668,0.024102613990753887
1782831002800418000,9.25941796875,-0.06674713910520076,-0.025773908203840255,0.028151971579948438
1782831002810347000,9.269346923828126,-0.09497194759249687,-0.026790537900477647,0.0027085283063352106
1782831002820277200,9.27927734375,-0.06527882011830806,-0.013209610185027122,-0.013875490215234458
1782831002830206200,9.289206298828125,-0.06833177794814109,0.0016869301736354826,-0.0077311879070941355
1782831002840136200,9.29913623046875,-0.0909708952575922,-0.034075726472586394,-0.012540360020799562
1782831002850066200,9.309066162109374,-0.054582069537043566,-0.03436535706892609,-0.0041422143712639805
1782831002859994000,9.318994140625,-0.05681260506808757,-0.04057590214684605,-0.012365587975783273
1782831002869924000,9.328924072265625,-0.02988894230723381,-0.054936582063138485,-0.0506247558791656
1782831002879853300,9.338853271484375,0.005814823758602142,-0.0043920974791049954,-0.07195449848994612
1782831002889783000,9.348782958984375,-0.028579028752446174,-0.007122545356303453,-0.020544665780849753
1782831002899712000,9.3587119140625,-0.0323117855399847,-0.01305938805937767,-0.01908466709773056
1782831002909642200,9.368642333984376,-0.006669394761323929,0.02802943204566836,-0.0225986026359722
1782831002919571200,9.3785712890625,-0.025467618733644483,0.014376023615896702,-0.018850191621575505
1782831002929501200,9.388501220703125,-0.013846154522895813,0.008359101413935423,0.02995993431736715
1782831002939430100,9.39843017578125,-0.023036007672548292,-0.007216799511015415,0.041629667249787596
1782831002949360000,9.408360107421874,-0.06503507449030876,-0.014022680133581161,0.01211765022985637
1782831002959290400,9.418290283203126,-0.10709785419404506,-0.014925620322674513,-0.008143275839323177
1782831002969219300,9.42821923828125,-0.10195113895535468,-0.02007233556136489,-0.01317760761156678
1782831002979149000,9.438149169921875,-0.06663374185860156,-0.0124121761970222,-0.005460640026070177
1782831002989078300,9.448078369140624,-0.09652502225339413,-0.0536810290440917,0.02748732452560216
1782831002999008300,9.45800830078125,-0.13794073622524738,-0.08485971890091895,0.03570060599436983
1782831003008937200,9.467937255859376,-0.1667839688718319,-0.04040376045033336,0.024649443351710213
1782831003018867200,9.4778671875,-0.16554712055325507,-0.021513620410859583,-0.004367556692892685
1782831003028796200,9.487796142578125,-0.17730477836430072,0.016131488981097935,-0.003641854500537738
1782831003038726100,9.49772607421875,-0.17082944487035273,0.03763590317219496,0.033436862313468006
1782831003048656100,9.50765625,-0.1504004048258066,0.009546119241416453,0.07027881122953258
1782831003058585000,9.517585205078126,-0.13148060030043124,0.015198153653740882,0.06250597613779828
1782831003068515000,9.52751513671875,-0.08763269074559212,0.009909253465384245,0.04402939446843229
1782831003078444300,9.5374443359375,-0.07167524315714836,-0.02126402956396341,0.03281120469579473
1782831003088374000,9.5473740234375,-0.04024082497358322,-0.03334785058945417,0.04312115704971366
1782831003098303000,9.557302978515626,-0.07859305972158909,-0.021375380983948707,0.0544202665714547
1782831003108233200,9.567233154296876,-0.05361760841906071,0.0003477905243635177,0.015132413207460194
1782831003118162200,9.577162109375,-0.03313070070743561,0.0573211391121149,-0.031576594000076876
1782831003128092400,9.587092529296875,-0.04878711952269077,0.01937500094696879,-0.0450100212699268
1782831003138022100,9.597022216796875,-0.04106558535993099,-0.02998217354863882,-0.041744461869029324
1782831003147951000,9.606951171875,-0.011345569878816604,0.009491320314258336,-0.05309567603734321
1782831003157881300,9.61688134765625,-0.059194531768560404,-0.05758592752814293,-0.03736842960873619
1782831003167810300,9.626810302734375,-0.08651216228306292,-0.09115750387087464,-0.039743195916060355
1782831003177740000,9.636739990234375,-0.06782265938222408,-0.04063099333494902,-0.045443005859712136
1782831003187669200,9.646669189453124,-0.032871757510304446,-0.02475786302909255,-0.0719831857283134
1782831003197599200,9.65659912109375,-0.004191021949052811,0.016421411838382482,-0.0695532734339591
1782831003207528200,9.666528076171875,-0.008629881179332733,0.008251695516705513,-0.04691746232644654
1782831003217458200,9.676458251953125,-0.030718963390588758,-0.043726621262729165,-0.06791778118661604
1782831003227388200,9.68638818359375,-0.09057634298205375,-0.0683224255979061,-0.06778641902506351
1782831003237318400,9.696318359375,-0.1765817247867584,-0.12533859041407702,-0.07984025590424425
1782831003247248100,9.706248046875,-0.1750444322168827,-0.09095262894853949,-0.10407931009046732
1782831003257177000,9.716177001953126,-0.12495675148963928,0.0042917058445513245,-0.06278661971008405
1782831003267107300,9.726107421875,-0.13318448160886764,0.041956835111230606,0.05548886391734704
1782831003277037000,9.736037109375,-0.19218378306627273,0.04392243609577417,0.03305328808967024
1782831003286966000,9.745966064453125,-0.28103929360508917,-0.03517477375566959,-0.11825721731837838
1782831003296896300,9.755896240234375,-0.36418110267221926,-0.09922565951421856,-0.19782420010603963
1782831003306825200,9.7658251953125,-0.4451934984952211,-0.16443243730962276,-0.3477032114062458
1782831003316755000,9.7757548828125,-0.21743279061317441,-0.05498071346580982,-0.2096428673893213
1782831003326684200,9.78568408203125,0.02436754853725433,0.03490823177397251,0.004301660982985049
1782831003336614100,9.7956142578125,0.05105623349845409,0.02058992969468236,0.13635357663165776
1782831003346543000,9.805543212890624,0.522460862571001,-0.02049684458374977,0.14491543407607824
1782831003356473000,9.81547314453125,0.5482926384419202,0.14159224447011948,0.21561364889461546
1782831003366403000,9.825403076171876,-0.17065759543478487,-0.05756283891350031,0.2286094336658716
1782831003376332300,9.835332275390625,0.034226094728708266,-0.1938787504158914,0.12510615163138136
1782831003386262300,9.84526220703125,-0.051103579771518706,0.22050956771001218,0.1094224977493286
1782831003396191200,9.855191162109374,-0.08621697872877121,0.224130826947093,0.07513663565739989
1782831003406121200,9.865121337890624,-0.07920154700875282,0.12310396322980523,0.0884997376373969
1782831003416050200,9.87505029296875,-0.08395897066891193,0.10712006602585315,0.08745662179263308
1782831003425980200,9.884980224609375,-0.24527882891595362,0.07608107690066099,0.10595622814456
