time,seconds_elapsed,z,y,x
1782830993625503700,0.084503662109375,0.0950188934803009,-0.1380660980939865,-0.06820166110992432
1782830993635434000,0.09443408203125,0.11715143918991089,-0.22324952483177185,-0.014450440183281898
1782830993645363000,0.104363037109375,0.1150566041469574,-0.2701832056045532,0.06619913130998611
1782830993655292700,0.114292724609375,0.1010228842496872,-0.274032324552536,0.14952486753463745
1782830993665222000,0.124221923828125,0.0808877944946289,-0.25400057435035706,0.20742757618427277
1782830993675152000,0.13415185546875,0.07046834379434586,-0.22243019938468933,0.22942902147769928
1782830993685080800,0.144080810546875,0.07413870841264725,-0.18704797327518463,0.21734972298145294
1782830993695010800,0.1540107421875,0.09626805037260056,-0.15487736463546753,0.17506995797157288
1782830993704940800,0.16394091796875,0.1271093189716339,-0.07514898478984833,0.1352762132883072
1782830993714869800,0.173869873046875,0.1483684629201889,-0.0065908487886190414,0.10365910828113556
1782830993724799700,0.1837998046875,0.15226466953754425,0.012347421608865261,0.07751086354255676
1782830993734728700,0.193728759765625,0.1373499482870102,-0.02236047387123108,0.048985421657562256
1782830993744659000,0.203658935546875,0.12142743915319443,-0.05309947580099106,0.034231510013341904
1782830993754588000,0.213587890625,0.1050194576382637,-0.023067403584718704,0.048814814537763596
1782830993764518000,0.223517822265625,0.0864574983716011,0.00927615538239479,0.06022858992218971
1782830993774446800,0.23344677734375,0.07391206920146942,0.019807718694210052,0.051507432013750076
1782830993784376800,0.243376953125,0.06782834231853485,0.005416795611381531,0.01410546526312828
1782830993794306800,0.253306884765625,0.06611058115959167,-0.03174269571900368,-0.03945906460285187
1782830993804236000,0.263236083984375,0.06843765079975128,-0.04964473098516464,-0.07444394379854202
1782830993814165800,0.273165771484375,0.0644989162683487,-0.05931954085826874,-0.09438659250736237
1782830993824094700,0.2830947265625,0.051089368760585785,-0.0986483097076416,-0.1136963739991188
1782830993834025000,0.29302490234375,0.04312713444232941,-0.13441134989261627,-0.12463148683309555
1782830993843954000,0.302953857421875,0.0356319323182106,-0.10167524218559265,-0.11559351533651352
1782830993853883600,0.312883544921875,0.03117077425122261,-0.03811894729733467,-0.08520519733428955
1782830993863812900,0.322812744140625,0.011447936296463013,-0.018282659351825714,-0.028897717595100403
1782830993873742800,0.332742919921875,0.0012109214439988136,0.0070871151983737946,0.011253008618950844
1782830993883672800,0.3426728515625,-0.0002607414498925209,0.018635647371411324,0.021925093606114388
1782830993893601800,0.352601806640625,0.002001591958105564,0.03709041327238083,0.035360902547836304
1782830993903531800,0.36253173828125,0.005610973574221134,0.06733699142932892,0.05074838176369667
1782830993913460700,0.372460693359375,0.016003495082259178,0.08596517145633698,0.05507819727063179
1782830993923391000,0.382390869140625,0.022469650954008102,0.07168103754520416,0.031583260744810104
1782830993933319700,0.392319580078125,0.032772090286016464,0.037272196263074875,-0.019615480676293373
1782830993943250000,0.40225,0.039574336260557175,-0.00842311978340149,-0.06932444870471954
1782830993953179000,0.412178955078125,0.03714718669652939,-0.050171852111816406,-0.1058054268360138
1782830993963108900,0.42210888671875,0.024504628032445908,-0.08238198608160019,-0.11872788518667221
1782830993973038800,0.432038818359375,0.006539871450513601,-0.11386531591415405,-0.11979604512453079
1782830993982967800,0.4419677734375,-0.012137942016124725,-0.12677764892578125,-0.10369617491960526
1782830993992897800,0.451897705078125,-0.02478279545903206,-0.12598556280136108,-0.07893222570419312
1782830994002827000,0.461826904296875,-0.032459624111652374,-0.09546813368797302,-0.030873088166117668
1782830994012756700,0.4717568359375,-0.027755852788686752,-0.045245926827192307,0.015026969835162163
1782830994022685700,0.481685791015625,-0.00812329351902008,0.026508688926696777,0.06283070892095566
1782830994032616000,0.491615966796875,0.019006140530109406,0.09681819379329681,0.0895887166261673
1782830994042545000,0.501544921875,0.03965575993061066,0.12152114510536194,0.08505868166685104
1782830994052474600,0.511474609375,0.051264695823192596,0.1017170399427414,0.06031418591737747
1782830994062404900,0.52140478515625,0.046491242945194244,0.05707607790827751,0.026378324255347252
1782830994072333800,0.531333740234375,0.030824236571788788,0.005063533782958984,-0.006841141730546951
1782830994082264000,0.54126416015625,0.007285620551556349,-0.004594419151544571,-0.019153734669089317
1782830994092192800,0.55119287109375,-0.015795031562447548,0.014230073429644108,-0.02026267908513546
1782830994102122800,0.561122802734375,-0.02796914242208004,0.018774759024381638,-0.018365442752838135
1782830994112051700,0.5710517578125,-0.02630159631371498,0.016038954257965088,-0.01854904554784298
1782830994121982000,0.58098193359375,-0.01962212100625038,0.007883290760219097,-0.01202110480517149
1782830994131911000,0.590910888671875,-0.004506966099143028,-0.0069817546755075455,0.0014878311194479465
1782830994141841000,0.6008408203125,0.012354838661849499,-0.0014772675931453705,0.02868855930864811
1782830994151771000,0.61077099609375,0.016709186136722565,0.008302049711346626,0.05539410188794136
1782830994161699800,0.620699951171875,0.021815000101923943,0.011250700801610947,0.07163193076848984
1782830994171629800,0.6306298828125,0.02504887618124485,0.009210987016558647,0.06665768474340439
1782830994181558800,0.640558837890625,0.026212144643068314,0.015510959550738335,0.04288124293088913
1782830994191488800,0.65048876953125,0.0203907061368227,-0.002053028903901577,0.005055610556155443
1782830994201418000,0.66041796875,0.010171890258789062,-0.006513024680316448,-0.01574713923037052
1782830994211347700,0.67034765625,-0.010371970944106579,-0.0005095675587654114,-0.016676684841513634
1782830994221278000,0.68027783203125,-0.027134969830513,0.0033104708418250084,0.00017686327919363976
1782830994231207000,0.69020703125,-0.03031906485557556,0.020076274871826172,0.014344301074743271
1782830994241137000,0.700136962890625,-0.020117826759815216,0.044528886675834656,0.02498736046254635
1782830994251065900,0.71006591796875,-0.003986475057899952,0.050507981330156326,0.02234763465821743
1782830994260995800,0.719995849609375,0.00901720765978098,0.029942519962787628,0.015560835599899292
1782830994270924800,0.7299248046875,0.010118605569005013,-0.019272634759545326,-0.0034208022989332676
1782830994280855000,0.73985498046875,0.005235965829342604,-0.03859200328588486,-0.03844456747174263
1782830994290784000,0.749783935546875,0.016861815005540848,-0.02101307362318039,-0.06721953302621841
1782830994300713700,0.759713623046875,0.020146025344729424,-0.015141336247324944,-0.09362104535102844
1782830994310644000,0.76964404296875,0.022984245792031288,-0.03783968836069107,-0.10575052350759506
1782830994320573000,0.779572998046875,0.03028423711657524,-0.05578913167119026,-0.08950124680995941
1782830994330502700,0.789502685546875,0.04130427911877632,-0.03023841790854931,-0.046508558094501495
1782830994340432000,0.799431884765625,0.03839664161205292,-0.003108530305325985,-0.003556030336767435
1782830994350361900,0.80936181640625,0.02896273136138916,-0.015990599989891052,0.02949151024222374
1782830994360290800,0.819290771484375,0.016548139974474907,-0.017499281093478203,0.04097239673137665
1782830994370220800,0.829220703125,0.013335932046175003,0.0015580793842673302,0.039068181067705154
1782830994380149800,0.839149658203125,0.019418857991695404,0.022188257426023483,0.029404370114207268
1782830994390079700,0.849079833984375,0.02719997987151146,0.02718588337302208,0.01273377612233162
1782830994400010000,0.859010009765625,0.031493790447711945,0.008585034869611263,-0.009809616021811962
1782830994409938700,0.868938720703125,0.03361596167087555,-0.020403273403644562,-0.02866213768720627
1782830994419869000,0.878868896484375,0.036726802587509155,-0.050694335252046585,-0.0427129752933979
1782830994429798000,0.8887978515625,0.034754231572151184,-0.06845131516456604,-0.05399709939956665
1782830994439727900,0.898727783203125,0.039036329835653305,-0.07672496140003204,-0.054812826216220856
1782830994449656800,0.90865673828125,0.033153582364320755,-0.07155073434114456,-0.04258108139038086
1782830994459586800,0.9185869140625,0.020749110728502274,-0.05444125831127167,-0.00700897304341197
1782830994469515800,0.928515869140625,0.028806952759623528,-0.0343303345143795,0.02009938471019268
1782830994479446000,0.938446044921875,0.03859247267246246,-0.020733565092086792,0.030672401189804077
1782830994489375700,0.948375732421875,0.05430383235216141,-0.008429747074842453,0.04127145931124687
1782830994499304700,0.9583046875,0.05944373458623886,-0.0029793214052915573,0.03396294638514519
1782830994509235000,0.96823486328125,0.057508684694767,-0.0012834211811423302,0.01208188384771347
1782830994519164000,0.978163818359375,0.04695776849985123,0.011224380694329739,-0.0075828987173736095
1782830994529093600,0.98809375,0.034640613943338394,0.01481938362121582,-0.02741694077849388
1782830994539022800,0.99802294921875,0.03214070200920105,-0.001055985689163208,-0.04129280894994736
1782830994548952800,1.007952880859375,0.028313646093010902,-0.004782060161232948,-0.03654487058520317
1782830994558881800,1.0178818359375,0.02618977427482605,-0.013467693701386452,-0.024738814681768417
1782830994568811800,1.027811767578125,0.01688067801296711,-0.03646634891629219,-0.006411251612007618
1782830994578742000,1.037741943359375,0.005639474838972092,-0.030584491789340973,0.014863142743706703
1782830994588671000,1.0476708984375,-0.007539308629930019,-0.021135013550519943,0.03735070675611496
1782830994598601000,1.05760107421875,-0.01683800294995308,-0.022035695612430573,0.050015103071928024
1782830994608530000,1.067530029296875,-0.012401950545608997,-0.02083287015557289,0.05669335275888443
1782830994618460000,1.0774599609375,-0.003368508070707321,0.012483276426792145,0.046792518347501755
1782830994628388900,1.087388916015625,0.011806454509496689,0.03603575378656387,0.026771996170282364
1782830994638319000,1.097319091796875,0.008847416378557682,0.02626408264040947,-0.0017997268587350845
1782830994648248000,1.107248046875,-0.006223820149898529,0.013730918057262897,-0.018069934099912643
1782830994658177800,1.117177734375,-0.018574494868516922,0.01157455611974001,-0.030641386285424232
1782830994668108000,1.12710791015625,-0.02759770303964615,0.005516305565834045,-0.03691526874899864
1782830994678037000,1.137037109375,-0.024829082190990448,-0.007212806027382612,-0.05368732288479805
1782830994687966700,1.146966796875,-0.025174129754304886,-0.036309923976659775,-0.06850307434797287
1782830994697896000,1.15689599609375,-0.01996045932173729,-0.049484580755233765,-0.059445131570100784
1782830994707826000,1.166825927734375,-0.015960710123181343,-0.04886782541871071,-0.02770744264125824
1782830994717755000,1.1767548828125,-0.016633691266179085,-0.03382043167948723,0.016479991376399994
1782830994727684900,1.186684814453125,-0.019300812855362892,-0.012909387238323689,0.0431392528116703
1782830994737613800,1.19661376953125,-0.015603812411427498,-0.0086477966979146,0.03471247851848602
1782830994747543800,1.206543701171875,-0.011062574572861195,-0.028665853664278984,0.0029127863235771656
1782830994757474000,1.21647412109375,-0.008490758948028088,-0.02936946041882038,-0.014397760853171349
1782830994767403000,1.226403076171875,-0.009822850115597248,-0.008424090221524239,-0.007920315489172935
1782830994777333000,1.2363330078125,-0.011953112669289112,0.009876353666186333,0.013813477009534836
1782830994787262000,1.246261962890625,-0.017494486644864082,0.023777209222316742,0.03298573940992355
1782830994797192000,1.25619189453125,-0.027432605624198914,0.01924530789256096,0.047008346766233444
1782830994807121200,1.26612109375,-0.03799503296613693,0.012196122668683529,0.047868162393569946
1782830994817051000,1.27605078125,-0.04145580902695656,-0.0014294087886810303,0.03525276854634285
1782830994826979800,1.285979736328125,-0.03615209460258484,-0.02955223247408867,0.015084283426404
1782830994836910000,1.29591015625,-0.025950059294700623,-0.04780926555395126,-0.012065047398209572
1782830994846839800,1.30583984375,-0.021528486162424088,-0.059137724339962006,-0.03422638401389122
1782830994856768800,1.315768798828125,-0.03002024069428444,-0.06284165382385254,-0.03924164921045303
1782830994866699000,1.325698974609375,-0.03821524605154991,-0.037588052451610565,-0.037168536335229874
1782830994876628000,1.3356279296875,-0.038044270128011703,-0.0004686480388045311,-0.03564734011888504
1782830994886557700,1.3455576171875,-0.03855728730559349,0.01254645362496376,-0.03848642483353615
1782830994896487000,1.35548681640625,-0.03615884482860565,0.011954966932535172,-0.04591371491551399
1782830994906417000,1.3654169921875,-0.04498293250799179,-0.011414116248488426,-0.03814990073442459
1782830994916345900,1.375345947265625,-0.054395079612731934,-0.046059709042310715,-0.021988775581121445
1782830994926276000,1.385276123046875,-0.047784607857465744,-0.059088848531246185,0.002861549612134695
1782830994936205800,1.395205810546875,-0.044839151203632355,-0.06115599721670151,0.026514148339629173
1782830994946135000,1.405135009765625,-0.04347371309995651,-0.055181026458740234,0.03745809569954872
1782830994956065000,1.41506494140625,-0.0358448252081871,-0.02320072427392006,0.04239240288734436
1782830994965994000,1.424993896484375,-0.022448241710662842,0.03263619542121887,0.041109923273324966
1782830994975924000,1.434924072265625,-0.01726146787405014,0.05511833727359772,0.032672230154275894
1782830994985853000,1.44485302734375,-0.013733185827732086,0.04043733328580856,0.025644788518548012
1782830994995783000,1.454782958984375,-0.025029780343174934,-0.00408486183732748,0.014656851068139076
1782830995005712100,1.464712158203125,-0.030029915273189545,-0.04926382377743721,0.004884911235421896
1782830995015641900,1.474641845703125,-0.0304403118789196,-0.06916002929210663,0.005516080651432276
1782830995025571800,1.48457177734375,-0.022577276453375816,-0.07204233855009079,0.011824313551187515
1782830995035501000,1.4945009765625,-0.010980010032653809,-0.0649103969335556,0.02028331160545349
1782830995045430800,1.5044306640625,-0.007223797030746937,-0.047264259308576584,0.02155299484729767
1782830995055359700,1.51435986328125,-0.0012892084196209908,-0.02810228243470192,0.020645122975111008
1782830995065290000,1.5242900390625,-0.0012093307450413704,0.0004927506670355797,0.017991770058870316
1782830995075219000,1.534218994140625,-0.009045149199664593,0.019392140209674835,0.024003321304917336
1782830995085149000,1.54414892578125,-0.006638599559664726,0.040983375161886215,0.02452455461025238
1782830995095078000,1.554077880859375,-0.00048030540347099304,0.047063905745744705,0.017822444438934326
1782830995105007900,1.5640078125,0.004086574073880911,0.0360855907201767,0.004590948577970266
1782830995114938000,1.573938232421875,0.0009222058579325676,0.0006524957716464996,-0.006987942848354578
1782830995124867000,1.5838671875,-0.003910279832780361,-0.03478758782148361,-0.004043063148856163
1782830995134796800,1.593796875,-0.01584656909108162,-0.0726899579167366,-0.003146909177303314
1782830995144726000,1.60372607421875,-0.015511730685830116,-0.07880032062530518,-0.008277450688183308
1782830995154656000,1.613656005859375,-0.014522101730108261,-0.055799927562475204,-0.020156746730208397
1782830995164585000,1.6235849609375,-0.011301260441541672,-0.014745133928954601,-0.022743623703718185
1782830995174515000,1.633514892578125,-0.011285016313195229,0.02903510257601738,-0.024624347686767578
1782830995184444000,1.64344384765625,-0.005932038649916649,0.043905001133680344,-0.013795832172036171
1782830995194374000,1.653373779296875,0.002531754784286022,0.037177059799432755,0.0014512981288135052
1782830995204304000,1.663303955078125,0.009888038039207458,0.030174605548381805,0.023506803438067436
1782830995214232800,1.67323291015625,0.01610465534031391,0.011272021569311619,0.04447147622704506
1782830995224162800,1.683162841796875,0.020803213119506836,-0.00848362036049366,0.05821732059121132
1782830995234092000,1.693092041015625,0.01690700836479664,-0.0353623703122139,0.06147622689604759
1782830995244022000,1.70302197265625,0.004995682276785374,-0.04982244223356247,0.04693712666630745
1782830995253950700,1.71295068359375,-0.00034129247069358826,-0.04908554255962372,0.016887081786990166
1782830995263881000,1.722880859375,0.0027963686734437943,-0.016228701919317245,-0.014348441734910011
1782830995273810000,1.732809814453125,0.010012469254434109,0.018964972347021103,-0.03183821961283684
1782830995283740200,1.742740234375,0.015444792807102203,0.04645999148488045,-0.02177247777581215
1782830995293670000,1.752669921875,0.018763357773423195,0.04579979553818703,-0.007789283990859985
1782830995303598800,1.762598876953125,0.01668456755578518,0.025949031114578247,0.00738791236653924
1782830995313529000,1.772529052734375,0.017812149599194527,-0.011402067728340626,0.020337266847491264
1782830995323458000,1.7824580078125,0.016255822032690048,-0.04935889691114426,0.026273289695382118
1782830995333387800,1.7923876953125,0.017542928457260132,-0.06074311211705208,0.017410824075341225
1782830995343317000,1.80231689453125,0.01932220160961151,-0.04484711214900017,-0.01051077526062727
1782830995353247000,1.8122470703125,0.02827175334095955,-0.018118562176823616,-0.031754810363054276
1782830995363176000,1.822176025390625,0.02693471685051918,0.006583287380635738,-0.04381098225712776
1782830995373106000,1.83210595703125,0.03320273384451866,0.013974624685943127,-0.04191800579428673
1782830995383036000,1.842035888671875,0.029774077236652374,0.004949912428855896,-0.022429265081882477
1782830995392964900,1.85196484375,0.02788722887635231,0.0033557433634996414,0.00975077599287033
1782830995402894800,1.861894775390625,0.02559307962656021,0.013799535110592842,0.038531020283699036
1782830995412823800,1.87182373046875,0.027173930779099464,0.011771004647016525,0.04919591546058655
1782830995422753800,1.88175390625,0.036674078553915024,-0.000005304813385009766,0.04369254410266876
1782830995432683000,1.89168310546875,0.04748518019914627,-0.019593920558691025,0.022516420111060143
1782830995442613000,1.901613037109375,0.05393315851688385,-0.02313714660704136,0.00040946947410702705
1782830995452542000,1.9115419921875,0.047285109758377075,-0.01755249872803688,-0.016420377418398857
1782830995462472000,1.921471923828125,0.0330180749297142,0.018059056252241135,-0.018211616203188896
1782830995472402000,1.93140185546875,0.023889292031526566,0.061221711337566376,-0.004379423800855875
1782830995482331100,1.9413310546875,0.010254781693220139,0.0882037803530693,0.0008486644364893436
1782830995492260900,1.9512607421875,0.0008205333724617958,0.07250577956438065,0.010091431438922882
1782830995502189800,1.96118994140625,0.004200210329145193,0.05685077980160713,0.021036727353930473
1782830995512120000,1.9711201171875,0.010830949060618877,0.042243607342243195,0.0307703148573637
1782830995522049000,1.981049072265625,0.019167456775903702,0.04519503936171532,0.03948336839675903
1782830995531978800,1.990978759765625,0.02884937822818756,0.0334816575050354,0.034923769533634186
1782830995541908000,2.000907958984375,0.04162547364830971,0.01458936557173729,0.028060531243681908
1782830995551838000,2.010837890625,0.03320402279496193,0.012931279838085175,0.012290624901652336
1782830995561768000,2.020767822265625,0.032121654599905014,0.009833617135882378,0.0009306534193456173
1782830995571697000,2.03069677734375,0.030688341706991196,0.014569783583283424,-0.0020020199008286
1782830995581630500,2.04063037109375,0.03052823431789875,0.023468438535928726,0.0023900619708001614
1782830995591559700,2.0505595703125,0.03382043540477753,0.04140908643603325,0.004262264352291822
1782830995601489700,2.06048974609375,0.03826364502310753,0.03917814418673515,0.0007436382584273815
1782830995611418400,2.07041845703125,0.03870173543691635,0.02531426027417183,-0.0005131075158715248
1782830995621348600,2.0803486328125,0.03485166281461716,0.012183856219053268,0.0016073626466095448
1782830995631277600,2.090277587890625,0.026362303644418716,0.007242627441883087,0.007921183481812477
1782830995641207600,2.10020751953125,0.02765769697725773,0.012941773049533367,0.012765035033226013
1782830995651137500,2.110137451171875,0.02490079216659069,0.03629103675484657,0.014143751934170723
1782830995661066500,2.12006640625,0.019373124465346336,0.05214579775929451,0.0037555727176368237
1782830995670996700,2.129996826171875,0.015824729576706886,0.042234309017658234,-0.012650564312934875
1782830995680925700,2.13992578125,0.006429481320083141,0.012678202241659164,-0.023289041593670845
1782830995690855400,2.14985546875,-0.008121232502162457,-0.009378896094858646,-0.020216286182403564
1782830995700784400,2.159784423828125,-0.014843559823930264,-0.009214703924953938,-0.003099246881902218
1782830995710714600,2.169714599609375,-0.017411381006240845,-0.0020819595083594322,0.01226106658577919
1782830995720643600,2.1796435546875,-0.018526896834373474,-0.0009874803945422173,0.017168641090393066
1782830995730573600,2.189573486328125,-0.007930979132652283,0.0027470700442790985,0.00504619674757123
1782830995740503600,2.199503662109375,-0.000044951215386390686,0.002110105939209461,-0.01798972301185131
1782830995750432500,2.2094326171875,0.005966869182884693,0.006528024561703205,-0.0263480544090271
1782830995760362800,2.21936279296875,0.008435278199613094,0.025447746738791466,-0.017368249595165253
1782830995770291500,2.22929150390625,0.00016616377979516983,0.04443421959877014,0.007716331165283918
1782830995780221400,2.239221435546875,-0.0030560018494725227,0.04896823689341545,0.018982509151101112
1782830995790150700,2.249150634765625,-0.00857460405677557,0.027858424931764603,0.016049038618803024
1782830995800080600,2.25908056640625,-0.008821466937661171,-0.005710158031433821,-0.0004046540707349777
1782830995810009600,2.269009521484375,0.003662899136543274,-0.00415540486574173,0.0053757368586957455
1782830995819939600,2.278939697265625,0.010494576767086983,0.009467778727412224,0.01637628860771656
1782830995829869600,2.28886962890625,0.013550820760428905,0.023660561069846153,0.035188592970371246
1782830995839798500,2.298798583984375,0.01735086180269718,0.027229323983192444,0.036241233348846436
1782830995849728500,2.308728515625,0.017845144495368004,0.013255717232823372,0.015899211168289185
1782830995859657500,2.318657470703125,0.015143271535634995,-0.02671145275235176,-0.018433408811688423
1782830995869587700,2.328587646484375,0.00861666351556778,-0.036432523280382156,-0.03362860530614853
1782830995879516700,2.3385166015625,0.003594864159822464,-0.005482659675180912,-0.01915927603840828
1782830995889446400,2.3484462890625,-0.0021514389663934708,0.009808944538235664,0.0036845202557742596
1782830995899375400,2.358375244140625,-0.004254055209457874,0.008463483303785324,0.024434272199869156
1782830995909305600,2.3683056640625,-0.0009309630841016769,0.002807196229696274,0.019975608214735985
1782830995919235600,2.378235595703125,0.005778299178928137,-0.003996917977929115,0.01426856592297554
1782830995929164500,2.38816455078125,0.014827720820903778,-0.013478037901222706,0.001424939837306738
1782830995939094500,2.398094482421875,0.02112453803420067,-0.001752135343849659,0.005994012113660574
1782830995949023500,2.4080234375,0.015974249690771103,0.013469427824020386,0.019929802045226097
1782830995958953700,2.41795361328125,-0.0015431726351380348,0.017803221940994263,0.038512542843818665
1782830995968882700,2.427882568359375,-0.017925076186656952,0.013304343447089195,0.03437212482094765
1782830995978812400,2.4378125,-0.02153705060482025,0.00860215537250042,0.01080426387488842
1782830995988741600,2.44774169921875,-0.01697079837322235,0.009360890835523605,-0.020998671650886536
1782830995998671600,2.457671630859375,-0.012487235479056835,0.008145375177264214,-0.048240777105093
1782830996008601600,2.4676015625,-0.011345005594193935,-0.001631355844438076,-0.057699259370565414
1782830996018530600,2.477530517578125,-0.02452690899372101,-0.010055245831608772,-0.05354878306388855
1782830996028460500,2.48746044921875,-0.034922294318675995,-0.0006108768284320831,-0.03209276124835014
1782830996038389500,2.497389404296875,-0.04052121937274933,0.0010054558515548706,-0.011236743070185184
1782830996048319500,2.507319580078125,-0.02843712829053402,0.004704054445028305,-0.0003859596326947212
1782830996058248400,2.51724853515625,-0.019736699759960175,0.008043737150728703,0.005590654443949461
1782830996068178700,2.5271787109375,-0.004655750468373299,-0.01053340919315815,0.0008286559022963047
1782830996078108700,2.537108642578125,-0.0012972047552466393,-0.025653786957263947,-0.004662955179810524
1782830996088037400,2.547037353515625,-0.005776642821729183,-0.0340893492102623,-0.007289364468306303
1782830996097967600,2.556967529296875,-0.01231326162815094,-0.03864380717277527,-0.005729487165808678
1782830996107896600,2.566896484375,-0.022314496338367462,-0.03364745154976845,-0.005720699205994606
1782830996117826600,2.57682666015625,-0.02263684943318367,-0.002545539289712906,-0.005071749910712242
1782830996127755500,2.586755615234375,-0.017469782382249832,0.011554299853742123,-0.01071099378168583
1782830996137685500,2.596685546875,-0.005261772312223911,0.0026949523016810417,-0.02233446016907692
1782830996147614500,2.606614501953125,0.002741292119026184,0.013442138209939003,-0.024892160668969154
1782830996157544700,2.616544677734375,0.004943754989653826,0.03504292666912079,-0.014751211740076542
1782830996167473700,2.6264736328125,0.0007428843528032303,0.024653669446706772,0.0019808965735137463
1782830996177403400,2.6364033203125,-0.013463486917316914,0.015110749751329422,0.018444765359163284
1782830996187333600,2.646333740234375,-0.014091192744672298,0.010680582374334335,0.023188387975096703
1782830996197262600,2.6562626953125,-0.000977279618382454,0.009292135015130043,0.010255441069602966
1782830996207192600,2.666192626953125,0.01180109940469265,0.011592572554945946,0.0010880413465201855
1782830996217121500,2.67612158203125,0.02061380073428154,0.019237613305449486,0.0011958549730479717
1782830996227051500,2.686051513671875,0.01922442950308323,0.02622867561876774,0.0041482350789010525
1782830996236980500,2.69598046875,0.00869104452431202,0.0035611512139439583,-0.0033728000707924366
1782830996246910500,2.705910400390625,-0.004470830783247948,-0.029026351869106293,-0.014427315443754196
1782830996256840400,2.71584033203125,-0.004980423487722874,-0.05337771773338318,-0.03376523032784462
1782830996266769700,2.725769775390625,0.009435266256332397,-0.06349906325340271,-0.03760603815317154
1782830996276699600,2.73569970703125,0.0185999795794487,-0.06538978219032288,-0.0322318859398365
1782830996286628600,2.745628662109375,0.028964202851057053,-0.053161609917879105,-0.013348741456866264
1782830996296558600,2.75555859375,0.030353553593158722,-0.03158748149871826,0.014859622344374657
1782830996306487600,2.765487548828125,0.028345264494419098,-0.012005791068077087,0.03170144930481911
1782830996316417500,2.77541748046875,0.02208893746137619,0.011550244875252247,0.02848818525671959
1782830996326346800,2.7853466796875,0.01282166875898838,0.02297520637512207,0.017708508297801018
1782830996336276500,2.7952763671875,0.0054970066994428635,0.03477412089705467,0.004435791168361902
1782830996346206700,2.805206787109375,0.008984415791928768,0.04849179834127426,-0.0015880130231380463
1782830996356135700,2.8151357421875,0.0014060074463486671,0.03929917514324188,0.003621078561991453
1782830996366065400,2.8250654296875,-0.0006076088175177574,0.02165173925459385,0.016706787049770355
1782830996375994400,2.834994384765625,-0.004856672137975693,-0.0059961057268083096,0.02660001628100872
1782830996385924600,2.844924560546875,-0.0009751152247190475,-0.019508983939886093,0.022904345765709877
1782830996395853600,2.854853515625,0.006585016380995512,-0.022404402494430542,0.00938054546713829
1782830996405783600,2.864783447265625,0.0032414179295301437,-0.019335642457008362,0.0032896301709115505
1782830996415712500,2.87471240234375,0.0028475765138864517,0.009058717638254166,-0.001343586016446352
1782830996425642500,2.884642578125,0.004143470898270607,0.02911924384534359,0.0020032082684338093
1782830996435572700,2.89457275390625,0.004057574085891247,0.02985874004662037,0.011794429272413254
1782830996445501400,2.90450146484375,0.007178532890975475,0.030425729230046272,0.022573040798306465
1782830996455431400,2.914431396484375,0.010482405312359333,0.0174353439360857,0.028868542984128
1782830996465360600,2.924360595703125,0.012432372197508812,-0.0018981397151947021,0.019111786037683487
1782830996475290600,2.93429052734375,0.00957753136754036,-0.01365290954709053,-0.0007257838733494282
1782830996485219600,2.944219482421875,0.005943382158875465,-0.014304052107036114,-0.01877562515437603
1782830996495149600,2.954149658203125,0.008745308965444565,-0.025150183588266373,-0.033487144857645035
1782830996505078500,2.96407861328125,0.007835306227207184,-0.008630063384771347,-0.036273613572120667
1782830996515008500,2.974008544921875,0.005571248009800911,-0.008086135610938072,-0.021879693493247032
1782830996524938500,2.9839384765625,0.011328203603625298,-0.009898683056235313,-0.004649573937058449
1782830996534867500,2.993867431640625,0.02131950482726097,0.0037849843502044678,0.012342561036348343
1782830996544797700,3.003797607421875,0.02010776475071907,0.024237792938947678,0.029512757435441017
1782830996554726700,3.0137265625,0.012960215099155903,0.01758076623082161,0.037836797535419464
1782830996564656400,3.023656494140625,0.002088925801217556,0.005562718026340008,0.03285561874508858
1782830996574585900,3.0335859375,-0.0016179680824279785,-0.0062003834173083305,0.022813092917203903
1782830996584515800,3.043515869140625,-0.003937315195798874,-0.00996050052344799,-0.0024738875217735767
1782830996594445800,3.05344580078125,-0.011488922871649265,-0.009020637720823288,-0.017892789095640182
1782830996604374800,3.063374755859375,-0.018849369138479233,-0.00029825326055288315,-0.028264734894037247
1782830996614305000,3.073304931640625,-0.02015390247106552,0.011293767020106316,-0.03539886325597763
1782830996624234000,3.08323388671875,-0.01600603014230728,0.01649145781993866,-0.04077205806970596
1782830996634164000,3.0931640625,-0.010596179403364658,0.012225293554365635,-0.027581365779042244
1782830996644093000,3.103093017578125,-0.0059540243819355965,-0.009209691546857357,-0.00768781965598464
1782830996654023000,3.11302294921875,0.005100401118397713,-0.01836620457470417,0.023336254060268402
1782830996663952000,3.122951904296875,0.00905066728591919,-0.008930091746151447,0.04867676645517349
1782830996673882000,3.132882080078125,0.012055654078722,-0.0048439400270581245,0.06421619653701782
1782830996683811800,3.142811767578125,0.004920246545225382,-0.01561802439391613,0.05233610421419144
1782830996693740800,3.15274072265625,0.0008715204894542694,-0.03316035121679306,0.024951251223683357
1782830996703671000,3.162671142578125,0.00682075647637248,-0.02074708789587021,-0.00454592052847147
1782830996713600000,3.17260009765625,0.013037968426942825,0.0001964205875992775,-0.03522581234574318
1782830996723529700,3.18252978515625,0.022377409040927887,0.01956266164779663,-0.04844973608851433
1782830996733459000,3.192458984375,0.012442434206604958,0.01660013198852539,-0.04357908293604851
1782830996743389000,3.202388916015625,-0.004185810685157776,-0.005874551832675934,-0.04341183975338936
1782830996753318000,3.21231787109375,-0.011359194293618202,-0.03485818952322006,-0.04237367585301399
1782830996763247900,3.222247802734375,-0.00593193806707859,-0.05140334367752075,-0.03355781361460686
1782830996773177900,3.232177734375,0.004383624065667391,-0.05702563747763634,-0.012598628178238869
1782830996783107000,3.242107177734375,0.008425237610936165,-0.05120423436164856,0.002944378647953272
1782830996793037000,3.252037109375,0.010115495882928371,-0.03700242564082146,0.01187901571393013
1782830996802965800,3.2619658203125,0.005935664288699627,-0.028220120817422867,0.006367604713886976
1782830996812896000,3.27189599609375,0.009209009818732738,-0.025741390883922577,-0.009150437079370022
1782830996822825000,3.281824951171875,0.012152868323028088,-0.021175403147935867,-0.02740108035504818
1782830996832755000,3.2917548828125,0.010980374179780483,-0.0221647210419178,-0.04759322106838226
1782830996842684000,3.301683837890625,0.004109152592718601,-0.03569198027253151,-0.05963071063160896
1782830996852614000,3.31161376953125,0.0007378924638032913,-0.05763891711831093,-0.054932139813899994
1782830996862544000,3.3215439453125,-0.002318616956472397,-0.06960690021514893,-0.034492377191782
1782830996872473000,3.33147314453125,0.0021900562569499016,-0.06424413621425629,-0.009466979652643204
1782830996882402800,3.34140283203125,0.01996772177517414,-0.03881920501589775,0.016821881756186485
1782830996892331800,3.351331787109375,0.029429607093334198,-0.02038787119090557,0.024672891944646835
1782830996902262000,3.361261962890625,0.03703319653868675,-0.0004993844777345657,0.021676834672689438
1782830996912191000,3.37119091796875,0.04163726419210434,0.018951263278722763,0.025587361305952072
1782830996922120700,3.38112060546875,0.03746675327420235,0.02458065375685692,0.02231992967426777
1782830996932050000,3.3910498046875,0.033743735402822495,0.030748452991247177,0.02086600847542286
1782830996941980000,3.40097998046875,0.018294205889105797,0.01613835245370865,0.014576954767107964
1782830996951910100,3.41091015625,0.004201112315058708,0.004852973856031895,0.017362775281071663
1782830996961838800,3.4208388671875,-0.008797244168817997,-0.004826018586754799,0.026031365618109703
1782830996971768800,3.430768798828125,-0.008135827258229256,-0.0013220030814409256,0.03198406845331192
1782830996981698000,3.440697998046875,0.004779171664267778,0.0048613231629133224,0.0328647755086422
1782830996991628000,3.4506279296875,0.011331177316606045,0.0006690220907330513,0.028926441445946693
1782830997001557000,3.460556884765625,0.008901309221982956,-0.023271730169653893,0.018387513235211372
1782830997011487000,3.470487060546875,-0.0004380568861961365,-0.037905361503362656,0.004550368059426546
1782830997021416000,3.480416015625,-0.02014864608645439,-0.01602429710328579,0.007775722537189722
1782830997031346000,3.490345947265625,-0.039745766669511795,-0.0016710646450519562,0.0028742211870849133
1782830997041276000,3.50027587890625,-0.04368724301457405,0.013722005300223827,0.00029601482674479485
1782830997051204900,3.510204833984375,-0.03713349252939224,0.023023221641778946,-0.003329184837639332
1782830997061134800,3.520134765625,-0.02910565957427025,0.017354149371385574,0.0008533098734915257
1782830997071064000,3.53006396484375,-0.022256910800933838,0.006965893320739269,0.010681169107556343
1782830997080993800,3.539993896484375,-0.024597030133008957,0.0004864232614636421,0.028213290497660637
1782830997090922800,3.5499228515625,-0.031003959476947784,-0.013692716136574745,0.03293880820274353
1782830997100853000,3.55985302734375,-0.036249320954084396,-0.02793290466070175,0.024734141305088997
1782830997110782000,3.569781982421875,-0.03745410963892937,-0.031021129339933395,0.013100212439894676
1782830997120712000,3.5797119140625,-0.03652706369757652,-0.03116041235625744,-0.005336584523320198
1782830997130642000,3.589641845703125,-0.033230770379304886,-0.019220435991883278,-0.021093426272273064
1782830997140571000,3.59957080078125,-0.03374769166111946,-0.02224365621805191,-0.031035805121064186
1782830997150501000,3.609501220703125,-0.03105085715651512,-0.016872670501470566,-0.031436558812856674
1782830997160430000,3.61943017578125,-0.026309099048376083,0.002751097083091736,-0.023916590958833694
1782830997170359800,3.62935986328125,-0.029271826148033142,0.00875199493020773,-0.007602180354297161
1782830997180289000,3.6392890625,-0.026479236781597137,0.01998547464609146,0.019050203263759613
1782830997190219000,3.649218994140625,-0.01822642609477043,0.025680242106318474,0.03981993719935417
1782830997200148700,3.659148681640625,-0.006564177572727203,0.013370577245950699,0.042559001594781876
1782830997210078000,3.669077880859375,-0.0022728322073817253,-0.0026186807081103325,0.03269454464316368
1782830997220008000,3.679008056640625,-0.002168969251215458,-0.01949007250368595,0.0032264008186757565
1782830997229937000,3.68893701171875,-0.004285071976482868,-0.036628562957048416,-0.02334481105208397
1782830997239867000,3.698866943359375,-0.008891542442142963,-0.03567701578140259,-0.030317233875393867
1782830997249795800,3.7087958984375,-0.0026859473437070847,-0.02026243880391121,-0.0212707482278347
1782830997259725800,3.718725830078125,0.015130599960684776,0.003141154535114765,-0.0051298607140779495
1782830997269655000,3.728655029296875,0.027761589735746384,0.0113443024456501,0.015648871660232544
1782830997279584800,3.738584716796875,0.03073873743414879,0.002207796089351177,0.035686757415533066
1782830997289515000,3.748514892578125,0.015486013144254684,-0.026652080938220024,0.04462725669145584
1782830997299444000,3.75844384765625,0.00003275461494922638,-0.04303744435310364,0.052717406302690506
1782830997309374000,3.7683740234375,-0.006364735774695873,-0.04730517417192459,0.06117726117372513
1782830997319303000,3.778302978515625,-0.005934634245932102,-0.031262561678886414,0.05644429475069046
1782830997329233000,3.78823291015625,0.002847990021109581,-0.0031946757808327675,0.03856969252228737
1782830997339161900,3.798161865234375,0.01697579398751259,0.012266038917005062,0.016107525676488876
1782830997349092000,3.808092041015625,0.012440592981874943,0.01658455654978752,-0.0011857165955007076
1782830997359021000,3.81802099609375,0.00014824047684669495,0.017263397574424744,0.005465794820338488
1782830997368950800,3.82795068359375,-0.015740275382995605,0.011488019488751888,0.020489271730184555
1782830997378881000,3.837881103515625,-0.0278033297508955,0.007453597150743008,0.04176952689886093
1782830997388810000,3.84781005859375,-0.03828456997871399,-0.0024718036875128746,0.04387075826525688
1782830997398739700,3.85773974609375,-0.04423380270600319,-0.010224531404674053,0.028665436431765556
1782830997408669000,3.8676689453125,-0.04392053559422493,-0.020579509437084198,0.007451129611581564
1782830997418599000,3.877598876953125,-0.04183954373002052,-0.02017097920179367,-0.021723533049225807
1782830997428527900,3.88752783203125,-0.02856650948524475,-0.022918768227100372,-0.038617558777332306
1782830997438457900,3.897457763671875,-0.019271278753876686,-0.013208881951868534,-0.03218602389097214
1782830997448387800,3.907387939453125,-0.01583610475063324,0.0033771106973290443,-0.017001966014504433
1782830997458317000,3.917317138671875,-0.013386795297265053,0.004112943075597286,0.004767776932567358
1782830997468247000,3.9272470703125,-0.008775666356086731,0.003925943747162819,0.02211923897266388
1782830997478176000,3.937176025390625,-0.005467753857374191,-0.004676332697272301,0.03807104006409645
1782830997488106000,3.94710595703125,-0.0013307994231581688,-0.009652449749410152,0.04642724245786667
1782830997498035000,3.957034912109375,0.004901796579360962,-0.015776121988892555,0.04497688263654709
1782830997507965000,3.96696484375,0.015940798446536064,-0.01860002987086773,0.03011719509959221
1782830997517894100,3.97689404296875,0.030619876459240913,-0.026890449225902557,0.005546338390558958
1782830997527824000,3.986823974609375,0.04952165484428406,-0.012595148757100105,-0.013418355956673622
1782830997537753900,3.99675390625,0.05568207800388336,-0.0009877607226371765,-0.008606822229921818
1782830997547683000,4.00668310546875,0.04640232026576996,0.007770199328660965,0.005075330380350351
1782830997557612800,4.01661279296875,0.03264230489730835,0.0011061718687415123,0.0028084474615752697
1782830997567541800,4.026541748046875,0.02492355927824974,-0.0006989799439907074,-0.006504631135612726
1782830997577471200,4.03647119140625,0.018580175936222076,0.01270524226129055,-0.017363404855132103
1782830997587400400,4.046400390625,0.020937111228704453,0.03278360888361931,-0.02183709666132927
1782830997597330400,4.056330322265625,0.01959993876516819,0.037690214812755585,-0.018066592514514923
1782830997607259400,4.06625927734375,0.016122575849294662,0.02279871143400669,-0.01281068567186594
1782830997617189400,4.076189453125,0.013443170115351677,-0.0010126102715730667,-0.011655407026410103
1782830997627119400,4.086119384765625,0.009070318192243576,-0.01842084527015686,-0.009616962634027004
1782830997637048300,4.09604833984375,0.004952539224177599,-0.015988312661647797,-0.011110995896160603
1782830997646978300,4.105978271484375,-0.0028608953580260277,0.004304296337068081,-0.014128310605883598
1782830997656907300,4.1159072265625,-0.008099865168333054,0.02857315167784691,-0.017009584233164787
1782830997666837500,4.12583740234375,-0.01836896315217018,0.04892932251095772,-0.017168039456009865
1782830997676766500,4.135766357421875,-0.025965362787246704,0.05542450398206711,-0.011871544644236565
1782830997686696200,4.1456962890625,-0.03297723829746246,0.027534283697605133,-0.009241027757525444
1782830997696626400,4.15562646484375,-0.02043534815311432,-0.00099962018430233,-0.029821136966347694
1782830997706555400,4.165555419921875,-0.02652704529464245,0.00836391281336546,-0.05138177424669266
1782830997716485400,4.1754853515625,-0.03158518671989441,0.006676266901195049,-0.06693277508020401
1782830997726414300,4.185414306640625,-0.03238178789615631,0.03322076052427292,-0.06815942376852036
1782830997736344300,4.19534423828125,-0.03521539270877838,0.05724460631608963,-0.06638176739215851
1782830997746273300,4.205273193359375,-0.03780224174261093,0.05820608139038086,-0.06975710391998291
1782830997756203500,4.21520361328125,-0.031862061470746994,0.02223077416419983,-0.0711912140250206
1782830997766132500,4.225132568359375,-0.024647824466228485,-0.01399034820497036,-0.06002778187394142
1782830997776062200,4.235062255859375,-0.01412061508744955,-0.03228653222322464,-0.05243884027004242
1782830997785992400,4.244992431640625,0.011052973568439484,-0.026797175407409668,-0.042269762605428696
1782830997795921400,4.25492138671875,0.024245209991931915,-0.01393543928861618,-0.026691868901252747
1782830997805851400,4.264851318359375,0.024956369772553444,-0.012445620261132717,-0.02167452685534954
1782830997815780400,4.2747802734375,0.019360801205039024,-0.017529595643281937,-0.018806036561727524
1782830997825710300,4.28471044921875,0.010623982176184654,-0.023612817749381065,-0.026280999183654785
1782830997835639300,4.294639404296875,0.0044643571600317955,-0.015966882929205894,-0.036503810435533524
1782830997845569300,4.3045693359375,0.007280146237462759,-0.004995834082365036,-0.04246300086379051
1782830997855498200,4.314498291015625,0.012072238139808178,-0.004558010026812553,-0.04592324420809746
1782830997865428500,4.324428466796875,0.011922670528292656,-0.01504095271229744,-0.04113141447305679
1782830997875358500,4.3343583984375,0.005410975776612759,-0.027544759213924408,-0.02215079963207245
1782830997885287200,4.344287109375,0.0012867487967014313,-0.025832923129200935,0.0000591035932302475
1782830997895217400,4.354217529296875,0.0018313657492399216,-0.003932418301701546,0.023864833638072014
1782830997905146400,4.364146484375,-0.0015069292858242989,0.018761567771434784,0.03860026225447655
1782830997915076400,4.374076416015625,-0.0035032350569963455,0.03502975404262543,0.04204292967915535
1782830997925005300,4.38400537109375,-0.007436058484017849,0.029999352991580963,0.033606670796871185
1782830997934935300,4.393935302734375,-0.014581318013370037,-0.004567677155137062,0.021931905299425125
1782830997944865300,4.403865234375,-0.02497454360127449,-0.029178589582443237,0.007564314175397158
1782830997954794500,4.41379443359375,-0.027599886059761047,-0.03226572647690773,-0.014754040166735649
1782830997964724200,4.42372412109375,-0.02599996142089367,-0.008982573635876179,-0.039478302001953125
1782830997974653200,4.433653076171875,-0.02431950904428959,0.019183285534381866,-0.0665179118514061
1782830997984583400,4.44358349609375,-0.03002501279115677,0.023841451853513718,-0.07401416450738907
1782830997994512400,4.453512451171875,-0.04395627602934837,0.009605791419744492,-0.07649783045053482
1782830998004442400,4.4634423828125,-0.05439647287130356,-0.001435047946870327,-0.06475792825222015
1782830998014371300,4.473371337890625,-0.05219670385122299,-0.013050424866378307,-0.0489259697496891
1782830998024301300,4.48330126953125,-0.04338035732507706,-0.011948442086577415,-0.03171316161751747
1782830998034231600,4.4932314453125,-0.025683388113975525,-0.010585170239210129,-0.020239999517798424
1782830998044160300,4.50316015625,-0.01417362131178379,-0.00873204693198204,-0.0005753627046942711
1782830998054090200,4.51309033203125,-0.00815407931804657,-0.024035368114709854,0.004510742146521807
1782830998064019500,4.52301953125,-0.007128189317882061,-0.03760097920894623,0.0076678055338561535
1782830998073949400,4.532949462890625,-0.003824271261692047,-0.04127081483602524,0.009395930916070938
1782830998083878400,4.54287841796875,0.006137697026133537,-0.02574983239173889,0.02023015171289444
1782830998093808400,4.552808349609375,0.017198070883750916,-0.013124851509928703,0.01944984681904316
1782830998103737300,4.5627373046875,0.02252284437417984,0.00008339341729879379,0.01368383876979351
1782830998113667300,4.572667236328125,0.01693340390920639,0.006725050508975983,0.006795571651309729
1782830998123597300,4.582597412109375,0.00846691895276308,-0.003999389708042145,-0.003101697191596031
1782830998133526300,4.5925263671875,-0.0034435363486409187,-0.030425136908888817,-0.010326053947210312
1782830998143456500,4.60245654296875,-0.017241187393665314,-0.03790508210659027,-0.005426803603768349
1782830998153385500,4.612385498046875,-0.018703529611229897,-0.027104098349809647,-0.004073651507496834
1782830998163315200,4.622315185546875,-0.0020776912569999695,-0.010080751031637192,-0.00013668788596987724
1782830998173244200,4.632244140625,0.0056633190251886845,0.009100133553147316,0.009604621678590775
1782830998183174400,4.64217431640625,-0.007033131085336208,0.012405071407556534,0.025500552728772163
1782830998193104400,4.6521044921875,-0.026180192828178406,-0.008216850459575653,0.039533816277980804
1782830998203033300,4.662033447265625,-0.03685372322797775,-0.016360875219106674,0.04711044579744339
1782830998212963300,4.67196337890625,-0.04583336412906647,-0.018764911219477654,0.03694329410791397
1782830998222892300,4.681892333984375,-0.04638369381427765,-0.01631046086549759,0.016811342909932137
1782830998232822500,4.691822509765625,-0.0382876843214035,-0.006091912277042866,-0.002071268856525421
1782830998242751200,4.701751220703125,-0.027845483273267746,-0.007216597907245159,-0.016836101189255714
1782830998252681200,4.71168115234375,-0.018672224134206772,-0.0015669679269194603,-0.02343035489320755
1782830998262610400,4.7216103515625,-0.00382987130433321,0.011327399872243404,-0.028930744156241417
1782830998272540400,4.73154052734375,0.0000013522803783416748,0.021576039493083954,-0.029827428981661797
1782830998282470100,4.74147021484375,-0.01398067269474268,0.009603599086403847,-0.022661658003926277
1782830998292399400,4.7513994140625,-0.03150933235883713,-0.04162896052002907,-0.01840033382177353
1782830998302329300,4.761329345703125,-0.042301520705223083,-0.06298856437206268,-0.012370346114039421
1782830998312258300,4.77125830078125,-0.049900852143764496,-0.06443226337432861,-0.01801997609436512
1782830998322188300,4.781188232421875,-0.051557354629039764,-0.054687365889549255,-0.013426926918327808
1782830998332117200,4.7911171875,-0.050791434943675995,-0.03918777033686638,-0.009444968774914742
1782830998342047500,4.801047607421875,-0.04240024834871292,-0.018088828772306442,-0.015197983011603355
1782830998351976400,4.8109765625,-0.022935206070542336,-0.00653470354154706,-0.026577403768897057
1782830998361906200,4.82090625,-0.00657640490680933,0.010228187777101994,-0.02545802854001522
1782830998371836400,4.83083642578125,0.004248812794685364,0.029754754155874252,-0.0035119829699397087
1782830998381765400,4.840765380859375,0.004887727554887533,0.021315336227416992,0.032126545906066895
1782830998391695400,4.8506953125,-0.003959293477237225,-0.018674692139029503,0.05827398970723152
1782830998401624300,4.860624267578125,-0.012795254588127136,-0.06014430895447731,0.06449076533317566
1782830998411554300,4.87055419921875,-0.0218523982912302,-0.06935831159353256,0.04179557412862778
1782830998421483300,4.880483154296875,-0.015591212548315525,-0.03274965286254883,0.014610504731535912
1782830998431413500,4.89041357421875,-0.014560568146407604,0.0073255933821201324,-0.0038353486452251673
1782830998441343200,4.90034326171875,-0.018455922603607178,0.0309891439974308,-0.0005956115201115608
1782830998451272200,4.910272216796875,-0.015031896531581879,0.03355536609888077,0.012765202671289444
1782830998461202400,4.920202392578125,-0.019152648746967316,0.042772818356752396,0.013797499239444733
1782830998471131400,4.93013134765625,-0.009306943975389004,0.037219058722257614,-0.0001404210925102234
1782830998481061400,4.940061279296875,0.005587877705693245,0.03887170925736427,-0.016094988211989403
1782830998490990300,4.949990234375,0.01220743078738451,0.021623481065034866,-0.04534501954913139
1782830998500920300,4.95992041015625,0.006593503523617983,-0.010864829644560814,-0.05889327451586723
1782830998510849300,4.969849365234375,0.005216649267822504,-0.009288504719734192,-0.07439073920249939
1782830998520779300,4.979779296875,0.009621568955481052,-0.009672502055764198,-0.09119527786970139
1782830998530709200,4.989709228515625,0.007661215960979462,-0.00170885119587183,-0.12191777676343918
1782830998540638500,4.999638427734375,-0.00734147522598505,-0.020366961136460304,-0.14221414923667908
1782830998550568400,5.009568359375,-0.027975913137197495,-0.003534451127052307,-0.14704565703868866
1782830998560497400,5.019497314453125,-0.048569466918706894,0.02201410010457039,-0.1514778584241867
1782830998570427400,5.029427490234375,-0.06459450721740723,0.06349816173315048,-0.16031555831432343
1782830998580353300,5.039353271484375,-0.06505447626113892,0.08427533507347107,-0.18604455888271332
1782830998590283300,5.049283203125,-0.0478011891245842,0.10121383517980576,-0.20129968225955963
1782830998600212200,5.059212158203125,-0.036553382873535156,0.07926589250564575,-0.1849566549062729
1782830998610142200,5.06914208984375,-0.04164241626858711,0.05110376700758934,-0.16054080426692963
1782830998620072200,5.079072265625,-0.04057224094867706,0.027263598516583443,-0.10782454162836075
1782830998630001400,5.08900146484375,-0.04494648426771164,0.04904159903526306,-0.02895422838628292
1782830998639931100,5.09893115234375,-0.057095177471637726,0.062225498259067535,0.040404390543699265
1782830998649860000,5.108860107421875,-0.06338369846343994,0.08515291661024094,0.0902145579457283
1782830998659790300,5.118790283203125,-0.05810714513063431,0.10354353487491608,0.0936342254281044
1782830998669719300,5.12871923828125,-0.060658715665340424,0.08364252746105194,0.06810436397790909
1782830998679649000,5.13864892578125,-0.06456625461578369,0.06126632168889046,0.028134947642683983
1782830998689579300,5.148579345703125,-0.053321320563554764,0.06642007827758789,-0.013056430034339428
1782830998699508200,5.15850830078125,-0.06019097566604614,0.05206279456615448,-0.021791286766529083
1782830998709438200,5.168438232421875,-0.04030435532331467,0.048441432416439056,-0.020888209342956543
1782830998719367200,5.1783671875,-0.02211497351527214,0.051216334104537964,-0.02131696790456772
1782830998729297200,5.188297119140625,-0.01899002119898796,0.02742685005068779,-0.018340086564421654
1782830998739226000,5.19822607421875,-0.014683181419968605,-0.016523703932762146,-0.011619437485933304
1782830998749156400,5.20815625,-0.013634961098432541,-0.023796532303094864,0.004630106035619974
1782830998759085000,5.2180849609375,-0.016238154843449593,-0.01867738738656044,0.024103084579110146
1782830998769015300,5.228015380859375,0.0013256585225462914,-0.012851721607148647,0.03214024007320404
1782830998778945300,5.2379453125,0.02019762620329857,-0.02599404752254486,0.034420423209667206
1782830998788874200,5.247874267578125,0.03304338455200195,-0.04031732678413391,0.04830241575837135
1782830998798804200,5.25780419921875,0.040348079055547714,-0.05790700018405914,0.0636865422129631
1782830998808733200,5.267733154296875,0.03811288997530937,-0.05866493284702301,0.0793512612581253
1782830998818663200,5.2776630859375,0.024537190794944763,-0.03875816985964775,0.07212206721305847
1782830998828592400,5.28759228515625,0.02108466997742653,0.0006808489561080933,0.05467436462640762
1782830998838522000,5.297522216796875,0.022916438058018684,0.038223445415496826,0.027650145813822746
1782830998848451000,5.307451171875,0.026456046849489212,0.051049232482910156,0.01197424903512001
1782830998858377200,5.317377197265625,0.030919723212718964,0.03724338859319687,0.007324692327529192
1782830998868307200,5.32730712890625,0.029361773282289505,0.014250719919800758,0.01229122094810009
1782830998878237200,5.3372373046875,0.030044235289096832,0.004676046781241894,0.031836364418268204
1782830998888166100,5.347166259765625,0.027110496535897255,-0.038438402116298676,0.04052253067493439
1782830998898096400,5.357096435546875,0.01934240199625492,-0.07704898715019226,0.05148852989077568
1782830998908025300,5.367025390625,0.012823250144720078,-0.09131447970867157,0.061748091131448746
1782830998917955000,5.376955078125,0.011815051548182964,-0.06273379176855087,0.06881968677043915
1782830998927884000,5.386884033203125,0.022800857201218605,-0.009255122393369675,0.06066961586475372
1782830998937814300,5.396814208984375,0.0326865091919899,0.016149036586284637,0.055688440799713135
1782830998947743200,5.4067431640625,0.03647672384977341,0.020151501521468163,0.06163075566291809
1782830998957673200,5.416673095703125,0.008237434551119804,-0.006015748251229525,0.07478553801774979
1782830998967603200,5.426603271484375,-0.016086548566818237,-0.030601251870393753,0.0843028798699379
1782830998977532200,5.4365322265625,-0.02110821008682251,-0.03713453188538551,0.07466085255146027
1782830998987462400,5.44646240234375,-0.006853106431663036,-0.03760804235935211,0.05139201134443283
1782830998997391000,5.45639111328125,0.009139928966760635,-0.03590230643749237,0.016954466700553894
1782830999007321000,5.466321044921875,0.026397746056318283,-0.041510920971632004,-0.0068142469972372055
1782830999017250300,5.476250244140625,0.028758468106389046,-0.04397882521152496,-0.020006002858281136
1782830999027180300,5.48618017578125,0.022497642785310745,-0.05045377090573311,-0.017225662246346474
1782830999037110300,5.4961103515625,0.017914749681949615,-0.02895267680287361,0.014976639300584793
1782830999047039200,5.506039306640625,-0.0018610861152410507,0.0041192565113306046,0.05665511265397072
1782830999056969200,5.51596923828125,-0.02317541278898716,0.00011212099343538284,0.08332351595163345
1782830999066898200,5.525898193359375,-0.01590178720653057,-0.016219981014728546,0.07003487646579742
1782830999076828200,5.535828125,-0.018167488276958466,-0.02666737325489521,0.04138810187578201
1782830999086757000,5.545757080078125,-0.01620500162243843,-0.03713013231754303,0.01146935485303402
1782830999096687400,5.555687255859375,-0.019364940002560616,-0.055760059505701065,-0.022013185545802116
1782830999106616300,5.5656162109375,-0.0024069957435131073,-0.037821006029844284,-0.030264724045991898
1782830999116546000,5.575546142578125,-0.00025593116879463196,0.00484406016767025,-0.018454771488904953
1782830999126476300,5.585476318359375,-0.003291136585175991,0.0298793725669384,-0.0025069639086723328
1782830999136405200,5.5954052734375,-0.006827178411185741,0.026205070316791534,0.0010254564695060253
1782830999146335200,5.605335205078125,-0.015594572760164738,0.021324295550584793,-0.009676190093159676
1782830999156264200,5.61526416015625,-0.02773357927799225,-0.00836918130517006,-0.0242167841643095
1782830999166194200,5.625194091796875,-0.032766684889793396,-0.03835957124829292,-0.03159267455339432
1782830999176123100,5.635123046875,-0.030040089040994644,-0.045569248497486115,-0.037210613489151
1782830999186053400,5.645053466796875,-0.016864635050296783,-0.03407131880521774,-0.025813613086938858
1782830999195982300,5.654982421875,-0.002462005242705345,-0.015227358788251877,-0.004400851204991341
1782830999205912000,5.664912109375,0.004283248912543058,-0.004742760211229324,0.015345422551035881
1782830999215842300,5.67484228515625,0.003964629955589771,-0.0030384892597794533,0.030645616352558136
1782830999225771300,5.684771240234375,0.0014290343970060349,-0.009079603478312492,0.029916975647211075
1782830999235701200,5.694701171875,0.011316790245473385,-0.01285266038030386,0.026748448610305786
1782830999245630200,5.704630126953125,0.02161390334367752,0.0009331926703453064,0.01371786929666996
1782830999255560200,5.714560302734375,0.03127914294600487,0.009605291299521923,0.004110194277018309
1782830999265489200,5.7244892578125,0.03257770091295242,0.011406653560698032,-0.010058620944619179
1782830999275419100,5.734419189453125,0.023463264107704163,0.0016299337148666382,-0.019885247573256493
1782830999285349000,5.74434912109375,0.008373260498046875,-0.02259710803627968,-0.02360142208635807
1782830999295278300,5.7542783203125,-0.0027199042961001396,-0.04083859920501709,-0.019889729097485542
1782830999305208300,5.764208251953125,-0.0011819284409284592,-0.0499868243932724,-0.007967823185026646
1782830999315137000,5.774136962890625,0.013741539791226387,-0.029890550300478935,0.017180979251861572
1782830999325067300,5.7840673828125,0.021552592515945435,0.000673217698931694,0.03728704899549484
1782830999334996200,5.793996337890625,0.028301559388637543,0.02453795075416565,0.041157908737659454
1782830999344926200,5.80392626953125,0.019289955496788025,0.024332087486982346,0.02812572941184044
1782830999354855400,5.81385546875,0.011896655894815922,0.018310632556676865,0.01315668597817421
1782830999364785200,5.82378515625,-0.001957906410098076,0.028777655214071274,0.008415460586547852
1782830999374715400,5.83371533203125,-0.023024123162031174,0.01593463495373726,0.015683060511946678
1782830999384644400,5.843644287109375,-0.014905743300914764,0.009402698837220669,0.01923411898314953
1782830999394574000,5.853573974609375,0.004444436635822058,0.017033707350492477,0.0212862566113472
1782830999404503000,5.8635029296875,0.02192942053079605,0.030258964747190475,0.019518449902534485
1782830999414433300,5.873433349609375,0.03220536932349205,0.02124902233481407,0.01102711632847786
1782830999424362200,5.8833623046875,0.030016515403985977,-0.0015236679464578629,0.003850697074085474
1782830999434292200,5.893292236328125,0.01789606362581253,-0.032145287841558456,0.0004078713245689869
1782830999444221200,5.90322119140625,0.0009647505357861519,-0.06129332259297371,0.0012630126439034939
1782830999454151200,5.913151123046875,0.0002786954864859581,-0.07261855900287628,-0.0014186287298798561
1782830999464081400,5.923081298828125,0.0021008308976888657,-0.059021253138780594,-0.010819853283464909
1782830999474010000,5.933010009765625,0.020864762365818024,-0.027974605560302734,-0.011644688434898853
1782830999483940000,5.942940185546875,0.02631225809454918,0.0029428284615278244,-0.008952232077717781
1782830999493869300,5.952869384765625,0.022829953581094742,0.017674122005701065,-0.0073232329450547695
1782830999503800000,5.962800048828125,0.015324100852012634,0.013986174948513508,-0.005285382270812988
1782830999513730300,5.972730224609375,0.012819136492908001,0.004047539085149765,-0.004535643383860588
1782830999523659300,5.9826591796875,0.007053126581013203,-0.008231498301029205,0.0029694107361137867
1782830999533589200,5.99258935546875,-0.00040362589061260223,-0.022523216903209686,-0.0025671599432826042
1782830999543518200,6.002518310546875,0.0036931149661540985,-0.017815278843045235,-0.0012406394816935062
1782830999553448200,6.0124482421875,0.0020566899329423904,0.00589798204600811,0.016076790168881416
1782830999563377200,6.022377197265625,0.0026282044127583504,0.0358409658074379,0.035628121346235275
1782830999573307400,6.032307373046875,0.002702919766306877,0.03683387488126755,0.041393816471099854
1782830999583240700,6.04224072265625,0.008311537094414234,0.02618362568318844,0.040917374193668365
1782830999593169700,6.052169677734375,0.0037637827917933464,0.012391051277518272,0.036571204662323
1782830999603100000,6.062099853515625,-0.00851445458829403,-0.009942217729985714,0.03972651809453964
1782830999613028900,6.07202880859375,-0.01549533847719431,-0.005517235025763512,0.04973519966006279
1782830999622958800,6.081958740234375,-0.01582237333059311,0.00821162573993206,0.059506069868803024
1782830999632887800,6.0918876953125,-0.01574338972568512,0.0130466902628541,0.0609886609017849
1782830999642817800,6.10181787109375,-0.006608480587601662,0.008852210827171803,0.04741159826517105
1782830999652747000,6.1117470703125,0.009071513079106808,-0.005561553407460451,0.030713850632309914
1782830999662676700,6.1216767578125,0.010787920095026493,-0.024098752066493034,0.010357977822422981
1782830999672606700,6.131606689453125,0.013123337179422379,-0.009349601343274117,-0.001425288151949644
1782830999682536000,6.141535888671875,-0.004060444422066212,0.0013461858034133911,-0.005630419589579105
1782830999692465700,6.151465576171875,-0.02521437592804432,0.00878895167261362,-0.01216300018131733
1782830999702394600,6.16139453125,-0.04290948063135147,-0.004511140286922455,-0.032165735960006714
1782830999712324900,6.171324951171875,-0.03998355194926262,-0.013345660641789436,-0.043190788477659225
1782830999722253800,6.18125390625,-0.03290114179253578,-0.010532563552260399,-0.045714132487773895
1782830999732183800,6.191183837890625,-0.016505196690559387,-0.01656985655426979,-0.04355042055249214
1782830999742112800,6.20111279296875,-0.009643827565014362,-0.026886142790317535,-0.041106436401605606
1782830999752042800,6.211042724609375,-0.008345860056579113,-0.026446234434843063,-0.02382364682853222
1782830999761973000,6.220972900390625,-0.01719634234905243,-0.02659430541098118,-0.005410286132246256
1782830999771902000,6.23090185546875,-0.021847635507583618,-0.03612168878316879,0.013611175119876862
1782830999781831700,6.240831787109375,-0.01590852066874504,-0.03967354819178581,0.020895186811685562
1782830999791760600,6.2507607421875,-0.0012203510850667953,-0.03722139820456505,0.021418187767267227
1782830999801691000,6.26069091796875,0.013334357179701328,-0.027289938181638718,0.012377290055155754
1782830999811619800,6.270619873046875,0.01686449535191059,-0.015679966658353806,0.00802653282880783
1782830999821549800,6.2805498046875,0.006111450027674437,-0.011094536632299423,0.004988133441656828
1782830999831479800,6.290479736328125,-0.009983030147850513,-0.010474396869540215,-0.004903065040707588
1782830999841408800,6.30040869140625,-0.01793815940618515,-0.010886920616030693,-0.013768727891147137
1782830999851338800,6.3103388671875,-0.017828430980443954,0.0006754770874977112,-0.012577170506119728
1782830999861267700,6.320267822265625,-0.010804875753819942,0.010769922286272049,-0.00789373554289341
1782830999871197700,6.33019775390625,-0.0002600839361548424,0.010654088109731674,-0.003927165176719427
1782830999881127000,6.340126953125,0.00883860606700182,0.005524041131138802,0.0019086194224655628
1782830999891057000,6.350056884765625,0.008588965982198715,-0.0077478825114667416,0.010837394744157791
1782830999900985600,6.359985595703125,-0.00017070304602384567,-0.040941521525382996,0.018911832943558693
1782830999910915800,6.369915771484375,-0.008215009234845638,-0.0678144171833992,0.012265533208847046
1782830999920845800,6.379845703125,-0.011410537175834179,-0.05710318312048912,0.0032472717575728893
1782830999930774800,6.38977490234375,-0.004330124706029892,-0.025046225637197495,-0.00725260516628623
1782830999940704800,6.399704833984375,0.003228725865483284,0.010469957254827023,-0.018495405092835426
1782830999950633700,6.4096337890625,0.0030700797215104103,0.026445649564266205,-0.025372322648763657
1782830999960564000,6.41956396484375,-0.0006383722648024559,0.025244295597076416,-0.01251804269850254
1782830999970493000,6.429492919921875,-0.0073194727301597595,0.02343691885471344,0.009200673550367355
1782830999980422700,6.439422607421875,-0.012236732989549637,-0.0021765651181340218,0.017752615734934807
1782830999990352000,6.449351806640625,-0.007683251053094864,-0.02269771322607994,0.03170304000377655
1782831000000281900,6.45928173828125,-0.007512275129556656,-0.02684132568538189,0.03948160260915756
1782831000010211600,6.469211669921875,-0.005759205669164658,-0.03148563951253891,0.022317640483379364
1782831000020140800,6.479140869140625,-0.0036529116332530975,-0.024838387966156006,-0.0034532370045781136
1782831000030070800,6.48907080078125,-0.013410165905952454,-0.012798599898815155,-0.02993948385119438
1782831000039999700,6.498999755859375,-0.023107800632715225,-0.008715974166989326,-0.04208189994096756
1782831000049930000,6.508929931640625,-0.022921649739146233,-0.0005017342045903206,-0.03964463621377945
1782831000059858700,6.518858642578125,-0.012402964755892754,0.013141640461981297,-0.020242972299456596
1782831000069788700,6.52878857421875,-0.0008552391082048416,0.02169543132185936,0.01129598543047905
1782831000079719000,6.538718994140625,0.008694857358932495,0.007954317145049572,0.040583569556474686
1782831000089647900,6.54864794921875,0.013536335900425911,-0.018467780202627182,0.04291388392448425
1782831000099577900,6.558577880859375,0.002512979321181774,-0.03085440769791603,0.029265183955430984
1782831000109506800,6.5685068359375,-0.007430598139762878,-0.02765972726047039,0.0023450548760592937
1782831000119436800,6.578436767578125,-0.020756255835294724,-0.021554697304964066,-0.02413715235888958
1782831000129365800,6.58836572265625,-0.017183266580104828,-0.005500315222889185,-0.04534049704670906
1782831000139295700,6.598295654296875,0.0020886994898319244,0.02192944474518299,-0.04364512860774994
1782831000149224700,6.608224609375,0.017664559185504913,0.032051898539066315,-0.02537056803703308
1782831000159155000,6.618155029296875,0.017608899623155594,0.0040223971009254456,0.008237725123763084
1782831000169084700,6.628084716796875,0.008977366611361504,-0.019639525562524796,0.03891269490122795
1782831000179013600,6.638013671875,-0.002466769888997078,-0.029433567076921463,0.060963403433561325
1782831000188944000,6.64794384765625,-0.004107971675693989,-0.024699199944734573,0.058458708226680756
1782831000198872800,6.657872802734375,-0.0022730547934770584,-0.024992147460579872,0.030601512640714645
1782831000208802800,6.667802734375,0.011288056150078773,-0.01652020961046219,-0.0032154121436178684
1782831000218731800,6.677731689453125,0.020910855382680893,0.010400621220469475,-0.012384941801428795
1782831000228661800,6.687661865234375,0.014817306771874428,0.03532556816935539,0.0007246327586472034
1782831000238590700,6.6975908203125,-0.005334566347301006,0.0225442573428154,0.01392139308154583
1782831000248521000,6.70752099609375,-0.022598594427108765,-0.015091737732291222,0.0028014066629111767
1782831000258450700,6.71745068359375,-0.021752510219812393,-0.03372294455766678,-0.00585599709302187
1782831000268379600,6.727379638671875,-0.02663465216755867,-0.03686947003006935,-0.010588319972157478
1782831000278310000,6.737309814453125,-0.01593460515141487,-0.02837185561656952,-0.0008036005310714245
1782831000288238800,6.74723876953125,-0.011222407221794128,-0.017569009214639664,0.01750856265425682
1782831000298168800,6.7571689453125,-0.005063313990831375,-0.014031000435352325,0.026727626100182533
1782831000308097800,6.767097900390625,0.003943584859371185,-0.01280218642205,0.025244401767849922
1782831000318027800,6.77702783203125,0.008473621681332588,-0.008342190645635128,0.021586548537015915
1782831000327957000,6.78695703125,0.0017581060528755188,-0.008567791432142258,0.018078211694955826
1782831000337886700,6.79688671875,-0.011010153219103813,-0.017087509855628014,0.011495944112539291
1782831000347816700,6.806816650390625,-0.010721683502197266,-0.0015535270795226097,0.015200935304164886
1782831000357746000,6.816745849609375,-0.008187951520085335,0.014948217198252678,0.019830573350191116
1782831000367676000,6.826676025390625,-0.006228817626833916,0.011180817149579525,0.013834727928042412
1782831000377604600,6.8366044921875,0.00041150767356157303,-0.013483515940606594,0.004061724524945021
1782831000387534800,6.846534912109375,0.0004358096048235893,-0.004550054669380188,0.002416738774627447
1782831000397463800,6.8564638671875,-0.005081461742520332,0.025450721383094788,0.0030340594239532948
1782831000407393800,6.866393798828125,-0.010893167927861214,0.03486986830830574,0.005316718015819788
1782831000417323800,6.87632373046875,-0.01508232019841671,0.03163599222898483,0.001825846266001463
1782831000427252700,6.886252685546875,-0.01678856834769249,0.0346381738781929,0.0003713802434504032
1782831000437183000,6.896182861328125,-0.014848190359771252,0.019623003900051117,-0.005506481975317001
1782831000447112000,6.90611181640625,-0.014787173829972744,-0.013219472952187061,-0.009427557699382305
1782831000457041700,6.916041748046875,-0.019263949245214462,-0.024721931666135788,0.00814397819340229
1782831000466970600,6.925970703125,-0.033841751515865326,-0.019021527841687202,0.02893432043492794
1782831000476900900,6.93590087890625,-0.03385107219219208,-0.012097042985260487,0.03207018971443176
1782831000486829800,6.945829833984375,-0.02203419804573059,0.002037886530160904,0.017500566318631172
1782831000496759800,6.955759765625,-0.009680592454969883,0.024834811687469482,-0.007571231108158827
1782831000506689800,6.965689697265625,0.003297479823231697,0.031666070222854614,-0.028857821598649025
1782831000516618800,6.97561865234375,0.010596937499940395,0.018848808482289314,-0.03546512499451637
1782831000526548700,6.985548828125,0.005971033126115799,0.003084242343902588,-0.031100943684577942
1782831000536477700,6.995477783203125,-0.00010230578482151031,-0.0022761672735214233,-0.013263091444969177
1782831000546407700,7.00540771484375,-0.00834699161350727,-0.017817748710513115,0.007400800008326769
1782831000556337000,7.0153369140625,-0.009980043396353722,-0.03241480141878128,0.01569654792547226
1782831000566267000,7.025266845703125,0.0047592222690582275,-0.039540089666843414,0.016268061473965645
1782831000576195800,7.03519580078125,0.0183796938508749,-0.028431512415409088,0.013913294300436974
1782831000586122000,7.0451220703125,0.030785763636231422,-0.02313901111483574,0.003919781651347876
1782831000596052000,7.055052001953125,0.02939506061375141,-0.011510584503412247,0.0016246703453361988
1782831000605981200,7.064981201171875,0.012500343844294548,-0.0015552500262856483,-0.003234539646655321
1782831000615911000,7.074910888671875,-0.004419251345098019,0.011612217873334885,-0.011837614700198174
1782831000625839900,7.08483984375,-0.016397662460803986,0.003354005515575409,-0.023065978661179543
1782831000635770000,7.09477001953125,-0.018846705555915833,-0.00903741642832756,-0.02925436571240425
1782831000645699000,7.104698974609375,-0.019817348569631577,-0.020252598449587822,-0.019184255972504616
1782831000655629000,7.114629150390625,-0.012548781000077724,-0.026364287361502647,0.0011588330380618572
1782831000665559000,7.12455908203125,-0.0028888508677482605,-0.024708691984415054,0.02283695712685585
1782831000675488000,7.134488037109375,0.0011583548039197922,-0.011227505281567574,0.03878849372267723
1782831000685418200,7.144418212890625,0.01289878785610199,-0.003826221451163292,0.04581524804234505
1782831000695347000,7.154346923828125,0.008898453786969185,0.003579762764275074,0.040923021733760834
1782831000705277000,7.16427685546875,-0.003091348335146904,0.013420536182820797,0.02604558877646923
1782831000715206100,7.1742060546875,0.00048714131116867065,0.02290911227464676,0.006909708958119154
1782831000725136100,7.18413623046875,-0.001736183650791645,0.0331122912466526,-0.010055743157863617
1782831000735065000,7.194065185546875,-0.002783604897558689,0.030722372233867645,-0.02590155228972435
1782831000744995000,7.2039951171875,-0.005735225975513458,0.017619619145989418,-0.03289835900068283
1782831000754925000,7.213925048828125,-0.010247686877846718,-0.0016882997006177902,-0.03143814951181412
1782831000764854000,7.22385400390625,-0.010795509442687035,-0.017683275043964386,-0.019803447648882866
1782831000774784000,7.233783935546875,-0.003980746492743492,-0.029535938054323196,-0.0005250917747616768
1782831000784713000,7.243712890625,0.0014413977041840553,-0.018484119325876236,0.0259480569511652
1782831000794643200,7.253643310546875,0.0072249844670295715,-0.0023972950875759125,0.02740533836185932
1782831000804572200,7.263572265625,0.0016015125438570976,0.000583362765610218,0.01269489899277687
1782831000814502000,7.273501953125,-0.0014994721859693527,-0.0017495667561888695,-0.015318626537919044
1782831000824430800,7.283430908203125,-0.009984792210161686,-0.009425846859812737,-0.04486086219549179
1782831000834361000,7.293361083984375,-0.024735506623983383,-0.03351759910583496,-0.06704232841730118
1782831000844291000,7.303291015625,-0.03335457667708397,-0.0362866036593914,-0.06727933883666992
1782831000854220000,7.313219970703125,-0.0377969965338707,-0.0012255553156137466,-0.04375777021050453
1782831000864150000,7.32314990234375,-0.030997175723314285,0.016910672187805176,-0.016029957681894302
1782831000874079000,7.333078857421875,-0.022266536951065063,0.021228186786174774,-0.00012076599523425102
1782831000884009200,7.34300927734375,-0.014933302998542786,0.023549381643533707,0.006261290516704321
1782831000893938200,7.352938232421875,-0.010813659057021141,0.01893412321805954,0.0029312740080058575
1782831000903868000,7.362867919921875,-0.0036895740777254105,-0.0006182435899972916,0.0033358470536768436
1782831000913797000,7.372797119140625,-0.0023944787681102753,-0.006014606915414333,0.007536450866609812
1782831000923727000,7.38272705078125,-0.0023157233372330666,-0.0016482602804899216,0.00976886972784996
1782831000933657000,7.392656982421875,-0.0010898709297180176,-0.006484027951955795,0.00337462080642581
1782831000943586000,7.4025859375,-0.0009797951206564903,-0.008577331900596619,-0.0013213721103966236
1782831000953516000,7.41251611328125,-0.005266152322292328,-0.0064033931121230125,-0.00636726338416338
1782831000963445000,7.422445068359375,-0.010658083483576775,-0.0029831426218152046,-0.0077206287533044815
1782831000973375000,7.432375,-0.007247639819979668,0.004770384170114994,-0.0026851235888898373
1782831000983304000,7.442303955078125,-0.004124394617974758,0.01556436251848936,0.006322956178337336
1782831000993234200,7.452234130859375,-0.006753467954695225,0.02634323760867119,0.014371827244758606
1782831001003164200,7.4621640625,-0.006724794395267963,0.029590671882033348,0.019900929182767868
1782831001013093000,7.472093017578125,-0.014812282286584377,0.01962166093289852,0.013951161876320839
1782831001023023000,7.482023193359375,-0.0208146795630455,0.007674780674278736,0.007376885507255793
1782831001032952000,7.4919521484375,-0.02674660086631775,-0.0199536494910717,-0.01088867150247097
1782831001042882000,7.501882080078125,-0.021911684423685074,-0.04164592921733856,-0.019829703494906425
1782831001052811300,7.511811279296875,-0.014450040645897388,-0.03374272957444191,-0.01828480325639248
1782831001062741000,7.521740966796875,-0.005035211332142353,-0.012256473302841187,-0.01146860420703888
1782831001072670000,7.531669921875,-0.0007395315915346146,0.012081356719136238,-0.0023347605019807816
1782831001082600200,7.54160009765625,0.000818631611764431,0.030352741479873657,0.004274403210729361
1782831001092530000,7.551530029296875,-0.0009616920724511147,0.04366455227136612,0.009790075942873955
1782831001102459000,7.561458984375,-0.010460796765983105,0.04308152198791504,0.008024776354432106
1782831001112389000,7.57138916015625,-0.00935292150825262,0.026741433888673782,-0.0002741659991443157
1782831001122318000,7.581318115234375,-0.0010009976103901863,0.001520104706287384,-0.015451034530997276
1782831001132248000,7.591248046875,0.004967945162206888,-0.017247723415493965,-0.022229844704270363
1782831001142177000,7.601177001953125,0.0026102354750037193,-0.023864377290010452,-0.008255290798842907
1782831001152107000,7.61110693359375,-0.0021666763350367546,-0.0021518925204873085,0.008949263021349907
1782831001162036000,7.621035888671875,-0.0028460705652832985,0.008518987335264683,0.028754552826285362
1782831001171966000,7.630966064453125,0.00044240057468414307,0.009135243482887745,0.030833685770630836
1782831001181896000,7.64089599609375,0.01037284079939127,-0.0048479363322257996,0.01921372301876545
1782831001191825200,7.6508251953125,0.02490491233766079,-0.016247063875198364,0.013968359678983688
1782831001201755100,7.660755126953125,0.027476290240883827,-0.025398172438144684,0.01673400029540062
1782831001211684000,7.67068408203125,0.023080211132764816,-0.03207285329699516,0.0270827803760767
1782831001221614000,7.680614013671875,0.019900646060705185,-0.011164498515427113,0.022303422912955284
1782831001231543000,7.69054296875,0.018201284110546112,0.001704161986708641,0.0032594245858490467
1782831001241473000,7.70047314453125,0.014096971601247787,0.010114515200257301,-0.005660827271640301
1782831001251403000,7.710403076171875,0.005414533894509077,0.017602792009711266,0.0015219845809042454
1782831001261332000,7.72033203125,-0.00239651370793581,0.010358555242419243,0.026171067729592323
1782831001271262200,7.73026220703125,0.004796951077878475,0.007894864305853844,0.04439321532845497
1782831001281191200,7.740191162109375,0.010024742223322392,-0.010759228840470314,0.05862041562795639
1782831001291121000,7.750120849609375,0.016934581100940704,-0.01199573464691639,0.0557633712887764
1782831001301049900,7.7600498046875,0.02330654114484787,0.003109636716544628,0.043339889496564865
1782831001310980000,7.76997998046875,0.015089090913534164,0.018174339085817337,0.02027984708547592
1782831001320909000,7.779908935546875,0.005098944529891014,0.024553630501031876,-0.0048393006436526775
1782831001330839000,7.789839111328125,-0.0057302676141262054,0.010931295342743397,-0.021913625299930573
1782831001340769000,7.79976904296875,-0.005933790467679501,-0.0007094303146004677,-0.02781791239976883
1782831001350698000,7.809697998046875,0.0036812853068113327,-0.00016614515334367752,-0.009264735504984856
1782831001360628200,7.819628173828125,0.011529088951647282,0.006581772118806839,0.011919645592570305
1782831001370557200,7.82955712890625,0.0035116421058773994,0.0010421304032206535,0.018765835091471672
1782831001380487000,7.83948681640625,0.0024925367906689644,0.007114074192941189,0.02062680944800377
1782831001390416100,7.849416015625,-0.0067723337560892105,0.00988695863634348,0.013036534190177917
1782831001400346000,7.85934619140625,-0.013741905800998211,-0.009296244010329247,0.00830765813589096
1782831001410275000,7.869275146484375,-0.011979958973824978,-0.024213407188653946,0.0027317977510392666
1782831001420205000,7.879205078125,0.0016970662400126457,-0.03225557506084442,-0.0019626100547611713
1782831001430135000,7.889135009765625,0.00713737215846777,-0.03761811554431915,-0.0072585721500217915
1782831001440064000,7.89906396484375,0.011875055730342865,-0.02881336212158203,-0.0050142258405685425
1782831001449994000,7.908993896484375,0.0019550472497940063,-0.01581474021077156,0.0008186292834579945
1782831001459923000,7.9189228515625,-0.007331961765885353,-0.007371970452368259,-0.0005604489706456661
1782831001469853200,7.928853271484375,-0.013300638645887375,0.0009125908836722374,-0.0022672689519822598
1782831001479782100,7.9387822265625,-0.011464540846645832,0.017174825072288513,-0.0005189101211726665
1782831001489711900,7.9487119140625,-0.003334709443151951,0.03493065387010574,0.016701888293027878
1782831001499642000,7.95864208984375,-0.000040763989090919495,0.03322550654411316,0.04103806987404823
1782831001509571000,7.968571044921875,-0.001332663930952549,0.01018943265080452,0.05009414628148079
1782831001519501000,7.9785009765625,-0.0006872368976473808,-0.013151247054338455,0.04752408713102341
1782831001529430300,7.98843017578125,-0.001032915897667408,-0.02167150005698204,0.029947757720947266
1782831001539360000,7.998360107421875,-0.0030678370967507362,-0.021287204697728157,0.0038810032419860363
1782831001549289000,8.0082890625,-0.008228509686887264,-0.003690633922815323,-0.024507761001586914
1782831001559219200,8.01821923828125,-0.009648989886045456,0.015823975205421448,-0.030597075819969177
1782831001569148200,8.028148193359375,-0.012050095945596695,0.03554095700383186,-0.002743074670433998
1782831001579078000,8.038077880859374,-0.01392343919724226,0.03431093320250511,0.0265358779579401
1782831001589008100,8.048008056640626,-0.009839746169745922,0.002148205414414406,0.03502123802900314
1782831001598937000,8.05793701171875,-0.0002335384488105774,-0.03153271600604057,0.025359127670526505
1782831001608867000,8.0678671875,0.0045484332367777824,-0.03341636806726456,0.0033419751562178135
1782831001618796000,8.077796142578125,-0.0024302760139107704,-0.012966157868504524,-0.010623903945088387
1782831001628726000,8.08772607421875,-0.01816929131746292,0.005630962550640106,-0.012983463704586029
1782831001638655000,8.097655029296876,-0.027163557708263397,0.016614794731140137,-0.011067423038184643
1782831001648585000,8.1075849609375,-0.025463394820690155,0.009103081189095974,-0.011315629817545414
1782831001658514000,8.117513916015625,-0.005707455798983574,0.003783867694437504,-0.01607932522892952
1782831001668444200,8.127444091796875,0.005105244927108288,-0.002652459777891636,-0.022116711363196373
1782831001678374100,8.1373740234375,0.0053040082566440105,-0.016921907663345337,-0.02887619286775589
1782831001688303000,8.14730322265625,-0.002856716513633728,-0.0233321376144886,-0.022050244733691216
1782831001698233000,8.157233154296875,-0.02035648748278618,-0.015531801618635654,-0.007517797872424126
1782831001708162000,8.167162109375,-0.03142991289496422,-0.015029795467853546,0.0075285290367901325
1782831001718092000,8.177092041015625,-0.02462737262248993,-0.014284756034612656,0.016673188656568527
1782831001728021200,8.187021240234374,-0.006358089856803417,-0.007737907115370035,0.01560925506055355
1782831001737951000,8.196950927734376,0.011107641272246838,0.0020559504628181458,0.005374029744416475
1782831001747880000,8.2068798828125,0.01127009466290474,0.009373784065246582,-0.00034697260707616806
1782831001757810200,8.21681005859375,-0.005734527483582497,0.011207730509340763,0.002457760740071535
1782831001767740000,8.226739990234375,-0.028850767761468887,0.017443522810935974,0.007330812979489565
1782831001777668900,8.2366689453125,-0.040968023240566254,0.008912021294236183,-0.0009043700993061066
1782831001787599000,8.24659912109375,-0.033813975751399994,0.0002900380641222,-0.0178252961486578
1782831001797528000,8.256528076171875,-0.018324775621294975,-0.011284624226391315,-0.033191584050655365
1782831001807458000,8.2664580078125,-0.007456948980689049,-0.022248059511184692,-0.03095240145921707
1782831001817387000,8.276386962890625,-0.0075164902955293655,-0.0125625841319561,-0.012115474790334702
1782831001827317000,8.28631689453125,-0.013996493071317673,0.0035615237429738045,0.004780417773872614
1782831001837247200,8.296247314453124,-0.01690000109374523,0.00487158540636301,0.0053219362162053585
1782831001847176200,8.30617626953125,-0.008112633600831032,0.01674662157893181,0.0030246940441429615
1782831001857106000,8.31610595703125,-0.00327890831977129,0.016733866184949875,-0.0012785536237061024
1782831001867035100,8.32603515625,0.0015118522569537163,-0.000344984233379364,-0.01300924550741911
1782831001876965000,8.335965087890624,0.009427373297512531,-0.020517989993095398,-0.012382496148347855
1782831001886894000,8.34589404296875,0.011502508074045181,-0.011798799969255924,0.0007458231411874294
1782831001896824000,8.355823974609375,0.01734236814081669,-0.011053992435336113,0.01417258195579052
1782831001906753000,8.3657529296875,0.015558582730591297,-0.01771935261785984,0.014022380113601685
1782831001916683000,8.37568310546875,0.011480508372187614,-0.019430292770266533,0.006211698520928621
1782831001926613000,8.385613037109374,-0.0018984144553542137,0.008395212702453136,0.0026563783176243305
1782831001936542000,8.3955419921875,-0.009517451748251915,0.02109449729323387,0.0015860539861023426
1782831001946472200,8.40547216796875,-0.0030385134741663933,0.01776021718978882,0.003838022705167532
1782831001956401200,8.415401123046875,0.007922738790512085,0.0233464352786541,0.008511869236826897
1782831001966331000,8.425330810546875,0.015697304159402847,0.03351225331425667,0.012712473049759865
1782831001976259800,8.435259765625,0.016173267737030983,0.026254652068018913,0.01872461847960949
1782831001986190000,8.445190185546876,0.0020545190200209618,0.0060284752398729324,0.025633923709392548
1782831001996119000,8.455119140625,-0.017558233812451363,-0.020686177536845207,0.013749780133366585
1782831002006049300,8.46504931640625,-0.029190387576818466,-0.03347520902752876,-0.005602079443633556
1782831002015979000,8.47497900390625,-0.03174809366464615,-0.035216398537158966,-0.031465690582990646
1782831002025908000,8.484907958984374,-0.023705346509814262,-0.02555391751229763,-0.040366508066654205
1782831002035838200,8.494838134765626,-0.01832720637321472,-0.0008681891486048698,-0.03309101238846779
1782831002045767200,8.50476708984375,-0.016778312623500824,0.012476112693548203,-0.01762497052550316
1782831002055697000,8.51469677734375,-0.018188800662755966,0.017040587961673737,0.0068341330625116825
1782831002065626000,8.524626220703125,-0.017477737739682198,0.011980845592916012,0.02334573306143284
1782831002075556000,8.53455615234375,-0.013177056796848774,0.007358616217970848,0.029086114838719368
1782831002085485800,8.54448583984375,-0.008382833562791348,0.004289323464035988,0.021736323833465576
1782831002095415000,8.5544150390625,-0.006035217083990574,0.0036532776430249214,0.013572415336966515
1782831002105345000,8.564344970703125,-0.009497060440480709,0.014728565700352192,0.0207003653049469
1782831002115274000,8.57427392578125,-0.009054136462509632,0.02638096548616886,0.030151814222335815
1782831002125204000,8.584203857421874,-0.011370819993317127,0.034090280532836914,0.02132503129541874
1782831002135133000,8.5941328125,-0.000639340840280056,0.028292864561080933,0.002531693782657385
1782831002145063200,8.604063232421876,0.005437193904072046,0.018307339400053024,-0.0009871404618024826
1782831002154992000,8.6139921875,0.0055833663791418076,0.005498963408172131,0.009098028764128685
1782831002164922000,8.623922119140625,0.0064073484390974045,0.0026392610743641853,0.02355979196727276
1782831002174852000,8.63385205078125,0.0006029270589351654,-0.0011372435837984085,0.02539205364882946
1782831002184781000,8.643781005859376,-0.00520569272339344,0.01277883816510439,0.024750499054789543
1782831002194711000,8.6537109375,-0.013144655153155327,0.017131056636571884,0.007148704957216978
1782831002204640300,8.66364013671875,-0.016084518283605576,-0.00028974656015634537,-0.02110317349433899
1782831002214570000,8.673570068359375,-0.012980101630091667,-0.007239688187837601,-0.03516749292612076
1782831002224499000,8.6834990234375,-0.00883994996547699,-0.00004782155156135559,-0.023407770320773125
1782831002234429200,8.69342919921875,0.0005364175885915756,0.008733387105166912,-0.004019846208393574
1782831002244358100,8.703358154296875,0.012633826583623886,0.019669659435749054,0.01451096124947071
1782831002254288000,8.713287841796875,0.018593935295939445,0.011908924207091331,0.021828319877386093
1782831002264218000,8.723218017578125,0.012882519513368607,-0.001435643993318081,0.012441208586096764
1782831002274147000,8.73314697265625,0.01093245204538107,0.0018836595118045807,0.00333985174074769
1782831002284077000,8.7430771484375,0.004353112541139126,0.00714420061558485,-0.01623491384088993
1782831002294006000,8.753006103515625,-0.002612845040857792,0.00021536089479923248,-0.022482050582766533
1782831002303936000,8.76293603515625,-0.002547597512602806,-0.012603231705725193,-0.015396177768707275
1782831002313865000,8.772864990234375,0.008666079491376877,0.0015713954344391823,0.014029141515493393
1782831002323795200,8.782795166015624,0.017481941729784012,0.014897587709128857,0.03587505221366882
1782831002333724000,8.792723876953126,0.02606850489974022,0.001160736195743084,0.035105131566524506
1782831002343654100,8.802654052734376,0.02126709371805191,-0.01330422330647707,0.020665472373366356
1782831002353584000,8.812584228515625,0.010698388330638409,-0.020694730803370476,-0.0005165087059140205
1782831002363513000,8.82251318359375,0.004231433849781752,-0.014201145619153976,-0.024276966229081154
1782831002373443000,8.832443115234375,-0.007643481716513634,-0.0006827507168054581,-0.033720482140779495
1782831002383372000,8.8423720703125,-0.014164231717586517,0.007181030698120594,-0.024615401402115822
1782831002393302000,8.852302001953126,-0.014534588903188705,-0.0017575714737176895,-0.012636082246899605
1782831002403231200,8.862231201171875,-0.0015761787071824074,-0.01373806782066822,-0.002283576875925064
1782831002413161000,8.872160888671875,0.009897620417177677,-0.008151225745677948,0.009736072272062302
1782831002423091000,8.882091064453125,0.01121029257774353,0.0011650444939732552,0.020526135340332985
1782831002433020200,8.892020263671874,0.001202637329697609,0.0073487479239702225,0.017044689506292343
1782831002442950000,8.901949951171876,-0.011247907765209675,0.02093246765434742,0.008274899795651436
1782831002452878800,8.91187890625,-0.02031354419887066,0.02427915297448635,-0.010016593150794506
1782831002462809000,8.92180908203125,-0.026010846719145775,0.022801632061600685,-0.024849867448210716
1782831002472738000,8.931738037109374,-0.025302015244960785,0.02002735435962677,-0.027567893266677856
1782831002482668300,8.941668212890624,-0.014090372249484062,0.0064500244334340096,-0.0203094482421875
1782831002492597000,8.951596923828125,-0.009578654542565346,-0.0013268915936350822,-0.007252175826579332
1782831002502527000,8.96152685546875,-0.0075802188366651535,-0.017428897321224213,0.002306974958628416
1782831002512457200,8.971457275390625,-0.0022830944508314133,-0.01682005077600479,0.0046971081756055355
1782831002522386200,8.98138623046875,0.0027627963572740555,-0.0022592172026634216,0.0009399210102856159
1782831002532316000,8.99131591796875,0.0022223452106118202,0.020231397822499275,-0.010548902675509453
1782831002542245000,9.0012451171875,0.002214089035987854,0.03681889921426773,-0.02165774628520012
1782831002552175000,9.011175048828125,-0.004724487662315369,0.05105523392558098,-0.023169783875346184
1782831002562104000,9.02110400390625,-0.009794080629944801,0.05173620209097862,-0.017158230766654015
1782831002572034000,9.031033935546875,-0.011161013506352901,0.036245547235012054,-0.004137720912694931
1782831002581963000,9.040962890625,-0.01708121970295906,0.019348591566085815,0.0018682400695979595
1782831002591897300,9.0508974609375,-0.01811908558011055,0.003931127488613129,-0.0038779592141509056
1782831002601827000,9.0608271484375,-0.01207157876342535,-0.0060669113881886005,-0.024980846792459488
1782831002611756000,9.070756103515626,-0.0076798200607299805,-0.005016435403376818,-0.048113055527210236
1782831002621686300,9.080686279296875,-0.012582434341311455,-0.016772693023085594,-0.0598037987947464
1782831002631615200,9.090615234375,-0.021800832822918892,-0.03920178860425949,-0.059187181293964386
1782831002641545000,9.100544921875,-0.030348511412739754,-0.0570223294198513,-0.0471574142575264
1782831002651474200,9.11047412109375,-0.028851039707660675,-0.04939091578125954,-0.03799464926123619
1782831002661404200,9.120404052734376,-0.019028769806027412,-0.03135998547077179,-0.025507085025310516
1782831002671333000,9.1303330078125,-0.007982213981449604,-0.007520009763538837,-0.010665924288332462
1782831002681263000,9.14026318359375,0.0035290326923131943,0.012504564598202705,0.0003811339847743511
1782831002691193000,9.150193115234375,0.010915770195424557,0.028145138174295425,0.006206158082932234
1782831002701122300,9.160122314453124,0.00969737395644188,0.03471968322992325,0.017202084884047508
1782831002711052300,9.17005224609375,0.0002437792718410492,0.03542733192443848,0.02226043865084648
1782831002720981200,9.179981201171875,-0.00633982103317976,0.009865246713161469,0.026631219312548637
1782831002730911200,9.1899111328125,-0.01264143269509077,-0.01763722114264965,0.028484361246228218
1782831002740840200,9.199840087890625,-0.007071697153151035,-0.032836414873600006,0.028888894245028496
1782831002750770200,9.209770263671874,-0.00044742319732904434,-0.03362061828374863,0.02292490191757679
1782831002760700200,9.2197001953125,0.010288311168551445,-0.015861861407756805,0.014491204172372818
1782831002770629000,9.229629150390625,0.013345438055694103,-0.0058584799990057945,0.009341280907392502
1782831002780559000,9.23955908203125,0.01227058656513691,0.006824024952948093,0.0020639258436858654
1782831002790488300,9.24948828125,0.0060496861115098,0.005938119255006313,0.005942449439316988
1782831002800418000,9.25941796875,-0.0008907783776521683,-0.0008233804255723953,0.008704148232936859
1782831002810347000,9.269346923828126,-0.0016233092173933983,-0.0004363618791103363,0.023679373785853386
1782831002820277200,9.27927734375,-0.0029969681054353714,-0.003088603727519512,0.030333014205098152
1782831002830206200,9.289206298828125,0.0031963083893060684,0.00016795657575130463,0.017703983932733536
1782831002840136200,9.29913623046875,0.0020524803549051285,-0.004760488867759705,0.004986324813216925
1782831002850066200,9.309066162109374,0.0019819578155875206,-0.007121083792299032,-0.008161964826285839
1782831002859994000,9.318994140625,0.000012284144759178162,0.0006380360573530197,-0.013170305639505386
1782831002869924000,9.328924072265625,-0.0048941317945718765,0.012088123708963394,-0.010352788493037224
1782831002879853300,9.338853271484375,-0.008664634078741074,0.014493225142359734,-0.006163903046399355
1782831002889783000,9.348782958984375,-0.006612209603190422,0.01860550418496132,-0.001390028279274702
1782831002899712000,9.3587119140625,-0.0018741795793175697,0.01831362396478653,-0.004554396495223045
1782831002909642200,9.368642333984376,0.003743932582437992,0.005866240710020065,-0.003447740338742733
1782831002919571200,9.3785712890625,0.005896565970033407,-0.013309051282703876,-0.006454715505242348
1782831002929501200,9.388501220703125,0.006405921187251806,-0.02419692650437355,-0.011357657611370087
1782831002939430100,9.39843017578125,0.006216303911060095,-0.02366562746465206,-0.020969804376363754
1782831002949360000,9.408360107421874,0.010188850574195385,-0.014727557078003883,-0.030549615621566772
1782831002959290400,9.418290283203126,0.007081474643200636,-0.006805452052503824,-0.02807207591831684
1782831002969219300,9.42821923828125,-0.000858597457408905,-0.000220458023250103,-0.023012980818748474
1782831002979149000,9.438149169921875,-0.011966110207140446,-0.009748449549078941,-0.022362370043992996
1782831002989078300,9.448078369140624,-0.013408421538770199,-0.018681179732084274,-0.02326325699687004
1782831002999008300,9.45800830078125,-0.005692712031304836,-0.017899807542562485,-0.019313521683216095
1782831003008937200,9.467937255859376,0.0045245736837387085,-0.007671245839446783,-0.0039840517565608025
1782831003018867200,9.4778671875,0.012471978552639484,0.0062142107635736465,0.018293824046850204
1782831003028796200,9.487796142578125,0.01632988080382347,0.010171682573854923,0.03504052013158798
1782831003038726100,9.49772607421875,0.020680686458945274,0.0030844779685139656,0.03995911404490471
1782831003048656100,9.50765625,0.02131446823477745,0.002179238945245743,0.03519977629184723
1782831003058585000,9.517585205078126,0.01134971808642149,0.002234100364148617,0.019035188481211662
1782831003068515000,9.52751513671875,0.003016367554664612,0.0024388646706938744,-0.0010029706172645092
1782831003078444300,9.5374443359375,0.002688266336917877,-0.0035660313442349434,-0.013776023872196674
1782831003088374000,9.5473740234375,0.006722666788846254,-0.013083775527775288,-0.02816758304834366
1782831003098303000,9.557302978515626,0.018752431496977806,-0.0061595565639436245,-0.024171510711312294
1782831003108233200,9.567233154296876,0.028541944921016693,-0.0005797017365694046,-0.013929526321589947
1782831003118162200,9.577162109375,0.028550468385219574,0.002254168502986431,-0.0019583506509661674
1782831003128092400,9.587092529296875,0.021166373044252396,0.0019231680780649185,0.01947690173983574
1782831003138022100,9.597022216796875,0.000911966897547245,0.012031994760036469,0.02767491154372692
1782831003147951000,9.606951171875,-0.003410179167985916,0.010832177475094795,0.019338946789503098
1782831003157881300,9.61688134765625,0.004894888028502464,0.007640378549695015,-0.007738743908703327
1782831003167810300,9.626810302734375,0.01661638543009758,0.0048357415944337845,-0.02738317660987377
1782831003177740000,9.636739990234375,0.027279416099190712,0.005750272423028946,-0.03241654857993126
1782831003187669200,9.646669189453124,0.029780123382806778,0.004252776503562927,-0.0227426178753376
1782831003197599200,9.65659912109375,0.014774543233215809,0.005579829216003418,-0.014235150068998337
1782831003207528200,9.666528076171875,-0.003095461055636406,0.00854862667620182,-0.01644147001206875
1782831003217458200,9.676458251953125,-0.029570475220680237,0.01137290894985199,-0.04189250245690346
1782831003227388200,9.68638818359375,-0.04317929968237877,0.025170590728521347,-0.06837662309408188
1782831003237318400,9.696318359375,-0.0553337000310421,0.05521664023399353,-0.07443372160196304
1782831003247248100,9.706248046875,-0.05463280528783798,0.06588390469551086,-0.0565418042242527
1782831003257177000,9.716177001953126,-0.05663364380598068,0.05942520499229431,-0.022316455841064453
1782831003267107300,9.726107421875,-0.038803599774837494,0.0644335076212883,-0.017772724851965904
1782831003277037000,9.736037109375,-0.00905715674161911,0.09907111525535583,-0.04415639489889145
1782831003286966000,9.745966064453125,0.00014677923172712326,0.1539463847875595,-0.0845823809504509
1782831003296896300,9.755896240234375,0.003941250964999199,0.25101593136787415,-0.1305844932794571
1782831003306825200,9.7658251953125,-0.034482188522815704,0.35383278131484985,-0.13500002026557922
1782831003316755000,9.7757548828125,-0.0695568174123764,0.3694343864917755,-0.12555032968521118
1782831003326684200,9.78568408203125,-0.06515111029148102,0.2964640259742737,-0.14065396785736084
1782831003336614100,9.7956142578125,-0.028620261698961258,0.25945544242858887,-0.07932163029909134
1782831003346543000,9.805543212890624,-0.004613661207258701,-0.03011738695204258,-0.048547159880399704
1782831003356473000,9.81547314453125,0.07036950439214706,-0.2623263895511627,-0.04413963109254837
1782831003366403000,9.825403076171876,0.09539521485567093,-0.3259808421134949,-0.030833400785923004
1782831003376332300,9.835332275390625,0.05995413661003113,-0.25754931569099426,-0.02984909527003765
1782831003386262300,9.84526220703125,0.023338474333286285,-0.12839126586914062,-0.05274919420480728
1782831003396191200,9.855191162109374,0.00011144950985908508,-0.018184872344136238,-0.040306370705366135
1782831003406121200,9.865121337890624,-0.01616041362285614,0.01961526647210121,-0.003155273851007223
1782831003416050200,9.87505029296875,-0.00264726672321558,-0.024824369698762894,0.043753646314144135
1782831003425980200,9.884980224609375,0.04046797379851341,-0.10249867290258408,0.09443327784538269
