time,seconds_elapsed,z,y,x
1782832154082302200,0.09030224609375,0.26931027736663815,-0.5886608891874552,0.06628748570419847
1782832154092231400,0.1002314453125,0.37876901547312736,-0.5368681581079959,0.2298765309922397
1782832154102159600,0.11015966796875,0.41430385471284387,-0.5052208278261124,0.34645927575975655
1782832154112088300,0.12008837890625,0.252227040618658,-0.5143867155782879,0.4380790633801371
1782832154122017300,0.130017333984375,0.12988251745402812,-0.5360835836015642,0.41885070436224336
1782832154131946200,0.1399462890625,0.06629179655313491,-0.49914808378368614,0.3159345928322524
1782832154141874400,0.14987451171875,0.1435994926393032,-0.39891894631534813,0.2753063759762794
1782832154151803400,0.159803466796875,0.28482173475325107,-0.3126949533239007,0.31002756074555216
1782832154161732400,0.169732421875,0.3123801882863045,-0.27482582591772076,0.40533977314308284
1782832154171661300,0.179661376953125,0.30292554672062394,-0.3239483148746192,0.5132660409852862
1782832154181590300,0.18959033203125,0.25497663158774375,-0.3273319659635424,0.503441397063434
1782832154191518200,0.199518310546875,0.19629647908210754,-0.2600216400176287,0.4453817145437002
1782832154201447400,0.209447509765625,0.11936229248344897,-0.18418840039819478,0.36461993248090147
1782832154211376400,0.21937646484375,0.02638882523179054,-0.17906185116469858,0.2581639563869685
1782832154221305300,0.229305419921875,-0.04959025259912014,-0.1885645696558058,0.22002755634672938
1782832154231233300,0.2392333984375,-0.04014437886178493,-0.17737404420822858,0.27249241453409195
1782832154241162200,0.249162353515625,0.0468207878857851,-0.15022183338850736,0.36530159460213035
1782832154251091500,0.259091552734375,0.026959903118014335,-0.11055427825823426,0.4665971922582015
1782832154261020400,0.2690205078125,-0.06611468642055988,-0.08972966302484274,0.5135838747628033
1782832154270948400,0.2789482421875,-0.1576642583489418,-0.03538622454926371,0.4767532600915059
1782832154280877300,0.288877197265625,-0.28608897821009155,0.03648278761431575,0.4512734029307961
1782832154290806300,0.29880615234375,-0.36809447672367096,0.08892389959990978,0.40419005511868744
1782832154300735500,0.308735595703125,-0.37918168792724605,0.10036299298107623,0.402085520587489
1782832154310663400,0.318663330078125,-0.3003226707458496,0.12017127077877521,0.43431949165090916
1782832154320592400,0.32859228515625,-0.16679858191907404,0.1935176620185375,0.47262891017049546
1782832154330521300,0.338521240234375,-0.15837795957624912,0.23113412983790038,0.4356732078148052
1782832154340450600,0.348450439453125,-0.14582242938578127,0.25150047990977764,0.4388393436955288
1782832154350378500,0.35837841796875,-0.17500643829405307,0.24998159977942705,0.4561911317192018
1782832154360307500,0.368307373046875,-0.10783961247205734,0.29811420091614127,0.47454453453347084
1782832154370236400,0.378236328125,-0.015344284126162528,0.4592237774133682,0.5253049268905073
1782832154380165400,0.388165283203125,-0.044885435909032816,0.5864680553182959,0.5230906118419021
1782832154390093300,0.39809326171875,-0.03226619283258915,0.5623607651524245,0.4713572827994823
1782832154400022500,0.4080224609375,-0.02521335171163082,0.5032208861805498,0.46155313367638734
1782832154409951500,0.417951416015625,0.06858487592637538,0.5020255389161408,0.48270325453709806
1782832154419880400,0.42788037109375,0.215238495439291,0.5076745045885444,0.4823113326100632
1782832154429808400,0.437808349609375,0.2876712789654732,0.5028713420905172,0.43179698743596673
1782832154439737300,0.4477373046875,0.33337212291061874,0.4998582778796553,0.33887481198012825
1782832154449666600,0.45766650390625,0.4131120145797729,0.5225079165831208,0.22301879231827332
1782832154459595500,0.467595458984375,0.41035248673856256,0.5203451855912804,0.13381086987890303
1782832154469524500,0.4775244140625,0.4462877234727144,0.503132915636152,0.03585502937110141
1782832154479452400,0.487452392578125,0.42600422937870025,0.5035496797434985,0.033768359290156515
1782832154489381400,0.49738134765625,0.3692775490283966,0.4302370446428656,-0.03646181789152324
1782832154499310600,0.507310546875,0.3214624894082546,0.3536101704277098,-0.08462797423796728
1782832154509239600,0.517239501953125,0.13745850566625595,0.26927301409617066,-0.2262581943646073
1782832154519167500,0.52716748046875,0.045026305684447286,0.21544877718910574,-0.36568851156048476
1782832154529096400,0.537096435546875,-0.04454349060356617,0.21455840422064065,-0.5292139535604045
1782832154539025400,0.547025390625,-0.15506138237416744,0.22916049167737362,-0.6616324557654559
1782832154548954400,0.556954345703125,-0.2961211274027824,0.20019377878159283,-0.7544673913292587
1782832154558882600,0.566882568359375,-0.4242845659792423,0.11268500667661428,-0.8583730984184891
1782832154568811500,0.5768115234375,-0.5533312171310186,0.02593684368059039,-0.817143919994682
1782832154578740500,0.586740478515625,-0.6428934146344661,-0.06566445843502879,-0.7434861247181892
1782832154588669200,0.596669189453125,-0.5752040262430906,-0.11173691217154263,-0.7185781856939196
1782832154598597600,0.60659765625,-0.41157296844422814,-0.030026597212255,-0.7251130673553794
1782832154608526600,0.616526611328125,-0.20579320622384548,0.0642651130311191,-0.7705400627952068
1782832154618455300,0.626455322265625,0.053205520486831664,0.04926379712373018,-0.8169809114526957
1782832154628384300,0.63638427734375,0.17178630720376967,-0.07571355876252055,-0.847233937831968
1782832154638312400,0.6463125,0.42283612073659893,-0.21540902970060705,-0.8101160671845078
1782832154648241400,0.656241455078125,0.6339823784261942,-0.25428528832271696,-0.8103009222321211
1782832154658170400,0.66617041015625,0.6346943260878324,-0.35163302513584493,-0.8258946510747075
1782832154668099300,0.676099365234375,0.641088411039114,-0.5559726715505123,-0.8236698146320879
1782832154678028300,0.6860283203125,0.7491665084421634,-0.6632233782187104,-0.7413090729400515
1782832154687956200,0.695956298828125,0.8111439489275216,-0.6344751303791999,-0.618604265095666
1782832154697885400,0.705885498046875,0.8164695278644561,-0.6352158657439053,-0.5823211647719144
1782832154707814400,0.715814453125,0.8752169003874063,-0.6607423750579356,-0.6192990424267947
1782832154717743400,0.725743408203125,0.7509656668186188,-0.664363488164544,-0.6242579069431871
1782832154727671300,0.73567138671875,0.6109165601372718,-0.7260827161051333,-0.6003661592241376
1782832154737600300,0.745600341796875,0.5998018764048815,-0.7442730373121798,-0.4945848309887573
1782832154747529500,0.755529541015625,0.5402975480347871,-0.7243845338851213,-0.47996261405944823
1782832154757458400,0.76545849609375,0.6262877322703599,-0.7296585287652909,-0.5248524338826537
1782832154767386400,0.775386474609375,0.7111363452553748,-0.7647694435045123,-0.47976983143370594
1782832154777315300,0.7853154296875,0.7612135045886039,-0.8167104970134794,-0.3400466322384775
1782832154787244300,0.795244384765625,0.8474404201894998,-0.8465750355318188,-0.21456810363074763
1782832154797173500,0.805173583984375,0.875696792858839,-0.8827424735866487,-0.14710202086754143
1782832154807101400,0.815101318359375,0.7758972789794206,-0.8831460859514773,-0.13807815366825088
1782832154817030400,0.825030517578125,0.6198807878375053,-0.9226672183483838,-0.10543704484235494
1782832154826959400,0.83495947265625,0.5342588523924351,-0.963065352775529,-0.09238772151926532
1782832154836888300,0.844888427734375,0.5624105956435204,-0.9173538413058966,-0.12169946672674267
1782832154846816300,0.854816162109375,0.47624914649426936,-0.8638893776219337,-0.09160743959546089
1782832154856745500,0.864745361328125,0.38670740725696084,-0.8948797783650457,-0.026071886503417043
1782832154866674400,0.87467431640625,0.2579091779083013,-0.9255411663495003,0.07260956486519425
1782832154876603400,0.884603271484375,0.03461129465401173,-0.9202221632838249,0.12621445993315428
1782832154886531300,0.89453125,-0.10017886858582496,-0.9113597154576331,0.05573458230672404
1782832154896460300,0.904460205078125,-0.1485223359942436,-0.8779594770938157,-0.03413134738365188
1782832154906389500,0.914389404296875,-0.31789515231549736,-0.8659748055938631,-0.06629026218317449
1782832154916318500,0.924318359375,-0.5121469738274812,-0.9455874906867742,-0.10440348227722569
1782832154926246400,0.934246337890625,-0.6083125151187181,-1.035955890006572,-0.05727896220451221
1782832154936175400,0.94417529296875,-0.7013210536837577,-1.0527276496525853,-0.0025245865741744637
1782832154946104600,0.9541044921875,-0.7384849554300308,-1.0347833390958607,0.010087897967919706
1782832154956033500,0.964033447265625,-0.8357786239683628,-1.0483564488310366,0.01307606519954279
1782832154965962500,0.97396240234375,-1.028368065226078,-1.0596155825354159,0.010453096284810453
1782832154975890400,0.983890380859375,-1.2086053899109364,-1.0622964921824634,-0.020040241656359283
1782832154985819400,0.9938193359375,-1.3254507311373949,-1.0316928987998515,-0.012593213586043565
1782832154995748600,1.00374853515625,-1.38290221863091,-0.9912650268215686,-0.019498901321273295
1782832155005677600,1.013677490234375,-1.354878485673666,-0.9829347861759364,-0.01790368628539145
1782832155015605500,1.02360546875,-1.3007891680896282,-0.9598699177350848,0.01766145676104352
1782832155025534500,1.033534423828125,-1.2132248664051293,-0.9726227971285581,0.1351317797517404
1782832155035463400,1.04346337890625,-1.159561665278673,-1.0555300667874514,0.27219903934439643
1782832155045392600,1.053392578125,-1.2293921573519706,-1.0224002428628505,0.34527854154258963
1782832155055320600,1.063320556640625,-1.3083861990898846,-0.9123702076744288,0.34518812331277876
1782832155065249300,1.073249267578125,-1.2867027750700712,-0.8050923207383602,0.3498223224520683
1782832155075178200,1.08317822265625,-1.2835837662667036,-0.6331020884603261,0.39106099935658273
1782832155085107200,1.093107177734375,-1.2767109578877687,-0.4945525726869702,0.49381980143301185
1782832155095035100,1.10303515625,-1.2785352507054806,-0.4019724156018346,0.6189631615359336
1782832155104964400,1.11296435546875,-1.305824824169278,-0.29699622973687945,0.7410305482596159
1782832155114893300,1.122893310546875,-1.2765432001054287,-0.19002865085899828,0.7349347156025469
1782832155124822000,1.132822021484375,-1.1791431485831736,-0.066895899926126,0.654532268371433
1782832155134750200,1.142750244140625,-1.0586112277984618,0.048600218648463485,0.6737644998468458
1782832155144679200,1.15267919921875,-0.8389666063547134,0.10256912472322582,0.7311513246063143
1782832155154608000,1.162608154296875,-0.6127209792107343,0.16009923041090368,0.7122542433694005
1782832155164537000,1.172537109375,-0.4152086945980787,0.19295162563361226,0.6547816400226205
1782832155174465300,1.18246533203125,-0.1520522636860609,0.13083879526555536,0.5977973316494375
1782832155184394200,1.192394287109375,0.14569792622327804,0.0509752772167325,0.6026527357913554
1782832155194323000,1.202322998046875,0.4890051676928997,0.06017214462906122,0.6707517278969287
1782832155204252200,1.212252197265625,0.8137415642052889,0.07620419182367623,0.7425191793821752
1782832155214181000,1.22218115234375,1.0459645121932029,0.12748656222820282,0.7734677137449383
1782832155224109000,1.232109130859375,1.2521516861706972,0.17624993554912508,0.7873707860868424
1782832155234038000,1.2420380859375,1.3509960912823675,0.21762042213976382,0.8571925833970307
1782832155243967000,1.251967041015625,1.3913590813308954,0.27589148238785566,0.9040330258313566
1782832155253896200,1.261896240234375,1.4392618192344904,0.3382539766680449,0.8978357055611907
1782832155263824100,1.27182421875,1.4224644136905669,0.36535643006190655,0.9118310592964292
1782832155273753000,1.281753173828125,1.1582996825188399,0.39797603944204746,0.9252787890862673
1782832155283682000,1.29168212890625,1.005637177979946,0.3358787719693035,0.9750051622204482
1782832155293611000,1.301611083984375,0.9289180954366922,0.3477141711916774,1.0382800951704383
1782832155303539200,1.311539306640625,0.6994996834754943,0.4348341631747782,1.1359630552873015
1782832155313468200,1.32146826171875,0.45046296333074565,0.4355361008990556,1.1957301993120462
1782832155323397000,1.331397216796875,0.08788695776760577,0.37869361214935776,1.2629323156431316
1782832155333326000,1.341326171875,-0.2613689629733562,0.3211613875698298,1.295616149365902
1782832155343254000,1.35125390625,-0.4396627523750066,0.31019276124462486,1.344956518857181
1782832155353183200,1.361183349609375,-0.6816916395843029,0.33012744190096854,1.314953448650986
1782832155363112200,1.3711123046875,-0.8703098391234875,0.37221732880733904,1.240379999834299
1782832155373041200,1.381041259765625,-0.9190718242049216,0.4468727568190545,1.1801983567245304
1782832155382969000,1.390968994140625,-0.9682762923568486,0.4927520991362631,1.1952636047136038
1782832155392898000,1.40089794921875,-0.9739607677340507,0.46070999738313256,1.2344592314831913
1782832155402827300,1.4108271484375,-0.9209837953060865,0.42514812400601804,1.2872986951366066
1782832155412756200,1.420756103515625,-0.7184750175803899,0.4652488098565489,1.3612728628858923
1782832155422685200,1.430685302734375,-0.4054676373064518,0.5476656656499952,1.4092179786264896
1782832155432613000,1.440613037109375,-0.07983341517150401,0.6086692926671355,1.3669244589067995
1782832155442542000,1.4505419921875,0.16825813307762144,0.6047383829589933,1.2888893253289162
1782832155452471300,1.46047119140625,0.4069628443002701,0.5084785875130444,1.2765500682376325
1782832155462400300,1.470400146484375,0.750299311864376,0.42867615200169384,1.2601001609571278
1782832155472328200,1.480328125,1.0108534513235092,0.4145600944962352,1.2001574411697684
1782832155482257200,1.490257080078125,1.1832803945183754,0.361044558212161,1.1414528848752379
1782832155492186000,1.50018603515625,1.2975415644705295,0.2542318045698106,1.0564021734468638
1782832155502115300,1.510115234375,1.3672574902534484,0.1891262221265584,0.9820500392306596
1782832155512043300,1.520043212890625,1.3247113109469413,0.13318119367323816,0.9208841343238949
1782832155521972200,1.52997216796875,1.3080898464918136,0.018200915666297078,0.8220289886225014
1782832155531901200,1.539901123046875,1.29144207855165,-0.053568070188909765,0.728892951220274
1782832155541830100,1.549830078125,1.2244190451145172,-0.09236600287780165,0.6496320752397179
1782832155551758000,1.559758056640625,1.1131517962813378,-0.1692799504060298,0.6078783249525352
1782832155561687300,1.569687255859375,0.955548912730813,-0.24978907288201152,0.585967996841669
1782832155571616300,1.5796162109375,0.7943301767706871,-0.2882750900775194,0.5554748050309717
1782832155581545200,1.589545166015625,0.7051525946706533,-0.32428689917922016,0.48663149736411865
1782832155591473200,1.59947314453125,0.6317980201244354,-0.32527970960885283,0.41657143431864674
1782832155601402000,1.609402099609375,0.5187877270162106,-0.34317630856633186,0.4161457562524825
1782832155611331300,1.619331298828125,0.3788303902715444,-0.3939305634435266,0.4665449140816927
1782832155621260300,1.62926025390625,0.2615758837223053,-0.42209019774012263,0.5053097847511991
1782832155631188200,1.639188232421875,0.13672902234792708,-0.4432696177605539,0.4796198285037651
1782832155641117200,1.6491171875,0.010803718087077141,-0.4568716613292694,0.45362369238398964
1782832155651046400,1.65904638671875,-0.11358429360389709,-0.45400933070071037,0.47945985216908155
1782832155660975000,1.66897509765625,-0.36627602912485596,-0.458369425606355,0.4728268804280087
1782832155670904000,1.678904052734375,-0.627658436101675,-0.5141504956696182,0.5029187614288181
1782832155680832300,1.688832275390625,-0.9456202239125967,-0.5540436762493104,0.48540279581937934
1782832155690761200,1.69876123046875,-1.2942577204942702,-0.559314237063378,0.49330933116022496
1782832155700690200,1.708690185546875,-1.5994827763289212,-0.5812915294632315,0.4399250200403854
1782832155710619100,1.718619140625,-1.917556207820773,-0.5670721577137708,0.3417769631624222
1782832155720547000,1.728547119140625,-2.1900135510414835,-0.5251039244256913,0.3408460389878601
1782832155730476000,1.73847607421875,-2.408519523844123,-0.600233545820415,0.4393362603669986
1782832155740405000,1.748405029296875,-2.5647832677453755,-0.6768062056303024,0.4271881054010242
1782832155750334200,1.758334228515625,-2.74855227368772,-0.6221971019558609,0.3781901926718652
1782832155760262100,1.76826220703125,-2.926656677997112,-0.5012907218355686,0.3372397581242025
1782832155770191000,1.778191162109375,-3.0515064619809387,-0.46420215034782886,0.2470597757822834
1782832155780120000,1.7881201171875,-3.094410368683934,-0.4728991784792393,0.1512290194033645
1782832155790049000,1.798049072265625,-3.0394460218310355,-0.44817748274207114,0.09203099876977502
1782832155799977000,1.80797705078125,-2.8387697202295064,-0.44163456390462813,0.058997054701391605
1782832155809906200,1.81790625,-2.5251719728469846,-0.37442886737696823,0.04946295469133183
1782832155819835100,1.827835205078125,-2.0541279937803743,-0.28518355380296706,0.04111933397431858
1782832155829764000,1.83776416015625,-1.537868908458948,-0.16986271873004732,-0.009508787472289986
1782832155839693000,1.847693115234375,-0.9758908590137958,-0.058182505181804296,-0.09242920430712401
1782832155849621000,1.85762109375,-0.3164911307364702,0.03696362993381917,-0.18014369158465415
1782832155859550200,1.86755029296875,0.27755437409877776,0.13594700512476265,-0.2591720009183511
1782832155869479200,1.877479248046875,0.758113785007596,0.206793250111863,-0.3255177926810458
1782832155879408000,1.887408203125,1.205280629402399,0.20662001243680714,-0.3397686190146953
1782832155889336000,1.897336181640625,1.5414192944169043,0.1482583512958139,-0.29381876874454316
1782832155899265000,1.90726513671875,1.849229690569639,0.12138050043806432,-0.3059261533087119
1782832155909194200,1.9171943359375,2.1213667157948017,0.09853015153072774,-0.33921230030618604
1782832155919123200,1.927123291015625,2.2671634262174365,0.11449497870802879,-0.3284233413968235
1782832155929051100,1.937051025390625,2.302441075825691,0.17367372838556766,-0.3224737122774124
1782832155938980000,1.94697998046875,2.3485434863090515,0.2406901859514415,-0.37924441443253304
1782832155948909000,1.956908935546875,2.319810143777728,0.33639570851549505,-0.4383693880962208
1782832155958838300,1.96683837890625,2.1000509560436007,0.46566506250724193,-0.5265630737254395
1782832155968766200,1.97676611328125,1.8373036904543638,0.5026205821998417,-0.6374766502827406
1782832155978695200,1.986695068359375,1.557121305939555,0.49217532216161486,-0.663344520380348
1782832155988624100,1.9966240234375,1.1044558641284703,0.49994624842405316,-0.5621121241535991
1782832155998553300,2.00655322265625,0.7650134813934564,0.5306524984635412,-0.46614897356666624
1782832156008482300,2.016482421875,0.4146370321899652,0.5939516890719533,-0.37497820835541934
1782832156018410200,2.02641015625,-0.03143324913978576,0.6174504919506609,-0.3630291561581194
1782832156028339200,2.036339111328125,-0.28150106589794155,0.586344721199572,-0.47371867816857993
1782832156038268200,2.04626806640625,-0.4230295974820852,0.5839543189316988,-0.5246901559930295
1782832156048197400,2.056197265625,-0.4372732268899679,0.555346356345713,-0.3868406782478094
1782832156058125300,2.066125244140625,-0.28182722911238667,0.5009511146176606,-0.21482436168044805
1782832156068054800,2.0760546875,-0.07529577174186707,0.48852111050300295,-0.05273129057120531
1782832156077983700,2.085983642578125,0.13266601069271564,0.4412241564728319,0.01729322623685002
1782832156087912700,2.09591259765625,0.5149602776825428,0.3590100567098707,0.0038994916565716266
1782832156097841000,2.1058408203125,0.8183873441845179,0.3110288467425853,0.050577729266509414
1782832156107769600,2.11576953125,1.0429700065523386,0.19250373573563992,0.12326569313015788
1782832156117698600,2.125698486328125,1.2504898904383182,-0.05124510713405907,0.17462752197906373
1782832156127627500,2.13562744140625,1.411406428581476,-0.24790230928733945,0.22373313286639748
1782832156137555700,2.1455556640625,1.5593553486019371,-0.3471187625817954,0.2861282507745549
1782832156147484700,2.155484619140625,1.6448855141103267,-0.42632578948326405,0.2514045452546328
1782832156157413600,2.16541357421875,1.5177321293592452,-0.5072185044493526,0.3283118438463658
1782832156167342600,2.175342529296875,1.2958493735998868,-0.6559441079307348,0.3101999947030097
1782832156177271600,2.185271484375,1.1414093379944563,-0.7069066717963666,0.36344639518950134
1782832156187199500,2.195199462890625,0.9799462718844413,-0.6576371025189757,0.4174411663578823
1782832156197128700,2.205128662109375,0.7497814254701137,-0.6186079914227127,0.38204241112060844
1782832156207057700,2.2150576171875,0.49886663649380203,-0.644148675392568,0.28863634287165474
1782832156216986600,2.224986572265625,0.28473756360113617,-0.6573234334599226,0.3021358941802755
1782832156226914600,2.23491455078125,0.052042321926355356,-0.6226174462597817,0.30303315354725346
1782832156236843500,2.244843505859375,-0.13818857350647448,-0.6104561030186713,0.28300334195336324
1782832156246772700,2.254772705078125,-0.29984862349331376,-0.6377686920318753,0.2333074187563732
1782832156256701700,2.26470166015625,-0.4809516250967979,-0.6710757722195237,0.17620344779258593
1782832156266629600,2.274629638671875,-0.6357248381793499,-0.754433196798712,0.17746891941744833
1782832156276558600,2.28455859375,-0.830794990336895,-0.8441350219685584,0.23842739211861042
1782832156286487800,2.29448779296875,-1.0694903492093086,-0.9160608788859098,0.2727791225209832
1782832156296416800,2.304416748046875,-1.3314713066011667,-0.9133291158344596,0.24696521110031752
1782832156306345700,2.314345703125,-1.5456751982957124,-0.8839620785094797,0.1306711288147606
1782832156316273700,2.324273681640625,-1.661261479371786,-0.7639489209018647,0.04059737419313751
1782832156326202600,2.33420263671875,-1.793216126924753,-0.5724504166860133,0.04797874401556328
1782832156336131800,2.3441318359375,-1.9138462473869322,-0.4832935120478272,0.11363879113695584
1782832156346060800,2.354060791015625,-1.9298831899523734,-0.5028908505085855,0.20997149655548855
1782832156355988700,2.36398876953125,-1.8944833752691745,-0.5065567526049912,0.28349761001002044
1782832156365917700,2.373917724609375,-1.7436662063360213,-0.5759154624480753,0.3284232317989692
1782832156375846700,2.3838466796875,-1.7949416355431078,-0.5807477779753506,0.3265114068282768
1782832156385775900,2.39377587890625,-1.7150936073243617,-0.5351807895429432,0.3811686970259994
1782832156395703800,2.403703857421875,-1.5887363413870335,-0.4362685798920691,0.4243223407063633
1782832156405632800,2.4136328125,-1.737536325278878,-0.25212241120040413,0.40732963178604836
1782832156415561700,2.423561767578125,-1.9516496160805223,-0.27785869080759584,0.5279867498530074
1782832156425490700,2.43349072265625,-2.1690964352190494,-0.368328796936199,0.5502139984259382
1782832156435418600,2.443418701171875,-2.295010633563995,-0.2359064588062465,0.6912417043484747
1782832156445347800,2.453347900390625,-2.3263293164134025,0.027547347617149352,0.7917972242269664
1782832156455276800,2.46327685546875,-2.2548726844429967,0.264652295492962,0.7766282236024737
1782832156465205800,2.473205810546875,-2.150695101609826,0.4990009303979575,0.7403383282117545
1782832156475134700,2.483134765625,-2.0634026026040315,0.6346390157040208,0.7176742225915194
1782832156485062700,2.493062744140625,-1.6578893725901842,0.7174154985900968,0.626316154647246
1782832156494992000,2.502991943359375,-1.1553373255819082,0.8150247358836233,0.6215897837124764
1782832156504920800,2.5129208984375,-0.6006178689628839,0.8588965377707034,0.5571667401732877
1782832156514849500,2.522849609375,0.010975567522644995,0.790020862204209,0.4931586706431582
1782832156524777700,2.53277783203125,0.5981774900734425,0.6895292013421654,0.5341542960394173
1782832156534706700,2.542706787109375,1.172363279184699,0.5714380247730761,0.6355920055799186
1782832156544635600,2.5526357421875,1.7357804215222596,0.4661115641657263,0.6869826586645096
1782832156554564600,2.562564697265625,2.1641057873249054,0.4672609533965587,0.7263957275770604
1782832156564492800,2.572492919921875,2.4699404994904994,0.5280597054913639,0.7145517066568136
1782832156574421800,2.582421875,2.662648598691821,0.5228557071074843,0.7401985544148832
1782832156584350500,2.5923505859375,2.8264953450679777,0.4868241703920066,0.7154437601257115
1782832156594279700,2.60227978515625,2.815351435241103,0.50419966808483,0.8351175297111272
1782832156604208600,2.612208740234375,2.678944484454393,0.478556838914752,1.0090956478707491
1782832156614136600,2.622136474609375,2.51999603151381,0.4594121395923197,1.1036696091216056
1782832156624065500,2.6320654296875,2.150999052992463,0.47519013896062967,1.1370604951351881
1782832156633994800,2.641994873046875,1.6552479181706905,0.4940583594292402,1.135578147622943
1782832156643923700,2.651923828125,1.2461673510640858,0.5144888607785105,1.084262386405468
1782832156653851600,2.6618515625,0.6861053643733263,0.4977896549120545,1.0991953132517636
1782832156663780600,2.671780517578125,0.09128770612180233,0.5069308466143906,1.122726995486766
1782832156673709600,2.68170947265625,-0.39029344905018803,0.6172350956343114,1.1367902268264443
1782832156683638800,2.691638671875,-0.8730734586179256,0.7353881584584713,1.1587103822115807
1782832156693566700,2.701566650390625,-1.3333499599546192,0.7531717985607683,1.1513871997166425
1782832156703495700,2.71149560546875,-1.5614064359128474,0.8102027225546539,1.137008472687006
1782832156713424600,2.721424560546875,-1.5904507440894842,0.9483081478223204,1.131958203560114
1782832156723353600,2.731353515625,-1.355118724170327,1.125139463455975,1.121237779842317
1782832156733282800,2.74128271484375,-0.8069085033148526,1.2631314914770424,1.1378660393644124
1782832156743210800,2.751210693359375,-0.3690168522655964,1.362541567647457,1.1582834620364009
1782832156753139700,2.7611396484375,-0.10996610310673713,1.2123746793165802,1.102807804660499
1782832156763068700,2.771068603515625,0.3140519208908081,0.8816628616563975,1.0869867698680609
1782832156772997600,2.78099755859375,0.8088947086960077,0.6655589815594255,1.066842684244737
1782832156782925600,2.790925537109375,1.280408643361926,0.5389161766789853,1.0751103810481726
1782832156792854800,2.800854736328125,1.670252595078945,0.3772143333770335,1.1101081908017396
1782832156802783700,2.81078369140625,1.8765601805657148,0.19087649985998867,1.1171109091706573
1782832156812712700,2.820712646484375,1.9868442635804413,0.04754471824616194,1.1588852273218333
1782832156822640600,2.830640625,1.9895096833974122,-0.04093465245664119,1.241262335626781
1782832156832569600,2.840569580078125,1.8559522768229244,-0.05430895168408751,1.2151089265860617
1782832156842498800,2.850498779296875,1.58016374335289,0.013351795134693383,1.1538513248078524
1782832156852427800,2.860427734375,1.3038468020945786,0.06522182923406362,1.031181515211612
1782832156862356700,2.870356689453125,1.16792266638875,0.07796615999490022,0.9106395844895392
1782832156872284700,2.88028466796875,0.828017926838994,0.13669884640537203,0.8281161995816976
1782832156882213600,2.890213623046875,0.469381014290452,0.0818417593192309,0.8647687908049673
1782832156892142800,2.900142822265625,0.1522521701723337,-0.1394699916191399,0.9676726273752748
1782832156902071800,2.91007177734375,-0.04565349767208099,-0.27942557479813696,0.9748751791652291
1782832156911999700,2.919999755859375,-0.0890495718061924,-0.34374935921393335,0.9078180973280221
1782832156921928700,2.9299287109375,-0.20125322470664977,-0.3936231779947877,0.8453332918424159
1782832156931857700,2.939857666015625,-0.40507191598713393,-0.5162606196913868,0.8340966622307896
1782832156941787000,2.949786865234375,-0.6050175652265548,-0.6716831635281443,0.8133584101065993
1782832156951714800,2.95971484375,-0.7758189530462026,-0.7691566456127912,0.7804669249825179
1782832156961643800,2.969643798828125,-0.8419353930324316,-0.7815751784853637,0.7512240985590964
1782832156971572700,2.97957275390625,-0.9587801497370004,-0.7105210629012435,0.6813738788720219
1782832156981501700,2.989501708984375,-1.1742249814033507,-0.6625173488412052,0.6242299229577183
1782832156991430700,2.9994306640625,-1.4309019871681927,-0.684390084888041,0.5920787348069251
1782832157001358800,3.00935888671875,-1.643584952905774,-0.7261802581954747,0.6001974150611087
1782832157011287800,3.019287841796875,-1.8919985727161168,-0.7117861144009977,0.5987342106407508
1782832157021216500,3.029216552734375,-2.013894767591357,-0.6948269424241036,0.6359430109746754
1782832157031145700,3.039145751953125,-2.029672766959667,-0.6750003252521157,0.6595333645943552
1782832157041074000,3.049073974609375,-2.0366320845782755,-0.6635151277069002,0.6956989760182798
1782832157051002600,3.059002685546875,-2.0516198103517294,-0.7061394868161529,0.7001491603601724
1782832157060931600,3.068931640625,-2.1459850242227314,-0.7459646436609327,0.6799044639065861
1782832157070859800,3.07885986328125,-2.1879566185116768,-0.7721439177952706,0.6937960650064051
1782832157080788700,3.088788818359375,-2.2684283315867186,-0.8128961263570934,0.6803597333934158
1782832157090716700,3.098716552734375,-2.3825883792519567,-0.9217308142811059,0.630743250374496
1782832157100645600,3.108645751953125,-2.4286808528631925,-0.9584387889534235,0.5457323229672387
1782832157110574800,3.118574951171875,-2.324067801222205,-0.8202882824350148,0.6483966151606291
1782832157120503600,3.128503662109375,-2.245782784536481,-0.7360365393646061,0.6476169360250235
1782832157130431700,3.138431640625,-2.0135814638584852,-0.5434061085093767,0.5608982548518106
1782832157140360700,3.148360595703125,-1.8083289403825997,-0.2947470625706017,0.4257392582995817
1782832157150289700,3.15828955078125,-1.5590782852262257,-0.10640183475390076,0.30636728467233476
1782832157160218600,3.168218505859375,-1.2856763546317815,-0.002885857634618878,0.22820839685061944
1782832157170147600,3.178147705078125,-0.9802473006576299,0.04814648353159427,0.1586654347481206
1782832157180075500,3.188075439453125,-0.5575123022079468,0.023429098643362522,0.19022656631758436
1782832157190004500,3.19800439453125,-0.01780336771607399,0.01857858987227082,0.21442557162120937
1782832157199933700,3.20793359375,0.5889297692567109,0.08812149717584251,0.1834257819952443
1782832157209862700,3.217862548828125,1.1859148346751927,0.18801073516532776,0.15785115922316909
1782832157219790600,3.22779052734375,1.692545090907812,0.25272877959571777,0.1425767254628241
1782832157229719600,3.237719482421875,2.0525199740618465,0.2769871686700731,0.10088142736461013
1782832157239648500,3.2476484375,2.219741749829054,0.2488848905839026,0.07694043367635459
1782832157249577700,3.25757763671875,2.4187211843848226,0.2578656310275197,0.022399938258714974
1782832157259505700,3.267505615234375,2.5277649119496344,0.3399811657868326,0.012856485898420214
1782832157269434600,3.2774345703125,2.471515201461315,0.3843650819145143,0.012680033352971076
1782832157279363600,3.287363525390625,2.4130606744050977,0.354308235694468,-0.006012246026843786
1782832157289292500,3.29729248046875,2.165563000395894,0.3919223654262721,0.06010105215422809
1782832157299221800,3.3072216796875,1.8521230739235877,0.5303333495117724,0.06845715789347886
1782832157309149700,3.317149658203125,1.5063111561566591,0.6848781606659293,0.030485410363040862
1782832157319078700,3.32707861328125,0.980571710306406,0.8489536012314259,-0.10819810705352574
1782832157329007600,3.337007568359375,0.4212193331897259,0.9910964653216302,-0.21567557168230414
1782832157338936600,3.3469365234375,-0.13422960674762724,1.07301691590026,-0.32997166681736706
1782832157348864500,3.356864501953125,-0.6376502532839775,1.1459563337743282,-0.40382096607796847
1782832157358793700,3.366793701171875,-0.9588222353130579,1.1564786045715212,-0.34040516335256393
1782832157368722700,3.37672265625,-1.1528542765945196,1.0907691379509865,-0.24310307404575868
1782832157378651600,3.386651611328125,-1.02711485029459,1.0403205149568617,-0.12153143494976684
1782832157388580600,3.39658056640625,-0.7623287723541259,1.094587819456309,-0.02305752538461238
1782832157398508500,3.406508544921875,-0.3123854489833116,1.1771335623264312,0.009717932144366203
1782832157408437800,3.416437744140625,0.0759130268573761,1.223865210624039,-0.028842867320403455
1782832157418366700,3.42636669921875,0.3004091799855232,1.0412304694086312,-0.07421148363649845
1782832157428295700,3.436295654296875,0.6926660380631685,0.6857610809803009,-0.010020970211550594
1782832157438223600,3.4462236328125,1.2022773559331894,0.4848427873164415,0.07252835285514593
1782832157448152600,3.456152587890625,1.579631828433275,0.3196703452944755,0.10987294493056833
1782832157458081800,3.466081787109375,1.904779143834114,0.1382547706104815,0.11988982348889111
1782832157468010800,3.4760107421875,2.000067317768931,-0.023845132098346947,0.17041691854670643
1782832157477939700,3.485939697265625,1.915107645624876,-0.1839043227598071,0.21196999516263604
1782832157487867600,3.49586767578125,1.8147995977014302,-0.3399308969043195,0.18904219710491596
1782832157497796900,3.505796875,1.6705261513233183,-0.41122678535506124,0.17979520694054663
1782832157507725800,3.515725830078125,1.5424182423263788,-0.418455129173398,0.16786168110594152
1782832157517654800,3.52565478515625,1.3164642916053533,-0.40228710757419467,0.22719525601901114
1782832157527582700,3.535582763671875,0.9995248325794934,-0.37317835585922,0.2501398590810597
1782832157537511700,3.54551171875,0.718956079095602,-0.3445115026928484,0.20993563979081808
1782832157547440600,3.555440673828125,0.3806125975131988,-0.3308412892587483,0.11635974966660141
1782832157557369600,3.56536962890625,0.07233633741438389,-0.3587592237539589,0.042950741519406435
1782832157567297800,3.5752978515625,-0.21176760445833204,-0.474495726955682,-0.03614595687538385
1782832157577226800,3.585226806640625,-0.4280634999960661,-0.5982979015827179,-0.0701161040816456
1782832157587155500,3.595155517578125,-0.5398854601025581,-0.6717563748948275,-0.08074841112457215
1782832157597084700,3.605084716796875,-0.6403080743163824,-0.7216116351056844,-0.05411258886177092
1782832157607013600,3.615013671875,-0.727018389520049,-0.7582633495461195,-0.06191168177276849
1782832157616941600,3.624941650390625,-0.6853893250584602,-0.7695609886299818,-0.16185553602632133
1782832157626870500,3.63487060546875,-0.6419061571627855,-0.7207046032633632,-0.2284696598690003
1782832157636799500,3.644799560546875,-0.5255389548420906,-0.7104944671552628,-0.18966548010241238
1782832157646728700,3.654728759765625,-0.5090080912798642,-0.7853208678197116,-0.11694576939363031
1782832157656656600,3.66465673828125,-0.4828419688880443,-0.8513089321859181,-0.08058364901691675
1782832157666585600,3.674585693359375,-0.441560694950819,-0.8421971127085387,-0.12852091024462134
1782832157676514600,3.6845146484375,-0.4201934972733259,-0.8618632055565715,-0.2059824817182496
1782832157686443500,3.694443603515625,-0.48739773249626156,-0.9346247826457023,-0.2655860326791182
1782832157696372700,3.704372802734375,-0.5767337200284004,-1.0346640966303646,-0.252947536912933
1782832157706300700,3.71430078125,-0.5762064812839031,-1.0646114180613309,-0.27493319528233257
1782832157716229600,3.724229736328125,-0.7385451611846685,-1.002783834375441,-0.30172797096651044
1782832157726158600,3.73415869140625,-0.9715548756361007,-0.9543476471822708,-0.3689739629719406
1782832157736087600,3.744087646484375,-1.086820838716626,-0.9205886585086583,-0.48135015942770987
1782832157746015500,3.754015380859375,-1.2264578574657439,-0.866444761193171,-0.519586366580613
1782832157755944700,3.76394482421875,-1.3261568335801361,-0.8665920607093721,-0.5616798336835578
1782832157765873700,3.773873779296875,-1.6242863781958818,-0.8180291053313762,-0.6014157413423061
1782832157775802600,3.783802734375,-2.015526752707362,-0.7414291921883821,-0.6303087314147502
1782832157785731600,3.793731689453125,-2.3845623096734285,-0.7034174414411187,-0.724450950184837
1782832157795659500,3.803659423828125,-2.739458866649866,-0.6771118375133722,-0.8259829138800502
1782832157805588700,3.813588623046875,-2.8978508547514674,-0.630114597082138,-0.8387552286263554
1782832157815517700,3.823517578125,-2.967446369025111,-0.5286012650221585,-0.7148156182900071
1782832157825446700,3.83344677734375,-2.9673762263983487,-0.3738043057378381,-0.6205022807367145
1782832157835374600,3.84337451171875,-2.77484874446094,-0.20824965946525334,-0.5948581729250029
1782832157845303800,3.8533037109375,-2.4063766665965316,-0.05924954989142715,-0.6619482437163591
1782832157855232800,3.863232666015625,-1.8672189362466334,0.07405439337864518,-0.707205581677705
1782832157865161700,3.87316162109375,-1.3799462914347649,0.21684556530974805,-0.7511046368978918
1782832157875090700,3.883090576171875,-0.848629922235012,0.2403323124244809,-0.7690151182502508
1782832157885018600,3.8930185546875,-0.2815735466122627,0.1906289548397064,-0.7904395990729332
1782832157894947800,3.90294775390625,0.3127612965583801,0.16578677452802656,-0.7860138915851712
1782832157904876800,3.912876708984375,0.90376319591403,0.20723361429050563,-0.7140089780822396
1782832157914805800,3.9228056640625,1.3651234008342026,0.32984029552266,-0.5260763496544212
1782832157924733700,3.932733642578125,1.525364231672883,0.4471462399981916,-0.42851723511293527
1782832157934662700,3.94266259765625,1.5869085414379833,0.34453196095898747,-0.4900942781038582
1782832157944592000,3.952591796875,1.7406442281663417,0.34290962045416234,-0.5455507923878729
1782832157954520600,3.9625205078125,1.8671014473468064,0.5415190526537597,-0.49899822698421775
1782832157964449500,3.972449462890625,1.9043173715412616,0.7450431449018419,-0.42946489122658965
1782832157974377700,3.982377685546875,1.9077777411282062,0.8564571087293327,-0.31279651400223374
1782832157984306700,3.992306640625,1.860906684359908,0.9762390879295766,-0.20414901921339332
1782832157994235600,4.002235595703125,1.7245985177725554,1.03529260379225,-0.10380100460574031
1782832158004164600,4.01216455078125,1.5363123266667127,1.0799648353420197,-0.015333908862620592
1782832158014092800,4.0220927734375,1.355036891105771,1.2003577860474586,0.04694909044057131
1782832158024021500,4.032021484375,1.0458294876366854,1.3296718559637666,0.06226838625594973
1782832158033950500,4.041950439453125,0.7232961541265249,1.427931300794333,-0.036423568240366876
1782832158043879700,4.051879638671875,0.37421675899624823,1.5027579937197266,-0.12647522976119072
1782832158053808600,4.06180859375,-0.01816927841901779,1.5037997578576205,-0.07233199003282934
1782832158063738000,4.071738037109375,-0.49356268486678595,1.3924847243599592,0.07001640656683594
1782832158073667000,4.0816669921875,-0.8021078250348568,1.305467535164207,0.1444393409969285
1782832158083596300,4.09159619140625,-0.8369786474078893,1.3973907627105713,0.15957913379324598
1782832158093525200,4.101525146484375,-0.8371557575404643,1.534245165003836,0.1899011520218104
1782832158103454200,4.1114541015625,-0.7941513130724429,1.5259861629635094,0.2292969227396883
1782832158113382100,4.121382080078125,-0.5930097320467234,1.465795605894923,0.290950483299233
1782832158123311000,4.13131103515625,-0.28833821844160556,1.4659446589767933,0.3838398889966309
1782832158133240300,4.141240234375,-0.023508301359415052,1.4118220236450434,0.4364597916152328
1782832158143169300,4.151169189453125,0.14016367297172547,1.2659652535982429,0.37890557439960537
1782832158153097200,4.16109716796875,0.3571592412114143,1.0891235627010465,0.3752447503371164
1782832158163026200,4.171026123046875,0.7312585113078356,0.927889775302261,0.4077427426315844
1782832158172955400,4.180955322265625,0.9485346500545739,0.9012178953453898,0.3625125484054908
1782832158182884000,4.190884033203125,0.9098667734861373,0.8491583300232887,0.33908114820718765
1782832158192813000,4.20081298828125,0.8936649957478046,0.6654394468329846,0.2984882583929226
1782832158202741200,4.2107412109375,0.9034645052284002,0.5590450647331774,0.25064919684268533
1782832158212670200,4.220670166015625,0.8056441824674606,0.510909979378432,0.21942816568147389
1782832158222599200,4.23059912109375,0.767565503963828,0.4586249347373843,0.20739012002646923
1782832158232528100,4.240528076171875,0.598849690246582,0.35533392548039555,0.20771646590400486
1782832158242456300,4.250456298828125,0.45237727251946924,0.23855931140258907,0.24059187667611984
1782832158252385000,4.260385009765625,0.3147802351653576,0.18606515405550597,0.24950908689685164
1782832158262314000,4.27031396484375,0.23977497080266474,0.15239493964388964,0.2014377144280821
1782832158272243200,4.2802431640625,0.18001871349811552,0.12386632590442895,0.10188996508633717
1782832158282172200,4.290172119140625,0.045731823605298996,0.09217691004648804,0.06572009761240333
1782832158292100000,4.30010009765625,-0.13846037618517876,0.02812441685274243,0.08263840785594656
1782832158302029000,4.310029052734375,-0.40447570365965363,-0.061518883062899106,0.11723410308202728
1782832158311958000,4.3199580078125,-0.6318325069159269,-0.15129048553332686,0.09379062885344028
1782832158321887200,4.32988720703125,-0.8166577439129352,-0.18140636846423147,-0.002960831700125709
1782832158331815200,4.339815185546875,-1.0143722730994225,-0.1417247848086059,-0.09526344135235995
1782832158341744000,4.349744140625,-1.128304357227683,-0.11986454291716217,-0.11337938214894383
1782832158351673000,4.359673095703125,-1.1781582291990518,-0.1654123882576823,-0.05122067137912381
1782832158361602000,4.36960205078125,-1.3127151682049034,-0.17698285293355584,-0.11227549429396166
1782832158371531300,4.37953125,-1.3611276091963052,-0.17150865930616854,-0.026165163410594685
1782832158381459200,4.389459228515625,-1.468384453344345,-0.16812383917346596,-0.08263411527331918
1782832158391388200,4.39938818359375,-1.5241098476976156,-0.05164762352034449,-0.1539073900334537
1782832158401317000,4.409317138671875,-1.8166151226907967,0.056168023554235696,-0.15609583998844026
1782832158411246000,4.41924609375,-2.272263379704952,0.04185498217195272,-0.17839454636238514
1782832158421174000,4.429174072265625,-2.774034505468607,-0.09411810724213719,-0.2521871469996869
1782832158431103200,4.439103271484375,-3.2383079674869775,-0.2469206047736108,-0.324028284775652
1782832158441032200,4.4490322265625,-3.441864792960882,-0.2461062927160412,-0.3693579573208466
1782832158450961200,4.458961181640625,-3.3070483262360093,-0.08059263604097068,-0.2820665725599043
1782832158460890000,4.46889013671875,-3.1835505413830276,0.12344736983999609,-0.1953892463103868
1782832158470818000,4.478818115234375,-2.902352257823944,0.24974187273941933,-0.17525478703193365
1782832158480747300,4.488747314453125,-2.3259745116263626,0.40562012445442375,-0.3066355436870828
1782832158490676200,4.49867626953125,-1.602140597361326,0.5906547664184123,-0.4076666086554527
1782832158500605200,4.508605224609375,-0.9692536129564047,0.6938369815386831,-0.4022030825525522
1782832158510534100,4.5185341796875,-0.44513972248136996,0.6501268730193376,-0.40725572629962115
1782832158520462300,4.52846240234375,0.08966624239981173,0.5373578413210809,-0.4309530108924955
1782832158530391300,4.538391357421875,0.6388724885553121,0.4821235184203833,-0.4925329034276306
1782832158540320300,4.5483203125,1.1274795968413351,0.517004423796013,-0.6015183249339461
1782832158550249200,4.558249267578125,1.5423480996996164,0.54434857699126,-0.6961718542270362
1782832158560177200,4.56817724609375,1.9571049588769673,0.5031175719365477,-0.7109738481700419
1782832158570106400,4.5781064453125,2.1993372597038743,0.5561398448109627,-0.72381360212937
1782832158580035300,4.588035400390625,2.4371891534894705,0.7126312599882483,-0.8453688746124506
1782832158589964000,4.597964111328125,2.5809254242509603,0.8411250995628535,-0.947090150334686
1782832158599893000,4.60789306640625,2.5446207696825263,0.9660742522679269,-1.0271635117419065
1782832158609821200,4.6178212890625,2.41339268283844,1.051915237291157,-1.0154314267635345
1782832158619750100,4.627750244140625,2.0843705718308687,1.095575223058462,-0.9645699851848184
1782832158629679000,4.63767919921875,1.7529110045433043,1.1318630726225674,-1.0125241610147058
1782832158639608000,4.647608154296875,1.6033534802824259,1.2350075130157172,-1.0661226994071156
1782832158649536300,4.657536376953125,1.2668354605615137,1.3819221215523778,-1.0417558084569871
1782832158659465000,4.66746484375,0.7224211248576641,1.369529819099605,-0.9530682018309831
1782832158669394200,4.677394287109375,0.25676526857018467,1.1406687487602234,-0.8986333587449044
1782832158679323100,4.6873232421875,-0.08018997352421284,0.9961486341446637,-0.8584928523406385
1782832158689252000,4.697252197265625,-0.16221709934771059,1.0143909777998923,-0.8554356567271053
1782832158699180000,4.707179931640625,-0.13080080134272576,0.9907307007491588,-0.8498524497672915
1782832158709109000,4.71710888671875,-0.05585866534411907,0.8638608091145753,-0.7809887568995356
1782832158719038200,4.7270380859375,0.07651508440375328,0.69075625891909,-0.7032542867686599
1782832158728967200,4.73696728515625,0.3276426393479109,0.49589229685813185,-0.5840987689036876
1782832158738896100,4.746896240234375,0.433529948708415,0.2761769482657313,-0.48802342664655296
1782832158748824000,4.756823974609375,0.5476081633090972,0.008346168867126106,-0.434887135471031
1782832158758753000,4.7667529296875,0.8233248005867004,-0.20341690554656086,-0.5290627085214481
1782832158768682200,4.77668212890625,1.1192653107255697,-0.30427045852355655,-0.6029990650109947
1782832158778611200,4.786611083984375,1.2728753252476452,-0.4350061587408185,-0.5700356836944818
1782832158788539100,4.7965390625,1.3685188884913921,-0.6630713294621556,-0.527176310252957
1782832158798468000,4.806468017578125,1.359223821401596,-0.8143081120468676,-0.43014688214138147
1782832158808397000,4.81639697265625,1.1918664365559815,-0.8927927429579198,-0.4127870934743434
1782832158818326300,4.826326171875,1.0271692108303307,-0.9708365712989121,-0.5036594237282872
1782832158828255200,4.836255126953125,0.8768734354227781,-0.9638656363077461,-0.5181319665212184
1782832158838183200,4.84618310546875,0.6904331644445657,-0.9641554860997944,-0.550506442033872
1782832158848112000,4.856112060546875,0.49527299591600893,-0.9766941382206976,-0.6565816021166742
1782832158858041000,4.866041015625,0.2811485991984606,-0.9688414519589393,-0.7291720604225993
1782832158867970300,4.87597021484375,0.14033961406052112,-0.9860772489201277,-0.6946894336495548
1782832158877898200,4.885898193359375,-0.1065209310889244,-1.0833297086652367,-0.5998984321145341
1782832158887827200,4.8958271484375,-0.15168869107067584,-1.1251146212756633,-0.6168881818927824
1782832158897756200,4.905756103515625,-0.2399339607566595,-1.0566438732482493,-0.6112833110904321
1782832158907685000,4.91568505859375,-0.38889527269005775,-1.028975602665171,-0.5924670765373855
1782832158917614300,4.9256142578125,-0.35496611508131026,-1.063808796441555,-0.6284748670510948
1782832158927542300,4.935542236328125,-0.36092297765910625,-1.05080720298402,-0.5343205925170332
1782832158937471200,4.94547119140625,-0.3396452118307352,-1.0419778537098319,-0.4447702681144699
1782832158947400200,4.955400146484375,-0.2417985855847597,-1.0837295947030186,-0.46243218153323973
1782832158957329200,4.9653291015625,-0.18747955089807508,-1.162665476512909,-0.5276042168088257
1782832158967258000,4.975258056640625,-0.07797522008419036,-1.2765467072367667,-0.5605394314767792
1782832158977186300,4.985186279296875,-0.05379062689840793,-1.3652705542199313,-0.546154895760864
1782832158987115300,4.995115234375,-0.1661819113254547,-1.4249454168513416,-0.5719789632493629
1782832158997044000,5.0050439453125,-0.153689509499073,-1.4490969845503567,-0.6717993372537195
1782832159006973200,5.01497314453125,-0.2726075653463602,-1.3946619222685694,-0.7631579166546464
1782832159016901400,5.0249013671875,-0.5115308877557516,-1.3904542414456604,-0.7836423401482403
1782832159026830000,5.034830078125,-0.7198767010718584,-1.3747478460088371,-0.7690214018605649
1782832159036759000,5.044759033203125,-0.9329401905596256,-1.286467797270417,-0.8230193878993391
1782832159046688000,5.05468798828125,-1.1921037524431943,-1.143183288864419,-0.8321952125236391
1782832159056617200,5.0646171875,-1.4465724345088005,-1.0377876354783773,-0.8378153904929757
1782832159066544400,5.07454443359375,-1.5202642781853675,-0.9059572718922049,-0.8477394031360745
1782832159076473600,5.0844736328125,-1.6077555146336555,-0.6570889671169221,-0.7417263485040515
1782832159086402300,5.09440234375,-1.7288737108737229,-0.494194845290482,-0.5863572518875823
1782832159096331300,5.104331298828125,-1.9848077893167733,-0.35897878478877243,-0.4378728732835501
1782832159106260200,5.11426025390625,-2.3906068505346774,-0.23836298511289059,-0.2828076549844816
1782832159116188400,5.1241884765625,-2.722067586866021,-0.21113295981660485,-0.1789718530599959
1782832159126117400,5.134117431640625,-3.0729455558508634,-0.020116540029272437,0.09743998167384416
1782832159136046300,5.14404638671875,-3.1833383599370717,0.20179310373701154,0.23136580143561586
1782832159145975300,5.153975341796875,-3.0733225724697113,0.47940585695952176,0.18372825380684807
1782832159155903200,5.1639033203125,-3.1195465635061264,0.804950501114875,0.1611564113136381
1782832159165832400,5.17383251953125,-3.1262247260957956,0.9139874336127192,0.18364223775751887
1782832159175761400,5.183761474609375,-3.0850504196643826,0.86776410016343,0.25608711358029396
1782832159185690400,5.1936904296875,-2.891127099454403,0.6882233063753694,0.2504017796865664
1782832159195619300,5.203619384765625,-2.272065811306238,0.5312191193703562,0.14191159435128792
1782832159205547300,5.21354736328125,-1.470827754843235,0.49948622969686984,0.14440680870050562
1782832159215476500,5.2234765625,-0.5130757791101932,0.5665701264757663,0.22852515291590242
1782832159225405400,5.233405517578125,0.3827367500603199,0.5682575681060552,0.2587055159177631
1782832159235334400,5.24333447265625,1.050602693387866,0.48359147208109493,0.27552706952225414
1782832159245263400,5.253263427734375,1.5963579223066569,0.36850919500440354,0.2115418694110587
1782832159255191300,5.26319140625,2.10081726424098,0.3128125883542001,0.15047295860536394
1782832159265120500,5.27312060546875,2.5666239271759985,0.3105177554152906,0.2567390929493122
1782832159275049500,5.283049560546875,2.8932582662642,0.2703251534976065,0.5092696648254991
1782832159284978400,5.292978515625,2.997836831113696,0.15222411312162876,0.8099708134949207
1782832159294906400,5.30290625,2.9748809029400345,0.04796718144193291,1.0490818404961377
1782832159304835300,5.31283544921875,2.796551457703113,-0.03841287889406085,1.2233780116289854
1782832159314764500,5.3227646484375,2.474053780028224,-0.18501184561029074,1.3710067597843705
1782832159324693500,5.332693603515625,2.0303823765337468,-0.2732426483795047,1.5520042551867663
1782832159334622500,5.34262255859375,1.4645529123574494,-0.24742241681590674,1.6588786758884786
1782832159344550400,5.35255029296875,0.839220873376727,-0.14164704339727757,1.678639899674058
1782832159354479400,5.362479248046875,0.2827764926612377,-0.036103432907909155,1.6225566317938267
1782832159364408600,5.37240869140625,-0.248097977989912,0.06239741946309805,1.5495884262166917
1782832159374337500,5.382337646484375,-0.6563280657470226,0.17441344083696603,1.4695235403768718
1782832159384266500,5.3922666015625,-1.266417527410388,0.28642916994988915,1.4074641206964849
1782832159394194400,5.4021943359375,-1.7311954318195582,0.3232427969537675,1.3505302273362874
1782832159404123400,5.412123291015625,-1.8606681994289158,0.35535759861692784,1.3454882876463234
1782832159414052600,5.422052490234375,-1.833065906754136,0.46847281340435143,1.2942793478041887
1782832159423981300,5.431981201171875,-1.5737719964891672,0.6076331545524298,1.2461143057025967
1782832159433909500,5.441909423828125,-1.1288380257129669,0.7393325121700763,1.2765480224110186
1782832159443838500,5.45183837890625,-0.59971127551198,0.8055369227007031,1.2143991708815096
1782832159453767400,5.461767333984375,-0.013379706054925918,0.818892371097207,1.1264142326321451
1782832159463696400,5.4716962890625,0.41606501916646954,0.7482113996744155,1.163759993751347
1782832159473625300,5.481625244140625,1.019518403816223,0.626374387640506,1.146196133879572
1782832159483553500,5.491553466796875,1.6756629296898842,0.515739445361495,1.1401409985590725
1782832159493482200,5.501482177734375,2.2764941491425037,0.44422640702873467,1.1529378632247447
1782832159503411200,5.5114111328125,2.7060142776876686,0.36692207194343207,1.2042535513769834
1782832159513340400,5.52134033203125,2.933424856957793,0.2527668465837836,1.2068038934469223
1782832159523269400,5.531269287109375,3.041494186532497,0.17686740986034272,1.2020217737369239
1782832159533197300,5.541197265625,3.0755063462495804,0.14079334917739034,1.2151015469972044
1782832159543126300,5.551126220703125,3.001187895107269,0.19068156180977822,1.146657321650535
1782832159553055500,5.561055419921875,2.831049355110526,0.311171543148905,0.984556249897927
1782832159562984400,5.570984375,2.4235949279010294,0.33839009720310564,0.8290433974292128
1782832159572912400,5.580912353515625,1.9483821387171745,0.1958122026965022,0.7197513211265206
1782832159582841300,5.59084130859375,1.5379326213449238,0.12573767273426056,0.7132306871861219
1782832159592770300,5.600770263671875,1.0844856737673283,0.07493366043120622,0.7171697802007198
1782832159602699500,5.610699462890625,0.6783066733211278,-0.0705947544440627,0.5687198883881792
1782832159612628500,5.62062841796875,0.2436024201363325,-0.20725261125192046,0.3721224170655012
1782832159622556400,5.630556396484375,-0.31908231627345085,-0.3514746197037399,0.23957195904385298
1782832159632485400,5.6404853515625,-0.7008575278252362,-0.5908369180522859,0.15461857051011174
1782832159642414300,5.650414306640625,-0.9968670115470886,-0.7560712463293224,0.0959599996486213
1782832159652343600,5.660343505859375,-1.237578386417031,-0.8669015650499612,0.11481966235144063
1782832159662272500,5.6702724609375,-1.362332893332839,-0.9363966146238147,0.12606820159656926
1782832159672200400,5.680200439453125,-1.5506652616679668,-0.9481872248563915,0.10628424538937396
1782832159682129400,5.69012939453125,-1.6672323704749346,-0.9912777401726692,0.0842134477534797
1782832159692058400,5.700058349609375,-1.8103484635114668,-1.0839994976855813,0.06461630565554369
1782832159701987600,5.709987548828125,-1.8122545893937347,-1.1765588311783968,0.029479265527799725
1782832159711915500,5.71991552734375,-1.7152952673763036,-1.1663690802711992,0.07134368224837817
1782832159721844500,5.729844482421875,-1.660595708939433,-1.113905756453797,0.119810593373375
1782832159731773400,5.7397734375,-1.6413205151051282,-1.1641744197711348,0.13697587324846536
1782832159741702400,5.749702392578125,-1.6786211949735879,-1.176913416769728,0.17238807248920202
1782832159751631600,5.759631591796875,-1.7304875758111475,-1.185063697738573,0.2795463881662115
1782832159761559600,5.7695595703125,-1.7738041549682617,-1.2817476368807255,0.40768173315934836
1782832159771488500,5.779488525390625,-1.834464667636156,-1.3692320051968097,0.5341959797566757
1782832159781417500,5.78941748046875,-1.999095842388272,-1.2501460454367102,0.5602876486727968
1782832159791346400,5.799346435546875,-2.0603420459896324,-1.164687118533626,0.5428938481383025
1782832159801275400,5.809275390625,-2.2079665563613173,-1.0608375255458056,0.5704794819392264
1782832159811203600,5.81920361328125,-2.534661101204157,-0.967650488608703,0.6073850250102579
1782832159821132500,5.829132568359375,-2.8289830702304837,-0.8929621812406927,0.8718066535525023
1782832159831061200,5.839061279296875,-3.0633143886744976,-0.8372298456899822,1.238699791662395
1782832159840990200,5.848990234375,-3.018229046279192,-0.5637824685186147,1.1205235671583562
1782832159850919400,5.85891943359375,-2.80767315569818,-0.17253266859166322,0.9158780696649104
1782832159860847400,5.868847412109375,-2.501511695796251,0.04207980390377342,0.6963937533494085
1782832159870776300,5.8787763671875,-2.0660341201514005,0.2692119315586984,0.4412731467137113
1782832159880705300,5.888705322265625,-1.4479039753735066,0.4432136497896164,0.24387190299378705
1782832159890634200,5.89863427734375,-0.5882037930697203,0.49804574856497347,0.05862025727825239
1782832159900562400,5.9085625,0.47738545704782004,0.5424981998842209,0.22893724084813147
1782832159910491400,5.918491455078125,1.19671855276227,0.6252355198036879,0.5875700252108276
1782832159920420400,5.92842041015625,1.6964760006159543,0.5818849653117358,0.7472340790748596
1782832159930349300,5.938349365234375,2.169658745276928,0.48665363613069057,0.7034427950780838
1782832159940278300,5.9482783203125,2.6387796473264693,0.5191280648864806,0.6392768315725028
1782832159950206500,5.95820654296875,2.9521482621282336,0.579171030177921,0.5710505598254502
1782832159960135400,5.968135498046875,3.131477239796519,0.5589961110249161,0.5079523716818541
1782832159970064400,5.978064453125,3.18117796703279,0.5112418416813016,0.5195608302805572
1782832159979993300,5.987993408203125,3.091086777219176,0.5227995930060744,0.5469960592927411
1782832159989922600,5.997922607421875,2.896246342164278,0.5919289510726928,0.6023413317546248
1782832159999850500,6.0078505859375,2.6191636772304774,0.6978864030599594,0.5494543026324361
1782832160009779500,6.017779541015625,2.122783596855402,0.8298280450008809,0.4332694711413234
1782832160019708400,6.02770849609375,1.4694710795372723,0.8513913497723639,0.3688854079056531
1782832160029637400,6.037637451171875,0.8784832087069749,0.7788445844776928,0.3764760091651231
1782832160039566600,6.047566650390625,0.3528507303625345,0.7474195186443626,0.4577110347628593
1782832160049494500,6.05749462890625,-0.09492343227565288,0.8082046806052327,0.5033294611215591
1782832160059423500,6.067423583984375,-0.3976315368533134,0.8612845288857817,0.5113905294369906
1782832160069352400,6.0773525390625,-0.6277905380487442,0.8333990353554487,0.533951430411078
1782832160079281700,6.08728173828125,-0.6893500453829765,0.7885591921538114,0.5201406029298902
1782832160089209600,6.097209716796875,-0.6595990502417087,0.7430421803429722,0.4767780292065814
1782832160099138600,6.107138671875,-0.3655395315438509,0.641467911875993,0.4855273355145007
1782832160109067500,6.117067626953125,-0.10797112989723681,0.5865293570514768,0.5913662756886333
1782832160118996500,6.12699658203125,-0.00885083045363426,0.4743027616668492,0.5755016940154135
1782832160128925400,6.136925537109375,0.2764934668689966,0.1700784803725779,0.45860838546138255
1782832160138853600,6.146853515625,0.5113619609296322,-0.03202157042175531,0.36528847939223047
1782832160148782600,6.156782470703125,0.7681587936818599,-0.1614144046626985,0.36023875825461
1782832160158711600,6.166711669921875,1.086632622668147,-0.3103348000638187,0.4401978456323966
1782832160168640300,6.17664013671875,1.18661041572392,-0.38867607698142526,0.49909175048656756
1782832160178569500,6.186569580078125,1.187160450822115,-0.4508252938371151,0.5560449696017429
1782832160188497700,6.19649755859375,1.056243914145231,-0.5113411373373121,0.4623290864849463
1782832160198426400,6.20642626953125,0.8924632187426089,-0.5357189880728721,0.32666981226038183
1782832160208355300,6.216355224609375,0.7442068402081727,-0.5491179102849215,0.25720965133681895
1782832160218284300,6.2262841796875,0.5667851574659347,-0.5268492337230593,0.25395404707435515
1782832160228212500,6.23621240234375,0.3114385235220194,-0.5439217298813164,0.280489221974276
1782832160238141400,6.246141357421875,0.07648878091871739,-0.6327833778999745,0.25747184593696143
1782832160248070400,6.2560703125,-0.1787041237682104,-0.6860414322916418,0.17144260833263397
1782832160257999400,6.265999267578125,-0.27401743214428426,-0.695922628706321,0.07244904054123907
1782832160267928300,6.27592822265625,-0.3384901965767145,-0.6779911776311696,0.014284217146597802
1782832160277856300,6.285856201171875,-0.4162672637403011,-0.6598007102936506,0.004389321000128984
1782832160287785500,6.295785400390625,-0.4559826035350561,-0.6739820881202817,0.02124214652571827
1782832160297714400,6.30571435546875,-0.4718061956107616,-0.6390733448896557,0.036949966734647746
1782832160307643400,6.315643310546875,-0.5358277091443538,-0.5690799904048442,0.05537731156796217
1782832160317572400,6.325572265625,-0.6100374392151833,-0.5844173333335667,0.0987127780886367
1782832160327500300,6.335500244140625,-0.6283312207967042,-0.5672339241467416,0.13660678420774638
1782832160337429500,6.345429443359375,-0.6919967604994773,-0.4480803059779107,0.1643544036373496
1782832160347358500,6.3553583984375,-0.7857967417031526,-0.42849085856266317,0.13182283786684273
1782832160357287400,6.365287353515625,-0.8531278181761502,-0.46782282506302,0.1312750677909702
1782832160367216400,6.37521630859375,-0.9677893856227398,-0.39823439811728895,0.15490768964979798
1782832160377144300,6.385144287109375,-1.1099059462279082,-0.3669046824172139,0.21407562567237765
1782832160387073500,6.395073486328125,-1.1549538792222738,-0.37079401800595224,0.2572852738562971
1782832160397002500,6.40500244140625,-1.1983113749116658,-0.27694661746397614,0.27508254062514753
1782832160406931500,6.414931396484375,-1.3358721719086168,-0.16311200236082077,0.2942700927086174
1782832160416859400,6.424859375,-1.6070657788038252,-0.07210683950744569,0.23176446363069117
1782832160426788600,6.43478857421875,-2.063011557459831,-0.03317534356676042,0.19144465513676404
1782832160436717600,6.444717529296875,-2.61893454464972,-0.12692856301926075,0.2284392281981185
1782832160446646500,6.454646484375,-2.919724832907319,-0.23429113256409764,0.3002534231682308
1782832160456575500,6.464575439453125,-2.813172922158241,-0.04598557917065918,0.3787793907366693
1782832160466503400,6.47450341796875,-2.809476405727863,0.1945456168267876,0.5072867473799735
1782832160476432600,6.4844326171875,-2.8304911367058754,0.29379765289127824,0.6315037864182144
1782832160486361600,6.494361572265625,-2.753826414698362,0.4254083093121648,0.6778603908583521
1782832160496290600,6.50429052734375,-2.609482825693488,0.5876891215458512,0.61738224902004
1782832160506219300,6.51421923828125,-2.299494500979781,0.6463769459012896,0.5362555791676045
1782832160516147500,6.5241474609375,-1.8535282645463942,0.6205210585024208,0.4575679730303585
1782832160526076700,6.53407666015625,-1.1116028132736682,0.5673009980335831,0.5985455927334725
1782832160536005400,6.54400537109375,-0.3035965778499842,0.5566806736893951,0.9385365492619574
1782832160545934300,6.553934326171875,0.4458113381326198,0.5155503525301813,1.1716525736320764
1782832160555863300,6.56386328125,1.1531751791119575,0.5014738963827491,1.2690318015620112
1782832160565791500,6.57379150390625,1.768434152367711,0.5065041456349194,1.2990984385237097
1782832160575720400,6.583720458984375,2.20333597395122,0.5184048651784658,1.370314393606037
1782832160585649400,6.5936494140625,2.368943884781003,0.49534123884662984,1.4628690509237348
1782832160595578400,6.603578369140625,2.4705595081716774,0.4025196011558175,1.5812474469363689
1782832160605506300,6.61350634765625,2.5811072105586526,0.3434811367318034,1.6589260221615432
1782832160615435300,6.623435302734375,2.5391619197547435,0.3945379547521472,1.6295212101094423
1782832160625364500,6.633364501953125,2.392060556474328,0.3905694895125925,1.594966175687313
1782832160635293400,6.64329345703125,2.0862147383928296,0.34976445478498935,1.5813795488834381
1782832160645222400,6.653222412109375,1.5688947458416223,0.3829894096471369,1.5586695582948624
1782832160655150300,6.663150390625,0.949386882969737,0.4011518199339509,1.4757975060798227
1782832160665079300,6.673079345703125,0.3180816147983074,0.3729002695702016,1.2990832409545778
1782832160675008500,6.683008544921875,-0.2599456521719694,0.39829204658865924,1.0871763010907918
1782832160684937500,6.6929375,-0.7347381701171398,0.5322108338214456,0.8957168137110769
1782832160694866400,6.702866455078125,-1.0760516074210404,0.6739062464050948,0.8877362632859498
1782832160704794400,6.71279443359375,-1.3766928425967693,0.6568946135886014,0.8729725555267185
1782832160714723300,6.722723388671875,-1.2868027283132075,0.6254449978359043,0.8305453264247625
1782832160724652500,6.732652587890625,-0.9369494262009859,0.7185536357745528,0.7427567875303328
1782832160734581500,6.74258154296875,-0.3574818972945213,0.8494124509148299,0.6491741023391485
1782832160744510500,6.752510498046875,0.13544658132195472,0.8918388032339513,0.660769847586751
1782832160754438400,6.7624384765625,0.3101204266607761,0.7668067945510149,0.6425035385340452
1782832160764367400,6.772367431640625,0.6025099663197994,0.48088835060223933,0.7470067731250077
1782832160774296600,6.782296630859375,1.0781500410050153,0.20803820867165923,0.8351903026863932
1782832160784225500,6.7922255859375,1.5209247879207133,0.10866861064210534,0.8496559042818844
1782832160794154500,6.802154541015625,1.82675482391119,0.09857742473855614,0.8107921398151665
1782832160804082400,6.81208251953125,1.9959335789650678,-0.010789105039834976,0.8443682462025434
1782832160814011400,6.822011474609375,1.9966385123640298,-0.17409180766716598,0.8652377965562045
1782832160823940600,6.831940673828125,1.9573755925118923,-0.2799813089847564,0.8182491047576069
1782832160833869600,6.84186962890625,1.8599620969861745,-0.30210721607506275,0.7326938778731972
1782832160843798300,6.85179833984375,1.7142822909414768,-0.3284804053463042,0.6795872146509587
1782832160853726500,6.8617265625,1.6454916633099317,-0.3567817862011492,0.7155847760315984
1782832160863655700,6.87165576171875,1.4394348377138375,-0.3449021094456315,0.78963653906174
1782832160873584400,6.88158447265625,1.0665455279290676,-0.3670844228982925,0.7946675920315086
1782832160883513300,6.891513427734375,0.8321884905219078,-0.4427725549586117,0.7472712692800909
1782832160893442300,6.9014423828125,0.6340221259146929,-0.5089898249708116,0.7122707561127841
1782832160903370500,6.91137060546875,0.42087446527481076,-0.5854032025657594,0.7627843341019004
1782832160913299500,6.921299560546875,0.1790875701278448,-0.7158496375128627,0.7639611958615481
1782832160923228400,6.931228515625,0.005195815077424049,-0.8535666479848325,0.7332179748125374
1782832160933157400,6.941157470703125,-0.16925240481197834,-0.9371788510426878,0.7416954419091344
1782832160943085300,6.951085205078125,-0.34997722075283527,-0.9426521678872406,0.7511093861382454
1782832160953014300,6.96101416015625,-0.5924222875475883,-0.9034441930927336,0.726483259730041
1782832160962943500,6.970943603515625,-0.8470242406040429,-0.8110054172396659,0.6222033855661749
1782832160972872400,6.98087255859375,-1.176210602262616,-0.7452256618618964,0.5288063591402024
1782832160982801400,6.990801513671875,-1.5887094533801078,-0.6924360286995768,0.5166711732536554
1782832160992729300,7.000729248046875,-2.005065564447641,-0.6718401076555252,0.6096500838654115
1782832161002658300,7.010658203125,-2.217247594925761,-0.5673574043959378,0.6241516700897366
1782832161012587500,7.02058740234375,-2.4117408239781857,-0.41540202521309255,0.6067066508246586
1782832161022516500,7.0305166015625,-2.599951027238369,-0.42187721257656813,0.5280298218097538
1782832161032445400,7.040445556640625,-2.7626626321047545,-0.38935105363354083,0.4769401609657332
1782832161042373400,7.050373291015625,-2.9808938796192406,-0.24163024328052995,0.5015593096438795
1782832161052302300,7.06030224609375,-3.033085254627466,-0.23846827211827037,0.5206966293774545
1782832161062231600,7.0702314453125,-3.000052753597498,-0.30402474013417957,0.4660804383751005
1782832161072160500,7.080160400390625,-2.9137644631981847,-0.2566930801168084,0.417801487570256
1782832161082089500,7.09008935546875,-2.6987001552820202,-0.18496311109773814,0.3949477045968175
1782832161092017700,7.100017578125,-2.4097446817249057,-0.11491948773041367,0.35537907979637384
1782832161101946600,7.109946533203125,-1.9444985752820967,-0.015376213634386657,0.30609685196680947
1782832161111875600,7.11987548828125,-1.3585925377607344,0.12141308753341436,0.2501421971686184
1782832161121804500,7.129804443359375,-0.769089352530241,0.19396569804698227,0.2565717552920803
1782832161131733500,7.1397333984375,-0.17074118206501007,0.26049948666244743,0.30178123552370817
1782832161141661700,7.14966162109375,0.3881961845099926,0.36530645344033835,0.26001318271653723
1782832161151590700,7.159590576171875,0.9568190787971019,0.47278673108071084,0.22984418135890736
1782832161161519600,7.16951953125,1.3276935416281221,0.5153425549983978,0.25939236567076296
1782832161171448600,7.179448486328125,1.6169038667291402,0.4323405927933752,0.24024324590153992
1782832161181377500,7.18937744140625,1.8406477401852606,0.36788185688629743,0.20619955853503197
1782832161191305700,7.1993056640625,1.9296499657183885,0.31619916205257176,0.19846611473876982
1782832161201234700,7.209234619140625,2.0182412723630665,0.24237273221090436,0.2083356937808916
1782832161211163600,7.21916357421875,2.1299457435697318,0.262305659301579,0.20743468982055782
1782832161221092400,7.22909228515625,2.1119635121554134,0.3108180535361171,0.2291130723390728
1782832161231020500,7.2390205078125,1.8767694394022225,0.3469062888748944,0.1594350674137473
1782832161240949500,7.248949462890625,1.6655922020524738,0.3214826554134488,0.11782278969017788
1782832161250878500,7.25887841796875,1.5079115770906208,0.39415611582770943,0.10548172423429787
1782832161260807400,7.268807373046875,1.1420143181502818,0.49376712139770385,0.058005888239573686
1782832161270736400,7.278736328125,0.6320587168872356,0.46477089014649386,-0.01445273298076354
1782832161280664300,7.288664306640625,0.09139350458383559,0.3995804789640009,-0.0946899888459593
1782832161290593500,7.298593505859375,-0.3831155202448368,0.3905491773769259,-0.23419516137633473
1782832161300522500,7.3085224609375,-0.6431710625320672,0.42656668556705113,-0.35018655265457926
1782832161310451500,7.318451416015625,-0.7449561972707509,0.47000995984375477,-0.3606987404491752
1782832161320380400,7.32838037109375,-0.875523189857602,0.42686230751276016,-0.305238244109787
1782832161330308400,7.338308349609375,-0.7904770084738731,0.3271852509692311,-0.10274466395322233
1782832161340237600,7.348237548828125,-0.5374076718121766,0.21549758476689457,-0.07000843332293442
1782832161350166500,7.35816650390625,-0.22110826425552366,0.2672806712351739,-0.290723816670198
1782832161360095500,7.368095458984375,0.057062195914983745,0.3454071363583207,-0.2889092232625931
1782832161370024400,7.3780244140625,0.3349111690461635,0.2917722845435142,-0.0932955570791848
1782832161379952400,7.387952392578125,0.6244634394526482,0.0990780677370727,0.10860150935580022
1782832161389881600,7.397881591796875,0.8915881894737482,-0.030641514240205288,0.22273294284790754
1782832161399810600,7.407810546875,1.1752379578381775,-0.16323197547867893,0.296575684503559
1782832161409739500,7.417739501953125,1.4622978269070386,-0.27949586355537176,0.29328570304745805
1782832161419668500,7.42766845703125,1.6952537653446196,-0.3400098073594272,0.19831218455238267
1782832161429596400,7.437596435546875,1.8047575116366148,-0.3447239763997495,0.1549213893815875
1782832161439525600,7.447525634765625,1.7966466858953236,-0.383524539437145,0.12800008297460153
1782832161449454600,7.45745458984375,1.6679671144902706,-0.5155618968375026,0.13366247438415885
1782832161459383600,7.467383544921875,1.4744167192459106,-0.618907851152122,0.16647917723897843
1782832161469312500,7.4773125,1.254582128188014,-0.6672289605982601,0.18268522929362951
1782832161479240400,7.487240478515625,1.0849924542456866,-0.6691171124324202,0.16642709999186917
1782832161489169700,7.497169677734375,0.9491279397726058,-0.673755878148973,0.1512786124324426
1782832161499098600,7.5070986328125,0.7374597040355205,-0.6601714433021844,0.12830083775315432
1782832161509027600,7.517027587890625,0.5131289706021547,-0.6467825310274958,0.07428169932849704
1782832161518956500,7.52695654296875,0.2510141576975584,-0.6968883319333196,-0.002439940498024225
1782832161528884700,7.536884765625,0.12088321844041347,-0.7250796765424311,-0.12230366143127902
1782832161538813700,7.546813720703125,0.024028525841236114,-0.6597695845030248,-0.13504727980606257
1782832161548742700,7.55674267578125,-0.04348901311457157,-0.6412621601708233,-0.07244377984423189
1782832161558671400,7.56667138671875,-0.12791560129523277,-0.674506550385803,-0.03996964334938675
1782832161568600600,7.5766005859375,-0.3720657184422016,-0.6769516054503619,-0.013877024585194886
1782832161578528800,7.58652880859375,-0.568004470127821,-0.7181808569394051,-0.04671553741302341
1782832161588457500,7.59645751953125,-0.795755241137743,-0.6855616128854454,-0.05455819547111168
1782832161598386400,7.606386474609375,-1.0786007073819637,-0.5391575842194258,-0.10181026917994022
1782832161608315400,7.6163154296875,-1.2423206125080584,-0.44262715513855216,-0.14992027489235624
1782832161618244600,7.62624462890625,-1.4244517881155012,-0.30736645177751776,-0.15762429166473446
1782832161628172500,7.636172607421875,-1.6213842270135879,-0.2630149766147137,-0.13779062369745224
1782832161638101500,7.6461015625,-1.8527566956520078,-0.2820961091816425,-0.06321034328117967
1782832161648030500,7.656030517578125,-2.0888748975127935,-0.18639818540215491,-0.014912340715993195
1782832161657959400,7.66595947265625,-2.1208950066298247,-0.045102293530106544,0.03755708404863253
1782832161667888600,7.675888671875,-2.1425439438581466,0.07904168027192354,0.08980903013767674
1782832161677816600,7.685816650390625,-2.208732280036807,0.1579214479804039,0.11949083250025287
1782832161687745500,7.69574560546875,-2.3587632670283316,0.23213775392249225,0.2035848642583005
1782832161697674500,7.705674560546875,-2.489215693324804,0.24076208214387296,0.3141871646430343
1782832161707603500,7.715603515625,-2.5006232225239273,0.26776348631605507,0.4277854867722839
1782832161717532700,7.72553271484375,-2.5003975970745085,0.43220381467118857,0.5444153220845386
1782832161727460600,7.735460693359375,-2.533122055068612,0.5727718306601047,0.5768776950763538
1782832161737389600,7.7453896484375,-2.546149294424057,0.6163939686350524,0.5317334986332803
1782832161747318500,7.755318603515625,-2.366293662533164,0.6259219676978885,0.43322658184766766
1782832161757247500,7.76524755859375,-1.9472931744366884,0.6194074712373316,0.3663477061215788
1782832161767175400,7.775175537109375,-1.2848971869528294,0.6865237359158695,0.33149924171082673
1782832161777104600,7.785104736328125,-0.5255781178086996,0.8109931422799825,0.3626571810405701
1782832161787033600,7.79503369140625,0.1773626460313797,0.8264131219908595,0.3523011336557567
1782832161796962600,7.804962646484375,0.8918155684888363,0.7052741752237082,0.2917450677430257
1782832161806891500,7.8148916015625,1.369339557224512,0.6405703785143793,0.27076456782817837
1782832161816819500,7.8248193359375,1.8485913926661013,0.5880940490849316,0.32462340112458915
1782832161826748700,7.834748779296875,2.2424369812399148,0.47387642601355906,0.38121154978703703
1782832161836677600,7.844677734375,2.4131150349408386,0.39828795493543145,0.4596668450057506
1782832161846606600,7.854606689453125,2.46723474766314,0.33075667971521616,0.5306524984635412
1782832161856535600,7.86453564453125,2.5441584128677843,0.24307751947939393,0.5125617651734501
1782832161866463500,7.87446337890625,2.5276100136488675,0.17233751134574413,0.5517601684220135
1782832161876392700,7.884392822265625,2.364456510233879,0.16873276485204697,0.6408694345261902
1782832161886321700,7.89432177734375,2.0312667581528423,0.13618220212012527,0.7445023890886455
1782832161896250400,7.90425048828125,1.5803402689635753,0.02336494736596942,0.779814014031738
1782832161906179300,7.914179443359375,1.1584575034290552,-0.06094079091399908,0.8471439214609563
1782832161916107800,7.924107666015625,0.5932920561194419,0.011704466319084167,0.8212112424988299
1782832161926036500,7.934036376953125,-0.06181903505325317,0.1380786833912134,0.6891065920159221
1782832161935965400,7.94396533203125,-0.8048124078184365,0.13513634632900356,0.5213807391840964
1782832161945894400,7.953894287109375,-1.3151783434480429,0.04230126463472843,0.45592089994307605
1782832161955823400,7.9638232421875,-1.6112071163922548,0.1051809146568179,0.4790517828248441
1782832161965751600,7.97375146484375,-1.8187994809925556,0.17299378329738974,0.5819410794131458
1782832161975680500,7.983680419921875,-1.7096949631512164,0.1704727403871715,0.7191906185038387
1782832161985609500,7.993609375,-1.3771540303677319,0.26312705868706104,0.85861604032889
1782832161995538400,8.003538330078126,-1.0299906979918478,0.36423663225173947,0.8746904653605073
1782832162005467600,8.013467529296875,-0.6880564984411001,0.3648031800933182,0.7372690037690103
1782832162015395600,8.0233955078125,-0.2993032645702362,0.3343099882826209,0.5649472014490514
1782832162025324500,8.033324462890626,0.22337445562183855,0.31610213141888377,0.5930316881502047
1782832162035253500,8.04325341796875,0.6909130569159985,0.13136924888044596,0.4679890119427815
1782832162045182500,8.053182373046875,0.9844400761723517,0.056420975401997565,0.3894784794054925
1782832162055111700,8.063111572265624,1.069778518500924,-0.07693798599094152,0.6247738205760717
1782832162065039600,8.07303955078125,1.191134615150094,-0.32457170746997,0.893875862019509
1782832162074967800,8.0829677734375,1.3437737388134001,-0.48704994197189805,1.0960908444304018
1782832162084896800,8.092896728515624,1.4560031106770037,-0.3717113520465791,1.1295483659394085
1782832162094825700,8.10282568359375,1.5116706373631954,-0.17952084697857498,1.0657354536551982
1782832162104754700,8.112754638671875,1.4791221204578875,-0.10939093356728553,1.1002161807321011
1782832162114682600,8.1226826171875,1.3720523233145474,-0.09787190681770443,1.0657857225377112
1782832162124611800,8.13261181640625,1.200589841237664,-0.10552607483267784,0.8055115690637379
1782832162134540800,8.142540771484375,1.0222603960007428,-0.08995119682103395,0.7918884827069937
1782832162144469800,8.1524697265625,0.8360767301321029,-0.14461363811790942,0.691845515460521
1782832162154398700,8.162398681640624,0.8101742271125316,-0.17850684763044117,0.6936598714061081
1782832162164326700,8.17232666015625,0.7361258250832557,-0.21249299612343311,0.7276053225625306
1782832162174255900,8.182255859375,0.5958569381713866,-0.2852336765550077,0.823698602335155
1782832162184184800,8.192184814453125,0.43454292514324183,-0.37640827769115565,0.8534693250901997
1782832162194113800,8.20211376953125,0.23458500094413756,-0.4900849257536232,0.770638189407438
1782832162204042800,8.212042724609375,0.013503040173649786,-0.5089014160349965,0.680145286925137
1782832162213971000,8.221970947265625,-0.23120529537796972,-0.4338206022180617,0.6147680479336529
1782832162223900000,8.23189990234375,-0.45288171491026874,-0.3617506606549024,0.5545449768349529
1782832162233828900,8.241828857421876,-0.68671385166049,-0.3284333513341844,0.5272145599041134
1782832162243757800,8.2517578125,-1.0076409190177917,-0.2909872716456651,0.5243313326179981
1782832162253686800,8.261686767578125,-1.3663696015030145,-0.24583310179784892,0.5366694206655025
1782832162263615000,8.271614990234376,-1.5830442672252654,-0.19636092262044547,0.5497350558025762
1782832162273544000,8.2815439453125,-1.7526888862252235,-0.1480848213598132,0.5289903374049812
1782832162283473000,8.291472900390625,-1.8141934485018252,-0.19188070846647023,0.5292128941144794
1782832162293401600,8.301401611328124,-1.8546786036252974,-0.28913536016866564,0.5370479716543108
1782832162303330800,8.311330810546876,-2.0868010138481856,-0.30505817483514547,0.543670677729696
1782832162313259000,8.321259033203125,-2.2768244040101764,-0.31696678542420265,0.564082693574205
1782832162323187700,8.331187744140625,-2.423597265988588,-0.3657702715598047,0.5537246734280139
1782832162333116700,8.34111669921875,-2.5066473051190377,-0.3096786742426455,0.43872693282961844
1782832162343045600,8.351045654296875,-2.5890245595544576,-0.19985212573707103,0.313700477104634
1782832162352974800,8.360974853515625,-2.6089555869489907,-0.11900836447924375,0.2383036926737055
1782832162362902800,8.37090283203125,-2.5168781917542216,0.04748758123144507,0.16754059592541307
1782832162372831700,8.380831787109376,-2.2295821758419274,0.21088614544868467,0.10790759967435151
1782832162382760700,8.3907607421875,-1.7739304116964338,0.3225790723480284,0.06583243541307747
1782832162392689700,8.400689697265625,-1.3762778320550917,0.4427108878992498,-0.0011305018672719597
1782832162402619000,8.410618896484374,-0.7524988677352666,0.48934725912883875,-0.01047676942134276
1782832162412546800,8.420546875,-0.07714812161028385,0.48087899825200436,0.02896057541593909
1782832162422475800,8.430475830078125,0.5492290425091981,0.5274271066762507,0.09577851473502814
1782832162432404700,8.44040478515625,1.0174515344142914,0.5105236104093491,0.15184066676199434
1782832162442333700,8.450333740234376,1.381536775496602,0.3988863592199981,0.15615984513536094
1782832162452263000,8.460262939453125,1.650591616797447,0.328330621612072,0.16478483094386756
1782832162462190800,8.47019091796875,1.8442115701466797,0.29819574171975255,0.15093582687675952
1782832162472119800,8.480119873046876,1.9499854822605847,0.3074165745295584,0.10366770621542819
1782832162482048800,8.490048828125,1.850958706319332,0.34381650616601106,0.06523112221879418
1782832162491977700,8.499977783203125,1.6798580432921646,0.3391701416648924,0.01584907357683405
1782832162501907000,8.509906982421874,1.44924019241333,0.3637925417460501,-0.11095960765611379
1782832162511835000,8.5198349609375,1.0048685316950081,0.44268443828374143,-0.21313167761946095
1782832162521763800,8.529763916015625,0.530383472263813,0.475774222458899,-0.31452359352316706
1782832162531692800,8.53969287109375,0.0930319194406271,0.49703401423916216,-0.4035478847576305
1782832162541621800,8.549621826171874,-0.31442426133453844,0.6065343995302915,-0.48343832734599707
1782832162551551000,8.559551025390626,-0.7286743400335312,0.6717511141978204,-0.4684672239137813
1782832162561479000,8.56947900390625,-0.9268675926476716,0.6354442676723003,-0.42807493470553304
1782832162571408000,8.579407958984374,-0.8934849630057812,0.5839014197006821,-0.39984534044526515
1782832162581336800,8.5893369140625,-0.5823375313848257,0.637104602099955,-0.4156921307334676
1782832162591265800,8.599265869140625,-0.20860592555701732,0.6503980911761522,-0.3659495005842298
1782832162601194800,8.60919482421875,0.13819091159403324,0.5207353539526463,-0.24323561438424512
1782832162611123000,8.619123046875,0.4611626365214586,0.33003231096342206,-0.13172628215719015
1782832162621052000,8.629052001953125,0.7044979301542044,0.12739172355160117,-0.03221957721188664
1782832162630980600,8.638980712890625,0.9572130465507507,-0.024554887802898884,0.0725129908892326
1782832162640909600,8.64890966796875,1.1501245593696832,-0.10174012655317782,0.1454563177534379
1782832162650838800,8.6588388671875,1.3005062594950199,-0.20154154012873768,0.17439164913026614
1782832162660766700,8.6687666015625,1.351590550044179,-0.32591683846861125,0.14715948667582124
1782832162670695700,8.67869580078125,1.4315695111662148,-0.36044191614389415,0.1747144330775365
1782832162680624600,8.688624755859376,1.3990093038231133,-0.4152909660540521,0.20231628736089913
1782832162690553900,8.698553955078125,1.4612959563881158,-0.5055599966526031,0.2013871532846242
1782832162700482800,8.70848291015625,1.2886831352323294,-0.5475302757672965,0.25366492793466894
1782832162710410800,8.71841064453125,1.105541905799508,-0.630040070541203,0.3538885124450549
1782832162720339700,8.728339599609376,0.929095790091157,-0.6964077088095247,0.1095960276853293
1782832162730268700,8.7382685546875,0.8163426866143941,-0.5832360876597463,0.12630812956597656
1782832162740198000,8.748197998046875,0.6381190398395061,-0.5784283951170742,-0.015355463107302784
1782832162750126800,8.758126953125,0.4715916760772466,-0.6421044562138617,-0.07371931620538234
1782832162760054800,8.7680546875,0.3619266017436981,-0.6986079953327775,0.045641149647161365
1782832162769983700,8.777983642578125,0.0931926629602909,-0.8493848322555422,0.04935870886556804
1782832162779912700,8.78791259765625,0.13865560649633407,-0.8950074963979423,-0.007436250947974622
1782832162789842000,8.797842041015626,0.17713000631928444,-0.8501144617043435,-0.05670870630219579
1782832162799771000,8.80777099609375,0.16127952623665331,-0.8816621310040355,-0.1458954946219921
1782832162809698800,8.81769873046875,0.05178162516355514,-0.9720167940594255,-0.2160871481578797
1782832162819627800,8.827627685546876,-0.08372399286925793,-1.0718754907801746,-0.13392364607099444
1782832162829556700,8.837556640625,-0.062280807346105575,-1.097691046168655,-0.19568031994514165
1782832162839486000,8.84748583984375,-0.08627133926451205,-0.953486134982109,-0.12167298057861625
1782832162849415000,8.857414794921874,-0.12540683334469793,-0.9299173356071114,-0.0587131414597854
1782832162859342800,8.8673427734375,-0.2419377017945051,-0.8898540591575205,-0.018072138187475502
1782832162869271800,8.877271728515625,-0.4000900359213352,-0.7714423453971743,-0.05294391040857881
1782832162879200800,8.88720068359375,-0.6119616852760315,-0.6792391318656503,-0.016882380413636565
1782832162889130000,8.8971298828125,-0.8502706751793623,-0.6175970608144998,0.06327917073369026
1782832162899059000,8.907058837890625,-1.1907014844298363,-0.5828744147405028,0.16753920768592506
1782832162908987000,8.91698681640625,-1.2583727526426314,-0.671197864229232,0.2886684367766604
1782832162918915800,8.926915771484374,-1.3099533022761345,-0.654401627729088,0.35745088110174983
1782832162928844800,8.9368447265625,-1.562341670936346,-0.39666225342974065,0.36903625108581034
1782832162938773800,8.946773681640625,-1.8472113364845513,-0.2944312746196985,0.33718035608716307
1782832162948702700,8.95670263671875,-2.1941443672358987,-0.31536388027220963,0.35021618060786275
1782832162958631700,8.966631591796874,-2.5383114404052494,-0.2487384678505361,0.3109370037406683
1782832162968559600,8.9765595703125,-2.71718273743391,-0.1977032771401107,0.31712332769278434
1782832162978488600,8.986488525390625,-2.8460318201869725,-0.12833631092533468,0.24808321881219744
1782832162988417800,8.996417724609374,-2.786850732421875,-0.03780716808587312,0.28523959483914074
1782832162998346800,9.0063466796875,-2.5602216589182616,0.01259162441715598,0.29516937963590023
1782832163008275700,9.016275634765625,-2.2560861518859863,0.11979629998654126,0.2654274080513045
1782832163018203600,9.02620361328125,-1.8661030839592216,0.19437340206503867,0.19671433916799724
1782832163028132600,9.036132568359376,-1.4577046538978815,0.20438421620875596,0.03576791734322905
1782832163038061800,9.046061767578125,-1.0170295096099375,0.2091033536851406,-0.024857085619866846
1782832163047990800,9.05599072265625,-0.5129892698705196,0.21235490282699465,0.10969868434220552
1782832163057919700,9.065919677734374,-0.013457447466254234,0.24148382054716347,0.22766751317325978
1782832163067847700,9.07584765625,0.4729992047876119,0.34983152867183087,0.2120325024722144
1782832163077777400,9.08577734375,0.8594523450225591,0.4242711219757795,0.196165290450491
1782832163087706400,9.095706298828125,1.216138708025217,0.3805227272726595,0.24883663099538533
1782832163097635600,9.105635498046874,1.465402222663164,0.3583307692088187,0.4131178597986698
1782832163107564500,9.115564453125,1.6092437073647976,0.3876655847646296,0.5108298268143088
1782832163117492500,9.125492431640625,1.768693095564842,0.3904050927311182,0.49314000247530637
1782832163127421400,9.13542138671875,1.9015835626631974,0.3516052603460848,0.5483252255372703
1782832163137350400,9.145350341796876,1.8635072222471236,0.35554245366454124,0.6739182291038334
1782832163147279600,9.155279541015625,1.8071943833947182,0.30045813369378443,0.7974705206230283
1782832163157208300,9.165208251953125,1.6880734984517096,0.24429873183742165,0.9094062433023005
1782832163167136500,9.175136474609374,1.5218606074661016,0.282498990894109,1.036259841389209
1782832163177065500,9.1850654296875,1.2354162399470805,0.40850729726329443,1.0333270028077066
1782832163186994400,9.194994384765625,0.9111860393911599,0.43635625817552204,0.9016114247076212
1782832163196923400,9.20492333984375,0.56496612534523,0.43641441810354586,0.7373319129373878
1782832163206852400,9.214852294921876,0.18287059579789638,0.46777898592129347,0.5616657686255871
1782832163216780500,9.224780517578125,-0.1553501361876726,0.45714565596505996,0.5220473498666659
1782832163226709200,9.234709228515625,-0.4684446102231741,0.392850440056622,0.6288959420073778
1782832163236638200,9.24463818359375,-0.6433066716104745,0.3664996087476611,0.6650991820279508
1782832163246567400,9.2545673828125,-0.6660778908669949,0.44026349474713206,0.5853562216188758
1782832163256496400,9.264496337890625,-0.6123503923326731,0.5020676244921982,0.477812048429437
1782832163266424300,9.27442431640625,-0.42409108923375605,0.4892962595939636,0.45462742606643586
1782832163276353300,9.284353271484376,-0.2098661547511816,0.5465779434785246,0.6021112127931788
1782832163286282200,9.2942822265625,0.037707507103681565,0.5865336679004133,0.7648841559253633
1782832163296211500,9.30421142578125,0.3431611109972,0.49423108564764257,0.7655734533637761
1782832163306140400,9.314140380859374,0.5465308894664049,0.38383945060521363,0.7600405152864754
1782832163316068400,9.324068359375,0.798289728051424,0.32953327540010213,0.7713347203042358
1782832163325997300,9.333997314453125,1.096408751273155,0.30413667607605455,0.7861408789657056
1782832163335926300,9.34392626953125,1.2690689187020063,0.265492034252733,0.8469372929729521
1782832163345855500,9.35385546875,1.2342577175617218,0.13150690378546714,0.854725097304955
1782832163355784400,9.363784423828125,1.1997463761508464,-0.0018234160348773,0.8753672686435282
1782832163365712400,9.37371240234375,1.2446417489320039,0.0466615056708455,0.8377429097786545
1782832163375641300,9.383641357421874,1.2871055106520652,0.18654972270205616,0.7591950043730438
1782832163385570600,9.393570556640626,1.1580150203585624,0.29042554610967636,0.7644073321938514
1782832163395499500,9.40349951171875,0.9471014023810624,0.2585148887164891,0.8385473580293357
1782832163405428500,9.413428466796875,0.7441916426390409,0.13887363316118717,0.8774488241579383
1782832163415357400,9.423357421875,0.6139005443841219,0.10177943565025925,0.8570628195375204
1782832163425285400,9.433285400390625,0.6182786133378744,0.09809314835295081,0.8585646754678338
1782832163435214600,9.443214599609375,0.6277174728125333,0.0763100633509457,0.8801593982908874
1782832163445143600,9.4531435546875,0.5755506477236747,0.01398001003563404,0.9045379796788096
1782832163455072500,9.463072509765626,0.38708559291958805,-0.07824190819635987,0.8623210323266685
1782832163465001500,9.47300146484375,0.22113632130622862,-0.15796221838220953,0.8331492253128439
1782832163474929400,9.482929443359374,0.02905541409254074,-0.18688260791823266,0.8405623511135578
1782832163484858600,9.492858642578126,-0.06132745214402675,-0.19720541062057018,0.8281468139156699
1782832163494787300,9.502787353515625,-0.20900807661712167,-0.11551964558064937,0.7740644375290722
1782832163504716300,9.51271630859375,-0.42535424103736874,-0.03328574513867497,0.7107851206649094
1782832163514645200,9.522645263671874,-0.6614946547299623,0.006208937642723322,0.7076923422813415
1782832163524573400,9.532573486328126,-0.8777624932169914,0.04030746046900749,0.6722550451319664
1782832163534502400,9.54250244140625,-1.0009715242564678,0.12035364160835742,0.6392597343072295
1782832163544431400,9.552431396484375,-1.1143564958959817,0.2004217423185706,0.6466930261131376
1782832163554360300,9.5623603515625,-1.2478934442043303,0.08284034190252423,0.5554721016172319
1782832163564289300,9.572289306640625,-1.377094409134984,-0.007339110716432333,0.5888571789445355
1782832163574217200,9.58221728515625,-1.6024346118718384,0.003323153073340654,0.6922161023385822
1782832163584146400,9.592146484375,-1.7688544236063957,-0.026183950309455393,0.6736165427435189
1782832163594075400,9.602075439453126,-2.056424580284953,-0.03273600230142474,0.4911651952710002
1782832163604004400,9.61200439453125,-2.330122278955579,-0.04267594316601753,0.4161732653139159
1782832163613933300,9.621933349609375,-2.488462244608998,-0.004153904809057712,0.4536860900957137
1782832163623861200,9.631861328125,-2.5931331639170647,0.03267155876308679,0.49227520233951505
1782832163633790500,9.64179052734375,-2.5857185037463903,0.07553732541278005,0.43929680513944475
1782832163643719400,9.651719482421875,-2.5354390998393295,0.1476223184145987,0.3267676466116681
1782832163653648400,9.6616484375,-2.344404486808181,0.18639497053176163,0.2557552512774244
1782832163663577300,9.671577392578126,-1.860216948530078,0.32019013138487934,0.1484993569774553
1782832163673505300,9.68150537109375,-1.2883435280144213,0.5260584486715495,0.042838120590941976
1782832163683434500,9.6914345703125,-0.7867740623027086,0.5908215743526816,0.03845123814307153
1782832163693363500,9.701363525390626,-0.27601649700701236,0.548875845157355,0.0028464572059921918
1782832163703292400,9.71129248046875,0.08490531160831451,0.49466509315073487,-0.007798837182670831
1782832163713221400,9.721221435546875,0.45415188097655773,0.3793199273541569,-0.02267846293915063
1782832163723149300,9.7311494140625,0.6996119116783142,0.2845809117347002,-0.05715206615552306
1782832163733078500,9.74107861328125,0.821650729894638,0.22354776636213064,0.01499784530866891
1782832163743007500,9.751007568359375,0.8628016554504633,0.13849530136808752,0.0486145029021427
1782832163752936400,9.7609365234375,0.9937743062287568,0.2001160373702645,-0.13696224658191203
1782832163762865400,9.770865478515624,1.2152145789176225,0.39795696941539643,-0.3875745454803109
1782832163772793300,9.78079345703125,1.2847995717972516,0.5280789947137237,-0.535526607305929
1782832163782722600,9.79072265625,1.02284374884665,0.45363837849646804,-0.6556796848408878
1782832163792651500,9.800651611328124,0.5815519339650869,0.30699031194150445,-0.7304718909747898
1782832163802580500,9.81058056640625,0.19807634823620318,0.16421090351343154,-0.8462309713345021
1782832163812509200,9.82050927734375,-0.06415946069955826,0.25987960119843484,-0.9556904400933534
1782832163822438400,9.8304384765625,-0.4123369385540485,0.33098362033888695,-0.88386373270154
1782832163832366600,9.84036669921875,-0.7743664161503314,0.3625545243836939,-0.8054558933537453
1782832163842295300,9.85029541015625,-0.9600234277963637,0.43706294514015315,-0.8109339594386518
1782832163852224300,9.860224365234375,-1.0316939947783947,0.5212310285151005,-0.9313681189373135
1782832163862153200,9.8701533203125,-0.8151561071783304,0.6175907772041856,-1.009562753925845
1782832163872082400,9.88008251953125,-0.48908933884501454,0.6816663590125739,-0.9600679975904524
1782832163882010400,9.89001025390625,-0.12975918333530426,0.5708185046352445,-0.8430524143636227
1782832163891939300,9.899939208984375,0.21339549792110918,0.3888936652548611,-0.6812704915627836
1782832163901868300,9.909868408203126,0.5036906956493854,0.20808380137905477,-0.5988163724988699
1782832163911797500,9.919797607421875,0.7703326305896043,0.10564283308014273,-0.7096927953835577
1782832163921726500,9.9297265625,1.1916302897125481,0.038047991104424,-0.6653819444920868
1782832163931654400,9.939654296875,1.5312269862264394,-0.03378638813719153,-0.5338050442103296
1782832163941583400,9.949583251953126,2.271247480660677,-0.01973155929967761,-0.4218542700923979
1782832163951512300,9.95951220703125,2.6332021394550797,0.08434782385602593,-0.11319902061335742
1782832163961441500,9.969441650390625,1.6251368575453757,-0.1904230570040643,-0.03537913722135126
1782832163971370500,9.97937060546875,1.5707015030026434,-0.5517927555173635,-0.27024185912832616
1782832163981298400,9.98929833984375,1.0367518626898526,-0.5434437371060252,-0.36499263825081285
1782832163991227400,9.999227294921875,0.30818098303079605,-0.5549179018005729,-0.43985710590332744
1782832164001156400,10.00915625,0.16578911261558532,-0.6019637306138873,-0.467472111929208
1782832164011085600,10.01908544921875,-0.15849486395418644,-0.5095508198544383,-0.46485959134325383
1782832164021014500,10.0290146484375,-0.29142917019426823,-0.49707434624955055,-0.3732492291383445
1782832164030942500,10.0389423828125,0.4877016838788986,-0.4893995738379657,-0.3139906922228634
1782832164040871400,10.048871337890626,0.9306050256103277,-0.24213263984471559,-0.2594406983245164
1782832164050800400,10.05880029296875,0.5166951386511326,0.024177578923106194,-0.2687457022864371
