time,seconds_elapsed,z,y,x
1782832154082302200,0.09030224609375,0.819706380367279,-0.11261101067066193,0.26234734058380127
1782832154092231400,0.1002314453125,0.7416179180145264,-0.11798812448978424,0.2792545557022095
1782832154102159600,0.11015966796875,0.6768143773078918,-0.10836798697710037,0.2297421246767044
1782832154112088300,0.12008837890625,0.6446581482887268,-0.09211607277393341,0.13319529592990875
1782832154122017300,0.130017333984375,0.6567555069923401,-0.08787764608860016,0.024268820881843567
1782832154131946200,0.1399462890625,0.6846567392349243,-0.06886769086122513,-0.06954050064086914
1782832154141874400,0.14987451171875,0.7041268348693848,-0.05744726210832596,-0.1169479563832283
1782832154151803400,0.159803466796875,0.7045643329620361,-0.0704139769077301,-0.12780752778053284
1782832154161732400,0.169732421875,0.6997738480567932,-0.08515270054340363,-0.10110055655241013
1782832154171661300,0.179661376953125,0.6904860734939575,-0.08786308020353317,-0.06485690921545029
1782832154181590300,0.18959033203125,0.6729928255081177,-0.06757111847400665,-0.024362478405237198
1782832154191518200,0.199518310546875,0.6553022861480713,-0.02949422597885132,0.008905821479856968
1782832154201447400,0.209447509765625,0.6465277075767517,-0.022613149136304855,0.04583774134516716
1782832154211376400,0.21937646484375,0.6525933742523193,-0.05618201941251755,0.08823329955339432
1782832154221305300,0.229305419921875,0.654626190662384,-0.11860385537147522,0.13481545448303223
1782832154231233300,0.2392333984375,0.6419042348861694,-0.16998104751110077,0.1859598159790039
1782832154241162200,0.249162353515625,0.6148220300674438,-0.20999184250831604,0.21956172585487366
1782832154251091500,0.259091552734375,0.5925532579421997,-0.24734507501125336,0.2239503264427185
1782832154261020400,0.2690205078125,0.5829988718032837,-0.2589801549911499,0.1899782419204712
1782832154270948400,0.2789482421875,0.5834378004074097,-0.25091323256492615,0.13321825861930847
1782832154280877300,0.288877197265625,0.5832766890525818,-0.2255764603614807,0.07111173868179321
1782832154290806300,0.29880615234375,0.5772724747657776,-0.18067529797554016,0.014213918708264828
1782832154300735500,0.308735595703125,0.5637694597244263,-0.11799672991037369,-0.015809493139386177
1782832154310663400,0.318663330078125,0.5354089736938477,-0.06022099778056145,-0.02902332693338394
1782832154320592400,0.32859228515625,0.5113811492919922,-0.023615049198269844,-0.03755662590265274
1782832154330521300,0.338521240234375,0.4930688142776489,0.0008498355746269226,-0.039080794900655746
1782832154340450600,0.348450439453125,0.4953617751598358,0.0048863887786865234,-0.035766225308179855
1782832154350378500,0.35837841796875,0.5039410591125488,0.022538572549819946,-0.012306168675422668
1782832154360307500,0.368307373046875,0.5086697936058044,0.05548986420035362,0.032833077013492584
1782832154370236400,0.378236328125,0.5206359624862671,0.09901760518550873,0.048272207379341125
1782832154380165400,0.388165283203125,0.5666617751121521,0.15057986974716187,0.02909504994750023
1782832154390093300,0.39809326171875,0.6342645883560181,0.17915239930152893,-0.005140543915331364
1782832154400022500,0.4080224609375,0.6921225786209106,0.18282383680343628,-0.032015036791563034
1782832154409951500,0.417951416015625,0.7350209355354309,0.189459428191185,-0.032885752618312836
1782832154419880400,0.42788037109375,0.766992449760437,0.18924769759178162,-0.007749771233648062
1782832154429808400,0.437808349609375,0.7974048256874084,0.1805005669593811,0.0278475321829319
1782832154439737300,0.4477373046875,0.8295912742614746,0.17460140585899353,0.06171867996454239
1782832154449666600,0.45766650390625,0.8579608201980591,0.14594203233718872,0.09010988473892212
1782832154459595500,0.467595458984375,0.8871716856956482,0.1288203001022339,0.10175109654664993
1782832154469524500,0.4775244140625,0.893634557723999,0.11221043765544891,0.0840427502989769
1782832154479452400,0.487452392578125,0.8902387619018555,0.08511650562286377,0.04361782968044281
1782832154489381400,0.49738134765625,0.8767898082733154,0.07370718568563461,-0.003389921970665455
1782832154499310600,0.507310546875,0.8609706163406372,0.06197729334235191,-0.05579400807619095
1782832154509239600,0.517239501953125,0.8562446236610413,0.06937474757432938,-0.10051948577165604
1782832154519167500,0.52716748046875,0.852221667766571,0.07200674712657928,-0.1374223679304123
1782832154529096400,0.537096435546875,0.849624752998352,0.05863136798143387,-0.17405563592910767
1782832154539025400,0.547025390625,0.8359019756317139,0.008939441293478012,-0.22143273055553436
1782832154548954400,0.556954345703125,0.8114250302314758,-0.03130226954817772,-0.27575257420539856
1782832154558882600,0.566882568359375,0.776445746421814,-0.06683523207902908,-0.33285605907440186
1782832154568811500,0.5768115234375,0.7434322237968445,-0.07613395154476166,-0.3758430778980255
1782832154578740500,0.586740478515625,0.7141227722167969,-0.03758922219276428,-0.38127031922340393
1782832154588669200,0.596669189453125,0.6912003755569458,0.04932564124464989,-0.3551902174949646
1782832154598597600,0.60659765625,0.6725406646728516,0.1694379299879074,-0.31009384989738464
1782832154608526600,0.616526611328125,0.6655775904655457,0.31275567412376404,-0.26479029655456543
1782832154618455300,0.626455322265625,0.670026421546936,0.39424973726272583,-0.22743813693523407
1782832154628384300,0.63638427734375,0.6709573864936829,0.4465276896953583,-0.20058320462703705
1782832154638312400,0.6463125,0.6516379714012146,0.4512667953968048,-0.19066078960895538
1782832154648241400,0.656241455078125,0.6343119740486145,0.3676145076751709,-0.21432562172412872
1782832154658170400,0.66617041015625,0.6335593461990356,0.21885482966899872,-0.2351113259792328
1782832154668099300,0.676099365234375,0.6375657320022583,0.08452151715755463,-0.24683478474617004
1782832154678028300,0.6860283203125,0.6212450861930847,-0.011276382021605968,-0.2506953179836273
1782832154687956200,0.695956298828125,0.6100109815597534,-0.050814755260944366,-0.25025612115859985
1782832154697885400,0.705885498046875,0.6011130809783936,-0.02557358331978321,-0.25167930126190186
1782832154707814400,0.715814453125,0.5916478037834167,0.028982598334550858,-0.267976850271225
1782832154717743400,0.725743408203125,0.5899519324302673,0.0828532874584198,-0.2957986295223236
1782832154727671300,0.73567138671875,0.5836679935455322,0.13531410694122314,-0.3230159878730774
1782832154737600300,0.745600341796875,0.5798026919364929,0.15653230249881744,-0.33485108613967896
1782832154747529500,0.755529541015625,0.5789968967437744,0.1792789101600647,-0.33663520216941833
1782832154757458400,0.76545849609375,0.5807657837867737,0.18461215496063232,-0.3178447484970093
1782832154767386400,0.775386474609375,0.5774168968200684,0.1756649613380432,-0.30124396085739136
1782832154777315300,0.7853154296875,0.5696159601211548,0.17252269387245178,-0.3023052513599396
1782832154787244300,0.795244384765625,0.5631676316261292,0.17721492052078247,-0.3285546898841858
1782832154797173500,0.805173583984375,0.5611990690231323,0.15654638409614563,-0.37792012095451355
1782832154807101400,0.815101318359375,0.5666512250900269,0.10492663085460663,-0.42807748913764954
1782832154817030400,0.825030517578125,0.5870555639266968,0.05420485511422157,-0.45886895060539246
1782832154826959400,0.83495947265625,0.612351655960083,0.03276035562157631,-0.4535180926322937
1782832154836888300,0.844888427734375,0.6294800639152527,0.010976230725646019,-0.415691614151001
1782832154846816300,0.854816162109375,0.6481866836547852,-0.01479022391140461,-0.359498530626297
1782832154856745500,0.864745361328125,0.667472779750824,-0.03171887248754501,-0.2988940179347992
1782832154866674400,0.87467431640625,0.6825879216194153,-0.051727719604969025,-0.24277468025684357
1782832154876603400,0.884603271484375,0.7046194672584534,-0.06388930976390839,-0.1938801109790802
1782832154886531300,0.89453125,0.7150230407714844,-0.030512433499097824,-0.15610231459140778
1782832154896460300,0.904460205078125,0.7224106788635254,0.0015315208584070206,-0.1416831612586975
1782832154906389500,0.914389404296875,0.7345983982086182,0.007640868425369263,-0.14329680800437927
1782832154916318500,0.924318359375,0.7397013306617737,0.0083996020257473,-0.14011485874652863
1782832154926246400,0.934246337890625,0.7298928499221802,0.005409901961684227,-0.12732450664043427
1782832154936175400,0.94417529296875,0.7091153860092163,0.010308787226676941,-0.11699330806732178
1782832154946104600,0.9541044921875,0.6927663087844849,0.01840980164706707,-0.10932932049036026
1782832154956033500,0.964033447265625,0.6880106925964355,0.009879697114229202,-0.12124483287334442
1782832154965962500,0.97396240234375,0.6957300901412964,-0.005650191567838192,-0.14482781291007996
1782832154975890400,0.983890380859375,0.7170012593269348,-0.0026432164013385773,-0.17274253070354462
1782832154985819400,0.9938193359375,0.7421392798423767,0.016130242496728897,-0.17747539281845093
1782832154995748600,1.00374853515625,0.767382025718689,0.05412742495536804,-0.15198974311351776
1782832155005677600,1.013677490234375,0.7681482434272766,0.11053334921598434,-0.10478928685188293
1782832155015605500,1.02360546875,0.7528843283653259,0.18425577878952026,-0.04533927142620087
1782832155025534500,1.033534423828125,0.7181421518325806,0.2498803436756134,0.013095761649310589
1782832155035463400,1.04346337890625,0.6804038286209106,0.26086747646331787,0.047884903848171234
1782832155045392600,1.053392578125,0.6504945755004883,0.22266051173210144,0.05483186990022659
1782832155055320600,1.063320556640625,0.6450992822647095,0.1794336885213852,0.042080655694007874
1782832155065249300,1.073249267578125,0.6514230966567993,0.12123450636863708,0.011538035236299038
1782832155075178200,1.08317822265625,0.664524257183075,0.055930864065885544,-0.02585487812757492
1782832155085107200,1.093107177734375,0.6875594854354858,0.0034591853618621826,-0.0608130507171154
1782832155095035100,1.10303515625,0.7153605222702026,-0.0358583927154541,-0.09529965370893478
1782832155104964400,1.11296435546875,0.7681263089179993,-0.03512422367930412,-0.11536165326833725
1782832155114893300,1.122893310546875,0.8381642699241638,0.0027951961383223534,-0.11133841425180435
1782832155124822000,1.132822021484375,0.9140758514404297,0.07333497703075409,-0.08204569667577744
1782832155134750200,1.142750244140625,0.9815254211425781,0.18258875608444214,-0.03987560793757439
1782832155144679200,1.15267919921875,1.040962815284729,0.30768272280693054,0.01294313557446003
1782832155154608000,1.162608154296875,1.0863851308822632,0.4185653030872345,0.05041247978806496
1782832155164537000,1.172537109375,1.1289838552474976,0.49332502484321594,0.06685297191143036
1782832155174465300,1.18246533203125,1.1657112836837769,0.5399309396743774,0.078199103474617
1782832155184394200,1.192394287109375,1.1919004917144775,0.5604939460754395,0.08742929995059967
1782832155194323000,1.202322998046875,1.214797019958496,0.559184193611145,0.1009560227394104
1782832155204252200,1.212252197265625,1.2334229946136475,0.5369792580604553,0.11197639256715775
1782832155214181000,1.22218115234375,1.2597720623016357,0.49317237734794617,0.1249648854136467
1782832155224109000,1.232109130859375,1.2942818403244019,0.4176952540874481,0.13425453007221222
1782832155234038000,1.2420380859375,1.3297988176345825,0.31139838695526123,0.14968089759349823
1782832155243967000,1.251967041015625,1.3526935577392578,0.2233196198940277,0.16286320984363556
1782832155253896200,1.261896240234375,1.369862675666809,0.1663476824760437,0.1764967292547226
1782832155263824100,1.27182421875,1.3756670951843262,0.0716126337647438,0.16622665524482727
1782832155273753000,1.281753173828125,1.3884577751159668,-0.01752949133515358,0.14108695089817047
1782832155283682000,1.29168212890625,1.397535800933838,-0.07887531071901321,0.11444547772407532
1782832155293611000,1.301611083984375,1.3971328735351562,-0.14856676757335663,0.07539688050746918
1782832155303539200,1.311539306640625,1.394516110420227,-0.20823794603347778,0.010717825032770634
1782832155313468200,1.32146826171875,1.3902935981750488,-0.2657736837863922,-0.07237386703491211
1782832155323397000,1.331397216796875,1.3825547695159912,-0.33108821511268616,-0.15084582567214966
1782832155333326000,1.341326171875,1.3479329347610474,-0.36254361271858215,-0.2046605795621872
1782832155343254000,1.35125390625,1.3131405115127563,-0.38820528984069824,-0.2124934196472168
1782832155353183200,1.361183349609375,1.277736783027649,-0.402351975440979,-0.1794092357158661
1782832155363112200,1.3711123046875,1.2298693656921387,-0.35727614164352417,-0.12161359190940857
1782832155373041200,1.381041259765625,1.1718883514404297,-0.27487844228744507,-0.053513895720243454
1782832155382969000,1.390968994140625,1.1205817461013794,-0.15162895619869232,-0.006398316938430071
1782832155392898000,1.40089794921875,1.0874145030975342,-0.02411760576069355,0.02599344402551651
1782832155402827300,1.4108271484375,1.0695985555648804,0.10832169651985168,0.05183269828557968
1782832155412756200,1.420756103515625,1.061655879020691,0.23372729122638702,0.07317793369293213
1782832155422685200,1.430685302734375,1.0708258152008057,0.3647401034832001,0.08684518188238144
1782832155432613000,1.440613037109375,1.089935064315796,0.447527676820755,0.07472114264965057
1782832155442542000,1.4505419921875,1.1152501106262207,0.47460833191871643,0.05158836767077446
1782832155452471300,1.46047119140625,1.1391316652297974,0.47549381852149963,0.03276913985610008
1782832155462400300,1.470400146484375,1.1441891193389893,0.41903799772262573,0.026195291429758072
1782832155472328200,1.480328125,1.1379899978637695,0.33834022283554077,0.02413959801197052
1782832155482257200,1.490257080078125,1.1232759952545166,0.24189482629299164,0.03170701861381531
1782832155492186000,1.50018603515625,1.0960873365402222,0.14866715669631958,0.03074641525745392
1782832155502115300,1.510115234375,1.0580552816390991,0.05573831871151924,0.01940474659204483
1782832155512043300,1.520043212890625,1.0252594947814941,-0.010945103131234646,0.0022436026483774185
1782832155521972200,1.52997216796875,0.985026478767395,-0.04783838987350464,-0.01436053216457367
1782832155531901200,1.539901123046875,0.9241964221000671,-0.07254133373498917,-0.0283900648355484
1782832155541830100,1.549830078125,0.86305171251297,-0.08376337587833405,-0.04413561150431633
1782832155551758000,1.559758056640625,0.7967251539230347,-0.10027843713760376,-0.06245097145438194
1782832155561687300,1.569687255859375,0.7310858964920044,-0.11232230067253113,-0.0758926272392273
1782832155571616300,1.5796162109375,0.6632855534553528,-0.1054324358701706,-0.08981136977672577
1782832155581545200,1.589545166015625,0.597772479057312,-0.0699024647474289,-0.09605350345373154
1782832155591473200,1.59947314453125,0.5309319496154785,-0.04128360375761986,-0.10118062049150467
1782832155601402000,1.609402099609375,0.464608758687973,-0.02829558774828911,-0.10467913746833801
1782832155611331300,1.619331298828125,0.4037477970123291,-0.022672057151794434,-0.1041150838136673
1782832155621260300,1.62926025390625,0.3493957221508026,-0.029804326593875885,-0.09889808297157288
1782832155631188200,1.639188232421875,0.3130483627319336,-0.043718546628952026,-0.08349516242742538
1782832155641117200,1.6491171875,0.28182291984558105,-0.06644563376903534,-0.0611901730298996
1782832155651046400,1.65904638671875,0.24996589124202728,-0.1305183619260788,-0.05541137605905533
1782832155660975000,1.66897509765625,0.21365772187709808,-0.2264539897441864,-0.062013961374759674
1782832155670904000,1.678904052734375,0.16876055300235748,-0.3399190306663513,-0.07554441690444946
1782832155680832300,1.688832275390625,0.10868921875953674,-0.45247483253479004,-0.09519664943218231
1782832155690761200,1.69876123046875,0.038216911256313324,-0.5236086845397949,-0.1097649335861206
1782832155700690200,1.708690185546875,-0.018871653825044632,-0.5548430681228638,-0.12581531703472137
1782832155710619100,1.718619140625,-0.060517098754644394,-0.5326943397521973,-0.14086537063121796
1782832155720547000,1.728547119140625,-0.10503408312797546,-0.4741170108318329,-0.13720495998859406
1782832155730476000,1.73847607421875,-0.13695047795772552,-0.3758660852909088,-0.11272145807743073
1782832155740405000,1.748405029296875,-0.17490972578525543,-0.26597660779953003,-0.09463156014680862
1782832155750334200,1.758334228515625,-0.22220852971076965,-0.15962356328964233,-0.08618693798780441
1782832155760262100,1.76826220703125,-0.2675020694732666,-0.058919861912727356,-0.09923099726438522
1782832155770191000,1.778191162109375,-0.29982805252075195,0.039896730333566666,-0.12871405482292175
1782832155780120000,1.7881201171875,-0.324648380279541,0.13037662208080292,-0.1675051599740982
1782832155790049000,1.798049072265625,-0.34141457080841064,0.2075377255678177,-0.18178610503673553
1782832155799977000,1.80797705078125,-0.3527020812034607,0.28894707560539246,-0.171519935131073
1782832155809906200,1.81790625,-0.3552749752998352,0.3835766315460205,-0.12037099897861481
1782832155819835100,1.827835205078125,-0.33486348390579224,0.48238757252693176,-0.03865692764520645
1782832155829764000,1.83776416015625,-0.29496586322784424,0.5723310708999634,0.05618596076965332
1782832155839693000,1.847693115234375,-0.23644804954528809,0.6606806516647339,0.15844637155532837
1782832155849621000,1.85762109375,-0.18545331060886383,0.7235373854637146,0.2631687819957733
1782832155859550200,1.86755029296875,-0.1541949212551117,0.753394365310669,0.3531476557254791
1782832155869479200,1.877479248046875,-0.14379821717739105,0.7529858350753784,0.42383912205696106
1782832155879408000,1.887408203125,-0.15171636641025543,0.7175658345222473,0.46810412406921387
1782832155889336000,1.897336181640625,-0.15831834077835083,0.6591784358024597,0.4883236587047577
1782832155899265000,1.90726513671875,-0.1598004698753357,0.5778729319572449,0.48653462529182434
1782832155909194200,1.9171943359375,-0.16075627505779266,0.46332526206970215,0.47173383831977844
1782832155919123200,1.927123291015625,-0.15941470861434937,0.30734744668006897,0.44818735122680664
1782832155929051100,1.937051025390625,-0.14640145003795624,0.1497087925672531,0.4193333387374878
1782832155938980000,1.94697998046875,-0.1294398456811905,0.001605261117219925,0.3912772238254547
1782832155948909000,1.956908935546875,-0.11483587324619293,-0.13456189632415771,0.354164719581604
1782832155958838300,1.96683837890625,-0.09937700629234314,-0.25223469734191895,0.30179929733276367
1782832155968766200,1.97676611328125,-0.09054303914308548,-0.342227965593338,0.23195628821849823
1782832155978695200,1.986695068359375,-0.09623640775680542,-0.4390147030353546,0.1555129438638687
1782832155988624100,1.9966240234375,-0.12154947966337204,-0.5069879293441772,0.07596912980079651
1782832155998553300,2.00655322265625,-0.1559474766254425,-0.5278393626213074,-0.0010528583079576492
1782832156008482300,2.016482421875,-0.19422589242458344,-0.5172489881515503,-0.10623040795326233
1782832156018410200,2.02641015625,-0.20698563754558563,-0.45164209604263306,-0.22235490381717682
1782832156028339200,2.036339111328125,-0.20473259687423706,-0.33598047494888306,-0.32564613223075867
1782832156038268200,2.04626806640625,-0.19680587947368622,-0.16746263206005096,-0.39541947841644287
1782832156048197400,2.056197265625,-0.1794753521680832,0.03385557234287262,-0.42591479420661926
1782832156058125300,2.066125244140625,-0.1467832624912262,0.237345352768898,-0.42167654633522034
1782832156068054800,2.0760546875,-0.08571884036064148,0.40328556299209595,-0.3913863003253937
1782832156077983700,2.085983642578125,0.007888725958764553,0.5565958023071289,-0.3542880117893219
1782832156087912700,2.09591259765625,0.10346078872680664,0.6580015420913696,-0.3242824375629425
1782832156097841000,2.1058408203125,0.19270478188991547,0.6808083653450012,-0.3162640631198883
1782832156107769600,2.11576953125,0.2801305055618286,0.6291603446006775,-0.3221094608306885
1782832156117698600,2.125698486328125,0.35793668031692505,0.5080397129058838,-0.3230704069137573
1782832156127627500,2.13562744140625,0.4114193320274353,0.33927121758461,-0.30995622277259827
1782832156137555700,2.1455556640625,0.45933154225349426,0.1639484316110611,-0.29407286643981934
1782832156147484700,2.155484619140625,0.48182329535484314,-0.05086507275700569,-0.2798313498497009
1782832156157413600,2.16541357421875,0.5215504765510559,-0.2814219295978546,-0.2687162160873413
1782832156167342600,2.175342529296875,0.5502148866653442,-0.4775847792625427,-0.24263696372509003
1782832156177271600,2.185271484375,0.5642640590667725,-0.5969228744506836,-0.20110297203063965
1782832156187199500,2.195199462890625,0.5746375918388367,-0.6253670454025269,-0.1533154845237732
1782832156197128700,2.205128662109375,0.5970699787139893,-0.5685895085334778,-0.12762509286403656
1782832156207057700,2.2150576171875,0.6340280175209045,-0.4521574079990387,-0.11008897423744202
1782832156216986600,2.224986572265625,0.6650633215904236,-0.3249613046646118,-0.11803174018859863
1782832156226914600,2.23491455078125,0.701338529586792,-0.208213672041893,-0.14041773974895477
1782832156236843500,2.244843505859375,0.7408319115638733,-0.1239505335688591,-0.18135833740234375
1782832156246772700,2.254772705078125,0.77940434217453,-0.0866478979587555,-0.2168625295162201
1782832156256701700,2.26470166015625,0.8018937110900879,-0.09946461021900177,-0.2357340157032013
1782832156266629600,2.274629638671875,0.8041760921478271,-0.14471092820167542,-0.21973825991153717
1782832156276558600,2.28455859375,0.7802313566207886,-0.20038804411888123,-0.18298618495464325
1782832156286487800,2.29448779296875,0.7495253682136536,-0.2290646880865097,-0.12186477333307266
1782832156296416800,2.304416748046875,0.7358765602111816,-0.2194853127002716,-0.04518609493970871
1782832156306345700,2.314345703125,0.7354691028594971,-0.15055444836616516,0.053413715213537216
1782832156316273700,2.324273681640625,0.7403533458709717,-0.06031748279929161,0.14669735729694366
1782832156326202600,2.33420263671875,0.7519708275794983,0.03745275363326073,0.22144722938537598
1782832156336131800,2.3441318359375,0.7697868347167969,0.1633651852607727,0.26473185420036316
1782832156346060800,2.354060791015625,0.795784592628479,0.30879881978034973,0.26936760544776917
1782832156355988700,2.36398876953125,0.8428068161010742,0.4460994005203247,0.2585609555244446
1782832156365917700,2.373917724609375,0.9010751843452454,0.4764900505542755,0.2271319031715393
1782832156375846700,2.3838466796875,0.9429017901420593,0.42594271898269653,0.19383755326271057
1782832156385775900,2.39377587890625,0.9561824202537537,0.3478649854660034,0.16394144296646118
1782832156395703800,2.403703857421875,0.9395089745521545,0.2284885197877884,0.10983604937791824
1782832156405632800,2.4136328125,0.8916122913360596,0.0480436347424984,0.0412181057035923
1782832156415561700,2.423561767578125,0.8572525978088379,-0.15859106183052063,-0.01785307750105858
1782832156425490700,2.43349072265625,0.8191084265708923,-0.34933462738990784,-0.041892632842063904
1782832156435418600,2.443418701171875,0.7753873467445374,-0.48735958337783813,-0.010804000310599804
1782832156445347800,2.453347900390625,0.7666715979576111,-0.5288583040237427,0.05364556238055229
1782832156455276800,2.46327685546875,0.7790020704269409,-0.4605650007724762,0.12333779782056808
1782832156465205800,2.473205810546875,0.8223553895950317,-0.31443601846694946,0.18099549412727356
1782832156475134700,2.483134765625,0.897262454032898,-0.08213332295417786,0.23628348112106323
1782832156485062700,2.493062744140625,0.9694282412528992,0.21101973950862885,0.28146347403526306
1782832156494992000,2.502991943359375,1.0484333038330078,0.4992648959159851,0.3082847595214844
1782832156504920800,2.5129208984375,1.1054749488830566,0.714767336845398,0.3230440020561218
1782832156514849500,2.522849609375,1.1347119808197021,0.8215236067771912,0.3270654082298279
1782832156524777700,2.53277783203125,1.1309542655944824,0.8394892811775208,0.34215274453163147
1782832156534706700,2.542706787109375,1.1114555597305298,0.8128258585929871,0.3663836419582367
1782832156544635600,2.5526357421875,1.08493173122406,0.752971887588501,0.39405572414398193
1782832156554564600,2.562564697265625,1.067561149597168,0.6694207191467285,0.42139989137649536
1782832156564492800,2.572492919921875,1.0587114095687866,0.5569040179252625,0.4456216096878052
1782832156574421800,2.582421875,1.0695234537124634,0.45380285382270813,0.4647141993045807
1782832156584350500,2.5923505859375,1.0695269107818604,0.33994871377944946,0.4724658727645874
1782832156594279700,2.60227978515625,1.052913784980774,0.23126375675201416,0.4550597667694092
1782832156604208600,2.612208740234375,1.020703911781311,0.15944363176822662,0.39061659574508667
1782832156614136600,2.622136474609375,0.975862979888916,0.08148300647735596,0.2763802409172058
1782832156624065500,2.6320654296875,0.9271245002746582,-0.04504591226577759,0.10925568640232086
1782832156633994800,2.641994873046875,0.8797212243080139,-0.18830497562885284,-0.08546332269906998
1782832156643923700,2.651923828125,0.8177393078804016,-0.39436572790145874,-0.2747610807418823
1782832156653851600,2.6618515625,0.7336333990097046,-0.6445968747138977,-0.4135172367095947
1782832156663780600,2.671780517578125,0.6280577182769775,-0.8452175855636597,-0.4828110933303833
1782832156673709600,2.68170947265625,0.49901407957077026,-0.9496500492095947,-0.4969257414340973
1782832156683638800,2.691638671875,0.3919731378555298,-0.9434624910354614,-0.4610612094402313
1782832156693566700,2.701566650390625,0.3239298462867737,-0.8058468103408813,-0.3726905584335327
1782832156703495700,2.71149560546875,0.29695868492126465,-0.5519751310348511,-0.23181864619255066
1782832156713424600,2.721424560546875,0.3051517605781555,-0.20303791761398315,-0.05296649783849716
1782832156723353600,2.731353515625,0.34039735794067383,0.22525431215763092,0.13117671012878418
1782832156733282800,2.74128271484375,0.38920748233795166,0.6391444802284241,0.243584543466568
1782832156743210800,2.751210693359375,0.44059425592422485,0.9009803533554077,0.24906745553016663
1782832156753139700,2.7611396484375,0.49086132645606995,1.024910807609558,0.18055474758148193
1782832156763068700,2.771068603515625,0.5140460133552551,1.0360363721847534,0.07605283707380295
1782832156772997600,2.78099755859375,0.493081271648407,0.9494259357452393,-0.031307823956012726
1782832156782925600,2.790925537109375,0.4425443112850189,0.7951452732086182,-0.1183582991361618
1782832156792854800,2.800854736328125,0.3693235218524933,0.5733347535133362,-0.18052415549755096
1782832156802783700,2.81078369140625,0.27917978167533875,0.3354247510433197,-0.22284391522407532
1782832156812712700,2.820712646484375,0.19148799777030945,0.10869336128234863,-0.2414468675851822
1782832156822640600,2.830640625,0.12680593132972717,-0.0888090580701828,-0.24102795124053955
1782832156832569600,2.840569580078125,0.08594051003456116,-0.23523500561714172,-0.23339425027370453
1782832156842498800,2.850498779296875,0.07961975783109665,-0.30200472474098206,-0.22273734211921692
1782832156852427800,2.860427734375,0.1062733456492424,-0.26770371198654175,-0.20640535652637482
1782832156862356700,2.870356689453125,0.14630545675754547,-0.22669900953769684,-0.19554738700389862
1782832156872284700,2.88028466796875,0.18235568702220917,-0.19086694717407227,-0.18958677351474762
1782832156882213600,2.890213623046875,0.2146316021680832,-0.16858774423599243,-0.18522344529628754
1782832156892142800,2.900142822265625,0.22216320037841797,-0.14871792495250702,-0.16966146230697632
1782832156902071800,2.91007177734375,0.20279455184936523,-0.09531009942293167,-0.14369536936283112
1782832156911999700,2.919999755859375,0.16605490446090698,-0.03750772774219513,-0.1349785476922989
1782832156921928700,2.9299287109375,0.11720268428325653,-0.0030392352491617203,-0.144682839512825
1782832156931857700,2.939857666015625,0.0716860443353653,0.0013916660100221634,-0.17217254638671875
1782832156941787000,2.949786865234375,0.028472792357206345,-0.01165595930069685,-0.19457292556762695
1782832156951714800,2.95971484375,-0.011540373787283897,-0.015566002577543259,-0.19939565658569336
1782832156961643800,2.969643798828125,-0.05319035053253174,-0.024011686444282532,-0.18567904829978943
1782832156971572700,2.97957275390625,-0.08869686722755432,-0.05951908230781555,-0.17407308518886566
1782832156981501700,2.989501708984375,-0.12168331444263458,-0.13191765546798706,-0.17071643471717834
1782832156991430700,2.9994306640625,-0.14834308624267578,-0.20924414694309235,-0.16533024609088898
1782832157001358800,3.00935888671875,-0.17208358645439148,-0.29363012313842773,-0.14848361909389496
1782832157011287800,3.019287841796875,-0.1876429319381714,-0.33773496747016907,-0.11149352788925171
1782832157021216500,3.029216552734375,-0.20295611023902893,-0.3140464127063751,-0.049839749932289124
1782832157031145700,3.039145751953125,-0.2088964879512787,-0.22467580437660217,0.01232234388589859
1782832157041074000,3.049073974609375,-0.20366789400577545,-0.1021387055516243,0.05391053482890129
1782832157051002600,3.059002685546875,-0.19275251030921936,-0.008079088293015957,0.04847510904073715
1782832157060931600,3.068931640625,-0.20387068390846252,0.047079235315322876,-0.002483941614627838
1782832157070859800,3.07885986328125,-0.2389729619026184,0.04733193293213844,-0.09250524640083313
1782832157080788700,3.088788818359375,-0.284578800201416,0.00386674702167511,-0.18759021162986755
1782832157090716700,3.098716552734375,-0.3215559422969818,-0.04817110672593117,-0.24960249662399292
1782832157100645600,3.108645751953125,-0.379751056432724,-0.05732119828462601,-0.2568665146827698
1782832157110574800,3.118574951171875,-0.4354505240917206,-0.04264477267861366,-0.1985931247472763
1782832157120503600,3.128503662109375,-0.461239755153656,0.03415440022945404,-0.09449228644371033
1782832157130431700,3.138431640625,-0.45579075813293457,0.14242519438266754,0.011947670951485634
1782832157140360700,3.148360595703125,-0.4129815101623535,0.25902238488197327,0.09924183040857315
1782832157150289700,3.15828955078125,-0.3518426716327667,0.3550080955028534,0.1465674787759781
1782832157160218600,3.168218505859375,-0.2929263710975647,0.41121649742126465,0.17166031897068024
1782832157170147600,3.178147705078125,-0.2394898384809494,0.44287559390068054,0.19401812553405762
1782832157180075500,3.188075439453125,-0.19221100211143494,0.46738386154174805,0.2480185180902481
1782832157190004500,3.19800439453125,-0.15131625533103943,0.48079580068588257,0.33528465032577515
1782832157199933700,3.20793359375,-0.11837535351514816,0.5034710168838501,0.4566560983657837
1782832157209862700,3.217862548828125,-0.09483961760997772,0.5310392379760742,0.5732495188713074
1782832157219790600,3.22779052734375,-0.07023200392723083,0.545476496219635,0.6720972657203674
1782832157229719600,3.237719482421875,-0.044486209750175476,0.5111201405525208,0.7365915775299072
1782832157239648500,3.2476484375,-0.01483910158276558,0.44640693068504333,0.7732683420181274
1782832157249577700,3.25757763671875,-0.0003898264840245247,0.3564959466457367,0.7799730896949768
1782832157259505700,3.267505615234375,0.0020301882177591324,0.23979465663433075,0.7583982944488525
1782832157269434600,3.2774345703125,-0.00667819008231163,0.11931511014699936,0.7092881798744202
1782832157279363600,3.287363525390625,-0.028198661282658577,-0.024282807484269142,0.6278524398803711
1782832157289292500,3.29729248046875,-0.06206546351313591,-0.1799008697271347,0.5191099047660828
1782832157299221800,3.3072216796875,-0.09390248358249664,-0.32875025272369385,0.37791627645492554
1782832157309149700,3.317149658203125,-0.10786443948745728,-0.49301886558532715,0.2188643515110016
1782832157319078700,3.32707861328125,-0.10495493561029434,-0.6407231092453003,0.05683284252882004
1782832157329007600,3.337007568359375,-0.10387377440929413,-0.7568486928939819,-0.08278464525938034
1782832157338936600,3.3469365234375,-0.10822218656539917,-0.817058801651001,-0.17892315983772278
1782832157348864500,3.356864501953125,-0.11620651185512543,-0.7815592885017395,-0.22661669552326202
1782832157358793700,3.366793701171875,-0.11756418645381927,-0.6525147557258606,-0.20549409091472626
1782832157368722700,3.37672265625,-0.10486617684364319,-0.3906909227371216,-0.12814961373806
1782832157378651600,3.386651611328125,-0.07442145049571991,-0.04534097760915756,-0.01276949793100357
1782832157388580600,3.39658056640625,-0.02320675179362297,0.341002494096756,0.10112781077623367
1782832157398508500,3.406508544921875,0.047405365854501724,0.6656063795089722,0.15334759652614594
1782832157408437800,3.416437744140625,0.12262959033250809,0.8609277009963989,0.12289323657751083
1782832157418366700,3.42636669921875,0.19886764883995056,0.9581202864646912,0.045927345752716064
1782832157428295700,3.436295654296875,0.24191182851791382,0.9891231656074524,-0.03818492591381073
1782832157438223600,3.4462236328125,0.2600562274456024,0.9303402900695801,-0.11198005080223083
1782832157448152600,3.456152587890625,0.2615976333618164,0.8085256814956665,-0.169180229306221
1782832157458081800,3.466081787109375,0.24603040516376495,0.6192391514778137,-0.21817439794540405
1782832157468010800,3.4760107421875,0.21921101212501526,0.3695201277732849,-0.2653530538082123
1782832157477939700,3.485939697265625,0.19656242430210114,0.11575283110141754,-0.3118036687374115
1782832157487867600,3.49586767578125,0.17867355048656464,-0.12029216438531876,-0.34280696511268616
1782832157497796900,3.505796875,0.17678803205490112,-0.29964780807495117,-0.33846840262413025
1782832157507725800,3.515725830078125,0.17468339204788208,-0.41636326909065247,-0.3154140114784241
1782832157517654800,3.52565478515625,0.19222404062747955,-0.47242069244384766,-0.27172619104385376
1782832157527582700,3.535582763671875,0.21666216850280762,-0.4603978097438812,-0.2288755178451538
1782832157537511700,3.54551171875,0.24050624668598175,-0.41185262799263,-0.2040862739086151
1782832157547440600,3.555440673828125,0.25549131631851196,-0.3286043405532837,-0.20867490768432617
1782832157557369600,3.56536962890625,0.2727006673812866,-0.23262348771095276,-0.25235021114349365
1782832157567297800,3.5752978515625,0.2782245874404907,-0.14655332267284393,-0.3090944290161133
1782832157577226800,3.585226806640625,0.2688569128513336,-0.0678931325674057,-0.3605579137802124
1782832157587155500,3.595155517578125,0.24979908764362335,-0.010511322878301144,-0.3866196274757385
1782832157597084700,3.605084716796875,0.2352297306060791,0.04105120152235031,-0.38229838013648987
1782832157607013600,3.615013671875,0.2411956787109375,0.09851175546646118,-0.3386682868003845
1782832157616941600,3.624941650390625,0.2676749527454376,0.13260102272033691,-0.25000980496406555
1782832157626870500,3.63487060546875,0.2863202691078186,0.16827228665351868,-0.1455368995666504
1782832157636799500,3.644799560546875,0.3088860511779785,0.17901067435741425,-0.038692474365234375
1782832157646728700,3.654728759765625,0.3317244350910187,0.18019653856754303,0.04222986102104187
1782832157656656600,3.66465673828125,0.35009199380874634,0.17108745872974396,0.08720079809427261
1782832157666585600,3.674585693359375,0.36314186453819275,0.16727465391159058,0.09762191772460938
1782832157676514600,3.6845146484375,0.3662114143371582,0.14782185852527618,0.0723477303981781
1782832157686443500,3.694443603515625,0.34540867805480957,0.11058204621076584,0.04492085427045822
1782832157696372700,3.704372802734375,0.30788153409957886,0.09061446040868759,0.04269178956747055
1782832157706300700,3.71430078125,0.2664766311645508,0.0654212161898613,0.047152526676654816
1782832157716229600,3.724229736328125,0.23838162422180176,0.033813487738370895,0.05878548324108124
1782832157726158600,3.73415869140625,0.22801950573921204,0.032237980514764786,0.06900273263454437
1782832157736087600,3.744087646484375,0.23135165870189667,0.06016654893755913,0.07547155767679214
1782832157746015500,3.754015380859375,0.23073257505893707,0.1030481830239296,0.0746474415063858
1782832157755944700,3.76394482421875,0.21496771275997162,0.08782422542572021,0.05646844580769539
1782832157765873700,3.773873779296875,0.18174095451831818,-0.0008856160566210747,0.005867974832653999
1782832157775802600,3.783802734375,0.12860237061977386,-0.11170081794261932,-0.06605894863605499
1782832157785731600,3.793731689453125,0.07128570973873138,-0.2280900478363037,-0.1447819024324417
1782832157795659500,3.803659423828125,0.012446095235645771,-0.28101956844329834,-0.20446254312992096
1782832157805588700,3.813588623046875,-0.04957074299454689,-0.24754387140274048,-0.23775196075439453
1782832157815517700,3.823517578125,-0.09645169973373413,-0.15689413249492645,-0.24013468623161316
1782832157825446700,3.83344677734375,-0.12718071043491364,-0.016067001968622208,-0.20945045351982117
1782832157835374600,3.84337451171875,-0.11976618319749832,0.1387353539466858,-0.13713443279266357
1782832157845303800,3.8533037109375,-0.0853353813290596,0.3018944561481476,-0.03491952642798424
1782832157855232800,3.863232666015625,-0.034522537142038345,0.4187757968902588,0.07838039845228195
1782832157865161700,3.87316162109375,0.03192370757460594,0.45287197828292847,0.18727083504199982
1782832157875090700,3.883090576171875,0.11402630060911179,0.42086371779441833,0.28907307982444763
1782832157885018600,3.8930185546875,0.19914668798446655,0.3240112364292145,0.3897513747215271
1782832157894947800,3.90294775390625,0.2653443515300751,0.1970072239637375,0.5094761252403259
1782832157904876800,3.912876708984375,0.27075910568237305,0.09861459583044052,0.6341256499290466
1782832157914805800,3.9228056640625,0.215299591422081,0.042301520705223083,0.7148974537849426
1782832157924733700,3.932733642578125,0.15608468651771545,0.037242621183395386,0.744286298751831
1782832157934662700,3.94266259765625,0.1104825809597969,0.0855579599738121,0.7339657545089722
1782832157944592000,3.952591796875,0.061744771897792816,0.14803136885166168,0.6929081082344055
1782832157954520600,3.9625205078125,0.021595489233732224,0.17390210926532745,0.6359103322029114
1782832157964449500,3.972449462890625,-0.01567467674612999,0.15329432487487793,0.5685228109359741
1782832157974377700,3.982377685546875,-0.045332171022892,0.08809029310941696,0.5014351010322571
1782832157984306700,3.992306640625,-0.06892659515142441,-0.037857215851545334,0.4342365264892578
1782832157994235600,4.002235595703125,-0.08354762196540833,-0.20285789668560028,0.3656575083732605
1782832158004164600,4.01216455078125,-0.10223822295665741,-0.3767381012439728,0.2919803261756897
1782832158014092800,4.0220927734375,-0.1195269301533699,-0.5543166399002075,0.2050291895866394
1782832158024021500,4.032021484375,-0.14289706945419312,-0.709641695022583,0.10224434733390808
1782832158033950500,4.041950439453125,-0.17854800820350647,-0.8317105770111084,-0.007656320929527283
1782832158043879700,4.051879638671875,-0.24468493461608887,-0.9167347550392151,-0.12433451414108276
1782832158053808600,4.06180859375,-0.33724096417427063,-0.9838733077049255,-0.22376389801502228
1782832158063738000,4.071738037109375,-0.43725311756134033,-0.9862973690032959,-0.2912943959236145
1782832158073667000,4.0816669921875,-0.5300251841545105,-0.8811101913452148,-0.32805877923965454
1782832158083596300,4.09159619140625,-0.6063372492790222,-0.7003400921821594,-0.3291735053062439
1782832158093525200,4.101525146484375,-0.6473100185394287,-0.45485442876815796,-0.32576170563697815
1782832158103454200,4.1114541015625,-0.6474115252494812,-0.17608384788036346,-0.30440986156463623
1782832158113382100,4.121382080078125,-0.6299044489860535,0.10147292912006378,-0.2838899493217468
1782832158123311000,4.13131103515625,-0.6002054214477539,0.3084663450717926,-0.279482364654541
1782832158133240300,4.141240234375,-0.5515899062156677,0.3909665644168854,-0.2882039546966553
1782832158143169300,4.151169189453125,-0.5038747191429138,0.3771979510784149,-0.2765067219734192
1782832158153097200,4.16109716796875,-0.4726177155971527,0.34142768383026123,-0.23853644728660583
1782832158163026200,4.171026123046875,-0.4625602066516876,0.27194643020629883,-0.18464958667755127
1782832158172955400,4.180955322265625,-0.4703235924243927,0.15679851174354553,-0.1568184792995453
1782832158182884000,4.190884033203125,-0.4666600227355957,0.03628300130367279,-0.1519722044467926
1782832158192813000,4.20081298828125,-0.47234082221984863,-0.05866347998380661,-0.17345193028450012
1782832158202741200,4.2107412109375,-0.4874146580696106,-0.15504728257656097,-0.2044438272714615
1782832158212670200,4.220670166015625,-0.5150372385978699,-0.2176147848367691,-0.24089238047599792
1782832158222599200,4.23059912109375,-0.538906455039978,-0.28213489055633545,-0.2750118672847748
1782832158232528100,4.240528076171875,-0.5584396719932556,-0.331856369972229,-0.27933764457702637
1782832158242456300,4.250456298828125,-0.58321613073349,-0.35257717967033386,-0.24826925992965698
1782832158252385000,4.260385009765625,-0.599577784538269,-0.34066030383110046,-0.1946326643228531
1782832158262314000,4.27031396484375,-0.5993812084197998,-0.3004254996776581,-0.12691885232925415
1782832158272243200,4.2802431640625,-0.5988374352455139,-0.26653704047203064,-0.07493475079536438
1782832158282172200,4.290172119140625,-0.6109087467193604,-0.2648387551307678,-0.04660111293196678
1782832158292100000,4.30010009765625,-0.6358010172843933,-0.3127266466617584,-0.043745141476392746
1782832158302029000,4.310029052734375,-0.661699652671814,-0.3859238922595978,-0.039969947189092636
1782832158311958000,4.3199580078125,-0.685606062412262,-0.46528661251068115,-0.022858604788780212
1782832158321887200,4.32988720703125,-0.7143609523773193,-0.5167610049247742,0.008064149878919125
1782832158331815200,4.339815185546875,-0.7570397257804871,-0.49956661462783813,0.04951172322034836
1782832158341744000,4.349744140625,-0.8236671686172485,-0.41961583495140076,0.10039405524730682
1782832158351673000,4.359673095703125,-0.8774334788322449,-0.31891319155693054,0.13264892995357513
1782832158361602000,4.36960205078125,-0.9335026144981384,-0.2107490748167038,0.14262810349464417
1782832158371531300,4.37953125,-0.9751368761062622,-0.14718768000602722,0.1127450242638588
1782832158381459200,4.389459228515625,-0.9993556141853333,-0.10392707586288452,0.05311358720064163
1782832158391388200,4.39938818359375,-1.0410971641540527,-0.13746505975723267,-0.059026800096035004
1782832158401317000,4.409317138671875,-1.0869306325912476,-0.24386823177337646,-0.21874810755252838
1782832158411246000,4.41924609375,-1.1428687572479248,-0.3884115517139435,-0.39667630195617676
1782832158421174000,4.429174072265625,-1.196468472480774,-0.5139609575271606,-0.5477277040481567
1782832158431103200,4.439103271484375,-1.2541190385818481,-0.576837956905365,-0.6223425269126892
1782832158441032200,4.4490322265625,-1.319366693496704,-0.5116986036300659,-0.5973426699638367
1782832158450961200,4.458961181640625,-1.3715749979019165,-0.38525116443634033,-0.5011247992515564
1782832158460890000,4.46889013671875,-1.3861502408981323,-0.19750632345676422,-0.3543761670589447
1782832158470818000,4.478818115234375,-1.3440853357315063,0.04063594341278076,-0.16861775517463684
1782832158480747300,4.488747314453125,-1.2657312154769897,0.32036644220352173,0.026569444686174393
1782832158490676200,4.49867626953125,-1.188889741897583,0.5579830408096313,0.18547892570495605
1782832158500605200,4.508605224609375,-1.1322592496871948,0.7123168706893921,0.2882634103298187
1782832158510534100,4.5185341796875,-1.0918726921081543,0.7852094173431396,0.3347363770008087
1782832158520462300,4.52846240234375,-1.0764135122299194,0.7884942293167114,0.3615024983882904
1782832158530391300,4.538391357421875,-1.0823824405670166,0.7231684923171997,0.38288235664367676
1782832158540320300,4.5483203125,-1.0932193994522095,0.5996567010879517,0.40890780091285706
1782832158550249200,4.558249267578125,-1.0884677171707153,0.45960742235183716,0.4497023820877075
1782832158560177200,4.56817724609375,-1.0857442617416382,0.29224663972854614,0.49773740768432617
1782832158570106400,4.5781064453125,-1.0741784572601318,0.12816525995731354,0.5497087240219116
1782832158580035300,4.588035400390625,-1.0669487714767456,-0.005944077391177416,0.6006823778152466
1782832158589964000,4.597964111328125,-1.063908576965332,-0.1301613599061966,0.631951093673706
1782832158599893000,4.60789306640625,-1.079667329788208,-0.2362489104270935,0.6318151950836182
1782832158609821200,4.6178212890625,-1.1127454042434692,-0.3447708487510681,0.5753830671310425
1782832158619750100,4.627750244140625,-1.1439379453659058,-0.4361151158809662,0.4823168218135834
1782832158629679000,4.63767919921875,-1.173209309577942,-0.47561779618263245,0.3602558970451355
1782832158639608000,4.647608154296875,-1.2175121307373047,-0.4970082938671112,0.20493096113204956
1782832158649536300,4.657536376953125,-1.2599951028823853,-0.5295289754867554,0.0009887628257274628
1782832158659465000,4.66746484375,-1.2716058492660522,-0.5416117906570435,-0.2118096947669983
1782832158669394200,4.677394287109375,-1.260933756828308,-0.504740834236145,-0.3897509276866913
1782832158679323100,4.6873232421875,-1.2378566265106201,-0.40099895000457764,-0.5096805691719055
1782832158689252000,4.697252197265625,-1.1983733177185059,-0.22052985429763794,-0.5563144087791443
1782832158699180000,4.707179931640625,-1.1377687454223633,-0.013343692757189274,-0.5411750078201294
1782832158709109000,4.71710888671875,-1.0475366115570068,0.17156198620796204,-0.4725426733493805
1782832158719038200,4.7270380859375,-0.9455662369728088,0.31105220317840576,-0.3796319365501404
1782832158728967200,4.73696728515625,-0.8427591323852539,0.3617103397846222,-0.2981778085231781
1782832158738896100,4.746896240234375,-0.7350215911865234,0.32510390877723694,-0.24185369908809662
1782832158748824000,4.756823974609375,-0.6164595484733582,0.27086594700813293,-0.19395726919174194
1782832158758753000,4.7667529296875,-0.512986421585083,0.19291844964027405,-0.14684592187404633
1782832158768682200,4.77668212890625,-0.44015592336654663,0.09055238217115402,-0.11377878487110138
1782832158778611200,4.786611083984375,-0.38630175590515137,-0.026651771739125252,-0.08636312186717987
1782832158788539100,4.7965390625,-0.3639985918998718,-0.13919642567634583,-0.08589866757392883
1782832158798468000,4.806468017578125,-0.3613637387752533,-0.2488238364458084,-0.11796839535236359
1782832158808397000,4.81639697265625,-0.3592771291732788,-0.31391656398773193,-0.1738945096731186
1782832158818326300,4.826326171875,-0.37047258019447327,-0.324192076921463,-0.2329156994819641
1782832158828255200,4.836255126953125,-0.38382378220558167,-0.2958190143108368,-0.29405975341796875
1782832158838183200,4.84618310546875,-0.3849501311779022,-0.2534225583076477,-0.357124924659729
1782832158848112000,4.856112060546875,-0.388027161359787,-0.21243786811828613,-0.40639472007751465
1782832158858041000,4.866041015625,-0.4049171507358551,-0.15784227848052979,-0.43829545378685
1782832158867970300,4.87597021484375,-0.43278127908706665,-0.12966284155845642,-0.4434302747249603
1782832158877898200,4.885898193359375,-0.4499411880970001,-0.07851789891719818,-0.4224846661090851
1782832158887827200,4.8958271484375,-0.45638683438301086,-0.022768616676330566,-0.3889501392841339
1782832158897756200,4.905756103515625,-0.4379034638404846,0.026876214891672134,-0.3589820861816406
1782832158907685000,4.91568505859375,-0.37273991107940674,0.09895573556423187,-0.33125510811805725
1782832158917614300,4.9256142578125,-0.2855066955089569,0.15136593580245972,-0.29789987206459045
1782832158927542300,4.935542236328125,-0.18924513459205627,0.17262408137321472,-0.24752485752105713
1782832158937471200,4.94547119140625,-0.09029147028923035,0.17971393465995789,-0.16783395409584045
1782832158947400200,4.955400146484375,-0.008723109029233456,0.1713995337486267,-0.07735279202461243
1782832158957329200,4.9653291015625,0.051516082137823105,0.1631893366575241,0.006254422478377819
1782832158967258000,4.975258056640625,0.08335363864898682,0.13629060983657837,0.07486516982316971
1782832158977186300,4.985186279296875,0.09409549832344055,0.06614531576633453,0.11456091701984406
1782832158987115300,4.995115234375,0.10820572823286057,0.005961600691080093,0.1409163624048233
1782832158997044000,5.0050439453125,0.10375259816646576,-0.046410299837589264,0.15924718976020813
1782832159006973200,5.01497314453125,0.09416867792606354,-0.11272381246089935,0.17977909743785858
1782832159016901400,5.0249013671875,0.07947889715433121,-0.15747420489788055,0.21406656503677368
1782832159026830000,5.034830078125,0.0527559369802475,-0.16457818448543549,0.25719350576400757
1782832159036759000,5.044759033203125,0.027968380600214005,-0.16251985728740692,0.28578221797943115
1782832159046688000,5.05468798828125,0.011005109176039696,-0.15977519750595093,0.31174325942993164
1782832159056617200,5.0646171875,0.005381419789046049,-0.1260361224412918,0.332750141620636
1782832159066544400,5.07454443359375,-0.012418615631759167,-0.09092845767736435,0.35419926047325134
1782832159076473600,5.0844736328125,-0.054020874202251434,-0.08268122375011444,0.36009249091148376
1782832159086402300,5.09440234375,-0.110231414437294,-0.1302521973848343,0.3249494135379791
1782832159096331300,5.104331298828125,-0.1927696168422699,-0.23641642928123474,0.23590975999832153
1782832159106260200,5.11426025390625,-0.24941372871398926,-0.37597405910491943,0.12314964830875397
1782832159116188400,5.1241884765625,-0.30466902256011963,-0.554663896560669,0.014083112590014935
1782832159126117400,5.134117431640625,-0.32265016436576843,-0.7313576936721802,-0.029812440276145935
1782832159136046300,5.14404638671875,-0.2969103455543518,-0.8394410610198975,-0.0021366761066019535
1782832159145975300,5.153975341796875,-0.2388092279434204,-0.8925032019615173,0.06193817779421806
1782832159155903200,5.1639033203125,-0.17481796443462372,-0.8659389615058899,0.1267741471529007
1782832159165832400,5.17383251953125,-0.11511468142271042,-0.735327422618866,0.15841196477413177
1782832159175761400,5.183761474609375,-0.047661103308200836,-0.5016134977340698,0.17058530449867249
1782832159185690400,5.1936904296875,0.04454632103443146,-0.16740086674690247,0.18757787346839905
1782832159195619300,5.203619384765625,0.12441804260015488,0.16797208786010742,0.2350742220878601
1782832159205547300,5.21354736328125,0.18569603562355042,0.4666679799556732,0.3056407868862152
1782832159215476500,5.2234765625,0.21532031893730164,0.7013723254203796,0.35765036940574646
1782832159225405400,5.233405517578125,0.23875640332698822,0.8252852559089661,0.37516146898269653
1782832159235334400,5.24333447265625,0.27430272102355957,0.843610405921936,0.3597595691680908
1782832159245263400,5.253263427734375,0.319583922624588,0.7756170034408569,0.33189624547958374
1782832159255191300,5.26319140625,0.34028029441833496,0.6549065709114075,0.31624311208724976
1782832159265120500,5.27312060546875,0.32654744386672974,0.5160980820655823,0.31978297233581543
1782832159275049500,5.283049560546875,0.27742111682891846,0.37366026639938354,0.33034753799438477
1782832159284978400,5.292978515625,0.22815369069576263,0.2432287633419037,0.3299664258956909
1782832159294906400,5.30290625,0.18579420447349548,0.12675030529499054,0.2959001362323761
1782832159304835300,5.31283544921875,0.1638026237487793,0.025799445807933807,0.21765990555286407
1782832159314764500,5.3227646484375,0.1684611737728119,-0.06609503924846649,0.10328630357980728
1782832159324693500,5.332693603515625,0.20030352473258972,-0.17547932267189026,-0.04012944549322128
1782832159334622500,5.34262255859375,0.2531769275665283,-0.31380096077919006,-0.178057000041008
1782832159344550400,5.35255029296875,0.3107193112373352,-0.4539756178855896,-0.288348913192749
1782832159354479400,5.362479248046875,0.3613508641719818,-0.5729039311408997,-0.3567655384540558
1782832159364408600,5.37240869140625,0.39388349652290344,-0.6650490164756775,-0.3699774742126465
1782832159374337500,5.382337646484375,0.4104490876197815,-0.7763119339942932,-0.33511507511138916
1782832159384266500,5.3922666015625,0.4148704707622528,-0.8417785167694092,-0.2540532350540161
1782832159394194400,5.4021943359375,0.42341330647468567,-0.7893633246421814,-0.12642280757427216
1782832159404123400,5.412123291015625,0.4281366765499115,-0.6278905272483826,0.03140997141599655
1782832159414052600,5.422052490234375,0.4314172565937042,-0.36727622151374817,0.2028769850730896
1782832159423981300,5.431981201171875,0.4340628385543823,-0.029492046684026718,0.35826337337493896
1782832159433909500,5.441909423828125,0.45137786865234375,0.3244170844554901,0.466618150472641
1782832159443838500,5.45183837890625,0.4868732988834381,0.6480886340141296,0.49796539545059204
1782832159453767400,5.461767333984375,0.5108775496482849,0.8645623326301575,0.4412260949611664
1782832159463696400,5.4716962890625,0.5306073427200317,0.9912457466125488,0.338565468788147
1782832159473625300,5.481625244140625,0.5386216044425964,1.0445770025253296,0.22824403643608093
1782832159483553500,5.491553466796875,0.5194990634918213,1.0283427238464355,0.12658479809761047
1782832159493482200,5.501482177734375,0.47746312618255615,0.9362812042236328,0.04183103144168854
1782832159503411200,5.5114111328125,0.4312644898891449,0.7691206932067871,-0.02910386025905609
1782832159513340400,5.52134033203125,0.3940217196941376,0.5451949834823608,-0.0888611301779747
1782832159523269400,5.531269287109375,0.3749886453151703,0.3102799654006958,-0.12556295096874237
1782832159533197300,5.541197265625,0.3769121766090393,0.08178946375846863,-0.14602690935134888
1782832159543126300,5.551126220703125,0.39917272329330444,-0.09552273899316788,-0.1633630245923996
1782832159553055500,5.561055419921875,0.44915908575057983,-0.2175799459218979,-0.20044846832752228
1782832159562984400,5.570984375,0.5150797963142395,-0.29738929867744446,-0.2511974275112152
1782832159572912400,5.580912353515625,0.5766972899436951,-0.3409460783004761,-0.28978654742240906
1782832159582841300,5.59084130859375,0.6055182814598083,-0.35706111788749695,-0.3084270656108856
1782832159592770300,5.600770263671875,0.6194261312484741,-0.3334982395172119,-0.3152059316635132
1782832159602699500,5.610699462890625,0.611208438873291,-0.29118645191192627,-0.3301273584365845
1782832159612628500,5.62062841796875,0.5797092914581299,-0.2658742368221283,-0.35739412903785706
1782832159622556400,5.630556396484375,0.5312514901161194,-0.22692814469337463,-0.3831588625907898
1782832159632485400,5.6404853515625,0.4647597372531891,-0.16731245815753937,-0.3901231586933136
1782832159642414300,5.650414306640625,0.3976573944091797,-0.0975421741604805,-0.36960965394973755
1782832159652343600,5.660343505859375,0.33024683594703674,0.00039980094879865646,-0.3320624828338623
1782832159662272500,5.6702724609375,0.2706567645072937,0.09354359656572342,-0.28205257654190063
1782832159672200400,5.680200439453125,0.22032560408115387,0.1773088574409485,-0.24343477189540863
1782832159682129400,5.69012939453125,0.18740199506282806,0.24607941508293152,-0.20380666851997375
1782832159692058400,5.700058349609375,0.17332613468170166,0.3018496632575989,-0.16680552065372467
1782832159701987600,5.709987548828125,0.15108980238437653,0.32605621218681335,-0.11155185848474503
1782832159711915500,5.71991552734375,0.12618623673915863,0.3338126540184021,-0.06338237971067429
1782832159721844500,5.729844482421875,0.12069666385650635,0.3000003695487976,-0.034439947456121445
1782832159731773400,5.7397734375,0.12435419857501984,0.23862168192863464,-0.017609525471925735
1782832159741702400,5.749702392578125,0.12845785915851593,0.1499304175376892,-0.013897879049181938
1782832159751631600,5.759631591796875,0.1283518671989441,0.05567370355129242,-0.003547503612935543
1782832159761559600,5.7695595703125,0.1257752627134323,-0.003859400749206543,0.010202397592365742
1782832159771488500,5.779488525390625,0.11767536401748657,-0.04686383157968521,0.008937295526266098
1782832159781417500,5.78941748046875,0.11248885840177536,-0.06962373852729797,-0.016277512535452843
1782832159791346400,5.799346435546875,0.10057603567838669,-0.12056544423103333,-0.0654197707772255
1782832159801275400,5.809275390625,0.08919981122016907,-0.2072683870792389,-0.1619575023651123
1782832159811203600,5.81920361328125,0.06165286898612976,-0.32453304529190063,-0.28737083077430725
1782832159821132500,5.829132568359375,0.02229134738445282,-0.4386902451515198,-0.39199045300483704
1782832159831061200,5.839061279296875,0.009506149217486382,-0.48680388927459717,-0.455698698759079
1782832159840990200,5.848990234375,0.03328684717416763,-0.4302191734313965,-0.4557218551635742
1782832159850919400,5.85891943359375,0.08890105783939362,-0.3059055209159851,-0.39257240295410156
1782832159860847400,5.868847412109375,0.17499598860740662,-0.15792270004749298,-0.24985572695732117
1782832159870776300,5.8787763671875,0.2602842450141907,-0.0000955294817686081,-0.02439943701028824
1782832159880705300,5.888705322265625,0.36084336042404175,0.2012045681476593,0.23893846571445465
1782832159890634200,5.89863427734375,0.4277537763118744,0.41513416171073914,0.5218265056610107
1782832159900562400,5.9085625,0.42762142419815063,0.5741541385650635,0.7602342963218689
1782832159910491400,5.918491455078125,0.4132469892501831,0.6330664753913879,0.9321485161781311
1782832159920420400,5.92842041015625,0.40886127948760986,0.6316787004470825,1.0214030742645264
1782832159930349300,5.938349365234375,0.40506064891815186,0.6247249841690063,1.0329351425170898
1782832159940278300,5.9482783203125,0.3912702798843384,0.5983767509460449,0.9801797866821289
1782832159950206500,5.95820654296875,0.3793987035751343,0.5275895595550537,0.8833328485488892
1782832159960135400,5.968135498046875,0.36580753326416016,0.3962443470954895,0.7658344507217407
1782832159970064400,5.978064453125,0.3471522331237793,0.19898167252540588,0.6368640661239624
1782832159979993300,5.987993408203125,0.3078506290912628,-0.014416363090276718,0.4913244843482971
1782832159989922600,5.997922607421875,0.2531297504901886,-0.22095148265361786,0.3342052400112152
1782832159999850500,6.0078505859375,0.18184731900691986,-0.4052062928676605,0.1505962759256363
1782832160009779500,6.017779541015625,0.10548961907625198,-0.5742778778076172,-0.05394534394145012
1782832160019708400,6.02770849609375,0.02500276267528534,-0.672100841999054,-0.25229331851005554
1782832160029637400,6.037637451171875,-0.0549541711807251,-0.6892515420913696,-0.4206226170063019
1782832160039566600,6.047566650390625,-0.12994027137756348,-0.6225500106811523,-0.5530331134796143
1782832160049494500,6.05749462890625,-0.17651428282260895,-0.4492456614971161,-0.6360474228858948
1782832160059423500,6.067423583984375,-0.18670886754989624,-0.1897573322057724,-0.6782015562057495
1782832160069352400,6.0773525390625,-0.14683447778224945,0.12913966178894043,-0.678925096988678
1782832160079281700,6.08728173828125,-0.06116698309779167,0.428714394569397,-0.6369864344596863
1782832160089209600,6.097209716796875,0.05377254635095596,0.6781066656112671,-0.5500625967979431
1782832160099138600,6.107138671875,0.14682632684707642,0.8479979634284973,-0.45587459206581116
1782832160109067500,6.117067626953125,0.21486859023571014,0.9046657681465149,-0.395447313785553
1782832160118996500,6.12699658203125,0.28156134486198425,0.9105356931686401,-0.3689746856689453
1782832160128925400,6.136925537109375,0.3501371443271637,0.8470243811607361,-0.3577917516231537
1782832160138853600,6.146853515625,0.40388187766075134,0.7163904309272766,-0.33776476979255676
1782832160148782600,6.156782470703125,0.44258996844291687,0.5751331448554993,-0.30759716033935547
1782832160158711600,6.166711669921875,0.46749240159988403,0.4012199342250824,-0.259061336517334
1782832160168640300,6.17664013671875,0.4867657721042633,0.22500045597553253,-0.20074401795864105
1782832160178569500,6.186569580078125,0.512811541557312,0.08655017614364624,-0.16568297147750854
1782832160188497700,6.19649755859375,0.5555769205093384,0.003290655091404915,-0.1439410150051117
1782832160198426400,6.20642626953125,0.6060667037963867,-0.03273738548159599,-0.13876782357692719
1782832160208355300,6.216355224609375,0.646856963634491,-0.0402623787522316,-0.14512206614017487
1782832160218284300,6.2262841796875,0.680039644241333,-0.04279238358139992,-0.17045192420482635
1782832160228212500,6.23621240234375,0.7037153244018555,-0.0319506898522377,-0.20079052448272705
1782832160238141400,6.246141357421875,0.730648934841156,-0.023054400458931923,-0.2277795374393463
1782832160248070400,6.2560703125,0.7534285187721252,0.0016363151371479034,-0.21972718834877014
1782832160257999400,6.265999267578125,0.7656095623970032,0.03675675392150879,-0.1867346167564392
1782832160267928300,6.27592822265625,0.7692336440086365,0.06601399183273315,-0.12893208861351013
1782832160277856300,6.285856201171875,0.7796628475189209,0.09112733602523804,-0.04825136810541153
1782832160287785500,6.295785400390625,0.7905349731445312,0.12344717234373093,0.029913175851106644
1782832160297714400,6.30571435546875,0.8045112490653992,0.1608254462480545,0.09276404231786728
1782832160307643400,6.315643310546875,0.832504391670227,0.1805158257484436,0.1291152685880661
1782832160317572400,6.325572265625,0.8685518503189087,0.177329882979393,0.14747509360313416
1782832160327500300,6.335500244140625,0.9061854481697083,0.1562359631061554,0.14215786755084991
1782832160337429500,6.345429443359375,0.9487299919128418,0.10131466388702393,0.1323036402463913
1782832160347358500,6.3553583984375,0.9977136254310608,0.03510264679789543,0.13154560327529907
1782832160357287400,6.365287353515625,1.0330500602722168,-0.03526126593351364,0.15643151104450226
1782832160367216400,6.37521630859375,1.0566964149475098,-0.08339789509773254,0.20303432643413544
1782832160377144300,6.385144287109375,1.0792951583862305,-0.06501489877700806,0.26828259229660034
1782832160387073500,6.395073486328125,1.102003812789917,-0.0031685587018728256,0.3206903338432312
1782832160397002500,6.40500244140625,1.1190218925476074,0.04427379369735718,0.3163621723651886
1782832160406931500,6.414931396484375,1.1316368579864502,0.024215176701545715,0.24625910818576813
1782832160416859400,6.424859375,1.1456153392791748,-0.11554352194070816,0.11030952632427216
1782832160426788600,6.43478857421875,1.1627006530761719,-0.38493219017982483,-0.040040452033281326
1782832160436717600,6.444717529296875,1.1867824792861938,-0.6888929009437561,-0.12848855555057526
1782832160446646500,6.454646484375,1.1741559505462646,-0.8732509613037109,-0.12351810932159424
1782832160456575500,6.464575439453125,1.1452668905258179,-0.9661473631858826,-0.05768343806266785
1782832160466503400,6.47450341796875,1.1161348819732666,-0.947356104850769,0.041361622512340546
1782832160476432600,6.4844326171875,1.0955504179000854,-0.817416787147522,0.131933331489563
1782832160486361600,6.494361572265625,1.0826085805892944,-0.576457679271698,0.1841605007648468
1782832160496290600,6.50429052734375,1.0829521417617798,-0.2663658857345581,0.20052935183048248
1782832160506219300,6.51421923828125,1.1013215780258179,0.013771588914096355,0.18813027441501617
1782832160516147500,6.5241474609375,1.12208890914917,0.23212948441505432,0.19815681874752045
1782832160526076700,6.53407666015625,1.117395281791687,0.3798923194408417,0.23312605917453766
1782832160536005400,6.54400537109375,1.0979214906692505,0.45952802896499634,0.2816278040409088
1782832160545934300,6.553934326171875,1.0816653966903687,0.517098605632782,0.3476652204990387
1782832160555863300,6.56386328125,1.072369933128357,0.5550193786621094,0.4047900438308716
1782832160565791500,6.57379150390625,1.06710684299469,0.554985523223877,0.46243399381637573
1782832160575720400,6.583720458984375,1.0527188777923584,0.48505255579948425,0.5082640647888184
1782832160585649400,6.5936494140625,1.0418853759765625,0.3695698380470276,0.5509388446807861
1782832160595578400,6.603578369140625,1.0302457809448242,0.25154760479927063,0.5806629061698914
1782832160605506300,6.61350634765625,0.9998451471328735,0.13222280144691467,0.5783247351646423
1782832160615435300,6.623435302734375,0.9544782042503357,0.026569079607725143,0.5295995473861694
1782832160625364500,6.633364501953125,0.891390860080719,-0.06896325945854187,0.4186263978481293
1782832160635293400,6.64329345703125,0.8066046237945557,-0.18119312822818756,0.2571030259132385
1782832160645222400,6.653222412109375,0.7099748849868774,-0.3112614154815674,0.05912036448717117
1782832160655150300,6.663150390625,0.605475902557373,-0.42842742800712585,-0.14405006170272827
1782832160665079300,6.673079345703125,0.5020021796226501,-0.5006124377250671,-0.3099766969680786
1782832160675008500,6.683008544921875,0.4072988033294678,-0.5309962034225464,-0.40989530086517334
1782832160684937500,6.6929375,0.31929609179496765,-0.4761755168437958,-0.45271554589271545
1782832160694866400,6.702866455078125,0.2597523331642151,-0.34148216247558594,-0.4342409372329712
1782832160704794400,6.71279443359375,0.22839632630348206,-0.09748128056526184,-0.3438570201396942
1782832160714723300,6.722723388671875,0.2206640988588333,0.2272195667028427,-0.1992873251438141
1782832160724652500,6.732652587890625,0.23254746198654175,0.5952898263931274,-0.027572084218263626
1782832160734581500,6.74258154296875,0.2543683350086212,0.9056099057197571,0.10128895938396454
1782832160744510500,6.752510498046875,0.2824285626411438,1.0348740816116333,0.14294575154781342
1782832160754438400,6.7624384765625,0.3023681938648224,1.0433765649795532,0.10212800651788712
1782832160764367400,6.772367431640625,0.31492626667022705,1.0015127658843994,0.027465809136629105
1782832160774296600,6.782296630859375,0.31156694889068604,0.9206852316856384,-0.044558048248291016
1782832160784225500,6.7922255859375,0.29360899329185486,0.7973454594612122,-0.11471610516309738
1782832160794154500,6.802154541015625,0.26570945978164673,0.650024950504303,-0.17469288408756256
1782832160804082400,6.81208251953125,0.24239720404148102,0.4766424894332886,-0.234919473528862
1782832160814011400,6.822011474609375,0.22426800429821014,0.3257427215576172,-0.29063519835472107
1782832160823940600,6.831940673828125,0.2131553590297699,0.19702094793319702,-0.3261246681213379
1782832160833869600,6.84186962890625,0.21367627382278442,0.08430000394582748,-0.32512012124061584
1782832160843798300,6.85179833984375,0.2224753499031067,0.025182127952575684,-0.2799105644226074
1782832160853726500,6.8617265625,0.23405663669109344,-0.022341180592775345,-0.21498456597328186
1782832160863655700,6.87165576171875,0.2525458335876465,-0.0921863466501236,-0.15349823236465454
1782832160873584400,6.88158447265625,0.2966350018978119,-0.13625633716583252,-0.11501288414001465
1782832160883513300,6.891513427734375,0.33611616492271423,-0.17455287277698517,-0.08796404302120209
1782832160893442300,6.9014423828125,0.34265848994255066,-0.20966611802577972,-0.07450415939092636
1782832160903370500,6.91137060546875,0.32784682512283325,-0.24432098865509033,-0.07157658785581589
1782832160913299500,6.921299560546875,0.29202359914779663,-0.26253461837768555,-0.05903523415327072
1782832160923228400,6.931228515625,0.24671313166618347,-0.2772451639175415,-0.04593251645565033
1782832160933157400,6.941157470703125,0.18863704800605774,-0.29921889305114746,-0.026643773540854454
1782832160943085300,6.951085205078125,0.12891608476638794,-0.3303605914115906,-0.008321117609739304
1782832160953014300,6.96101416015625,0.0666937306523323,-0.35470372438430786,0.00048462487757205963
1782832160962943500,6.970943603515625,0.014567380771040916,-0.3808988332748413,-0.014008264988660812
1782832160972872400,6.98087255859375,-0.04018907621502876,-0.4530355930328369,-0.04643624648451805
1782832160982801400,6.990801513671875,-0.09920846670866013,-0.5565868020057678,-0.05389067903161049
1782832160992729300,7.000729248046875,-0.1625453680753708,-0.6162458658218384,-0.04420582950115204
1782832161002658300,7.010658203125,-0.2192464917898178,-0.59222012758255,-0.027902185916900635
1782832161012587500,7.02058740234375,-0.2519085705280304,-0.4917166829109192,-0.01975957117974758
1782832161022516500,7.0305166015625,-0.26777568459510803,-0.3757147490978241,-0.022794252261519432
1782832161032445400,7.040445556640625,-0.2951332628726959,-0.3097034990787506,-0.05186638608574867
1782832161042373400,7.050373291015625,-0.3291119337081909,-0.24339930713176727,-0.08925855159759521
1782832161052302300,7.06030224609375,-0.35541650652885437,-0.1743701696395874,-0.12086494266986847
1782832161062231600,7.0702314453125,-0.38097646832466125,-0.11400080472230911,-0.13592511415481567
1782832161072160500,7.080160400390625,-0.3984801173210144,-0.06005874648690224,-0.1274634599685669
1782832161082089500,7.09008935546875,-0.3965557813644409,-0.022700153291225433,-0.08606934547424316
1782832161092017700,7.100017578125,-0.3651006519794464,0.006008721888065338,-0.010921597480773926
1782832161101946600,7.109946533203125,-0.31841471791267395,0.03971794247627258,0.09310664236545563
1782832161111875600,7.11987548828125,-0.2650180757045746,0.06259582936763763,0.20986707508563995
1782832161121804500,7.129804443359375,-0.21728768944740295,0.06841877847909927,0.331644743680954
1782832161131733500,7.1397333984375,-0.17321157455444336,0.06293613463640213,0.45248860120773315
1782832161141661700,7.14966162109375,-0.15059217810630798,0.08911053091287613,0.5411192774772644
1782832161151590700,7.159590576171875,-0.15386733412742615,0.14216123521327972,0.5797324776649475
1782832161161519600,7.16951953125,-0.16942565143108368,0.2143791913986206,0.5628010034561157
1782832161171448600,7.179448486328125,-0.1944604218006134,0.29550281167030334,0.4990803599357605
1782832161181377500,7.18937744140625,-0.22504857182502747,0.3529312014579773,0.40702033042907715
1782832161191305700,7.1993056640625,-0.25221094489097595,0.3739166557788849,0.3215493857860565
1782832161201234700,7.209234619140625,-0.28368282318115234,0.38676583766937256,0.2544664442539215
1782832161211163600,7.21916357421875,-0.2974340617656708,0.3558012843132019,0.20745661854743958
1782832161221092400,7.22909228515625,-0.2801758944988251,0.25963959097862244,0.16311302781105042
1782832161231020500,7.2390205078125,-0.23377031087875366,0.1443689465522766,0.14352601766586304
1782832161240949500,7.248949462890625,-0.18434247374534607,0.07518748193979263,0.13458675146102905
1782832161250878500,7.25887841796875,-0.1382410228252411,0.0088944798335433,0.10335905104875565
1782832161260807400,7.268807373046875,-0.09102588891983032,-0.07194390147924423,0.024954579770565033
1782832161270736400,7.278736328125,-0.03065202757716179,-0.19962942600250244,-0.07525964081287384
1782832161280664300,7.288664306640625,0.01992446556687355,-0.3527369797229767,-0.17004726827144623
1782832161290593500,7.298593505859375,0.06396089494228363,-0.46643373370170593,-0.22636380791664124
1782832161300522500,7.3085224609375,0.0807814747095108,-0.489228755235672,-0.23553311824798584
1782832161310451500,7.318451416015625,0.08585479110479355,-0.4306093752384186,-0.2165096253156662
1782832161320380400,7.32838037109375,0.06735269725322723,-0.29085949063301086,-0.16710659861564636
1782832161330308400,7.338308349609375,0.04204068332910538,-0.035031434148550034,-0.1112300232052803
1782832161340237600,7.348237548828125,0.04617314040660858,0.2559889256954193,-0.05398647487163544
1782832161350166500,7.35816650390625,0.0714164450764656,0.5051817297935486,-0.04173912853002548
1782832161360095500,7.368095458984375,0.10513440519571304,0.6420684456825256,-0.07463257014751434
1782832161370024400,7.3780244140625,0.13604998588562012,0.6934126019477844,-0.1389058381319046
1782832161379952400,7.387952392578125,0.1729481965303421,0.662120521068573,-0.21582366526126862
1782832161389881600,7.397881591796875,0.20774613320827484,0.5780228972434998,-0.2618526518344879
1782832161399810600,7.407810546875,0.25556573271751404,0.47514820098876953,-0.26709631085395813
1782832161409739500,7.417739501953125,0.3088710308074951,0.36364006996154785,-0.2210606336593628
1782832161419668500,7.42766845703125,0.35590696334838867,0.23663201928138733,-0.1534040868282318
1782832161429596400,7.437596435546875,0.39949625730514526,0.1101212278008461,-0.08404471725225449
1782832161439525600,7.447525634765625,0.4317360818386078,-0.002940073609352112,-0.04201377555727959
1782832161449454600,7.45745458984375,0.4441504180431366,-0.09323055297136307,-0.026232946664094925
1782832161459383600,7.467383544921875,0.44361162185668945,-0.15871930122375488,-0.022463483735919
1782832161469312500,7.4773125,0.43103060126304626,-0.17800085246562958,-0.02182033099234104
1782832161479240400,7.487240478515625,0.4150151312351227,-0.14647705852985382,-0.021986758336424828
1782832161489169700,7.497169677734375,0.40052565932273865,-0.08839750289916992,-0.02658124268054962
1782832161499098600,7.5070986328125,0.3941296339035034,-0.012801773846149445,-0.055196985602378845
1782832161509027600,7.517027587890625,0.4028126001358032,0.05909745395183563,-0.09281972795724869
1782832161518956500,7.52695654296875,0.4366651177406311,0.1245310828089714,-0.10436348617076874
1782832161528884700,7.536884765625,0.46517693996429443,0.16821198165416718,-0.06766672432422638
1782832161538813700,7.546813720703125,0.48257431387901306,0.18566976487636566,0.003057212568819523
1782832161548742700,7.55674267578125,0.49413934350013733,0.19338467717170715,0.09027706831693649
1782832161558671400,7.56667138671875,0.49295932054519653,0.1718335598707199,0.15097320079803467
1782832161568600600,7.5766005859375,0.488598108291626,0.13629713654518127,0.1647752970457077
1782832161578528800,7.58652880859375,0.4842917323112488,0.08568482846021652,0.15451659262180328
1782832161588457500,7.59645751953125,0.4758548438549042,0.017156630754470825,0.13959623873233795
1782832161598386400,7.606386474609375,0.47079381346702576,-0.009224586188793182,0.13120590150356293
1782832161608315400,7.6163154296875,0.4681282341480255,0.02580450475215912,0.1333630532026291
1782832161618244600,7.62624462890625,0.46905556321144104,0.10999923944473267,0.13079839944839478
1782832161628172500,7.636172607421875,0.46400487422943115,0.18653741478919983,0.11970925331115723
1782832161638101500,7.6461015625,0.4465785622596741,0.2120601385831833,0.09423445165157318
1782832161648030500,7.656030517578125,0.4229115843772888,0.227754145860672,0.06766249984502792
1782832161657959400,7.66595947265625,0.40474867820739746,0.21957260370254517,0.025521855801343918
1782832161667888600,7.675888671875,0.39804044365882874,0.19366590678691864,-0.03429806977510452
1782832161677816600,7.685816650390625,0.39913830161094666,0.11370132118463516,-0.12112494558095932
1782832161687745500,7.69574560546875,0.4081363081932068,-0.00765865808352828,-0.22161081433296204
1782832161697674500,7.705674560546875,0.4262705147266388,-0.1469622701406479,-0.30667129158973694
1782832161707603500,7.715603515625,0.4387871325016022,-0.2599785625934601,-0.35852304100990295
1782832161717532700,7.72553271484375,0.4439956247806549,-0.30662593245506287,-0.3804796636104584
1782832161727460600,7.735460693359375,0.45294278860092163,-0.2709166705608368,-0.3802170753479004
1782832161737389600,7.7453896484375,0.47486454248428345,-0.14247937500476837,-0.36657020449638367
1782832161747318500,7.755318603515625,0.5114143490791321,0.04776487499475479,-0.308489054441452
1782832161757247500,7.76524755859375,0.5637212991714478,0.2702445983886719,-0.20721875131130219
1782832161767175400,7.775175537109375,0.6059971451759338,0.4887295067310333,-0.09387809038162231
1782832161777104600,7.785104736328125,0.6357502341270447,0.6807606816291809,-0.0023715896531939507
1782832161787033600,7.79503369140625,0.6628928780555725,0.8337172269821167,0.054369185119867325
1782832161796962600,7.804962646484375,0.6767044067382812,0.8820967674255371,0.07367972284555435
1782832161806891500,7.8148916015625,0.6753197908401489,0.8671375513076782,0.07060803472995758
1782832161816819500,7.8248193359375,0.6619676351547241,0.8094971776008606,0.059825848788022995
1782832161826748700,7.834748779296875,0.6455076932907104,0.70419842004776,0.04802165552973747
1782832161836677600,7.844677734375,0.6302259564399719,0.5728928446769714,0.043568819761276245
1782832161846606600,7.854606689453125,0.6368404626846313,0.4473636746406555,0.06518489122390747
1782832161856535600,7.86453564453125,0.654120683670044,0.3262695074081421,0.11055230349302292
1782832161866463500,7.87446337890625,0.666888415813446,0.1953469216823578,0.15515786409378052
1782832161876392700,7.884392822265625,0.6601690053939819,0.048204343765974045,0.17351290583610535
1782832161886321700,7.89432177734375,0.6515214443206787,-0.1111307218670845,0.1428399384021759
1782832161896250400,7.90425048828125,0.625902533531189,-0.2844580411911011,0.07590660452842712
1782832161906179300,7.914179443359375,0.5792399644851685,-0.4908125400543213,-0.02683388814330101
1782832161916107800,7.924107666015625,0.5067593455314636,-0.720353901386261,-0.14949217438697815
1782832161926036500,7.934036376953125,0.4209989011287689,-0.9512922763824463,-0.2692697048187256
1782832161935965400,7.94396533203125,0.3260391056537628,-1.0895428657531738,-0.34893712401390076
1782832161945894400,7.953894287109375,0.2208344042301178,-1.102534294128418,-0.3792324662208557
1782832161955823400,7.9638232421875,0.11629211902618408,-1.0164188146591187,-0.339813768863678
1782832161965751600,7.97375146484375,0.0265079066157341,-0.8167208433151245,-0.2394791841506958
1782832161975680500,7.983680419921875,-0.03262798488140106,-0.5294163823127747,-0.0760139524936676
1782832161985609500,7.993609375,-0.0627957433462143,-0.22171318531036377,0.09171272814273834
1782832161995538400,8.003538330078126,-0.04640579968690872,0.0745355486869812,0.2239660620689392
1782832162005467600,8.013467529296875,0.0034621581435203552,0.3330477774143219,0.2988722324371338
1782832162015395600,8.0233955078125,0.023419467732310295,0.4832521677017212,0.3407868444919586
1782832162025324500,8.033324462890626,0.032803647220134735,0.571816623210907,0.32745078206062317
1782832162035253500,8.04325341796875,0.029791951179504395,0.5682440996170044,0.2653370201587677
1782832162045182500,8.053182373046875,-0.010929378680884838,0.46216288208961487,0.16380639374256134
1782832162055111700,8.063111572265624,-0.07000434398651123,0.301633358001709,0.04987550154328346
1782832162065039600,8.07303955078125,-0.1225125640630722,0.138749897480011,-0.035970162600278854
1782832162074967800,8.0829677734375,-0.16357958316802979,0.010029229335486889,-0.09160306304693222
1782832162084896800,8.092896728515624,-0.17949357628822327,-0.04180227592587471,-0.10924997180700302
1782832162094825700,8.10282568359375,-0.18092989921569824,-0.050927020609378815,-0.09903638809919357
1782832162104754700,8.112754638671875,-0.17058165371418,-0.05945925414562225,-0.056860171258449554
1782832162114682600,8.1226826171875,-0.1261611431837082,-0.049265265464782715,0.0011745952069759369
1782832162124611800,8.13261181640625,-0.08798474073410034,-0.038726601749658585,0.07376278191804886
1782832162134540800,8.142540771484375,-0.04097248241305351,-0.03916311264038086,0.1215747743844986
1782832162144469800,8.1524697265625,0.009730642661452293,-0.03148495405912399,0.14465852081775665
1782832162154398700,8.162398681640624,0.05091937258839607,-0.0606827437877655,0.14552082121372223
1782832162164326700,8.17232666015625,0.05601559579372406,-0.12990255653858185,0.12680386006832123
1782832162174255900,8.182255859375,0.03014482371509075,-0.2076389044523239,0.09540389478206635
1782832162184184800,8.192184814453125,-0.0061292946338653564,-0.2785724699497223,0.05656302347779274
1782832162194113800,8.20211376953125,-0.03924519568681717,-0.31998568773269653,0.025567851960659027
1782832162204042800,8.212042724609375,-0.07600880414247513,-0.3468223512172699,0.011383322067558765
1782832162213971000,8.221970947265625,-0.11262227594852448,-0.35665425658226013,0.012575160712003708
1782832162223900000,8.23189990234375,-0.1394520103931427,-0.33050069212913513,0.017609866335988045
1782832162233828900,8.241828857421876,-0.15521928668022156,-0.31184497475624084,0.02078062668442726
1782832162243757800,8.2517578125,-0.15065781772136688,-0.31793373823165894,0.005976647138595581
1782832162253686800,8.261686767578125,-0.13115666806697845,-0.31298157572746277,-0.020257512107491493
1782832162263615000,8.271614990234376,-0.10667422413825989,-0.30447784066200256,-0.031335730105638504
1782832162273544000,8.2815439453125,-0.07442843914031982,-0.2663089334964752,-0.03526943176984787
1782832162283473000,8.291472900390625,-0.06276565790176392,-0.2175014317035675,-0.02818142995238304
1782832162293401600,8.301401611328124,-0.07413648813962936,-0.2508135735988617,-0.03193390369415283
1782832162303330800,8.311330810546876,-0.10237238556146622,-0.33230310678482056,-0.05137338116765022
1782832162313259000,8.321259033203125,-0.14668692648410797,-0.4346521198749542,-0.06983460485935211
1782832162323187700,8.331187744140625,-0.2033075988292694,-0.47946301102638245,-0.09494820237159729
1782832162333116700,8.34111669921875,-0.2627357244491577,-0.45647987723350525,-0.11866370588541031
1782832162343045600,8.351045654296875,-0.3015936613082886,-0.37808308005332947,-0.1313009411096573
1782832162352974800,8.360974853515625,-0.3155761659145355,-0.2894434928894043,-0.1274661123752594
1782832162362902800,8.37090283203125,-0.3102048337459564,-0.17791590094566345,-0.08738288283348083
1782832162372831700,8.380831787109376,-0.287689208984375,-0.049494825303554535,-0.005780089646577835
1782832162382760700,8.3907607421875,-0.2598402798175812,0.06359844654798508,0.09527808427810669
1782832162392689700,8.400689697265625,-0.22795116901397705,0.19079820811748505,0.20868544280529022
1782832162402619000,8.410618896484374,-0.19896984100341797,0.3244745135307312,0.3273031711578369
1782832162412546800,8.420546875,-0.1813347190618515,0.4565180540084839,0.42027178406715393
1782832162422475800,8.430475830078125,-0.17681294679641724,0.5505524277687073,0.4608066976070404
1782832162432404700,8.44040478515625,-0.1693248450756073,0.598639726638794,0.4509741961956024
1782832162442333700,8.450333740234376,-0.16025865077972412,0.5850920081138611,0.41729986667633057
1782832162452263000,8.460262939453125,-0.15105943381786346,0.5121549367904663,0.3696451485157013
1782832162462190800,8.47019091796875,-0.13835348188877106,0.39938071370124817,0.334624320268631
1782832162472119800,8.480119873046876,-0.1330765038728714,0.26396533846855164,0.3042132258415222
1782832162482048800,8.490048828125,-0.13275505602359772,0.14471910893917084,0.28286638855934143
1782832162491977700,8.499977783203125,-0.1359321027994156,0.0658125951886177,0.2585904896259308
1782832162501907000,8.509906982421874,-0.14454184472560883,-0.007965227589011192,0.20697231590747833
1782832162511835000,8.5198349609375,-0.16016779839992523,-0.08533565700054169,0.1357422024011612
1782832162521763800,8.529763916015625,-0.17608551681041718,-0.16644862294197083,0.0570380762219429
1782832162531692800,8.53969287109375,-0.19882401823997498,-0.2460254728794098,-0.02460576221346855
1782832162541621800,8.549621826171874,-0.23648643493652344,-0.3296825587749481,-0.10971586406230927
1782832162551551000,8.559551025390626,-0.2583097517490387,-0.34669777750968933,-0.18630167841911316
1782832162561479000,8.56947900390625,-0.27080237865448,-0.26094478368759155,-0.23663541674613953
1782832162571408000,8.579407958984374,-0.2655613422393799,-0.07432135939598083,-0.2550140917301178
1782832162581336800,8.5893369140625,-0.24975627660751343,0.15276211500167847,-0.246571347117424
1782832162591265800,8.599265869140625,-0.24224725365638733,0.3531396985054016,-0.23070260882377625
1782832162601194800,8.60919482421875,-0.23522023856639862,0.4912635087966919,-0.22035488486289978
1782832162611123000,8.619123046875,-0.23224470019340515,0.5397873520851135,-0.23104800283908844
1782832162621052000,8.629052001953125,-0.23225295543670654,0.5321534276008606,-0.24070808291435242
1782832162630980600,8.638980712890625,-0.23459553718566895,0.4831957221031189,-0.24354508519172668
1782832162640909600,8.64890966796875,-0.2321944385766983,0.4236309230327606,-0.2485440969467163
1782832162650838800,8.6588388671875,-0.20426107943058014,0.3547181785106659,-0.24772624671459198
1782832162660766700,8.6687666015625,-0.18144656717777252,0.27953875064849854,-0.23695935308933258
1782832162670695700,8.67869580078125,-0.1643582284450531,0.18549691140651703,-0.2270325869321823
1782832162680624600,8.688624755859376,-0.13522884249687195,0.10831398516893387,-0.20579946041107178
1782832162690553900,8.698553955078125,-0.10821139812469482,0.010071288794279099,-0.19020767509937286
1782832162700482800,8.70848291015625,-0.10133777558803558,-0.09672386199235916,-0.15930408239364624
1782832162710410800,8.71841064453125,-0.0412273108959198,-0.15611179172992706,-0.1415940523147583
1782832162720339700,8.728339599609376,0.0007057599723339081,-0.16276277601718903,-0.1239418238401413
1782832162730268700,8.7382685546875,0.05538871884346008,-0.12886367738246918,-0.10859084129333496
1782832162740198000,8.748197998046875,0.11835330724716187,-0.08248338848352432,-0.09407901018857956
1782832162750126800,8.758126953125,0.1431611329317093,-0.036988623440265656,-0.07294303923845291
1782832162760054800,8.7680546875,0.16359663009643555,-0.03131476044654846,-0.0604911632835865
1782832162769983700,8.777983642578125,0.1790524274110794,0.014692689292132854,-0.04317063093185425
1782832162779912700,8.78791259765625,0.167055144906044,0.06651567667722702,-0.017261534929275513
1782832162789842000,8.797842041015626,0.14210665225982666,0.09879826754331589,0.012492368929088116
1782832162799771000,8.80777099609375,0.12445946782827377,0.10829509794712067,0.021719422191381454
1782832162809698800,8.81769873046875,0.10122564435005188,0.07797737419605255,0.03482712432742119
1782832162819627800,8.827627685546876,0.09404309839010239,0.08238516747951508,0.048720832914114
1782832162829556700,8.837556640625,0.08314898610115051,0.07868843525648117,0.07357577234506607
1782832162839486000,8.84748583984375,0.08101285994052887,0.07006458938121796,0.10400505363941193
1782832162849415000,8.857414794921874,0.08858741819858551,0.0535612590610981,0.12367969006299973
1782832162859342800,8.8673427734375,0.10931533575057983,0.0683458000421524,0.11132607609033585
1782832162869271800,8.877271728515625,0.12328441441059113,0.08738633990287781,0.07150862365961075
1782832162879200800,8.88720068359375,0.13445903360843658,0.09318297356367111,0.02248515747487545
1782832162889130000,8.8971298828125,0.13557545840740204,0.043692901730537415,-0.027602538466453552
1782832162899059000,8.907058837890625,0.13973025977611542,0.03343334048986435,-0.04576343297958374
1782832162908987000,8.91698681640625,0.14012548327445984,0.02576182410120964,-0.02573166787624359
1782832162918915800,8.926915771484374,0.12361068278551102,-0.026513632386922836,-0.006148644722998142
1782832162928844800,8.9368447265625,0.11180353909730911,-0.07867857068777084,-0.018174655735492706
1782832162938773800,8.946773681640625,0.11546085774898529,-0.11865821480751038,-0.06433096528053284
1782832162948702700,8.95670263671875,0.1328740268945694,-0.15325289964675903,-0.12386177480220795
1782832162958631700,8.966631591796874,0.157599076628685,-0.14020182192325592,-0.17569035291671753
1782832162968559600,8.9765595703125,0.19365598261356354,-0.1031452938914299,-0.19963997602462769
1782832162978488600,8.986488525390625,0.21700577437877655,-0.05132817104458809,-0.18544292449951172
1782832162988417800,8.996417724609374,0.2394450604915619,0.024772461503744125,-0.13364234566688538
1782832162998346800,9.0063466796875,0.24722762405872345,0.12980912625789642,-0.0673578605055809
1782832163008275700,9.016275634765625,0.2573583722114563,0.23653584718704224,-0.006686897948384285
1782832163018203600,9.02620361328125,0.2845066487789154,0.33353614807128906,0.030489232391119003
1782832163028132600,9.036132568359376,0.3114872872829437,0.397298127412796,0.05122524872422218
1782832163038061800,9.046061767578125,0.31979021430015564,0.42762699723243713,0.08282098919153214
1782832163047990800,9.05599072265625,0.3120608925819397,0.42876413464546204,0.13931681215763092
1782832163057919700,9.065919677734374,0.3068389892578125,0.42458510398864746,0.2071608453989029
1782832163067847700,9.07584765625,0.3072897791862488,0.4349290728569031,0.2655397653579712
1782832163077777400,9.08577734375,0.32047536969184875,0.47226181626319885,0.30838364362716675
1782832163087706400,9.095706298828125,0.33822378516197205,0.5075772404670715,0.33773669600486755
1782832163097635600,9.105635498046874,0.35428452491760254,0.5099074840545654,0.3501076102256775
1782832163107564500,9.115564453125,0.3767472207546234,0.4872263967990875,0.3495289087295532
1782832163117492500,9.125492431640625,0.4021117091178894,0.43530645966529846,0.33681631088256836
1782832163127421400,9.13542138671875,0.4251726269721985,0.3330075144767761,0.30259960889816284
1782832163137350400,9.145350341796876,0.4639301300048828,0.19706939160823822,0.2575778067111969
1782832163147279600,9.155279541015625,0.5153531432151794,0.05664731562137604,0.2187686562538147
1782832163157208300,9.165208251953125,0.5507987141609192,-0.04168378561735153,0.1820974498987198
1782832163167136500,9.175136474609374,0.560584306716919,-0.1244361624121666,0.1254085898399353
1782832163177065500,9.1850654296875,0.5638101100921631,-0.19729094207286835,0.046333204954862595
1782832163186994400,9.194994384765625,0.5639996528625488,-0.26080891489982605,-0.054829731583595276
1782832163196923400,9.20492333984375,0.5427532196044922,-0.3519204556941986,-0.1570759415626526
1782832163206852400,9.214852294921876,0.49084270000457764,-0.4530998170375824,-0.2217749059200287
1782832163216780500,9.224780517578125,0.4044516384601593,-0.5641946196556091,-0.2389296591281891
1782832163226709200,9.234709228515625,0.31423550844192505,-0.624360203742981,-0.20608602464199066
1782832163236638200,9.24463818359375,0.23652660846710205,-0.5802438855171204,-0.1419467180967331
1782832163246567400,9.2545673828125,0.1901758909225464,-0.4323357045650482,-0.07375328242778778
1782832163256496400,9.264496337890625,0.1738102287054062,-0.20718780159950256,-0.0029448899440467358
1782832163266424300,9.27442431640625,0.16815175116062164,0.03967713564634323,0.05078017711639404
1782832163276353300,9.284353271484376,0.1597966104745865,0.2536408305168152,0.06996292620897293
1782832163286282200,9.2942822265625,0.17114949226379395,0.4057256877422333,0.039629977196455
1782832163296211500,9.30421142578125,0.18280720710754395,0.47345733642578125,-0.027611643075942993
1782832163306140400,9.314140380859374,0.1894017904996872,0.44060108065605164,-0.08886946737766266
1782832163316068400,9.324068359375,0.17909428477287292,0.3467896282672882,-0.1222042515873909
1782832163325997300,9.333997314453125,0.14188659191131592,0.2096155434846878,-0.14216265082359314
1782832163335926300,9.34392626953125,0.10504601895809174,0.0522158145904541,-0.15489841997623444
1782832163345855500,9.35385546875,0.07825534790754318,-0.06981315463781357,-0.15323999524116516
1782832163355784400,9.363784423828125,0.062008727341890335,-0.11939988285303116,-0.11833180487155914
1782832163365712400,9.37371240234375,0.0644175112247467,-0.11348447948694229,-0.04998784512281418
1782832163375641300,9.383641357421874,0.06926366686820984,-0.1027335673570633,0.026753270998597145
1782832163385570600,9.393570556640626,0.08092904835939407,-0.10509844124317169,0.08154706656932831
1782832163395499500,9.40349951171875,0.10504131019115448,-0.11367009580135345,0.09839209169149399
1782832163405428500,9.413428466796875,0.13607312738895416,-0.1242084801197052,0.09204085171222687
1782832163415357400,9.423357421875,0.16348691284656525,-0.12887194752693176,0.07889842242002487
1782832163425285400,9.433285400390625,0.17631812393665314,-0.13238143920898438,0.07131390273571014
1782832163435214600,9.443214599609375,0.16130295395851135,-0.15297353267669678,0.052711986005306244
1782832163445143600,9.4531435546875,0.12541933357715607,-0.19965101778507233,0.024608897045254707
1782832163455072500,9.463072509765626,0.08360157907009125,-0.24214202165603638,-0.0021899589337408543
1782832163465001500,9.47300146484375,0.03477891534566879,-0.27453646063804626,-0.014420529827475548
1782832163474929400,9.482929443359374,-0.016554847359657288,-0.2647900879383087,-0.008174617774784565
1782832163484858600,9.492858642578126,-0.05290701240301132,-0.24395248293876648,0.01228700578212738
1782832163494787300,9.502787353515625,-0.07887788861989975,-0.24251437187194824,0.03064177930355072
1782832163504716300,9.51271630859375,-0.10120813548564911,-0.27299875020980835,0.04061228409409523
1782832163514645200,9.522645263671874,-0.11687204986810684,-0.31464022397994995,0.038054585456848145
1782832163524573400,9.532573486328126,-0.126411572098732,-0.3400854170322418,0.02695274166762829
1782832163534502400,9.54250244140625,-0.14800767600536346,-0.3421251177787781,0.0131868626922369
1782832163544431400,9.552431396484375,-0.1455591470003128,-0.3171744644641876,-0.01918361894786358
1782832163554360300,9.5623603515625,-0.16167233884334564,-0.28695452213287354,-0.06220591813325882
1782832163564289300,9.572289306640625,-0.2064380943775177,-0.29821890592575073,-0.11495392769575119
1782832163574217200,9.58221728515625,-0.2717055082321167,-0.27668219804763794,-0.19166041910648346
1782832163584146400,9.592146484375,-0.33283379673957825,-0.2525257170200348,-0.28585779666900635
1782832163594075400,9.602075439453126,-0.38289377093315125,-0.2378849983215332,-0.3813963234424591
1782832163604004400,9.61200439453125,-0.42956364154815674,-0.21296526491641998,-0.4517665207386017
1782832163613933300,9.621933349609375,-0.4807288348674774,-0.17179839313030243,-0.48231831192970276
1782832163623861200,9.631861328125,-0.5185168385505676,-0.09481091052293777,-0.4774893522262573
1782832163633790500,9.64179052734375,-0.5389813184738159,-0.0015281056985259056,-0.44541823863983154
1782832163643719400,9.651719482421875,-0.5332838296890259,0.0990496426820755,-0.39020365476608276
1782832163653648400,9.6616484375,-0.5048422813415527,0.2309248447418213,-0.28467854857444763
1782832163663577300,9.671577392578126,-0.4579131007194519,0.3626495897769928,-0.15208090841770172
1782832163673505300,9.68150537109375,-0.4158135652542114,0.463727742433548,-0.010611647740006447
1782832163683434500,9.6914345703125,-0.37296369671821594,0.5615765452384949,0.11223901063203812
1782832163693363500,9.701363525390626,-0.3481656610965729,0.6378465294837952,0.20007751882076263
1782832163703292400,9.71129248046875,-0.33350467681884766,0.7111585140228271,0.2532704174518585
1782832163713221400,9.721221435546875,-0.3195419907569885,0.7503336668014526,0.2752247154712677
1782832163723149300,9.7311494140625,-0.30429962277412415,0.7359225153923035,0.27566012740135193
1782832163733078500,9.74107861328125,-0.26925721764564514,0.6537480354309082,0.2824850082397461
1782832163743007500,9.751007568359375,-0.19342663884162903,0.5199694633483887,0.3167004883289337
1782832163752936400,9.7609365234375,-0.10006846487522125,0.39415398240089417,0.3719794750213623
1782832163762865400,9.770865478515624,-0.01623442769050598,0.27208903431892395,0.42434242367744446
1782832163772793300,9.78079345703125,0.02986302599310875,0.13887852430343628,0.4354882836341858
1782832163782722600,9.79072265625,0.03845155984163284,-0.012409000657498837,0.38528546690940857
1782832163792651500,9.800651611328124,0.00792720727622509,-0.16644462943077087,0.3161974847316742
1782832163802580500,9.81058056640625,-0.06752873212099075,-0.2948603928089142,0.24449563026428223
1782832163812509200,9.82050927734375,-0.17701207101345062,-0.37943997979164124,0.1783272624015808
1782832163822438400,9.8304384765625,-0.28198176622390747,-0.4165559411048889,0.11909576505422592
1782832163832366600,9.84036669921875,-0.3511613607406616,-0.3610974848270416,0.05964069813489914
1782832163842295300,9.85029541015625,-0.3521180748939514,-0.22209778428077698,-0.0021527581848204136
1782832163852224300,9.860224365234375,-0.2991510033607483,0.00037602800875902176,-0.04910668358206749
1782832163862153200,9.8701533203125,-0.23606173694133759,0.24205151200294495,-0.0771690234541893
1782832163872082400,9.88008251953125,-0.1633385419845581,0.45390838384628296,-0.06497786939144135
1782832163882010400,9.89001025390625,-0.10505659878253937,0.5861513614654541,-0.04730910062789917
1782832163891939300,9.899939208984375,-0.06753478944301605,0.6419906616210938,-0.029823852702975273
1782832163901868300,9.909868408203126,-0.02918248251080513,0.6499689817428589,-0.04465299844741821
1782832163911797500,9.919797607421875,-0.0005076946690678596,0.6064183115959167,-0.052436888217926025
1782832163921726500,9.9297265625,0.023102939128875732,0.5505765676498413,-0.051737915724515915
1782832163931654400,9.939654296875,0.02398098260164261,0.53752201795578,0.014974803663790226
1782832163941583400,9.949583251953126,-0.0372488759458065,0.4674246907234192,0.1672421544790268
1782832163951512300,9.95951220703125,-0.0852813795208931,0.18678772449493408,0.2241123616695404
1782832163961441500,9.969441650390625,-0.050964534282684326,-0.035463206470012665,0.20845524966716766
1782832163971370500,9.97937060546875,0.03060941956937313,-0.29590171575546265,0.11869952827692032
1782832163981298400,9.98929833984375,0.1368408054113388,-0.5599402189254761,-0.04741573706269264
1782832163991227400,9.999227294921875,0.2215500921010971,-0.6095698475837708,-0.22748589515686035
1782832164001156400,10.00915625,0.2539246082305908,-0.4929596185684204,-0.4145352244377136
1782832164011085600,10.01908544921875,0.2324398308992386,-0.29507479071617126,-0.5670711994171143
1782832164021014500,10.0290146484375,0.16486802697181702,0.03344079852104187,-0.5708121657371521
1782832164030942500,10.0389423828125,0.06529296189546585,0.32885780930519104,-0.4461078345775604
1782832164040871400,10.048871337890626,-0.028552426025271416,0.42662879824638367,-0.29991987347602844
1782832164050800400,10.05880029296875,-0.05656062066555023,0.36073926091194153,-0.21690966188907623
