time,seconds_elapsed,z,y,x
1782838079716371500,0.075371337890625,0.21069149965941905,0.13317783267237246,0.2911159395266324
1782838079726300400,0.085300537109375,0.1554237859457731,0.04964928930997848,0.39153000510782
1782838079736229400,0.0952294921875,0.16311083331704138,0.055817091224715114,0.45201706090494986
1782838079746158600,0.10515869140625,0.10483867709040641,0.14595920750796795,0.43977673414349555
1782838079756088600,0.115088623046875,-0.03244973270595074,0.17362711276486514,0.40175369481723755
1782838079766017500,0.125017578125,-0.1221148060619831,0.22958514683023093,0.26527583421878514
1782838079775946500,0.134946533203125,-0.16612345913648605,0.3575955868020653,0.21077987206261603
1782838079785875500,0.14487548828125,-0.19279402391910552,0.32351657239384946,0.17092125133965164
1782838079795805400,0.154805419921875,-0.1635240902930498,0.29124402288571,0.09164178025647997
1782838079805734700,0.164734619140625,-0.15633271748423574,0.20762809350080788,0.11488364923205226
1782838079815663600,0.17466357421875,-0.1327373223632574,0.14666004925370216,0.23524671625588087
1782838079825592600,0.184592529296875,-0.16888649410903453,0.14310491405539214,0.2557647862907499
1782838079835522300,0.194522216796875,-0.18631752138137816,0.08974610270299017,0.18406068236529827
1782838079845451500,0.204451416015625,-0.24041034609675405,0.10089454257450997,0.022275398563593625
1782838079855380500,0.21438037109375,-0.26458324884474277,0.06922879985310137,0.06086593557950109
1782838079865309400,0.224309326171875,-0.11404080519974232,0.010951602125167846,0.08616528507415205
1782838079875239700,0.23423974609375,-0.10255904172062873,0.047481005360186096,0.14110471668150276
1782838079885168600,0.244168701171875,-0.12533669071793554,-0.004667334223911166,0.1121281765114516
1782838079895097600,0.25409765625,-0.06950491338074206,0.011638050019368528,0.02625095113106072
1782838079905026600,0.264026611328125,-0.06394552568793296,0.04848156070485711,-0.11397314679101109
1782838079914956500,0.27395654296875,-0.07531739905178546,0.00010587152726948261,-0.04971990686077624
1782838079924886000,0.283885986328125,-0.06207096398770809,-0.06444938355684281,0.02902896447703242
1782838079934815200,0.293815185546875,-0.058229486128687856,-0.10491700302362442,0.08990852672308683
1782838079944744200,0.303744140625,-0.004299743020534515,-0.12111205876022577,0.030018012047000227
1782838079954674000,0.313673828125,0.011905541849136352,-0.02492306352816522,0.03523863277211785
1782838079964603100,0.32360302734375,0.01021335097849369,-0.039349429091811175,0.03730575790237635
1782838079974532000,0.333531982421875,0.011758242332935332,-0.08301964399218559,0.08896795793734491
1782838079984461000,0.3434609375,0.022242811468243598,-0.07563742478638887,0.052768992233090097
1782838079994391000,0.35339111328125,0.10360299781560897,-0.06078457743898034,0.06950754372924565
1782838080004320300,0.3633203125,0.12983341761529446,-0.030751550485938785,0.045253063645027576
1782838080014249000,0.3732490234375,0.09890987156331539,-0.02004749338105321,0.11501724901646375
1782838080024178000,0.383177978515625,0.04309153822958469,-0.05027838099375367,0.1569128554597497
1782838080034108200,0.393108154296875,0.05077566299140453,-0.04946662621945142,0.24387148286867885
1782838080044037000,0.403037109375,-0.00003039513826370239,-0.06713270435668528,0.1855865767583251
1782838080053966000,0.412966064453125,-0.06143149704039096,-0.04916764327287674,0.16222170245759188
1782838080063895000,0.42289501953125,-0.04308978466391563,-0.031360183903574944,0.19028266215268522
1782838080073825000,0.432824951171875,-0.08693067995607852,-0.013250672847777605,0.3164701244810596
1782838080083754000,0.44275390625,-0.1302022509276867,-0.041504488233849404,0.36333244995363057
1782838080093683000,0.452682861328125,-0.21238719766139982,-0.07745331510193645,0.33885596114918587
1782838080103612200,0.462612060546875,-0.22845862701833247,-0.07713847699910402,0.2331824406698346
1782838080113542100,0.472542236328125,-0.18170096749663353,-0.032092589831352235,0.2685385623417795
1782838080123471000,0.48247119140625,-0.17566460994184016,-0.02522233873568475,0.2961266072954982
1782838080133400000,0.492400146484375,-0.21672610364854333,-0.04654642792381346,0.36479010141603646
1782838080143330000,0.502330078125,-0.23129998792409895,-0.08156805694438517,0.3483426783535629
1782838080153259000,0.512259033203125,-0.20058394714295863,-0.06221658300347626,0.3406555944496766
1782838080163188000,0.52218798828125,-0.1838794805794954,-0.05975698795691132,0.3141767893794924
1782838080173117200,0.5321171875,-0.19883330408334732,-0.04508936098329722,0.2468003759274259
1782838080183047200,0.542047119140625,-0.22638415883183477,-0.06775697373487055,0.20201956943664698
1782838080192976000,0.551975830078125,-0.14382511808872223,-0.10414521493352949,0.25236586456745863
1782838080202905000,0.561905029296875,-0.1132224745541811,-0.14023578835986553,0.25761414048448206
1782838080212834000,0.571833984375,-0.0579705429315567,-0.12634141078107058,0.21131237150412052
1782838080222764000,0.581763916015625,-0.03369242624342442,-0.12436806488148867,0.15559271277189254
1782838080232693000,0.59169287109375,-0.05636836843192577,-0.10063669535592198,0.16438731952626257
1782838080242622200,0.601622314453125,-0.09560556932091713,-0.12860694456025956,0.22436412424631416
1782838080252551200,0.61155126953125,-0.059935705524683,-0.13770349340327084,0.1533688261773437
1782838080262481000,0.62148095703125,-0.10889876613616943,-0.10191789427287876,0.02296761861145496
1782838080272410000,0.63141015625,-0.08109948958456516,-0.16804931263253092,0.060590223910659546
1782838080282339000,0.641339111328125,0.00500058476626873,-0.197698527899757,0.14230302308797835
1782838080292268000,0.65126806640625,0.020983166795969007,-0.21545973697453735,0.15512443767301737
1782838080302198300,0.6611982421875,-0.005729483562707901,-0.2452699149571359,0.16391922709047793
1782838080312127200,0.671127197265625,-0.04706394899189472,-0.19264972007758915,0.12095453011095524
1782838080322056000,0.681055908203125,-0.12801613906025885,-0.1987258251208812,0.07357961547374725
1782838080331985000,0.69098486328125,-0.15513620117604732,-0.2055341168962419,0.08580569451414048
1782838080341915100,0.7009150390625,-0.08936872075796126,-0.1858437663897872,0.07216255175005644
1782838080351844000,0.710843994140625,0.01277180328965187,-0.1618796110216528,0.04919482354074716
1782838080361773000,0.72077294921875,0.004768529576063156,-0.18519589694030583,0.0643494668463245
1782838080371702000,0.730701904296875,-0.06472001719176769,-0.24162059866935012,0.14671539617013185
1782838080381632000,0.740632080078125,-0.04667933358848095,-0.24762005827985703,0.1684759040141478
1782838080391561000,0.75056103515625,-0.01944412066042423,-0.17739391795247791,0.11498707307390868
1782838080401490000,0.760489990234375,0.00144610715508461,-0.20107954864017663,0.08032434049360454
1782838080411419100,0.770419189453125,-0.00755728351175785,-0.23958821605890987,0.08364438829440624
1782838080421349000,0.78034912109375,0.02443593759834766,-0.2449592415727675,0.10900598937030881
1782838080431278000,0.790278076171875,0.06325929698944091,-0.2448614802867174,0.11693813407644629
1782838080441207300,0.800207275390625,-0.007087912434339523,-0.29413495855424554,0.11635847102496773
1782838080451136000,0.810135986328125,-0.09575754501223564,-0.3032639118295163,0.08309844484943896
1782838080461066000,0.82006591796875,-0.19078911383748054,-0.2686147693831473,0.066726425110735
1782838080470995200,0.8299951171875,-0.14115794470608234,-0.251795882659778,-0.007014591469801962
1782838080480924200,0.839924072265625,-0.15916531056165695,-0.1901503410099074,-0.007608063850924373
1782838080490853000,0.84985302734375,-0.11929331890046596,-0.22798574880957603,0.08582206112705171
1782838080500782800,0.859782958984375,-0.059415481042861935,-0.3224905903469771,0.0860488556202501
1782838080510712000,0.869712158203125,0.006519757157564162,-0.3426885981146246,0.06939348889552056
1782838080520641000,0.87964111328125,0.013658522996306419,-0.3696868604816496,0.12628365271184594
1782838080530570000,0.889570068359375,0.005269464835524559,-0.3965136022066697,0.13603552365843205
1782838080540500200,0.899500244140625,-0.07897592155933379,-0.32648269219044596,0.09991174208223819
1782838080550429200,0.90942919921875,-0.1104986025482416,-0.28864271781351414,0.12424345212113111
1782838080560358100,0.919358154296875,-0.09212357242405414,-0.25533318994045257,0.1307093601996079
1782838080570287000,0.929287109375,-0.1243628772497177,-0.22756799832154065,0.14659969736859202
1782838080580217000,0.939217041015625,-0.13945873957276345,-0.18900493383444844,0.1834094884475693
1782838080590146000,0.94914599609375,-0.21630466336607931,-0.16816318480316547,0.15623415248058736
1782838080600075000,0.959074951171875,-0.31404432210624217,-0.15440346645470707,0.1582690558416769
1782838080610005200,0.969005126953125,-0.21166122147440908,-0.14798256656173617,0.14837335597760976
1782838080619934200,0.978934326171875,-0.12612579526901244,-0.09430979388933629,0.1413426901558414
1782838080629863000,0.98886279296875,-0.11590835263729095,-0.09423647292479873,0.20394662850908934
1782838080639791900,0.9987919921875,-0.10517010100185871,-0.14307243655789642,0.23247568063996732
1782838080649722000,1.00872216796875,-0.052984571212530134,-0.0826247629230842,0.21270050139427185
1782838080659651000,1.018651123046875,-0.08998831396102905,-0.03640796881243586,0.22109796205721793
1782838080669580000,1.028580078125,-0.06739420483708382,-0.04295717126019299,0.24690873167272656
1782838080679509200,1.03850927734375,-0.0459755692332983,0.001041471876949072,0.1914768038406968
1782838080689439000,1.04843896484375,-0.07585106753706931,0.02328187219239771,0.14690156639199703
1782838080699368000,1.058367919921875,-0.034198622199892996,0.0298429842736572,0.17696517114639282
1782838080709297200,1.068297119140625,-0.04001812213361263,0.0294399564307183,0.1658578670028597
1782838080719226000,1.07822607421875,-0.09687807347476482,-0.040719694531708955,0.16694756193570792
1782838080729156000,1.088156005859375,-0.08787351376414299,-0.06353150152694434,0.16908245507255196
1782838080739085000,1.0980849609375,-0.05778174236118793,-0.031792328243143854,0.11461761870700865
1782838080749014000,1.108013916015625,-0.01840074908733368,-0.011837262385897338,0.09442297194022685
1782838080758943000,1.11794287109375,-0.002140519160032272,0.018033669340610504,0.08232515892200172
1782838080768873000,1.127873046875,-0.067986910033226,-0.023918854921683667,0.05070161137450486
1782838080778802200,1.13780224609375,-0.09846329683959483,-0.10122194789797068,0.08309663648484274
1782838080788731100,1.147731201171875,-0.1296352646946907,-0.13320610891878604,0.14107636736985296
1782838080798660000,1.15766015625,-0.10777297697663306,-0.18232428702674805,0.11640006341068074
1782838080808590000,1.167590087890625,-0.11123159299790858,-0.16576105556488036,0.012304057913739234
1782838080818519000,1.17751904296875,-0.07949906865060329,-0.15007935617789625,-0.04176060015307739
1782838080828448000,1.187447998046875,-0.017394202393293378,-0.12947715152353048,0.020964005437772718
1782838080838377000,1.197376953125,-0.0727887573570013,-0.16033369675390421,0.04067556312903762
1782838080848307200,1.20730712890625,-0.07713526212871075,-0.18038498952724039,0.018701065474469213
1782838080858236200,1.217236083984375,-0.008092705562710762,-0.15333784651719032,0.04851734440429136
1782838080868165000,1.2271650390625,0.003157587248086929,-0.1369910342849791,0.08791572720436379
1782838080878094000,1.237093994140625,-0.08838847754895686,-0.1840771951086819,0.12160682000722735
1782838080888024000,1.247024169921875,-0.08863573030829429,-0.22242679950818417,0.16912607501856983
1782838080897953000,1.256953125,-0.0671855305224657,-0.2190784389283508,0.08225306180017068
1782838080907882000,1.266882080078125,0.009854454538226127,-0.20039193170219657,0.05230022394387051
1782838080917812200,1.276812255859375,-0.013702362138032912,-0.18075667238384485,0.07543823068616912
1782838080927740700,1.28674072265625,-0.08616028010547161,-0.1977523769788444,0.11984837723365052
1782838080937669600,1.296669677734375,-0.1199801321208477,-0.18578114948235452,0.13604927818914875
1782838080947598300,1.306598388671875,-0.14873334839642047,-0.12846191006638108,0.15548506941264495
1782838080957528600,1.316528564453125,-0.15267185688912868,-0.14547171625196934,0.10287974330866709
1782838080967457500,1.32645751953125,-0.16117372777462005,-0.13233444065079092,0.059538157574459905
1782838080977386500,1.336386474609375,-0.12299568054974079,-0.11145086177177727,0.10469338686820119
1782838080987315700,1.346315673828125,-0.14533026195466517,-0.1534584772221744,0.14880520805623382
1782838080997245400,1.356245361328125,-0.11975275310575961,-0.12518332678712904,0.19356137329610063
1782838081007174400,1.36617431640625,-0.13720423864424228,-0.1283635642584413,0.17527380225965752
1782838081017103600,1.376103515625,-0.10151157849431038,-0.09466171259954571,0.15245817760583014
1782838081027032600,1.386032470703125,-0.08111293358802794,-0.03010273118838668,0.13970873227845876
1782838081036962600,1.395962646484375,-0.09380816451013088,-0.039308658690005535,0.10417071470096707
1782838081046891800,1.405891845703125,-0.04828267713189125,-0.05597235485166311,0.04847328606685623
1782838081056820700,1.41582080078125,-0.012401216411590575,-0.07973360805884003,0.07441047680731862
1782838081066749700,1.425749755859375,0.04468786751031875,-0.11670432532057165,0.12815625991700216
1782838081076679400,1.435679443359375,0.06302607275545596,-0.08281615730933845,0.12271542056994512
1782838081086608600,1.445608642578125,0.014351765957474708,-0.08524981419704854,0.025881113171670585
1782838081096537600,1.45553759765625,0.013200842356681824,-0.0861838801767677,-0.01864593775374815
1782838081106466600,1.465466552734375,0.030800211933255193,-0.07030870404429733,0.003444770159013569
1782838081116396500,1.475396484375,0.03193593796491623,-0.1227973084334284,0.054029732883907854
1782838081126325500,1.485325439453125,0.059362874072790145,-0.16087912874221802,0.06818500815490261
1782838081136254500,1.49525439453125,-0.009158288967609405,-0.13932166918963193,0.04143060101373121
1782838081146184700,1.505184814453125,-0.08097381737828255,-0.15606683308966457,0.03642948652449995
1782838081156113700,1.51511376953125,-0.09819266320466995,-0.1690726643308997,-0.01574616119163111
1782838081166042600,1.525042724609375,-0.13456044613718987,-0.15625767948664723,-0.03578874093554914
1782838081175971600,1.5349716796875,-0.17918401623964308,-0.193402072814852,0.030009810474235562
1782838081185901600,1.544901611328125,-0.13752280307412146,-0.22134331512041389,0.07088336212709545
1782838081195830500,1.55483056640625,-0.13896014240086077,-0.19289631524980067,0.02718028613673523
1782838081205759500,1.564759521484375,-0.16612345913648605,-0.19029840771108864,0.03872130552241578
1782838081215688400,1.5746884765625,-0.16857786655128001,-0.18750928844921289,0.05216066934270784
1782838081225618700,1.58461865234375,-0.1858931584894657,-0.15618563716374337,0.05799942196616903
1782838081235547600,1.594547607421875,-0.17104104179441929,-0.13861227881126104,0.10092367733744904
1782838081245476600,1.6044765625,-0.18384440926611423,-0.11975582184568047,0.04726654062559828
1782838081255405600,1.614405517578125,-0.14799392820596693,-0.11628113147243857,0.06003405133262276
1782838081265335600,1.62433544921875,-0.08348316985070704,-0.07436316706687211,0.15269759411858394
1782838081275264500,1.634264404296875,-0.06400573144257068,-0.04735767124146223,0.17457568219397215
1782838081285193700,1.64419384765625,-0.0861824919372797,-0.023662030616402624,0.1412463719082065
1782838081295122700,1.654122802734375,-0.09487959313392638,-0.0014455226331949232,0.11040688741048797
1782838081305052400,1.664052490234375,-0.0452566073089838,0.010973375565558672,0.10196513094808905
1782838081314981400,1.6739814453125,-0.01514028598666191,0.013398191559687257,0.11618590920334682
1782838081324910600,1.68391064453125,-0.016842413729429243,-0.003088686730340123,0.08811112191230058
1782838081334840600,1.693840576171875,-0.011968670213222503,0.016590703990682958,0.09054324443005025
1782838081344769500,1.70376953125,-0.006560673689842224,0.03183766522221267,0.10085159848192705
1782838081354698800,1.71369873046875,-0.02249357135891914,0.013974895469099283,0.05637251488408074
1782838081364627700,1.723627685546875,-0.009770867908000946,-0.0007801175270229577,0.01571762921689078
1782838081374557400,1.733557373046875,-0.02800795086622238,-0.024776421599090097,0.053495096284244203
1782838081384486700,1.743486572265625,-0.005448328533768654,-0.05985862170048058,0.12306828912822529
1782838081394415600,1.75341552734375,-0.07043839483857155,-0.038174028636887666,0.12382073319703339
1782838081404344600,1.763344482421875,-0.056687517383694645,-0.05191993765570223,0.09083658308712765
1782838081414274600,1.773274658203125,0.004043722432851791,-0.023799904717132447,0.056862837417982516
1782838081424203500,1.78320361328125,0.0011707973450422286,-0.05458864540830254,0.002695285232271999
1782838081434132500,1.793132568359375,0.019843933632969855,-0.11693579598888754,0.06727596701858565
1782838081444061400,1.8030615234375,0.004994155025482177,-0.1342049837630242,0.11691115473797545
1782838081453991700,1.81299169921875,-0.014663900646567344,-0.19998773481547832,0.11589174856236203
1782838081463920600,1.822920654296875,0.023862521624565123,-0.17179010659605265,0.0766633520343341
1782838081473849600,1.832849609375,-0.029729952353239057,-0.15366963575482367,0.05441425695577636
1782838081483779600,1.842779541015625,-0.0603144757091999,-0.19321356450542806,0.08477183968806638
1782838081493708500,1.85270849609375,-0.055713703915476795,-0.1659691453576088,0.15378246674584223
1782838081503637500,1.862637451171875,-0.027398294535279272,-0.16045206243656573,0.1659842698615044
1782838081513566500,1.87256640625,-0.016591069316864014,-0.1472132261570543,0.15574591230591758
1782838081523496700,1.88249658203125,-0.08754910411536693,-0.13587664330229163,0.10322220007078721
1782838081533425700,1.89242578125,-0.08726444195508956,-0.15202639859244227,0.07700962645504623
1782838081543354600,1.902354736328125,-0.1130780976474285,-0.19195362757220863,0.13058682979848235
1782838081553283300,1.912283447265625,-0.10129939704835414,-0.22282895056828855,0.22651112794606013
1782838081563213600,1.922213623046875,-0.04870353289246559,-0.22459829832836983,0.2212391788925044
1782838081573142500,1.932142578125,-0.030890228304266926,-0.18166406955234704,0.20570543660884721
1782838081583071500,1.942071533203125,-0.1202671323686838,-0.16280790484771132,0.2092417392425239
1782838081593001700,1.952001708984375,-0.14716975234150886,-0.12982055813372134,0.1709311151465401
1782838081602930400,1.961930419921875,-0.20875322507321833,-0.05114245047718286,0.18664434218294917
1782838081612859400,1.971859375,-0.254230197134614,-0.05810651733614504,0.20953537016054613
1782838081622788600,1.98178857421875,-0.22789456339478492,-0.06431633176170289,0.19140351940877734
1782838081632718600,1.991718505859375,-0.13402619313001632,-0.06815992851257324,0.20118244275907055
1782838081642647600,2.0016474609375,-0.09227963976860046,-0.11619133429713546,0.21484646391440182
1782838081652576800,2.01157666015625,-0.0685316844344139,-0.11655403012968599,0.19575508394809438
1782838081662505700,2.021505615234375,-0.049049569851160046,-0.10226283525303005,0.183193471076712
1782838081672435500,2.031435546875,-0.0470604418605566,-0.06646532648913561,0.14694109468478708
1782838081682364400,2.041364501953125,-0.08311375201642512,-0.056582961030676955,0.09672085535274819
1782838081692293600,2.051293701171875,-0.08139116600751876,-0.094331530797109,0.12550963613204658
1782838081702223600,2.0612236328125,-0.05386252309083938,-0.07814283173605799,0.14070563436131925
1782838081712152600,2.071152587890625,-0.14280746547877787,-0.11164784564860164,0.14022119357893242
1782838081722081500,2.08108154296875,-0.13086919040381909,-0.1436419435415417,0.09137673611212521
1782838081732010500,2.091010498046875,-0.05437748687565326,-0.06509389200545847,-0.0061620845600031315
1782838081741940500,2.1009404296875,-0.08157879753410816,-0.0880747354246676,-0.03048241468835622
1782838081751869700,2.11086962890625,-0.0919423706382513,-0.1974116007171571,0.04472529517756775
1782838081761798700,2.120798583984375,-0.012249240720272064,-0.19031923130340872,0.06747872304907068
1782838081771727600,2.1307275390625,-0.0035942250996828075,-0.1872716072358191,0.07894592827986925
1782838081781657300,2.1406572265625,-0.022495909446477887,-0.21628398590423165,0.10210561713101342
1782838081791586600,2.150586669921875,-0.03795943603813648,-0.188794067562744,0.02530442752856761
1782838081801515500,2.160515625,-0.05815466732680797,-0.1775740968249738,-0.013594773577712476
1782838081811445500,2.170445556640625,-0.07046820545494556,-0.20335604220479725,0.0766543467439711
1782838081821374700,2.180374755859375,-0.09611527240872382,-0.19085056170113385,0.05020690492643043
1782838081831303700,2.1903037109375,-0.11338497163951396,-0.2140558615259826,0.0012185272105969488
1782838081841232600,2.200232666015625,-0.06585165157020091,-0.19532646500617265,0.050831082973070436
1782838081851162600,2.21016259765625,-0.03405132268369197,-0.17011084827221928,0.1347128784862347
1782838081861091600,2.220091552734375,-0.04827274025976658,-0.16282748633101582,0.1511939115573652
1782838081871020500,2.2300205078125,-0.09263619812130927,-0.1612618444494903,0.11982563567887991
1782838081880949500,2.239949462890625,-0.08364157528281212,-0.15125424517616629,0.14627088553933426
1782838081890879700,2.249879638671875,-0.01812310118973255,-0.12753354317508636,0.16856908045662566
1782838081900808400,2.259808349609375,-0.06866144829392433,-0.1145632216386497,0.1919411699494347
1782838081910737400,2.2697373046875,-0.15880758316516874,-0.14104644715562462,0.22604593985341487
1782838081920667600,2.279667724609375,-0.14669570508897303,-0.11544650727920233,0.22224254724876955
1782838081930596900,2.289596923828125,-0.15342179847359658,-0.06704020376764237,0.18421285898601636
1782838081940525800,2.29952587890625,-0.1742208408743143,-0.0756598558139056,0.16349515645951032
1782838081950454800,2.309454833984375,-0.16139233896136282,-0.10213898967765271,0.17509630853459238
1782838081960384800,2.319384765625,-0.09429799385368823,-0.1159917931370437,0.15954762441013007
1782838081970313700,2.329313720703125,-0.08447334993183613,-0.13565949342027306,0.10775553265148773
1782838081980242700,2.33924267578125,-0.11410159547626972,-0.14392916298508643,0.1073836853981018
1782838081990173000,2.3491728515625,-0.06698503951430321,-0.1321967126805335,0.09633732679472304
1782838082000102000,2.359101806640625,-0.0831710351616144,-0.08740399655625224,0.0614465850116685
1782838082010030800,2.36903076171875,-0.11629296804070471,-0.13508695422932504,0.04684988611610606
1782838082019959800,2.378959716796875,-0.07542085942625999,-0.1749357842106372,0.016925342772528527
1782838082029889800,2.388889892578125,-0.047643210184574125,-0.16298640321977437,-0.008443144701886921
1782838082039818800,2.39881884765625,0.014042553877830504,-0.17315613425225018,0.02638193883327767
1782838082049747700,2.408747802734375,0.002477203768491745,-0.1678918570484966,0.0579398372660391
1782838082059677000,2.418677001953125,-0.017045242825150488,-0.18185856921114027,0.03211366915199906
1782838082069606700,2.428606689453125,0.020367080724239348,-0.16280753952153026,0.01301200525369495
1782838082079535600,2.43853564453125,0.03999064960479736,-0.13812887920849024,-0.005365043297642842
1782838082089464600,2.448464599609375,0.04584989702701568,-0.10538323229588567,0.035179038938833396
1782838082099394800,2.458394775390625,-0.0036620296388864514,-0.11407222325131297,0.0443754496934358
1782838082109323800,2.46832373046875,-0.025319150173664092,-0.12439429530128836,0.048484492447460066
1782838082119252700,2.478252685546875,-0.006430909830331802,-0.10256810180991888,0.09193057060260325
1782838082129182000,2.488181884765625,0.026632570859789848,-0.07579027726054191,0.06672488160762004
1782838082139111700,2.498111572265625,0.04223462913930416,-0.04142864651866257,0.036517155674798414
1782838082149040600,2.50804052734375,0.017595862445235252,-0.06671623251028358,0.07658851496614515
1782838082158969900,2.517969970703125,-0.030171850901842115,-0.07662314788810909,0.11968055551922879
1782838082168899800,2.52789990234375,-0.01381751295030117,-0.07803389146886766,0.16870708242151886
1782838082178828800,2.537828857421875,-0.06625614071786404,-0.07666720622554421,0.1705723465704359
1782838082188758000,2.547758056640625,-0.08796060752570628,-0.09107654758915304,0.1544496436839923
1782838082198686700,2.557686767578125,-0.029398528441786764,-0.03889452493116259,0.17520546799749134
1782838082208616700,2.56761669921875,-0.05611468593180179,-0.017408669310063123,0.1866492375537753
1782838082218545700,2.577545654296875,-0.11964169394671917,-0.029336349925771353,0.1772120951121673
1782838082228475000,2.587474853515625,-0.08327683362364768,-0.00551459870301187,0.10693567676912061
1782838082238404900,2.59740478515625,-0.07206687282323837,-0.0019855477940291166,0.10301295950058847
1782838082248333600,2.60733349609375,-0.11835340770184993,-0.0868522078923881,0.1371048516566865
1782838082258262800,2.6172626953125,-0.12005202831327914,-0.1269186261471361,0.13866596349356694
1782838082268191700,2.627191650390625,-0.13796411710083484,-0.10033142879903316,0.07039781623301096
1782838082278121700,2.637121826171875,-0.142223528110981,-0.12022037061750888,0.07162518433718942
1782838082288051000,2.647051025390625,-0.12287176190912723,-0.15724055304415524,0.1504542630380485
1782838082297980000,2.65697998046875,-0.13908347651958464,-0.15674385556839407,0.11800228357608429
1782838082307909600,2.66690966796875,-0.1707832676410675,-0.20168014488182961,0.0582330023931805
1782838082317838600,2.676838623046875,-0.07783785744011401,-0.2086626972455531,0.035239290359243745
1782838082327767800,2.686767822265625,-0.026747721672058102,-0.15954736868180333,0.03586587955867872
1782838082337696800,2.69669677734375,0.002025368347764015,-0.16852869364731013,0.09909229719182476
1782838082347626800,2.706626708984375,-0.03144844670891762,-0.2188637732643634,0.10153417391860857
1782838082357556000,2.716555908203125,-0.043335283857584,-0.1941474112894386,0.03760137071493082
1782838082367485000,2.72648486328125,-0.00948445218205452,-0.1855433221384883,0.033156063477555286
1782838082377414700,2.73641455078125,-0.12638181585669517,-0.20941088526435195,0.03685140173099935
1782838082387344000,2.74634375,-0.17904314646422861,-0.23350728871002793,-0.021573113779444247
1782838082397272800,2.75627294921875,-0.0419581502854824,-0.17215820925608277,-0.05243280081497505
1782838082407201800,2.766201904296875,0.0441629668533802,-0.1433550163589418,0.09509954689438455
1782838082417131800,2.7761318359375,0.006209960556030273,-0.27026538613438605,0.09094089284497313
1782838082427060700,2.786060791015625,-0.057500002810359,-0.2563386406559497,-0.07076330681084655
1782838082436989700,2.79598974609375,-0.026124621337652205,-0.13108451365493237,-0.047417539069382474
1782838082446919700,2.805919677734375,0.04809913725852966,-0.06738039550743996,0.08030918859024531
1782838082456849000,2.815848876953125,-0.04134790943264961,-0.11138605290725827,0.14249668249655514
1782838082466777900,2.82577783203125,-0.09086509679555893,-0.09234313345886766,0.09843508452526294
1782838082476706800,2.835706787109375,-0.019816461104154585,-0.03656608198359609,0.0782806327715516
1782838082486636800,2.84563671875,-0.05997545301318168,-0.022084698297083375,0.139415439287154
1782838082496565800,2.855565673828125,-0.0534609565526247,-0.05652253608033061,0.11107969950498081
1782838082506494700,2.86549462890625,-0.07846972560286522,-0.057942558946087956,0.07050830000331625
1782838082516425000,2.875425048828125,-0.1753577359497547,-0.13729703149423003,0.059003603173187
1782838082526354000,2.88535400390625,-0.17092881359159945,-0.2113669147029519,-0.026543157276976852
1782838082536283000,2.895282958984375,-0.17041735693812368,-0.16894041625335812,-0.029574387332191688
1782838082546211800,2.9052119140625,-0.10356325032711028,-0.12681019733659923,0.14482507064519448
1782838082556141800,2.915141845703125,-0.03475567156076431,-0.10253551471456884,0.19456158158089965
1782838082566070800,2.92507080078125,-0.07343114691376686,-0.032164705219492315,0.15912629372552037
1782838082575999700,2.934999755859375,-0.14170155006349086,-0.016093275862559674,0.14889221048625184
1782838082585930000,2.944929931640625,-0.15617665013968943,-0.039785263225808734,0.1548710657001473
1782838082595858700,2.954858642578125,-0.16398410902023314,-0.059663902845978736,0.1208112126501277
1782838082605787600,2.96478759765625,-0.19333762927651404,-0.07429192846156657,0.1567427595898509
1782838082615716600,2.974716552734375,-0.21978198408782482,-0.11230411760024726,0.22680326102674006
1782838082625646800,2.984646728515625,-0.14126549673378466,-0.10931596863493323,0.11619893308170139
1782838082635575800,2.994575927734375,-0.11383154636323452,-0.05715856896154582,0.03444819478048011
1782838082645504800,3.0045048828125,-0.07010171023011207,-0.040758711367845535,0.10761949431481771
1782838082655434800,3.014434814453125,-0.03688099315166473,-0.044227994913607835,0.17064276319183408
1782838082665363700,3.02436376953125,-0.06669102500379086,-0.06696494657434522,0.2505078521432355
1782838082675292700,3.034292724609375,0.00845744722187519,-0.008009703454375267,0.2422176329807378
1782838082685221600,3.0442216796875,-0.05351707065403461,0.01150061431005597,0.12081929549188353
1782838082695151900,3.05415185546875,-0.05084405205249786,-0.038544030993059274,-0.0030108083216939118
1782838082705080800,3.064080810546875,0.04576338778734207,-0.01614778252877295,0.03915814886998851
1782838082715009800,3.074009765625,0.08497077805995941,-0.06289740487448871,0.16452537629008293
1782838082724939800,3.083939697265625,0.11026245570480823,-0.09791435771994292,0.18171379044558852
1782838082734868700,3.09386865234375,0.030583938834071157,-0.12883162016160785,0.10453366626184434
1782838082744797700,3.103797607421875,0.009859715235233307,-0.16316059074290096,-0.0166043900227407
1782838082754727000,3.113726806640625,0.05091477920114994,-0.11322751605547964,0.0012304185777902603
1782838082764657000,3.123656982421875,0.0451128149241209,-0.10402224614098668,0.05550584245161153
1782838082774585600,3.133585693359375,0.001087210714817047,-0.10449490515403449,0.12410528575945645
1782838082784514600,3.1435146484375,-0.07717267152965068,-0.07488193024396896,0.09345471142996102
1782838082794444800,3.15344482421875,-0.1534463483929634,-0.05722147812992334,-0.02626150449111592
1782838082804373800,3.163373779296875,-0.20838614532649516,-0.0493779980879277,-0.035743691650847904
1782838082814302700,3.173302734375,-0.22141163111627102,-0.09831665491051972,0.03333405039296485
1782838082824232700,3.183232666015625,-0.1343850895702839,-0.16139182750470935,0.11086564576234668
1782838082834161700,3.19316162109375,-0.128206108674407,-0.19401472482047974,0.08264560478171333
1782838082844090600,3.203090576171875,-0.1498129603266716,-0.20178155942969023,0.043851247722818516
1782838082854019800,3.213019775390625,-0.12406535560786723,-0.1826318186059594,0.023097268306533806
1782838082863949800,3.22294970703125,-0.08736147258877754,-0.11412095776386558,0.08776884781327098
1782838082873878800,3.232878662109375,-0.0777647922039032,-0.07881503190919756,0.18621532138222827
1782838082883808000,3.24280810546875,-0.09156009332239627,-0.045514381462335586,0.21227232084376738
1782838082893737700,3.25273779296875,-0.15137538733780384,-0.022088716885074973,0.21013708064705133
1782838082903666700,3.262666748046875,-0.16921324184536932,-0.03423077090382576,0.1741479948338121
1782838082913595600,3.272595703125,-0.17255261540114877,-0.027968203377723693,0.0974845332016237
1782838082923524900,3.28252490234375,-0.136344991466403,-0.043130116674304005,0.06406745786743703
1782838082933454000,3.2924541015625,-0.1487842018008232,-0.12064480657465755,0.07395443100235424
1782838082943383000,3.302383056640625,-0.07590951972603797,-0.13673501369729638,0.11896089034201576
1782838082953312000,3.31231201171875,-0.027480712121725082,-0.11099822263345122,0.1637718545090407
1782838082963242000,3.322241943359375,-0.047745501515269274,-0.11335983719825744,0.13502768005644902
1782838082973171000,3.3321708984375,-0.00860650030374527,-0.08719736806824803,0.12633868910102172
1782838082983100000,3.342099853515625,-0.026762334719300267,-0.09214505360350012,0.1357304214983247
1782838082993030100,3.352030029296875,-0.06653495765924454,-0.11433540423214435,0.13947919783890247
1782838083002959000,3.361958984375,-0.09468553186655045,-0.13207286710515617,0.15457465830314904
1782838083012888000,3.37188818359375,-0.1743552809089422,-0.14944310410097242,0.15868444997584447
1782838083022817000,3.381817138671875,-0.1291951197117567,-0.13496391237154604,0.12033115578191354
1782838083032747000,3.3917470703125,-0.0951537339001894,-0.10119118743352591,0.04488917593581136
1782838083042676000,3.401676025390625,-0.07159691722393036,-0.1003391737140715,-0.042287930229119954
1782838083052605000,3.41160498046875,-0.03345452583432197,-0.12847455035224556,0.013465717537677845
1782838083062535200,3.42153515625,0.015337269863486288,-0.19581834017634392,0.09046725658439099
1782838083072464000,3.4314638671875,-0.0147398884922266,-0.22888488960638642,0.12991711384337395
1782838083082392800,3.441392822265625,-0.042296588459610936,-0.2265989706262946,0.13096503372741863
1782838083092322000,3.451322021484375,0.047696401676535605,-0.14762151469700038,0.07560449063116684
1782838083102252000,3.461251953125,0.014593758019804953,-0.06034896250069141,0.02405086097063031
1782838083112181000,3.471180908203125,-0.05452011021673679,-0.05037314660511911,0.0686025714132702
1782838083122110200,3.481110107421875,-0.14174129755198955,-0.10363938430324196,0.15108680705423466
1782838083132040000,3.4910400390625,-0.09928162748515605,-0.15069317722730338,0.07003554965872318
1782838083141969000,3.500968994140625,-0.12169278125762939,-0.11511369512826204,-0.07992787938877008
1782838083151898000,3.510898193359375,-0.08329670736789703,-0.07148257012926042,-0.039003734626411456
1782838083161828000,3.520828125,-0.08011164759099483,-0.10552052187472581,0.13522376888412982
1782838083171757000,3.530757080078125,-0.10145078821778297,-0.12633899962827563,0.1485425385320559
1782838083181686000,3.54068603515625,-0.13614742306768893,-0.08962050356194376,0.09815115301734767
1782838083191615200,3.550615234375,-0.10207096594274044,-0.08995908786654472,0.061329657800844865
1782838083201545000,3.560544921875,-0.0954021557033062,-0.11511267221495508,0.04163243916218635
1782838083211474000,3.570473876953125,-0.06427578055560589,-0.13205715807937085,0.0319685935589252
1782838083221403100,3.580403076171875,-0.08433598728775978,-0.1096472464159131,0.0857359720124863
1782838083231333000,3.5903330078125,-0.1318389122188091,-0.15028708064444363,0.16876325132185593
1782838083241262000,3.600261962890625,-0.08933715657591819,-0.1300639384355396,0.1429700173630379
1782838083251191000,3.61019091796875,-0.06237491537034511,-0.03682816698588431,0.07300733201112598
1782838083261121000,3.62012109375,-0.10325520729124546,-0.07895224842280149,0.05971760579459369
1782838083271050000,3.630050048828125,-0.078209028840065,-0.13271547585763036,0.06742268657947424
1782838083280979000,3.63997900390625,-0.040891397836804386,-0.12319310281798243,0.12882621333412825
1782838083290908200,3.649908203125,-0.06855272722244263,-0.1534922333613038,0.1421234470036812
1782838083300838000,3.659837890625,-0.026086627414822577,-0.16779657998047767,0.07632251640714238
1782838083310766800,3.669766845703125,0.04938566993772983,-0.09704320090860127,0.060497421927517274
1782838083320696000,3.679696044921875,0.028576690664887428,-0.08765643694736062,0.10787758812857791
1782838083330626000,3.6896259765625,-0.00339022696018219,-0.11381481442414224,0.13414483280731365
1782838083340555000,3.699554931640625,-0.052423430198431015,-0.10034611491151153,0.08791828448763117
1782838083350484200,3.709484130859375,-0.10241934098899363,-0.12096322487406432,0.08502153099966235
1782838083360414000,3.7194140625,-0.09326163654327392,-0.10508666050210594,0.13263029092536308
1782838083370343000,3.729343017578125,-0.09182429721653461,-0.0961569926586002,0.11548036388303153
1782838083380271900,3.73927197265625,-0.06760229462981224,-0.10618578085042536,0.05890847680221777
1782838083390201000,3.749201171875,-0.06372925258874892,-0.10076419419310986,0.0773540011796169
1782838083400131000,3.759131103515625,-0.023620529562234878,-0.13192337563186884,0.09776378853442147
1782838083410060000,3.76906005859375,0.013176292437314987,-0.13612886449769138,0.10818996027968823
1782838083419989000,3.778989013671875,-0.02288286293745041,-0.12252419058047234,0.15909977104477582
1782838083429919000,3.7889189453125,-0.17989888651072977,-0.14978782588541506,0.20312793253734707
1782838083439848000,3.798847900390625,-0.1610848804473877,-0.11964147475101053,0.1340817775084637
1782838083449777200,3.808777099609375,-0.07374620421230793,0.004130523933470249,0.02763048215622548
1782838083459707100,3.81870703125,-0.14277823938429354,-0.038886122428998346,0.017609281332523097
1782838083469635800,3.8286357421875,-0.16593232047855852,-0.13979082107134164,0.059584458101331256
1782838083479565000,3.83856494140625,-0.13563830450177192,-0.17453728641234337,0.10053780155871063
1782838083489495000,3.8484951171875,-0.11537994484901427,-0.20834201392382382,0.13658570488709956
1782838083499424000,3.858424072265625,-0.04576455683112144,-0.17394385056383907,0.07107564242933877
1782838083509353000,3.86835302734375,-0.04587620051205158,-0.1318313134342432,-0.01110742059125332
1782838083519282200,3.8782822265625,-0.038432314246892925,-0.13703786910139024,0.023234388922015202
1782838083529212000,3.8882119140625,-0.12652268563210964,-0.12884703692644833,0.10172250869809649
1782838083539140900,3.898140869140625,-0.09251812469959259,-0.15420973398089408,0.07498773783915676
1782838083549070000,3.908070068359375,0.020376433074474332,-0.08074008168764411,0.02915638111582957
1782838083559000000,3.918,-0.035247254469990726,-0.0719428811173886,0.015798131124174688
1782838083568929000,3.927928955078125,-0.06956570365726947,-0.14325294422395526,0.06598895484877285
1782838083578858200,3.937858154296875,-0.0244604875177145,-0.1332780781764537,0.0742142555488972
1782838083588788000,3.9477880859375,-0.061357262760400766,-0.10427877818532287,0.10355819055950269
1782838083598717000,3.957717041015625,-0.07665244704782963,-0.13406214122623206,0.1391695108352229
1782838083608646000,3.96764599609375,-0.056010056513547894,-0.08252228892929851,0.08788563346019945
1782838083618575000,3.9775751953125,-0.016274258452653883,-0.03090374537296593,0.007278738281724508
1782838083628505000,3.987505126953125,-0.0533083963394165,-0.05411664398238063,0.05095431662709452
1782838083638434000,3.99743408203125,-0.07759586537778378,-0.08997107056528329,0.0993062504697591
1782838083648363000,4.007363037109375,-0.1454419056355953,-0.139191028547287,0.10505621969806961
1782838083658293000,4.01729296875,-0.07086158868670463,-0.14103446445688606,0.08978912899396382
1782838083668222000,4.027221923828125,-0.058036593905091284,-0.09361877941787243,0.06982536837360821
1782838083678151200,4.037151123046875,-0.05644903245270252,-0.10915142572298646,0.0887694396905601
1782838083688081200,4.0470810546875,-0.07699146974384784,-0.10081212498806416,0.10150105710029601
1782838083698009900,4.057009765625,-0.08458207100331783,-0.09129033647030592,0.06407853181730024
1782838083707939000,4.06693896484375,-0.12543898204863071,-0.08113806802928447,0.03580305943855783
1782838083717869000,4.076869140625,-0.18078560621738432,-0.10809614451639353,0.05913297887363005
1782838083727798000,4.086798095703125,-0.1339665718972683,-0.11187274044565856,0.09829281737720594
1782838083737727000,4.09672705078125,-0.07587152580320834,-0.0417184963107109,0.07572018943270668
1782838083747656200,4.10665625,-0.07539689402878284,-0.0527507624566555,0.05041574363783002
1782838083757586000,4.1165859375,-0.047479544055461884,-0.06675977939106524,0.037670348864491096
1782838083767515000,4.126514892578125,-0.03907528832554817,-0.08526903035417199,0.07052689053935464
1782838083777444000,4.136444091796875,-0.012523381486535071,-0.12189648713618516,0.12529413935099729
1782838083787374000,4.1463740234375,-0.03602700667083263,-0.12502367924600838,0.14219735249010845
1782838083797303000,4.156302978515625,-0.00673252312541008,-0.14975575024671853,0.10963692595129831
1782838083807232300,4.166232177734375,0.03413549383580684,-0.0979087316967547,0.08843076405441389
1782838083817162000,4.176161865234375,-0.039654549518227576,-0.07607019018046557,0.07785477204229682
1782838083827091000,4.186091064453125,-0.09784954885542392,-0.12051117025762796,0.07247544449097476
1782838083837020000,4.19602001953125,-0.13316110073328016,-0.0706076139256358,0.09730921316733583
1782838083846950100,4.2059501953125,-0.2083797155857086,-0.05133154330849647,0.08950466776308603
1782838083856879000,4.215879150390625,-0.1872527564048767,-0.07070427923314274,0.023305278184160123
1782838083866808000,4.22580810546875,-0.13313129011690616,-0.025022505314648148,0.027723711114341857
1782838083876737000,4.235737060546875,-0.1691495289593935,-0.07666347989849746,0.09154316045390441
1782838083886667000,4.2456669921875,-0.15441197855472563,-0.13311236622072756,0.12407474449072033
1782838083896596000,4.255595947265625,-0.09211129746437072,-0.08031856833994389,0.11566047882344573
1782838083906525200,4.265525146484375,-0.09209785346090793,-0.046593701131641865,0.1072871662210673
1782838083916455000,4.275454833984375,-0.12104396196007727,-0.0737136901821941,0.0700696619908791
1782838083926383900,4.2853837890625,-0.09263970525264739,-0.044168081419914955,0.050638190749473865
1782838083936312800,4.295312744140625,-0.09807049812972544,-0.04813274726718664,0.08559228922547772
1782838083946242800,4.305242919921875,-0.13734861555099487,-0.11876461885124444,0.13780501754898578
1782838083956172000,4.315172119140625,-0.07920914579331874,-0.10991020820103585,0.06373657737867906
1782838083966101000,4.32510107421875,-0.025082418808341025,-0.06075491295307874,-0.0024851633126614613
1782838083976030700,4.33503076171875,0.010503858357667923,-0.0822298087887466,0.08213679674305022
1782838083985960000,4.3449599609375,0.039222003319859505,-0.0900338336031884,0.13929011414074338
1782838083995889000,4.354888916015625,-0.03138414930105209,-0.09767872233316302,0.1024229668513406
1782838084005819000,4.36481884765625,-0.0470692096889019,-0.0800499805316329,0.12407794109480455
1782838084015747800,4.374747802734375,-0.021298808616399763,-0.017830474918708206,0.102858399126539
1782838084025677000,4.384677001953125,-0.035108722782135005,0.04484554229006171,0.07340052344664
1782838084035606000,4.39460595703125,-0.13049100474119185,0.016507117360457776,0.09642148881368338
1782838084045535700,4.40453564453125,-0.12787526928484438,-0.040991862536594266,0.11537275705640204
1782838084055465000,4.41446484375,-0.060353054153919214,-0.029671792425215244,0.12944545947732403
1782838084065394000,4.424393798828125,-0.06299567761719227,-0.019287907185405493,0.12305644342680461
1782838084075324000,4.434323974609375,-0.03934007674157619,-0.09512370408810675,0.08595659249322489
1782838084085253000,4.444253173828125,-0.04192892419099808,-0.09923289297260343,0.09674135015150531
1782838084095181800,4.454181884765625,-0.07575228333771228,-0.07495587226301431,0.0909154478764627
1782838084105111800,4.46411181640625,-0.09616495676934718,-0.04355089936964213,0.054043295618379485
1782838084115041000,4.474041015625,-0.09343056336939334,-0.026723610144108532,-0.007686640945891849
1782838084124970000,4.483969970703125,-0.10235855071246623,-0.0803558316104114,-0.03585702724865405
1782838084134900000,4.49389990234375,-0.09481997190117836,-0.12508673454485833,0.017527870676363817
1782838084144828700,4.50382861328125,-0.06068272449970245,-0.134619409782812,0.09341616951785982
1782838084154758000,4.5137578125,-0.09232698604166507,-0.1346004858866334,0.1138644987847656
1782838084164688000,4.52368798828125,-0.15352993502318857,-0.09407339131757617,0.05120280692887026
1782838084174616800,4.533616943359375,-0.12769406749904155,-0.06570055266171694,0.009161622569011523
1782838084184546000,4.543546142578125,-0.06610124241709708,-0.03745871997438371,-0.004461520869948435
1782838084194475000,4.55347509765625,-0.033142391145229336,-0.08405344401933253,0.07359832017421722
1782838084204404700,4.56340478515625,-0.004820552024245262,-0.12321020008325576,0.12454668198456055
1782838084214334000,4.573333984375,-0.012719780841469764,-0.09404241165742278,0.10748570273416116
1782838084224263000,4.583262939453125,-0.007688216415047645,-0.08567198513187467,0.06719741275650448
1782838084234193000,4.59319287109375,-0.06626549306809902,-0.0484106143604964,0.07984802821874618
1782838084244121900,4.603121826171875,-0.05056874224245548,-0.06519961740225554,0.07252191854778212
1782838084254051000,4.613051025390625,-0.020907178950309753,-0.0554679855260998,0.07406499697105028
1782838084263980800,4.622980712890625,-0.014760931280255317,-0.05835084748603403,0.07439860827301163
1782838084273909800,4.63290966796875,-0.027969956943392753,-0.06246624691560864,0.10137385052405297
1782838084283839000,4.6428388671875,-0.14831132359206675,-0.10533625134900211,0.14885273699238896
1782838084293769000,4.65276904296875,-0.14132336440086363,-0.1371009244002402,0.1458250323348213
1782838084303698000,4.662697998046875,-0.10743863045573233,-0.009923720382153988,0.09593810747722163
1782838084313627000,4.672626953125,-0.13360241475999354,0.003916004399955273,0.047344998989556915
1782838084323556900,4.682556884765625,-0.13800386458933353,-0.08999488983228802,0.06468211460048333
1782838084333485800,4.69248583984375,-0.15055647217035292,-0.07300919517464935,0.07813972646351904
1782838084343415000,4.7024150390625,-0.18765198485553264,-0.08395400223284959,0.07743629090189934
1782838084353345000,4.712344970703125,-0.12678688952624798,-0.1056088577453047,0.05440122394426725
1782838084363274000,4.72227392578125,-0.05021861363053322,-0.04218918256238103,0.03627643540423596
1782838084373202700,4.73220263671875,-0.07444529239237307,-0.06933613268509507,0.05549697415856644
1782838084383133000,4.7421328125,-0.0006570026040077209,-0.07152136776968836,0.09494481299039907
1782838084393062000,4.752061767578125,-0.044619478449225425,-0.03763707221597433,0.12100853445366956
1782838084402990800,4.761990966796875,-0.1226028818398714,-0.10274681937769055,0.14402375506651588
1782838084412920000,4.771920166015625,-0.11759586733281611,-0.08662095641978085,0.1195374572541099
1782838084422849800,4.781849853515625,-0.1891916155129671,-0.07392236449681222,0.07084171950903255
1782838084432778800,4.79177880859375,-0.21175942115187643,-0.13205116673000156,0.05976614851090126
1782838084442708000,4.8017080078125,-0.18468845887482166,-0.0888376095559448,0.05114064211258664
1782838084452638000,4.811637939453125,-0.16045535037219524,-0.08573504043072462,0.05128071730355732
1782838084462567000,4.82156689453125,-0.07299158645272255,-0.09938976403474807,0.08381842968706041
1782838084472495900,4.831495849609375,-0.028920974057912826,-0.07435454536899924,0.08064662211737594
1782838084482425900,4.84142578125,-0.03394084804654121,-0.11008220376707613,0.0779874311117921
1782838084492354800,4.851354736328125,-0.05517945090830326,-0.14484247843772172,0.10188990115425549
1782838084502283800,4.86128369140625,-0.04796761983335018,-0.14085421251915395,0.10398827993930317
1782838084512214000,4.871214111328125,-0.06991817035675048,-0.12310060222893952,0.11298945124959572
1782838084522143000,4.88114306640625,-0.07919511726796627,-0.12100501818917692,0.07949610950853675
1782838084532072000,4.891072021484375,-0.06280453895926476,-0.0792041773572564,0.018753436124167636
1782838084542002000,4.901001953125,-0.07060790618658065,-0.11431626114025711,-0.014766311849915654
1782838084551931000,4.910930908203125,-0.06147650522589683,-0.1575137439623475,-0.007085836924973409
1782838084561859800,4.92085986328125,-0.03431786466538906,-0.13312610248513518,0.04928182140418794
1782838084571790000,4.9307900390625,-0.038302550387382506,-0.11698299613147974,0.03895846614600159
1782838084581719000,4.940718994140625,0.02248012735545635,-0.0770337014503777,0.02285296098953113
1782838084591647700,4.950647705078125,-0.0024228432327508924,-0.033584362759068606,0.02384073448444251
1782838084601578000,4.960577880859375,-0.004232523003220558,-0.0654235623512417,0.09958005330930464
1782838084611507000,4.9705068359375,-0.009412555989623069,-0.07402845521979033,0.1742032686850056
1782838084621436000,4.980435791015625,-0.06703472387492657,-0.05589695152789354,0.17461051604533567
1782838084631364900,4.99036474609375,-0.13771394173204898,-0.06262509073913097,0.1787338247867301
1782838084641294800,5.000294921875,-0.09830956758260727,-0.000099514851719141,0.163175167257525
1782838084651223800,5.010223876953125,-0.1172176816701889,0.05873290560618043,0.1085833069788292
1782838084661152800,5.02015283203125,-0.12784136701524257,0.017552023303508756,0.10904025696609168
1782838084671083000,5.0300830078125,-0.058818099671602245,-0.01795358984172344,0.16003177293157203
1782838084681012000,5.040011962890625,-0.06869593508541584,-0.010723200196772814,0.18193784499242902
1782838084690941000,5.04994091796875,-0.10624328319132327,-0.07351634097918867,0.1913916828405112
1782838084700871000,5.059870849609375,-0.06715805799365043,-0.07699293104857206,0.15555926716001703
1782838084710800000,5.0697998046875,-0.0551122308909893,-0.01623129609376192,0.05605027435950469
1782838084720728800,5.079728759765625,-0.09429682480990886,-0.04041844656281173,0.03139675990416435
1782838084730659000,5.0896591796875,-0.0861082576572895,-0.12148096513785421,0.06944665755459573
1782838084740588000,5.099588134765625,-0.07292962713241577,-0.09095072925239801,0.07366697866336908
1782838084750517000,5.10951708984375,-0.12381751832664012,-0.10370528914630413,0.0661134443115443
1782838084760446700,5.11944677734375,-0.08252513847351074,-0.15090155928097665,0.02358083687266335
1782838084770376000,5.1293759765625,-0.06164134039878845,-0.10207257337793707,-0.016019566738954744
1782838084780305000,5.139304931640625,-0.06610241146087646,-0.11647592339217662,-0.02240600267332047
1782838084790235000,5.14923486328125,-0.05554068543612957,-0.13896145757511258,0.013995956523437053
1782838084800164000,5.1591640625,-0.10260872608125209,-0.1194785392742604,0.07881715080104768
1782838084810092800,5.1690927734375,-0.08838029424250125,-0.13625124876834452,0.1281684344119858
1782838084820022800,5.179022705078125,-0.09077624946832656,-0.09893931685350835,0.0712799602292478
1782838084829952000,5.188951904296875,-0.09330956733822822,-0.09752448161952197,0.041404028100636786
1782838084839881000,5.198880859375,-0.05967968493700027,-0.11410378743335604,0.07496448482773266
1782838084849811000,5.20881103515625,-0.006077274087071418,-0.09280622092597186,0.07097925111646763
1782838084859740000,5.218739990234375,0.0021288287222385404,-0.08447393445372581,0.04818761012642644
1782838084869668900,5.2286689453125,-0.0019295067578554152,-0.10988974993489682,0.04646205584229901
1782838084879598800,5.238598876953125,-0.04167816430032253,-0.13835669661499558,0.08203595758392475
1782838084889527800,5.24852783203125,-0.10205810646116734,-0.1705861376337707,0.1357274714894127
1782838084899457000,5.25845703125,-0.1439788473457098,-0.13543109149187801,0.13614063713387586
1782838084909386800,5.26838671875,-0.1552536900758743,-0.07920110861733555,0.03515634304983541
1782838084919315700,5.278315673828125,-0.15633680913746356,-0.08242576975226402,-0.035575705539644696
1782838084929245700,5.28824560546875,-0.06446399660408496,-0.07337459442093967,-0.010948953510355203
1782838084939175700,5.29817578125,-0.09231354203820229,-0.08510894442163407,0.07127353505503851
1782838084949104600,5.308104736328125,-0.10406301654279232,-0.12204305600002407,0.11845958062321878
1782838084959033600,5.31803369140625,-0.13035773375034332,-0.11536445501893758,0.09758265068070031
1782838084968963600,5.327963623046875,-0.08799567883908749,-0.10643858656771481,0.07638094576322473
1782838084978892500,5.337892578125,-0.08097031024694443,-0.09827990309670567,0.09754110396075993
1782838084988821800,5.34782177734375,-0.05424012423157692,-0.11259747452363371,0.11586080543482676
1782838084998751700,5.357751708984375,-0.04611819257438182,-0.128959557390213,0.0987616861311253
1782838085008680700,5.3676806640625,-0.06556991201937198,-0.11547412593849003,0.09625022390000522
1782838085018609700,5.377609619140625,-0.06058218673467636,-0.12274893924705683,0.11731935194637626
1782838085028538600,5.38753857421875,-0.06626783115565776,-0.09293437735028565,0.11549917818135581
1782838085038468600,5.397468505859375,-0.1199409691542387,-0.05995689444318413,0.06369778430482838
1782838085048397600,5.4073974609375,-0.14847206711173055,-0.04319806734398007,0.002828501424193382
1782838085058323700,5.41732373046875,-0.14721183791756629,-0.06927534240856767,0.018309497457172256
1782838085068252700,5.427252685546875,-0.14185469479858875,-0.10100377510264515,0.04495765176187269
1782838085078182700,5.4371826171875,-0.1547714595168829,-0.11845774485915898,0.08763266334612853
1782838085088111600,5.447111572265625,-0.1066255605071783,-0.09683218850642442,0.08912326723006553
1782838085098040600,5.45704052734375,-0.07836743427217006,-0.023020006385818123,0.06675580190226901
1782838085107970800,5.466970703125,-0.0767190825432539,-0.00848404296785593,0.036857808638899585
1782838085117899800,5.476899658203125,-0.06383622009456158,-0.05126899946630001,-0.00009689021143713034
1782838085127828500,5.486828369140625,-0.017410569006204604,-0.1227790421243757,0.03743577749021351
1782838085137758700,5.4967587890625,0.04525076209008693,-0.14696699631102383,0.07390672396968584
1782838085147687700,5.506687744140625,0.021187164935469627,-0.12496588464416562,0.06650247559517156
1782838085157616600,5.51661669921875,-0.05580781193971634,-0.13791925504580138,0.03238514760371763
1782838085167546600,5.526546630859375,-0.025679215657711026,-0.14217355148941277,0.020802597481117117
1782838085177475600,5.5364755859375,-0.0008072247296571731,-0.09870638488046825,0.007493159633828327
1782838085187404500,5.546404541015625,-0.03416004375517368,-0.07187865677475928,-0.011695365130598656
1782838085197334800,5.556334716796875,-0.09734569098651409,-0.08692125454060733,0.022472738633444532
1782838085207263700,5.566263671875,-0.14677695363163948,-0.13233940908685327,0.0462011353172129
1782838085217192700,5.576192626953125,-0.09888824425339698,-0.09767674957178532,0.053219138020230455
1782838085227122400,5.586122314453125,-0.11292086125910282,-0.05536160254217684,0.0745262075748993
1782838085237051600,5.5960517578125,-0.12253916895389556,-0.08391323183104396,0.09332312093954533
1782838085246980600,5.605980712890625,-0.0814285754084587,-0.07375453364923595,0.11523216127562336
1782838085256910600,5.61591064453125,-0.052502340653538704,-0.03272599236406386,0.11631380989933386
1782838085266839800,5.62583984375,-0.12068214291036128,-0.02164827964119613,0.1470445824587252
1782838085276768800,5.635768798828125,-0.14050094210207462,-0.11539653065763414,0.13613395166476255
1782838085286698500,5.645698486328125,-0.06407704311311245,-0.10279453097693622,0.1347175272618886
1782838085296627700,5.655627685546875,-0.018726327779889106,-0.031067484567314386,0.09536822603424079
1782838085306556700,5.665556640625,-0.012938392028212547,-0.05980353051237761,0.057267806056258266
1782838085316486700,5.675486572265625,-0.060170683324337004,-0.05039046306610107,0.04943354593375698
1782838085326415600,5.68541552734375,-0.05262625929415226,-0.03428293948248028,-0.001309052754973527
1782838085336344800,5.6953447265625,-0.018126023799180983,-0.05460756930448114,0.010611442351411097
1782838085346274600,5.705274658203125,-0.07887246118485927,-0.10839030515737831,0.0417390459083952
1782838085356203500,5.71520361328125,-0.05988017594516277,-0.14488880179747937,0.04859256049839314
1782838085366132700,5.7251328125,-0.020110475614666938,-0.069670552271232,0.015663291514036243
1782838085376062700,5.735062744140625,-0.0855289964646101,-0.1138044391606003,0.03603064394962275
1782838085385991700,5.74499169921875,-0.0457967055350542,-0.07635353716649115,0.07725520784710534
1782838085395920600,5.754920654296875,-0.08714695305526256,-0.07745572625473142,0.08484131559454836
1782838085405850600,5.7648505859375,-0.08431786710917949,-0.09276669263318181,0.10096455733710899
1782838085415779600,5.774779541015625,-0.08741349503695964,-0.09905527138337493,0.09604562297230586
1782838085425708800,5.784708740234375,-0.02090776347219944,-0.07634929938279092,0.09613085357034579
1782838085435638800,5.794638671875,-0.05303308652937412,-0.056488999136909836,0.0775906777460128
1782838085445567500,5.8045673828125,-0.028249942928552627,-0.07360285021886229,0.0720348108842736
1782838085455496400,5.814496337890625,-0.061686348584294316,-0.057107642491906876,0.08822054623668081
1782838085465426700,5.8244267578125,-0.0959200420975685,-0.0908824863217771,0.12078171256100759
1782838085475355600,5.834355712890625,-0.08456453534662724,-0.10923019004762172,0.1281351257974282
1782838085485284600,5.84428466796875,-0.040268297502398485,-0.07650624351017177,0.09401945090694352
1782838085495214600,5.854214599609375,-0.13247896368801593,-0.04998553552702069,0.07226969278580508
1782838085505143600,5.8641435546875,-0.14146189608871937,-0.10058058125451207,0.06249199784479569
1782838085515072500,5.874072509765625,-0.08463058632016182,-0.07736476003564893,0.02352199880791595
1782838085525002800,5.884002685546875,-0.123931500095129,-0.030621202104538676,-0.0045223887782893145
1782838085534931700,5.893931640625,-0.14492694185078142,-0.13260741237327456,0.06121768532635178
1782838085544860700,5.903860595703125,-0.04361176271140575,-0.12811711521670222,0.06970149539876729
1782838085554790700,5.913790771484375,-0.02659282337129116,-0.047454190418496724,0.04070225933971815
1782838085564719600,5.9237197265625,-0.03255728473365307,-0.09382745373249053,0.06240814178651198
1782838085574648600,5.933648681640625,-0.012644962039589881,-0.1205053981039673,0.05921683493191376
1782838085584578800,5.943578857421875,-0.0005967968493700027,-0.10135266160555183,0.08149506477341055
1782838085594507800,5.9535078125,-0.03990530940890312,-0.09004121319204568,0.10738840723899193
1782838085604436700,5.963436767578125,-0.07527122182250022,-0.09064772771783172,0.08735458619026466
1782838085614366700,5.97336669921875,-0.11238777729570865,-0.05925576043650507,0.047531278809276406
1782838085624295700,5.983295654296875,-0.12051380060613155,-0.03999276849664748,0.02314957844908349
1782838085634224600,5.993224609375,-0.10231061991751193,-0.07556143694072961,0.03276666686774697
1782838085644154600,6.003154541015625,-0.031028759992122647,-0.13027071305401622,0.06510203877929598
1782838085654083800,6.013083740234375,-0.017136428239941597,-0.1732278843142092,0.08989384061060846
1782838085664012500,6.023012451171875,-0.014614216285943985,-0.1472463247090578,0.09538863863460718
1782838085673942500,6.032942626953125,-0.03780804486870765,-0.11804229592606424,0.0676052263724152
1782838085683871700,6.042871826171875,-0.09645838675796985,-0.11856281266883015,0.04326085778134875
1782838085693800700,6.05280078125,-0.10889642804861067,-0.11074607450328766,0.02925203949304996
1782838085703732700,6.062732666015625,-0.07644318821132183,-0.12389328697659074,0.017203703056182712
1782838085713661700,6.07266162109375,-0.06509820285439491,-0.11776749757267534,0.021449126640171744
1782838085723591700,6.082591796875,-0.06545709929466247,-0.12444953261986375,0.05049286399465054
1782838085733520600,6.092520751953125,-0.06397124465107917,-0.16714498420394955,0.03720409904263215
1782838085743449600,6.10244970703125,-0.11050503228902817,-0.10587569198794662,0.05443049570452422
1782838085753379600,6.112379638671875,-0.22362053933739662,-0.13507394861727953,0.05771079601682722
1782838085763308800,6.122308837890625,-0.1933434744954109,-0.1601424850307405,0.048243221904337406
1782838085773237800,6.13223779296875,-0.13598200337290764,-0.09778386320807039,0.017389733997441363
1782838085783167500,6.14216748046875,-0.09663198975920677,-0.11515220050774513,-0.01288421187227359
1782838085793096400,6.152096435546875,-0.05046352830231189,-0.12734861506223677,-0.003382833671593107
1782838085803025700,6.162025634765625,-0.022043489503860474,-0.13336911746077237,0.02584709217105992
1782838085812955600,6.17195556640625,-0.0025040917754173275,-0.14230769926309586,0.06488702605543657
1782838085822884600,6.181884521484375,-0.055603813800215715,-0.1314122112393379,0.1031704150846228
1782838085832813800,6.191813720703125,-0.05124444954693317,-0.0890388312164694,0.094033826492168
1782838085842743600,6.20174365234375,-0.03591770107746124,-0.03166055508963764,0.061335790714109314
1782838085852672500,6.211672607421875,-0.0476093079149723,-0.004577025591954589,0.03467261693679029
1782838085862601700,6.221601806640625,-0.051694531401991844,-0.015087605951353906,0.062459515780722716
1782838085872531700,6.23153173828125,-0.015728315007686615,-0.011015461141616105,0.13302951024286447
1782838085882460700,6.241460693359375,-0.04892857381999492,-0.024022242230921982,0.13691532043395563
1782838085892389600,6.2513896484375,-0.05821253499388694,-0.06523468871563673,0.08402577056111768
1782838085902319600,6.261319580078125,-0.06371873119473458,-0.08457834467627108,0.06703994347273837
1782838085912248600,6.27124853515625,-0.10980945124030113,-0.07974361799620092,0.06736872333595528
1782838085922177500,6.281177490234375,-0.09573007248342037,-0.08172280911467969,0.060254644413897766
1782838085932107300,6.291107177734375,-0.05073007028400898,-0.0394542046405375,0.004403831299382727
1782838085942036200,6.3010361328125,-0.09844576118290424,-0.025049977843463418,-0.01916523293709615
1782838085951966200,6.31096630859375,-0.07995850285589695,-0.060441974546387785,0.0041779592547914945
1782838085961895200,6.320895263671875,-0.07859715137481689,-0.07408040460273622,0.05252205000100657
1782838085971824000,6.33082421875,-0.08973989215791225,-0.08432385845854878,0.08513131151706911
1782838085981754400,6.34075439453125,-0.10374328306913375,-0.13376359667107462,0.06622665889505297
1782838085991683300,6.350683349609375,-0.09539338787496089,-0.13219722413718699,0.020893022560793905
1782838086001612300,6.3606123046875,-0.10786591595709323,-0.11281959284171461,0.0012830986130982637
1782838086011542000,6.3705419921875,-0.06195815126299858,-0.13458981836214662,0.006269798701198305
1782838086021471200,6.38047119140625,-0.014272855502367019,-0.1029550553008914,-0.011171651783748529
1782838086031400200,6.390400146484375,-0.026198855617642403,-0.08124152840375899,0.007037075012957211
1782838086041330200,6.400330078125,-0.11512450878322124,-0.14145437036938965,0.04685993715266231
1782838086051259400,6.41025927734375,-0.0741267279624939,-0.16745624211020765,0.054636507704597895
1782838086061188000,6.42018798828125,-0.06738835961818694,-0.10499094504266977,0.011693524799961596
1782838086071118000,6.4301181640625,-0.1254606093585491,-0.09992810869514941,-0.01233287758284714
1782838086081047300,6.44004736328125,-0.19518004227280616,-0.11319997046142816,0.025579888035659675
1782838086090976300,6.449976318359375,-0.15677403151094912,-0.09169402190037071,0.04814683059146627
1782838086100906200,6.45990625,-0.1358779584765434,-0.043599487751722336,0.04910911801867187
1782838086110835200,6.469835205078125,-0.19682605591416358,-0.09790705119632184,0.06763140199328772
1782838086120764200,6.47976416015625,-0.10280512543618678,-0.16478702290095387,0.10753592595090157
1782838086130694100,6.489694091796875,0.009728782331943511,-0.09106960639171302,0.10278005492701195
1782838086140623000,6.499623046875,0.05648819541931152,-0.034936946411803366,0.08430439570625312
1782838086150552300,6.50955224609375,-0.02886719804406166,-0.04665975210517644,0.09924701282950117
1782838086160482000,6.51948193359375,-0.07499941914379596,-0.06304558117352425,0.13073825750052928
1782838086170411000,6.529410888671875,0.0002583586752414703,-0.0170824330303818,0.08496579135758801
1782838086180340200,6.53934033203125,-0.045153146934509274,0.004095891011506318,0.11629094048039987
1782838086190270200,6.549270263671875,-0.1142109010696411,-0.06955467080660165,0.15454391610501333
1782838086200199200,6.55919921875,-0.12798691296577452,-0.039998832911252974,0.10576172848576679
1782838086210128400,6.56912841796875,-0.08399579554796219,0.010850187577307224,0.05566146683816332
1782838086220058000,6.57905810546875,-0.06228957517445087,0.008966273526847361,0.08995176307661458
1782838086229987000,6.588987060546875,-0.1221370178937912,-0.034846710845083,0.13185464864405802
1782838086239916000,6.598916015625,-0.09857084886729717,-0.06557035041078925,0.11652663979926146
1782838086249846300,6.60884619140625,-0.016332710641622544,-0.07457344881668686,0.025748451818886676
1782838086259775200,6.618775146484375,-0.0014455226331949232,-0.10399959591776133,0.04911790411332622
1782838086269705200,6.628705322265625,-0.005593874484300613,-0.12527465833239257,0.09111382912592962
1782838086279634200,6.63863427734375,-0.04282324268221855,-0.11489091922305524,0.031194083788781427
1782838086289563100,6.648563232421875,-0.11349836888611316,-0.10717515721395611,0.0007646276969462632
1782838086299493400,6.658493408203125,-0.06207564016282558,-0.13792086248099802,0.0065327719027642155
1782838086309422300,6.66842236328125,-0.0018698855251073835,-0.09231529560387133,-0.00008946381516288966
1782838086319351300,6.678351318359375,-0.0673819298774004,-0.09942337404340505,0.0022568572823889552
1782838086329281000,6.688281005859375,-0.08918225827515125,-0.15948891649283467,0.029603179601836015
1782838086339210200,6.698210205078125,-0.06882979059815407,-0.12496003942526876,0.031222049507941118
1782838086349139200,6.70813916015625,-0.11516600983738899,-0.10066497160233556,0.06267057841524946
1782838086359069200,6.718069091796875,-0.14510463650524616,-0.10145042289160192,0.08458504841169343
1782838086368998400,6.727998291015625,-0.12935294062197208,-0.07869593557417393,0.08373102539824322
1782838086378927000,6.737927001953125,-0.13224281684458256,-0.037140228609740734,0.07265687917221803
1782838086388857000,6.747857177734375,-0.1176093113362789,-0.08878310288973153,0.06519039748276118
1782838086398786300,6.757786376953125,-0.042593525579571724,-0.10681684529557824,0.11092186946161091
1782838086408715300,6.76771533203125,-0.05352583848237991,-0.06639123833961784,0.13677543703923
1782838086418645200,6.777645263671875,-0.08837970972061157,-0.031238749480992554,0.10252866484867408
1782838086428574200,6.78757421875,-0.11823533428013323,-0.005323533110320568,0.07690567289022729
1782838086438504200,6.797504150390625,-0.10964636963307857,0.0032732495170086622,0.07858858447587116
1782838086448433200,6.80743310546875,-0.08906301580965519,-0.022294760851189494,0.07531269091062713
1782838086458362000,6.817362060546875,-0.04724222816824913,-0.06764803346768021,0.09626337564252316
1782838086468292400,6.827292236328125,-0.05580839646160602,-0.07499532749056816,0.10757685161633417
1782838086478221000,6.837220947265625,-0.08373509878516197,-0.04734181608520448,0.061052626391174265
1782838086488150000,6.84714990234375,-0.10648702881932258,-0.004779050970077514,0.006922862632316537
1782838086498080300,6.857080322265625,-0.15150105954408644,-0.02552059102989733,0.05751864357874729
1782838086508009200,6.86700927734375,-0.16195874067246913,-0.07643931575380265,0.04476998370266519
1782838086517938200,6.876938232421875,-0.06153203480541706,-0.08655936242565512,0.020999611040693707
1782838086527868200,6.8868681640625,-0.041723172485828394,-0.09141768917702138,0.03605227810940705
1782838086537797000,6.896797119140625,-0.05464987407624721,-0.09543605797290801,0.03957141497915145
1782838086547726000,6.90672607421875,-0.000713116705417633,-0.05337152470350265,-0.027878926792228594
1782838086557656300,6.91665625,-0.06218553027808666,-0.014230185404419898,-0.0398818235020386
1782838086567585300,6.926585205078125,-0.1480307530850172,-0.07844386050924658,0.057921054933755656
1782838086577514200,6.93651416015625,-0.09315583808124064,-0.10402144242338836,0.11593813585420139
1782838086587444200,6.9464443359375,-0.024818214914202687,-0.042862624844536186,0.03070144143362995
1782838086597373200,6.956373291015625,-0.01337912153303623,-0.05661525586508214,-0.011936727005266583
1782838086607302100,6.96630224609375,-0.009003975188732147,-0.09257109699584543,0.0717908551937202
1782838086617232100,6.976232177734375,-0.006429156264662742,-0.06291837459728121,0.12397917516175656
1782838086627161300,6.986161376953125,-0.08329670736789703,-0.03551335806027055,0.15351108419224618
1782838086637091000,6.996091064453125,-0.12232581846415996,-0.03723156015500426,0.08154183565774001
1782838086647020000,7.00602001953125,-0.11474456955492496,0.007309738491475582,0.02550184066365473
1782838086656949200,7.01594921875,-0.13690145630538464,-0.012865472922474145,0.03982442619241774
1782838086666879200,7.025879150390625,-0.12095979080796242,-0.0590277238342911,0.07625857975888066
1782838086676808200,7.03580810546875,-0.0937678324997425,-0.09008549072518944,0.05824861095426604
1782838086686737400,7.0457373046875,-0.07876198654770851,-0.08853979565314948,0.044444108182587656
1782838086696667100,7.055667236328125,-0.0997018987238407,-0.0819463887374848,0.07251955306075979
1782838086706596000,7.06559619140625,-0.05789397056400775,-0.05844232516176998,0.046852995955222285
1782838086716525000,7.075525146484375,-0.034924013864994045,-0.03219948427192867,0.014386709406692533
1782838086726455300,7.085455322265625,-0.03472410737872123,-0.037121962300688024,0.01345745659940876
1782838086736384300,7.09538427734375,-0.05310147559046745,-0.07140044480375946,0.05103099859249778
1782838086746313200,7.105313232421875,-0.04442658622562885,-0.10401084796413779,0.077496478390228
1782838086756243200,7.1152431640625,-0.10091945782005786,-0.14424436641409993,0.0420293340918608
1782838086766172200,7.125172119140625,-0.051418637070059774,-0.1409085730548948,0.028088450490217656
1782838086776101000,7.13510107421875,-0.09103402362167835,-0.07525324777439237,0.0028479504767572506
1782838086786031400,7.14503125,-0.12748130153119563,-0.05416954321339726,-0.004363588337250985
1782838086795960000,7.1549599609375,-0.16950491826832292,-0.04901574064679443,0.04036488061151467
1782838086805890000,7.16489013671875,-0.1981499979943037,-0.04999159994162619,0.044122561777755614
1782838086815819300,7.1748193359375,-0.13612345767021178,-0.06151347623541951,0.06500753346283454
1782838086825748200,7.184748291015625,-0.09059446316063403,-0.055568084899708624,0.06207637081518769
1782838086835678200,7.19467822265625,-0.050634208694100374,-0.058791503925621505,0.047458227272797374
1782838086845607200,7.204607177734375,-0.027110125243663786,-0.055737303986772894,0.09970233711525797
1782838086855536000,7.2145361328125,-0.029099837756156918,-0.055645095658674835,0.09692840628935954
1782838086865466000,7.224466064453125,0.005054945302009582,-0.023167598162963984,0.0709141865236219
1782838086875395300,7.234395263671875,-0.025986089649796484,-0.022407573575899002,0.05301271959478035
1782838086885324300,7.24432421875,-0.07351473354399204,-0.047818128360062835,0.050820735108992085
1782838086895254000,7.25425390625,-0.024831074395775792,-0.10169482610672712,0.08732426411723718
1782838086905183000,7.264182861328125,-0.0026630817294120788,-0.06456701858714223,0.06091090723238885
1782838086915112200,7.2741123046875,-0.061361354413628576,-0.06677256580740212,0.0719502607062459
1782838086925042200,7.284042236328125,-0.04676759639382362,-0.09317571182548999,0.08355945909046568
1782838086934971400,7.293971435546875,-0.11976268997788428,-0.03314370631948113,0.06399494518707506
1782838086944901400,7.3039013671875,-0.1281628540545702,-0.06351385627239942,0.08107079321304336
1782838086954830300,7.313830322265625,-0.10773849018514156,-0.03640088148452341,0.09010077049271203
1782838086964759300,7.32375927734375,-0.07254676529467105,0.0015131079766899347,0.033137057382985946
1782838086974689500,7.333689453125,-0.07398936531841754,-0.058495151327550406,0.007694426960125565
1782838086984618500,7.343618408203125,-0.05794950014352798,-0.07430383809506892,0.06976393877626397
1782838086994547500,7.35354736328125,-0.06633563569486141,-0.05445310939513147,0.10235487918434664
1782838087004477400,7.3634775390625,-0.08535831607282161,-0.016339871034771202,0.06182537346249446
1782838087014406400,7.373406494140625,-0.058660278761386866,0.01973177849538624,0.054197938190819694
1782838087024335400,7.38333544921875,-0.10187982728481292,0.03663498250134289,0.052566418865695595
1782838087034265600,7.393265625,-0.1088432365566492,-0.02389773906841874,0.0858124256490264
1782838087044194600,7.403194580078125,-0.07983107708394527,-0.03360737830847502,0.11222765483055264
1782838087054123500,7.41312353515625,-0.09360942706763743,-0.02897920705117285,0.11787021816163323
1782838087064053500,7.423053466796875,-0.12067337508201599,-0.06008000936619937,0.0458706292877905
1782838087073982500,7.432982421875,-0.08336158929765224,-0.05692315277047455,0.005009526124550029
1782838087083912400,7.442912353515625,-0.061792731568217275,-0.04119059997908771,-0.015720771022047848
1782838087093841700,7.452841552734375,-0.1007826796978712,-0.08016286632157861,-0.00526390274441801
1782838087103770400,7.462770263671875,-0.07967910139262675,-0.14215104739665985,0.04406684040199034
1782838087113700400,7.472700439453125,-0.03836918588280678,-0.11248524632081389,0.038702920482354235
1782838087123629300,7.48262939453125,-0.07375847917199134,-0.07884177378565073,0.019037028563721105
1782838087133558500,7.49255859375,-0.11266484067142009,-0.13130655890777707,0.0020397165335249157
1782838087143488500,7.502488525390625,-0.050152562656998634,-0.15372830713950097,-0.010641357999062165
1782838087153417500,7.51241748046875,-0.012047580668330192,-0.10575089656449854,-0.004374972814368084
1782838087163346400,7.522346435546875,-0.019609540355205533,-0.10811726036965846,0.01920680477321148
1782838087173276400,7.5322763671875,-0.09203238700926303,-0.15820537948831914,0.044877983254939316
1782838087183205400,7.542205322265625,-0.08403729660212993,-0.13886245418004692,0.05414996173009276
1782838087193135600,7.552135498046875,-0.06451134287714957,-0.0663443304579705,0.018753051390033214
1782838087203064300,7.562064208984375,-0.1492114873021841,-0.051725584127381444,-0.03106855314639397
1782838087212993300,7.5719931640625,-0.1567792922079563,-0.11837123561948537,-0.0030765122353564947
1782838087222923500,7.581923583984375,-0.11024901170134543,-0.09457220768518745,0.043543684177566315
1782838087232852500,7.5918525390625,-0.07462590965628624,-0.043770898795872926,0.04241543819946237
1782838087242781400,7.601781494140625,-0.12887421719431877,-0.05677928732037544,0.06133660356486216
1782838087252711400,7.61171142578125,-0.10794657997786998,-0.10121581041812897,0.07013224236569367
1782838087262640400,7.621640380859375,0.025195231533050536,-0.058694838618114586,0.06510356401610187
1782838087272569300,7.6315693359375,0.025832360392808913,-0.013502163390815258,0.09158127310774289
1782838087282499600,7.64149951171875,-0.09888532164394855,-0.09716507372260093,0.140017442034604
1782838087292428500,7.651428466796875,-0.10545300959646701,-0.11392572745271026,0.14147406145054847
1782838087302357500,7.661357421875,-0.08368073824942111,-0.02301788749396801,0.0581531877557747
1782838087312287200,7.671287353515625,-0.113797059571743,0.016051920938864348,0.06350661368086002
1782838087322216400,7.681216552734375,-0.15129121618568897,-0.03409296986833214,0.06669024868565611
1782838087332146400,7.691146484375,-0.09588146365284919,-0.018450871839374303,0.04505889277979731
1782838087342075400,7.701075439453125,-0.09817337398231028,0.016761895839124918,0.02987186330826953
1782838087352004600,7.711004638671875,-0.15025193626582622,-0.0653519584197551,0.08900199720426462
1782838087361934300,7.720934326171875,-0.09351122739017009,-0.09745411979705094,0.05690959916915744
1782838087371863300,7.73086328125,-0.03394786230921745,-0.028261487235873937,0.031151144262775776
1782838087381792500,7.74079248046875,-0.07957973267138004,-0.04219356647655367,0.058554535098280756
1782838087391722500,7.750722412109375,-0.12216565946638583,-0.09018230216316878,0.06248770069559104
1782838087401651500,7.7606513671875,-0.06405658484697342,-0.02508124976456165,0.001861565221333876
1782838087411580700,7.77058056640625,-0.08472001816928386,0.010098273231461643,-0.028911703906068578
1782838087421510400,7.780510498046875,-0.10479717603623867,-0.06388195893242955,0.049367759821703654
1782838087431439400,7.790439453125,-0.08565583771467208,-0.08383300620168448,0.061953365490026766
1782838087441369600,7.80036962890625,-0.06534604013562202,-0.05479907328858971,0.08477866215449757
1782838087451298600,7.810298583984375,-0.0508119033485651,-0.061029638241231435,0.09468859147331676
1782838087461227500,7.8202275390625,-0.016221651482582092,-0.0690454061102122,0.0585628006031271
1782838087471157500,7.830157470703125,-0.018325345763564108,-0.05827873209789395,0.02784072280684486
1782838087481086500,7.84008642578125,-0.04017594304382801,-0.07176584405004978,0.04267762366645038
1782838087491015400,7.850015380859375,-0.04779986205101013,-0.07798888328336179,0.04907543494477868
1782838087500945400,7.8599453125,-0.057956514406204224,-0.03793086753077805,0.026861155451275407
1782838087510874600,7.86987451171875,-0.07934884652495383,-0.03711377899423241,0.037794199006445706
1782838087520803300,7.87980322265625,-0.0735077192813158,-0.03612053017318249,0.07778844707412645
1782838087530733300,7.8897333984375,-0.11608137111663817,-0.027589287062734363,0.08674915850986727
1782838087540662500,7.89966259765625,-0.10678221237361431,-0.06791771725453435,0.09292509806528687
1782838087550592500,7.909592529296875,-0.09481237311661243,-0.07495945245958864,0.07944100005412474
1782838087560521500,7.919521484375,-0.13204992462098597,-0.030772008752077817,0.07023875321378
1782838087570450400,7.929450439453125,-0.15204817203283308,-0.053850540392100806,0.048044329198217016
1782838087580380400,7.93938037109375,-0.1205593933135271,-0.03211940477304161,0.004294537122454494
1782838087590309400,7.949309326171875,-0.06458207002580166,0.0035897681202739476,-0.005787753088586032
1782838087600238600,7.959238525390625,-0.04674713812768459,-0.05068038592338562,0.03568737205346115
1782838087610168600,7.96916845703125,-0.05834697502851486,-0.10990063665509223,0.08061094801579602
1782838087620097300,7.97909716796875,-0.021421558213233948,-0.07594108390808105,0.07923107449733652
1782838087630026200,7.989026123046875,-0.04778700256943703,-0.04383841107413172,0.07492572371992282
1782838087639956500,7.99895654296875,-0.023068156376481054,-0.0662788640063256,0.0433717799430713
1782838087649885400,8.008885498046874,-0.01745090101659298,-0.003970949457585812,0.013405680746398866
1782838087659815400,8.0188154296875,-0.06781564511954784,-0.004148571046814323,0.035267639670893546
1782838087669744400,8.028744384765625,-0.07458265503644942,-0.042422406796365976,0.060152554012602194
1782838087679673300,8.03867333984375,-0.015920038187503812,-0.023829057746380566,0.04001394828199409
1782838087689603300,8.048603271484374,-0.03602057693004608,-0.013304741122573613,0.0687034060058184
1782838087699532500,8.058532470703126,-0.09683014267981052,-0.07632263057157397,0.11290964574534446
1782838087709461500,8.06846142578125,-0.05598316850662231,-0.07950264884717761,0.10314349054507911
1782838087719391200,8.07839111328125,-0.06541735180616379,-0.022413930251449346,0.08401425365325994
1782838087729320400,8.088320556640625,-0.08901040883958339,-0.05926379761248827,0.06133897818503901
1782838087739250400,8.09825048828125,-0.1034580363869667,-0.09170454329438507,0.02437519298759289
1782838087749179400,8.108179443359376,-0.08565233058333396,-0.06487988392859698,0.016980570957949383
1782838087759108600,8.118108642578125,-0.14150924236178397,-0.0779619952764362,0.056503438654216004
1782838087769038300,8.128038330078125,-0.18086743928194046,-0.12408961326628923,0.05795355526413768
1782838087778967300,8.13796728515625,-0.1169780276954174,-0.07464001124687493,-0.012056540292920545
1782838087788896500,8.147896484375,-0.10528232920467853,-0.03800247146226465,-0.004546182929119095
1782838087798826500,8.157826416015626,-0.11557283707261085,-0.11131225701868533,0.06056199333001859
1782838087808755500,8.16775537109375,-0.07534545610249042,-0.1149791089631617,0.05455572951938956
1782838087818685400,8.177685546875,-0.04744447274208068,-0.11043401287943125,0.041421860584849486
1782838087828614400,8.187614501953124,-0.06827157219350338,-0.12612097296342253,0.052888855753093954
1782838087838543400,8.19754345703125,-0.05952420211434364,-0.12667203097492455,0.05270944406557828
1782838087848473600,8.2074736328125,-0.033438159221410746,-0.08822678418122232,0.03431874144822359
1782838087858402600,8.217402587890625,-0.051714405146241184,-0.07880326840616762,0.04375308001139201
1782838087868331500,8.22733154296875,-0.09247779268920421,-0.10334653883650899,0.04229623226658441
1782838087878261200,8.23726123046875,-0.09457856436073779,-0.07902903998605906,0.036913790309568865
1782838087888190500,8.2471904296875,-0.08259294301271439,-0.05310198704712093,0.03657481327932328
1782838087898119400,8.257119384765625,-0.08897299943864345,-0.030788667625933883,0.035518335629487405
1782838087908049400,8.26704931640625,-0.03128770318925381,-0.011909195110946893,0.019806807359820232
1782838087917978600,8.276978515625,-0.017174422162771225,-0.0013923311412334441,0.008939038460049778
1782838087927908400,8.286908447265626,-0.08410393209755421,-0.04035261478498578,0.03822705573206767
1782838087937840600,8.296840576171874,-0.07298866384327411,-0.07960859343968331,0.07098060282333754
1782838087947769900,8.306769775390626,-0.05830021327733993,-0.050344651162996884,0.0440073561665602
1782838087957699800,8.316699951171875,-0.09104279145002364,-0.0570963173802942,0.0136788259988185
1782838087967628800,8.32662890625,-0.13721183742880821,-0.0778222214795649,0.026037564108707008
1782838087977558000,8.33655810546875,-0.09362228654921054,-0.04223272944316268,0.011412981692375614
1782838087987487700,8.34648779296875,-0.04704465976953506,-0.0057427083704620595,0.006000254194950685
1782838087997416700,8.356416748046875,-0.055817748811841005,-0.055268152105063195,0.024220678279316052
1782838088007347000,8.366346923828125,-0.05024608615934849,-0.09803783796913922,0.05744155975454487
1782838088017276000,8.37627587890625,-0.008209609940648078,-0.09460172604061663,0.05663076396146789
1782838088027204900,8.386204833984374,-0.03158814744055271,-0.10814020285382867,0.054154811435146256
1782838088037134800,8.396134765625,-0.062194882628321645,-0.11984620354287326,0.0784636246556416
1782838088047063800,8.406063720703125,-0.13958324273526668,-0.12271569456458091,0.09596843868340366
1782838088056992800,8.41599267578125,-0.13842998104691503,-0.06416866691932081,0.07638850801517255
1782838088066922800,8.4259228515625,-0.0940115781277418,0.0057099020794034,0.05432477030772716
1782838088076852000,8.43585205078125,-0.11694997064471244,0.010906520874425769,0.02726322431298904
1782838088086781700,8.44578173828125,-0.13549275855123996,-0.039765754807740444,0.04678296749289147
1782838088096710700,8.455710693359375,-0.08847381774485111,-0.06848653011843561,0.06448325842698105
1782838088106640000,8.465639892578125,-0.12447393640875816,-0.06864515474624931,0.07397408555089495
1782838088116569900,8.47556982421875,-0.11630933465361594,-0.08137604150362313,0.07482446443568914
1782838088126498800,8.485498779296876,-0.10028758965730666,-0.033853827350214125,0.07193492613979614
1782838088136427800,8.495427734375,-0.08642389947772025,-0.015305851811915636,0.06127916515604592
1782838088146357800,8.505357666015625,-0.07497545374631881,-0.027401144079491496,0.05375843252870254
1782838088156286700,8.51528662109375,-0.04166179768741131,-0.04099580805934965,0.0335824904623907
1782838088166217000,8.525217041015624,-0.027995675906538963,-0.09753792562298476,0.04230764870974235
1782838088176146000,8.53514599609375,-0.043265141230821605,-0.11393515286818146,0.06470471915793605
1782838088186074600,8.54507470703125,-0.021871640068292616,-0.07410276256501674,0.014926634102826937
1782838088196004900,8.5550048828125,-0.03188859169185161,-0.033456133269518615,-0.07379545931466855
1782838088205933800,8.564933837890624,-0.06336567997336387,-0.05075695829093456,-0.05792958073350601
1782838088215862800,8.57486279296875,-0.05412848055064678,-0.0860758897576481,0.0068062002829741685
1782838088225792800,8.584792724609375,-0.021791560569405555,-0.08499408587031065,0.004440357067622244
1782838088235721700,8.5947216796875,0.008317746490240096,-0.09063245708346367,0.00917239969135262
1782838088245651700,8.604651611328125,-0.02683890708684921,-0.12132431327141821,0.023046592998644335
1782838088255580700,8.61458056640625,-0.059762687045335765,-0.1514738062109798,0.031524644617130976
1782838088265510000,8.624510009765626,-0.05248363595306873,-0.12139657479003071,0.0387846987479832
1782838088275439600,8.634439697265625,-0.06420739149451256,-0.06130129478946328,-0.0007805285189766436
1782838088285368600,8.64436865234375,-0.12008943771421908,-0.023478490743041036,-0.025339233980467543
1782838088295297800,8.6542978515625,-0.12287409999668597,-0.024427608161419628,0.009352706428011878
1782838088305227800,8.664227783203126,-0.08008475958406924,0.011404606589674949,0.031217962421290574
1782838088315156700,8.67415673828125,-0.12582535101771353,-0.02467551850788295,0.0392837617107667
1782838088325086700,8.684086669921875,-0.11103227103352546,-0.10755173544138669,0.08360035735643469
1782838088335015700,8.694015625,-0.12667816845476626,-0.11243863070011138,0.1103278125585988
1782838088344944600,8.703944580078126,-0.09867197115421295,-0.11108064021989703,0.10826262365709989
1782838088354875000,8.713875,-0.04034253178238868,-0.06139642572700977,0.06548145741778426
1782838088364803800,8.723803955078125,-0.042830841466784474,0.010198591800779104,0.03384642949504778
1782838088374732800,8.73373291015625,-0.11310790826380253,-0.02648110662512481,0.05856501995967701
1782838088384662800,8.743662841796874,-0.1213917524844408,-0.08751271762773394,0.07834665634562261
1782838088394591700,8.753591796875,-0.08717676367163657,-0.043003640750423074,0.06471993499337696
1782838088404521700,8.763521728515625,-0.16066402468681334,-0.052787441205233335,0.05914911259110085
1782838088414451000,8.773450927734375,-0.1738555146932602,-0.09058299191854893,0.06388830647482537
1782838088424380000,8.7833798828125,-0.14104396293759344,-0.04050290997587144,0.05371438332442194
1782838088434309600,8.7933095703125,-0.10332476539611815,-0.04730689090229571,0.023098935107234864
1782838088444238600,8.803238525390626,-0.06190612881481647,-0.10859773736298084,0.020888565581385046
1782838088454167800,8.813167724609375,0.03846738556027412,-0.14320625553801655,0.016564126511011273
1782838088464097800,8.823097900390625,0.025549451798200607,-0.1251601651072502,0.05094658997836522
1782838088474026800,8.83302685546875,-0.03418751628398895,-0.15734876265898345,0.050906221435358744
1782838088483956700,8.842956787109374,-0.03031681233048439,-0.10822218204885721,-0.016263106870977206
1782838088493885700,8.8528857421875,-0.06814297737777232,-0.05189348804019391,-0.06973429255667142
1782838088503814700,8.862814697265625,-0.12869067732095718,-0.11145115403272211,-0.04226232999698259
1782838088513745000,8.872744873046875,-0.07838029375374317,-0.12517236700169743,-0.011794592287950217
1782838088523673900,8.882673828125,-0.036166707402467725,-0.10634089834690093,-0.0196288661101833
1782838088533602800,8.892602783203126,-0.025510288831591604,-0.10937895086854696,0.02929403602085076
1782838088543532800,8.90253271484375,-0.05097966113090515,-0.11394589345790446,0.0631612799750641
1782838088553461800,8.912461669921875,-0.047964112702012056,-0.0962993968039751,0.05208421570616774
1782838088563391700,8.922391845703125,-0.05169511592388153,-0.047656800318509336,0.029047870106901973
1782838088573321000,8.932321044921874,-0.06967910090386867,-0.060252224127948284,0.042862962771253656
1782838088583250000,8.94225,-0.07385843241512775,-0.059440907745063304,0.048825917163118716
1782838088593179600,8.9521796875,-0.06973638404905795,-0.045846536026149985,0.05735096799479797
1782838088603108900,8.96210888671875,-0.012056933018565178,-0.07146145427599548,0.06633624761621468
1782838088613037800,8.972037841796874,-0.08148001333475112,-0.06252988673634827,0.051009261684725055
1782838088622967800,8.9819677734375,-0.110412093308568,-0.056165466270968314,0.05844934855760075
1782838088632896800,8.991896728515625,-0.053848494565486904,-0.021668884037807583,0.07912029846608638
1782838088642826800,9.00182666015625,-0.1346679981648922,-0.0014439151979982851,0.0715267563308589
1782838088652755700,9.011755615234375,-0.1874351272344589,-0.07651873766556382,0.042760854103649035
1782838088662684700,9.0216845703125,-0.14878361727893352,-0.042741336552426214,0.042392513981601224
1782838088672615000,9.031614990234376,-0.14909458292424677,-0.025253683722019193,0.04508749781977385
1782838088682543900,9.0415439453125,-0.1260451312482357,-0.07624510835595429,0.0637427239916753
1782838088692472600,9.05147265625,-0.14815116459429264,-0.06056859660074115,0.11091819793349131
1782838088702402800,9.06140283203125,-0.14155425054728984,-0.07842325611263513,0.09626518400711938
1782838088712331800,9.071331787109376,-0.12391630252599715,-0.07206862638890743,0.058470409611938515
1782838088722261800,9.08126171875,-0.05545300715267658,-0.04790113046839833,0.046081440760567784
1782838088732190700,9.091190673828125,-0.05593699127733707,-0.04063983422853052,0.03742213255735114
1782838088742119700,9.10111962890625,-0.05388531944453716,-0.10875168581567704,0.0281682468613144
1782838088752049700,9.111049560546874,-0.014306757771968841,-0.11245470505207776,-0.009214156473847105
1782838088761979000,9.120978759765626,-0.033057050949335094,-0.12065576636008918,-0.001404752231389284
1782838088771908900,9.130908935546875,-0.028021394869685173,-0.11033953952901064,0.014673207331029697
1782838088781837800,9.140837890625,-0.0032931963264942166,-0.08282185639776289,0.015841602656431496
1782838088791766800,9.150766845703124,-0.01983633484840393,-0.0802498139526695,0.0049675592795014375
1782838088801696800,9.16069677734375,-0.013185644787549971,-0.08553674137964844,0.024344852648256345
1782838088811625700,9.170625732421875,0.02531388947665691,-0.09795249777324497,0.023778469203459097
1782838088821554700,9.1805546875,0.004574468308687209,-0.09423771503381431,0.02841038505411707
1782838088831484700,9.190484619140625,-0.013948445853590964,-0.09327946446090936,0.052085640478273854
1782838088841413600,9.20041357421875,-0.04999591079056263,-0.08669745572209357,0.02548828706233762
1782838088851344000,9.21034375,-0.08172375896275043,-0.06046798577047884,-0.007467440670682117
1782838088861272800,9.22027294921875,-0.08749941975474357,-0.02484042674601078,0.0025200291300658136
1782838088871201800,9.230201904296875,-0.13857786508500575,-0.05373663168884813,0.04246745151448995
1782838088881131800,9.2401318359375,-0.12151157947182654,-0.06960114029683172,0.09358381770234554
1782838088891060700,9.250060791015626,-0.08280278637111187,-0.05299589632414281,0.07598885030625388
1782838088900990700,9.25999072265625,-0.01895195322930813,-0.010018559058755636,0.0394650182954967
1782838088910919700,9.269919677734375,-0.05559212336242199,-0.021575141339749096,0.06374080602922476
1782838088920849000,9.279848876953125,-0.04638005838096142,-0.045254415351897476,0.09813704229360445
1782838088930778600,9.289778564453124,-0.0763654467999935,-0.015718597331270574,0.0899613711551763
1782838088940707800,9.299707763671876,-0.08788929585516453,-0.05167882237620652,0.07155867670592851
1782838088950637000,9.309636962890625,-0.0320721315652132,-0.035086218689382075,0.03208926536310464
1782838088960567000,9.319567138671875,-0.09522212296128273,-0.03699921270385385,0.09382443979149684
1782838088970496000,9.32949609375,-0.1574240198522806,-0.08613879892602562,0.032231623842706905
1782838088980426000,9.339426025390624,-0.10505319662392139,-0.000278305484727025,-0.03141695559211075
1782838088990355000,9.34935498046875,-0.12242752527296542,0.05115523689351976,0.037689715718664224
1782838089000284000,9.359283935546875,-0.1299532446026802,-0.03378806863762438,0.07696565031600185
1782838089010214100,9.369214111328125,-0.07385375624001025,-0.048561786334216595,0.09101089847441762
1782838089020143000,9.37914306640625,-0.06849310598969459,-0.08098477716371416,0.007672215128317475
1782838089030072800,9.38907275390625,-0.11133739145994186,-0.17757577732540666,-0.05422783100558445
1782838089040002000,9.399001953125,-0.04521569077670574,-0.16955029178000985,-0.033555693787010385
1782838089049931000,9.408930908203125,-0.02237958959043026,-0.1452272399716079,0.015201496388297528
1782838089059858200,9.418858154296874,-0.060245502126216884,-0.11533939364291727,-0.02191923293652944
1782838089069788000,9.428787841796876,0.0048000937581062315,-0.038536870599910615,-0.07967465354637242
1782838089079716900,9.438716796875,-0.136893272998929,-0.07197970599643885,-0.0753534567458555
1782838089089646000,9.44864599609375,-0.16410568957328794,-0.11568331170976161,-0.03765209625517018
1782838089099576000,9.458576171875,-0.10356208128333091,-0.09715111826248467,0.03431058554123156
1782838089109505000,9.468505126953126,-0.09965922862589359,-0.09981259255670011,0.0612146576856263
1782838089119435000,9.47843505859375,-0.07946165924966335,-0.08559504743814468,0.05545753719732165
1782838089129364000,9.488364013671875,-0.047968788877129555,-0.04051832674071192,0.015757385838543997
1782838089139293000,9.49829296875,-0.024648119044303893,-0.024344679118320344,-0.0046306189427152275
1782838089149223200,9.50822314453125,-0.04103635926544666,-0.040745486560091373,0.03704014750244096
1782838089159152000,9.518152099609376,-0.06569266161620617,-0.0635427170407027,0.08475259613147937
1782838089169081900,9.528081787109375,-0.06263619665503502,-0.03592646890580654,0.0889043272497598
1782838089179011000,9.538010986328125,-0.11654840410649776,-0.008791282286122441,0.06477013081065379
1782838089188940000,9.54793994140625,-0.19061025013923644,-0.03656578972265124,0.06019565336881205
1782838089198870000,9.5578701171875,-0.1588099212527275,-0.0008966565787792205,0.010981759801413863
1782838089208799200,9.56779931640625,-0.11726093629002571,0.047579716494306916,0.03417895851819776
1782838089218728200,9.577728271484375,-0.056928340402245516,0.03387961937859654,0.06808584036305547
1782838089228658000,9.587657958984375,-0.10273439828753471,0.010133782936260103,0.09870797404935583
1782838089238587100,9.597587158203124,-0.08270867834687233,-0.021583178515732288,0.0976558437810745
1782838089248517000,9.60751708984375,-0.08989829759001731,-0.029682971406355497,0.04795157288084738
1782838089258446000,9.617446044921875,0.004908230307698249,-0.04533208369798958,0.05226221175473183
1782838089268375000,9.627375,0.029834581771492955,-0.024035247842967507,0.08522856134646571
1782838089278305000,9.637304931640625,-0.04817395606040954,-0.07539053735323249,0.06646971040330826
1782838089288234000,9.64723388671875,-0.10287994423806666,-0.09614873628690838,-0.00375774509832263
1782838089298164200,9.657164306640626,-0.09527005375623702,-0.08709376156330108,-0.06427583535453305
1782838089308093200,9.66709326171875,-0.07721826423704624,-0.08959989916533231,-0.08454820526633411
1782838089318022000,9.67702197265625,-0.0738695383310318,-0.07089132623784243,-0.013072603733977303
1782838089327952100,9.6869521484375,-0.1527934374421835,-0.09242189778350293,0.04080390221644193
1782838089337881000,9.696881103515626,-0.3937812911659479,-0.16260500268675385,-0.016601636376651
1782838089347811000,9.70681103515625,-0.2653466344326734,-0.1424403126668185,-0.21971257211342451
1782838089357740000,9.716739990234375,0.10512450829446315,0.049176045775040984,-0.1451822865850292
1782838089367669000,9.7266689453125,0.976142203426361,0.21762283329255877,0.2669876431053504
1782838089377599000,9.736598876953124,-0.099915833735466,0.02378872573599219,0.4307466016001999
1782838089387528000,9.74652783203125,-0.4342985949933529,-0.2652583716273308,0.16636466574752704
1782838089397457200,9.75645703125,-0.40569793893098827,0.10967354990094899,-0.1541234439369291
1782838089407387100,9.76638720703125,-0.5628349585354328,0.2683862943895161,-0.05424882812784053
1782838089417315800,9.77631591796875,-0.6362883172810078,0.14480886842906474,0.006653448273520916
1782838089427246000,9.78624609375,-0.5747118588119745,0.2459064592950046,0.1619272678219713
1782838089437175000,9.796175048828125,-0.20199147585332392,0.23804142500832676,0.24246413682140408
1782838089447104000,9.80610400390625,-0.26745091323554515,0.25374314427003264,0.2347817290926352
1782838089457034000,9.816033935546875,-0.4213917671471834,0.1662670323256403,0.16591894954033196
1782838089466963000,9.825962890625,-0.41125498853623865,0.02687448985688388,0.08465700853620656
