time,seconds_elapsed,z,y,x
1782838079716371500,0.075371337890625,-0.007216328755021095,0.07125224173069,0.035035140812397
1782838079726300400,0.085300537109375,-0.05141862481832504,-0.03053922951221466,0.019462155178189278
1782838079736229400,0.0952294921875,-0.08301915973424911,-0.10127971321344376,-0.0035467580892145634
1782838079746158600,0.10515869140625,-0.10688485950231552,-0.11480000615119934,-0.03270712494850159
1782838079756088600,0.115088623046875,-0.09875023365020752,-0.07808087766170502,-0.057005804032087326
1782838079766017500,0.125017578125,-0.06935048848390579,-0.03840753808617592,-0.06936971098184586
1782838079775946500,0.134946533203125,-0.021442081779241562,-0.010544747114181519,-0.07356791943311691
1782838079785875500,0.14487548828125,0.07179220020771027,0.015120037831366062,-0.06966865062713623
1782838079795805400,0.154805419921875,0.01905015856027603,0.013095502741634846,-0.043688446283340454
1782838079805734700,0.164734619140625,0.11473769694566727,-0.01671922393143177,0.005454669706523418
1782838079815663600,0.17466357421875,-0.0029974551871418953,-0.03928312286734581,0.04894541949033737
1782838079825592600,0.184592529296875,0.0639977678656578,-0.055870987474918365,0.07304450124502182
1782838079835522300,0.194522216796875,-0.04021412134170532,-0.0242997445166111,0.035963185131549835
1782838079845451500,0.204451416015625,0.05726013332605362,-0.037304334342479706,-0.013865021988749504
1782838079855380500,0.21438037109375,-0.03895162045955658,-0.023628467693924904,-0.06431381404399872
1782838079865309400,0.224309326171875,0.049997102469205856,-0.04051727056503296,-0.07641108334064484
1782838079875239700,0.23423974609375,-0.057895809412002563,-0.02241602912545204,-0.07925214618444443
1782838079885168600,0.244168701171875,0.0431082621216774,0.015000229701399803,-0.04883275926113129
1782838079895097600,0.25409765625,-0.03900604695081711,0.07760155946016312,-0.021006718277931213
1782838079905026600,0.264026611328125,0.06190778315067291,0.07720740884542465,0.011073984205722809
1782838079914956500,0.27395654296875,-0.04305325448513031,0.06496139615774155,0.030023708939552307
1782838079924886000,0.283885986328125,0.0205463245511055,0.000873456709086895,0.04691975191235542
1782838079934815200,0.293815185546875,-0.08620887994766235,-0.031465306878089905,0.02624909207224846
1782838079944744200,0.303744140625,-0.009095239453017712,-0.08632776141166687,0.007316878996789455
1782838079954674000,0.313673828125,-0.0961047038435936,-0.09150654822587967,-0.03739359974861145
1782838079964603100,0.32360302734375,-0.03003743290901184,-0.09637660533189774,-0.07681003212928772
1782838079974532000,0.333531982421875,-0.12201902270317078,-0.07722421735525131,-0.11318215727806091
1782838079984461000,0.3434609375,-0.05802853778004646,-0.07994893938302994,-0.12118114531040192
1782838079994391000,0.35339111328125,-0.11427423357963562,-0.042432717978954315,-0.13373368978500366
1782838080004320300,0.3633203125,-0.036581672728061676,-0.05030224099755287,-0.13184568285942078
1782838080014249000,0.3732490234375,-0.07424116879701614,-0.045457419008016586,-0.13648198544979095
1782838080024178000,0.383177978515625,-0.03570921719074249,-0.054946303367614746,-0.11435962468385696
1782838080034108200,0.393108154296875,-0.0891018658876419,-0.01934889331459999,-0.09196297079324722
1782838080044037000,0.403037109375,-0.05188996344804764,-0.03262389823794365,-0.0547742061316967
1782838080053966000,0.412966064453125,-0.0712285041809082,-0.010323652997612953,-0.02936445362865925
1782838080063895000,0.42289501953125,-0.029658041894435883,-0.036151859909296036,-0.009567325934767723
1782838080073825000,0.432824951171875,-0.03748347610235214,-0.04206700623035431,-0.025040557608008385
1782838080083754000,0.44275390625,-0.019455794245004654,-0.08016499876976013,-0.04759631305932999
1782838080093683000,0.452682861328125,-0.015195001848042011,-0.08804475516080856,-0.0791369304060936
1782838080103612200,0.462612060546875,-0.008293851278722286,-0.08364458382129669,-0.07663656026124954
1782838080113542100,0.472542236328125,0.005797200836241245,-0.04862268269062042,-0.0689312294125557
1782838080123471000,0.48247119140625,-0.011262793093919754,-0.0378599688410759,-0.06302656978368759
1782838080133400000,0.492400146484375,0.01441860105842352,-0.019301729276776314,-0.06494591385126114
1782838080143330000,0.502330078125,-0.006770621985197067,-0.011211540549993515,-0.07429075986146927
1782838080153259000,0.512259033203125,0.04471760243177414,0.010521451011300087,-0.07695445418357849
1782838080163188000,0.52218798828125,0.02926434390246868,0.030557475984096527,-0.0758199468255043
1782838080173117200,0.5321171875,0.06041374057531357,0.01619132235646248,-0.060974154621362686
1782838080183047200,0.542047119140625,0.07034727931022644,-0.011559312231838703,-0.034164462238550186
1782838080192976000,0.551975830078125,0.06691500544548035,-0.04699400067329407,-0.0015471302904188633
1782838080202905000,0.561905029296875,0.06250469386577606,-0.07262668013572693,0.023158259689807892
1782838080212834000,0.571833984375,0.07010349631309509,-0.0865696594119072,0.033770956099033356
1782838080222764000,0.581763916015625,0.08655489981174469,-0.08195240795612335,0.026927920058369637
1782838080232693000,0.59169287109375,0.08281715214252472,-0.06650421023368835,0.014379369094967842
1782838080242622200,0.601622314453125,0.07925576716661453,-0.013910716399550438,0.008738404139876366
1782838080252551200,0.61155126953125,0.08236394077539444,0.01827172189950943,0.011616747826337814
1782838080262481000,0.62148095703125,0.08982382714748383,0.012743860483169556,0.017980583012104034
1782838080272410000,0.63141015625,0.08244021236896515,-0.0007849987596273422,0.026386048644781113
1782838080282339000,0.641339111328125,0.06477668881416321,-0.02671431005001068,0.01897050440311432
1782838080292268000,0.65126806640625,0.04756760597229004,-0.05825013294816017,-0.0021518240682780743
1782838080302198300,0.6611982421875,0.03875163942575455,-0.06525488197803497,-0.03007233329117298
1782838080312127200,0.671127197265625,0.034708429127931595,-0.06264365464448929,-0.05507621914148331
1782838080322056000,0.681055908203125,0.03311387822031975,-0.03498319163918495,-0.06272214651107788
1782838080331985000,0.69098486328125,0.03513282164931297,0.0058486582711339,-0.04365524277091026
1782838080341915100,0.7009150390625,0.042442940175533295,0.041854772716760635,-0.011287951841950417
1782838080351844000,0.710843994140625,0.04660945385694504,0.05044347047805786,0.005884377285838127
1782838080361773000,0.72077294921875,0.041568830609321594,0.029954340308904648,0.0020708702504634857
1782838080371702000,0.730701904296875,0.028499901294708252,0.012829681858420372,-0.012503013014793396
1782838080381632000,0.740632080078125,0.02676832303404808,-0.005403514951467514,-0.015041493810713291
1782838080391561000,0.75056103515625,0.03271303325891495,-0.013905123807489872,-0.016593052074313164
1782838080401490000,0.760489990234375,0.038632333278656006,-0.03092731162905693,-0.03237808495759964
1782838080411419100,0.770419189453125,0.033334773033857346,-0.056576214730739594,-0.042568404227495193
1782838080421349000,0.78034912109375,0.02134554274380207,-0.08212883770465851,-0.04448177292943001
1782838080431278000,0.790278076171875,0.0006573079153895378,-0.09724600613117218,-0.04856972396373749
1782838080441207300,0.800207275390625,-0.0176820307970047,-0.10117239505052567,-0.054241251200437546
1782838080451136000,0.810135986328125,-0.03056027740240097,-0.07982183247804642,-0.0369914248585701
1782838080461066000,0.82006591796875,-0.025924082845449448,-0.011022103950381279,0.004105484113097191
1782838080470995200,0.8299951171875,0.0004492010921239853,0.04687688127160072,0.03465034440159798
1782838080480924200,0.839924072265625,0.026472225785255432,0.07070431113243103,0.049037158489227295
1782838080490853000,0.84985302734375,0.03603217378258705,0.05542229115962982,0.036175958812236786
1782838080500782800,0.859782958984375,0.03197165206074715,0.008039329200983047,0.01296730525791645
1782838080510712000,0.869712158203125,0.008222115226089954,-0.05433270335197449,-0.01164562813937664
1782838080520641000,0.87964111328125,-0.02319844253361225,-0.08188914507627487,-0.031178414821624756
1782838080530570000,0.889570068359375,-0.04137105494737625,-0.102603480219841,-0.04705005884170532
1782838080540500200,0.899500244140625,-0.04450271651148796,-0.11153142154216766,-0.06295879930257797
1782838080550429200,0.90942919921875,-0.042351678013801575,-0.0972379744052887,-0.0700441375374794
1782838080560358100,0.919358154296875,-0.03961129114031792,-0.07587672024965286,-0.06652452051639557
1782838080570287000,0.929287109375,-0.04588436707854271,-0.03819005563855171,-0.046335361897945404
1782838080580217000,0.939217041015625,-0.046699292957782745,-0.015629086643457413,-0.03185202553868294
1782838080590146000,0.94914599609375,-0.029189009219408035,-0.018710363656282425,-0.019727719947695732
1782838080600075000,0.959074951171875,-0.0157293900847435,-0.0074516283348202705,-0.0002687857486307621
1782838080610005200,0.969005126953125,-0.005892738699913025,-0.00036176107823848724,0.045389510691165924
1782838080619934200,0.978934326171875,-0.005029355175793171,-0.012315449304878712,0.0787452831864357
1782838080629863000,0.98886279296875,-0.010123449377715588,-0.033903300762176514,0.08478453010320663
1782838080639791900,0.9987919921875,-0.014407739974558353,-0.05916023999452591,0.08027885854244232
1782838080649722000,1.00872216796875,-0.017216842621564865,-0.0871785506606102,0.06249719858169556
1782838080659651000,1.018651123046875,-0.020296983420848846,-0.09828157722949982,0.0524069145321846
1782838080669580000,1.028580078125,-0.010765264742076397,-0.07149071246385574,0.036054305732250214
1782838080679509200,1.03850927734375,0.004525792319327593,-0.041326239705085754,0.013760129921138287
1782838080689439000,1.04843896484375,0.020999841392040253,-0.0055557237938046455,-0.004928070120513439
1782838080699368000,1.058367919921875,0.019000031054019928,0.026050128042697906,-0.026701878756284714
1782838080709297200,1.068297119140625,0.014817535877227783,0.012649101205170155,-0.04642684757709503
1782838080719226000,1.07822607421875,0.0053719887509942055,-0.009964038617908955,-0.04993792995810509
1782838080729156000,1.088156005859375,0.0042406776919960976,-0.031191296875476837,-0.031092071905732155
1782838080739085000,1.0980849609375,0.012823512777686119,-0.038347210735082626,0.012613862752914429
1782838080749014000,1.108013916015625,0.03632500395178795,-0.02413984015583992,0.057319071143865585
1782838080758943000,1.11794287109375,0.06088649854063988,-0.01845613121986389,0.06958551704883575
1782838080768873000,1.127873046875,0.07141956686973572,-0.036355502903461456,0.053475260734558105
1782838080778802200,1.13780224609375,0.05403817445039749,-0.05986184999346733,0.022932786494493484
1782838080788731100,1.147731201171875,0.03110143542289734,-0.056637559086084366,-0.00228122528642416
1782838080798660000,1.15766015625,0.008064989000558853,-0.03161141276359558,-0.011903156526386738
1782838080808590000,1.167590087890625,0.00005180388689041138,-0.012004952877759933,-0.006476166658103466
1782838080818519000,1.17751904296875,-0.005131353624165058,0.003643808886408806,0.012861872091889381
1782838080828448000,1.187447998046875,-0.01601383090019226,0.006245184689760208,0.028840307146310806
1782838080838377000,1.197376953125,-0.01065884716808796,-0.004776414483785629,0.028208941221237183
1782838080848307200,1.20730712890625,0.00239676795899868,-0.009536015801131725,0.025394245982170105
1782838080858236200,1.217236083984375,0.012882411479949951,-0.021564222872257233,0.014087195508182049
1782838080868165000,1.2271650390625,0.021923843771219254,-0.03543449565768242,-0.002993520349264145
1782838080878094000,1.237093994140625,0.014503858052194118,-0.03665851429104805,-0.022762993350625038
1782838080888024000,1.247024169921875,-0.007987868040800095,-0.024480678141117096,-0.01807982474565506
1782838080897953000,1.256953125,-0.031641799956560135,0.0009136265143752098,0.007561888545751572
1782838080907882000,1.266882080078125,-0.05007966235280037,0.01523397583514452,0.030889317393302917
1782838080917812200,1.276812255859375,-0.050948768854141235,-0.004194553010165691,0.021989859640598297
1782838080927740700,1.28674072265625,-0.028500448912382126,-0.04218294844031334,0.0025285445153713226
1782838080937669600,1.296669677734375,-0.013018791563808918,-0.0706203356385231,-0.0013518650084733963
1782838080947598300,1.306598388671875,-0.002294774167239666,-0.048504382371902466,0.005778748542070389
1782838080957528600,1.316528564453125,0.008279137313365936,-0.015005389228463173,0.026720434427261353
1782838080967457500,1.32645751953125,0.00017966516315937042,0.015533612109720707,0.04801134020090103
1782838080977386500,1.336386474609375,-0.007455761544406414,0.029531599953770638,0.0570964440703392
1782838080987315700,1.346315673828125,-0.018733449280261993,0.021396441385149956,0.06722205132246017
1782838080997245400,1.356245361328125,-0.025314390659332275,-0.012058409862220287,0.06304353475570679
1782838081007174400,1.36617431640625,-0.01691637933254242,-0.03339938446879387,0.06897599995136261
1782838081017103600,1.376103515625,-0.002974781207740307,-0.039847083389759064,0.07132267206907272
1782838081027032600,1.386032470703125,0.007759355939924717,-0.01733485236763954,0.06612551212310791
1782838081036962600,1.395962646484375,0.010820024646818638,0.016641918569803238,0.0569203644990921
1782838081046891800,1.405891845703125,0.0034198984503746033,0.02424338087439537,0.04494839161634445
1782838081056820700,1.41582080078125,-0.00897578801959753,0.011236011050641537,0.03758527338504791
1782838081066749700,1.425749755859375,-0.02181568369269371,-0.010337190702557564,0.024285711348056793
1782838081076679400,1.435679443359375,-0.017415255308151245,-0.01987878605723381,0.003934260457754135
1782838081086608600,1.445608642578125,0.002835952676832676,-0.015927452594041824,-0.017982490360736847
1782838081096537600,1.45553759765625,0.016791250556707382,-0.0013764705508947372,-0.031123973429203033
1782838081106466600,1.465466552734375,0.01563437469303608,-0.0027333516627550125,-0.03441670536994934
1782838081116396500,1.475396484375,0.003449459560215473,-0.006993370596319437,-0.028515970334410667
1782838081126325500,1.485325439453125,-0.010470084846019745,-0.010260802693665028,-0.018696628510951996
1782838081136254500,1.49525439453125,-0.024972178041934967,-0.023016206920146942,-0.018847880885004997
1782838081146184700,1.505184814453125,-0.029112596064805984,-0.018387898802757263,-0.015102943405508995
1782838081156113700,1.51511376953125,-0.01976170390844345,-0.010076972655951977,-0.015885647386312485
1782838081166042600,1.525042724609375,-0.015316622331738472,-0.021692615002393723,-0.013485872186720371
1782838081175971600,1.5349716796875,-0.020162507891654968,-0.02825198322534561,-0.0033381632529199123
1782838081185901600,1.544901611328125,-0.029973328113555908,-0.03119530901312828,0.003501633182168007
1782838081195830500,1.55483056640625,-0.0347244031727314,-0.041864775121212006,0.0025367839261889458
1782838081205759500,1.564759521484375,-0.03497926890850067,-0.04440037161111832,0.00151120126247406
1782838081215688400,1.5746884765625,-0.02467576414346695,-0.047637179493904114,0.0018432969227433205
1782838081225618700,1.58461865234375,-0.012283009476959705,-0.04628562182188034,0.018940525129437447
1782838081235547600,1.594547607421875,-0.004286677576601505,-0.030728721991181374,0.03474515676498413
1782838081245476600,1.6044765625,0.0010553579777479172,-0.015539383515715599,0.047704365104436874
1782838081255405600,1.614405517578125,-0.005949236452579498,-0.00846397690474987,0.06092865765094757
1782838081265335600,1.62433544921875,-0.011483551934361458,-0.011403573676943779,0.0658286064863205
1782838081275264500,1.634264404296875,-0.0070663196966052055,-0.023614462465047836,0.061240214854478836
1782838081285193700,1.64419384765625,0.001458459533751011,-0.033705178648233414,0.04121138155460358
1782838081295122700,1.654122802734375,0.015063916333019733,-0.03148474544286728,0.023553092032670975
1782838081305052400,1.664052490234375,0.010229745879769325,-0.017801957204937935,0.004872615449130535
1782838081314981400,1.6739814453125,0.006072602234780788,-0.004285695031285286,-0.010538199916481972
1782838081324910600,1.68391064453125,0.005153012461960316,-0.009891116991639137,-0.013543576933443546
1782838081334840600,1.693840576171875,0.003591335378587246,-0.022883348166942596,-0.0017950418405234814
1782838081344769500,1.70376953125,0.00014893338084220886,-0.030868835747241974,0.011082406155765057
1782838081354698800,1.71369873046875,-0.0034310584887862206,-0.015875883400440216,0.020776767283678055
1782838081364627700,1.723627685546875,-0.010233569890260696,-0.0030112164095044136,0.022339507937431335
1782838081374557400,1.733557373046875,-0.01607445999979973,-0.002956322394311428,0.013076681643724442
1782838081384486700,1.743486572265625,-0.01583956927061081,-0.01853075437247753,0.0007774047553539276
1782838081394415600,1.75341552734375,-0.00537484884262085,-0.030553171411156654,-0.012369103729724884
1782838081404344600,1.763344482421875,0.00894763134419918,-0.007179140113294125,-0.016043465584516525
1782838081414274600,1.773274658203125,0.02074405923485756,0.008668829686939716,-0.018781283870339394
1782838081424203500,1.78320361328125,0.020099572837352753,0.011011346243321896,-0.019084617495536804
1782838081434132500,1.793132568359375,0.0005322583019733429,-0.004297257401049137,-0.014481622725725174
1782838081444061400,1.8030615234375,-0.01477213017642498,-0.0284768957644701,-0.009863435290753841
1782838081453991700,1.81299169921875,-0.02570977807044983,-0.03054746985435486,-0.003249827306717634
1782838081463920600,1.822920654296875,-0.031812943518161774,-0.020767543464899063,-0.005755329504609108
1782838081473849600,1.832849609375,-0.021236570551991463,-0.01917024329304695,-0.02151399664580822
1782838081483779600,1.842779541015625,-0.012224700301885605,-0.026244930922985077,-0.03241511434316635
1782838081493708500,1.85270849609375,-0.00607460830360651,-0.03198017179965973,-0.025668948888778687
1782838081503637500,1.862637451171875,0.005679253488779068,-0.0030736904591321945,-0.01510152593255043
1782838081513566500,1.87256640625,0.014745021238923073,0.015177595429122448,-0.006914504803717136
1782838081523496700,1.88249658203125,0.022566992789506912,0.04069014638662338,-0.006150177214294672
1782838081533425700,1.89242578125,0.023145169019699097,0.03604527562856674,-0.018876347690820694
1782838081543354600,1.902354736328125,0.0028950246050953865,-0.0027644354850053787,-0.016528770327568054
1782838081553283300,1.912283447265625,-0.01296053733676672,-0.037187281996011734,-0.008105793036520481
1782838081563213600,1.922213623046875,-0.028204206377267838,-0.05990750715136528,0.008837237022817135
1782838081573142500,1.932142578125,-0.03584323078393936,-0.07238107919692993,0.01693880558013916
1782838081583071500,1.942071533203125,-0.026255585253238678,-0.05646629258990288,0.023415345698595047
1782838081593001700,1.952001708984375,-0.007922203280031681,-0.024532582610845566,0.020827390253543854
1782838081602930400,1.961930419921875,0.011738050729036331,0.016096338629722595,0.000779380090534687
1782838081612859400,1.971859375,0.030673537403345108,0.048309747129678726,-0.025273773819208145
1782838081622788600,1.98178857421875,0.049498625099658966,0.0477728545665741,-0.04053501784801483
1782838081632718600,1.991718505859375,0.0467037558555603,0.028077896684408188,-0.038494523614645004
1782838081642647600,2.0016474609375,0.033612724393606186,-0.0028363410383462906,-0.013040294870734215
1782838081652576800,2.01157666015625,0.02093466930091381,-0.024834267795085907,0.027155965566635132
1782838081662505700,2.021505615234375,0.013508977368474007,-0.02599833533167839,0.06018129736185074
1782838081672435500,2.031435546875,0.01988319680094719,-0.022119048982858658,0.05911298841238022
1782838081682364400,2.041364501953125,0.03541581705212593,-0.017511513084173203,0.03066829964518547
1782838081692293600,2.051293701171875,0.046875886619091034,-0.0040918150916695595,-0.005071678198873997
1782838081702223600,2.0612236328125,0.04220736771821976,0.002735198475420475,-0.03395792096853256
1782838081712152600,2.071152587890625,0.04612439125776291,0.017860809341073036,-0.0366489440202713
1782838081722081500,2.08108154296875,0.0478740893304348,0.05199640989303589,-0.0117366723716259
1782838081732010500,2.091010498046875,0.048591163009405136,0.061563316732645035,0.014292032457888126
1782838081741940500,2.1009404296875,0.052209336310625076,0.038757070899009705,0.034706756472587585
1782838081751869700,2.11086962890625,0.04128403216600418,-0.0033489158377051353,0.051686376333236694
1782838081761798700,2.120798583984375,0.02394392341375351,-0.04407051205635071,0.05894322693347931
1782838081771727600,2.1307275390625,0.016065195202827454,-0.0741158276796341,0.055978260934352875
1782838081781657300,2.1406572265625,0.013961831107735634,-0.08026986569166183,0.035408005118370056
1782838081791586600,2.150586669921875,0.020125383511185646,-0.07813511788845062,0.018102915957570076
1782838081801515500,2.160515625,0.010660775937139988,-0.049334362149238586,0.010705718770623207
1782838081811445500,2.170445556640625,-0.006676775403320789,-0.006293746642768383,0.010382999666035175
1782838081821374700,2.180374755859375,-0.013626026920974255,0.025619711726903915,0.0005492772907018661
1782838081831303700,2.1903037109375,-0.019275445491075516,0.04495891556143761,-0.002165926620364189
1782838081841232600,2.200232666015625,-0.01977931521832943,0.026168979704380035,0.0019041821360588074
1782838081851162600,2.21016259765625,-0.023611437529325485,-0.003284360282123089,0.009441262111067772
1782838081861091600,2.220091552734375,-0.016093600541353226,-0.03824421018362045,-0.0006081764586269855
1782838081871020500,2.2300205078125,-0.009557943791151047,-0.052334681153297424,-0.001114454586058855
1782838081880949500,2.239949462890625,-0.005730448290705681,-0.03528458997607231,0.020930927246809006
1782838081890879700,2.249879638671875,-0.010599306784570217,-0.017224138602614403,0.03655529022216797
1782838081900808400,2.259808349609375,-0.017948299646377563,-0.015336223877966404,0.03552784398198128
1782838081910737400,2.2697373046875,-0.005473725497722626,-0.0061508906073868275,0.025534721091389656
1782838081920667600,2.279667724609375,0.010381404310464859,0.0006167348474264145,0.019091470167040825
1782838081930596900,2.289596923828125,0.023334752768278122,0.009585196152329445,0.015045329928398132
1782838081940525800,2.29952587890625,0.03258843719959259,0.013804441317915916,0.016319384798407555
1782838081950454800,2.309454833984375,0.019313156604766846,0.02037203684449196,0.024408824741840363
1782838081960384800,2.319384765625,0.0033009015023708344,0.011206766590476036,0.026162516325712204
1782838081970313700,2.329313720703125,-0.0060228630900382996,-0.010945161804556847,0.02070562355220318
1782838081980242700,2.33924267578125,0.0022012442350387573,-0.02510998211801052,0.021244380623102188
1782838081990173000,2.3491728515625,0.015351129695773125,-0.02563457563519478,0.026174144819378853
1782838082000102000,2.359101806640625,0.021251097321510315,-0.01590311899781227,0.024274514988064766
1782838082010030800,2.36903076171875,0.02467406913638115,0.010869275778532028,0.02700481005012989
1782838082019959800,2.378959716796875,0.024390708655118942,0.029447222128510475,0.03321343660354614
1782838082029889800,2.388889892578125,0.014079203829169273,0.03306681662797928,0.04385141283273697
1782838082039818800,2.39881884765625,-0.0017176028341054916,0.0140643659979105,0.05040811002254486
1782838082049747700,2.408747802734375,-0.0023053139448165894,-0.026959575712680817,0.039499372243881226
1782838082059677000,2.418677001953125,-0.01060745120048523,-0.05737260729074478,0.03214558586478233
1782838082069606700,2.428606689453125,-0.012471441179513931,-0.06067410111427307,0.026398129761219025
1782838082079535600,2.43853564453125,-0.015937279909849167,-0.04906671494245529,0.026523564010858536
1782838082089464600,2.448464599609375,-0.024252749979496002,-0.017624754458665848,0.011230328120291233
1782838082099394800,2.458394775390625,-0.02472546324133873,0.005192411132156849,-0.017600787803530693
1782838082109323800,2.46832373046875,-0.030637675896286964,0.016333162784576416,-0.034787219017744064
1782838082119252700,2.478252685546875,-0.025842120870947838,0.013384244404733181,-0.01959574967622757
1782838082129182000,2.488181884765625,-0.01837790384888649,0.025080952793359756,0.009043962694704533
1782838082139111700,2.498111572265625,-0.015065199695527554,0.027734261006116867,0.039228230714797974
1782838082149040600,2.50804052734375,-0.008978644385933876,0.0026359865441918373,0.04412584751844406
1782838082158969900,2.517969970703125,-0.007443331182003021,-0.033335864543914795,0.03287293016910553
1782838082168899800,2.52789990234375,-0.0030018966645002365,-0.055261410772800446,0.0008669588714838028
1782838082178828800,2.537828857421875,-0.009289353154599667,-0.06674496084451675,-0.03753688931465149
1782838082188758000,2.547758056640625,-0.018068520352244377,-0.03539543226361275,-0.05603611469268799
1782838082198686700,2.557686767578125,-0.027083586901426315,-0.0018230918794870377,-0.06503760069608688
1782838082208616700,2.56761669921875,-0.02381838858127594,0.02585854008793831,-0.07180409878492355
1782838082218545700,2.577545654296875,-9.406358003616333e-7,0.020832087844610214,-0.0713452398777008
1782838082228475000,2.587474853515625,0.022784803062677383,-0.004805944859981537,-0.0487283356487751
1782838082238404900,2.59740478515625,0.033020664006471634,-0.03847309574484825,-0.01874726638197899
1782838082248333600,2.60733349609375,0.030896056443452835,-0.049519527703523636,0.0053677791729569435
1782838082258262800,2.6172626953125,0.025306614115834236,-0.03517893701791763,0.01933499425649643
1782838082268191700,2.627191650390625,0.025347638875246048,-0.01801230013370514,0.01601884886622429
1782838082278121700,2.637121826171875,0.022067155689001083,-0.006437669508159161,0.004660200327634811
1782838082288051000,2.647051025390625,0.017618173733353615,0.011004864238202572,-0.019696615636348724
1782838082297980000,2.65697998046875,0.01914576254785061,0.0057184891775250435,-0.04231058061122894
1782838082307909600,2.66690966796875,0.022275619208812714,0.018357865512371063,-0.04022936522960663
1782838082317838600,2.676838623046875,0.02141062542796135,0.02201838232576847,-0.009108731523156166
1782838082327767800,2.686767822265625,0.015192659571766853,0.002874927595257759,0.026802629232406616
1782838082337696800,2.69669677734375,0.014166010543704033,-0.027250217273831367,0.04268811643123627
1782838082347626800,2.706626708984375,0.01134304516017437,-0.05233709514141083,0.036500245332717896
1782838082357556000,2.716555908203125,-0.0034428248181939125,-0.04541846737265587,0.030348340049386024
1782838082367485000,2.72648486328125,-0.01580866053700447,-0.013555494137108326,0.0022285878658294678
1782838082377414700,2.73641455078125,-0.0146067775785923,0.01458692830055952,-0.036960095167160034
1782838082387344000,2.74634375,0.007353922817856073,0.02303602360188961,-0.05091770738363266
1782838082397272800,2.75627294921875,0.004228437319397926,0.021485796198248863,-0.04091008007526398
1782838082407201800,2.766201904296875,-0.017319072037935257,0.0184321366250515,-0.031884096562862396
1782838082417131800,2.7761318359375,-0.027419641613960266,0.006967226974666119,-0.02986462228000164
1782838082427060700,2.786060791015625,-0.024108583107590675,-0.009179443120956421,-0.022984176874160767
1782838082436989700,2.79598974609375,-0.03280460089445114,-0.025855625048279762,-0.002559064421802759
1782838082446919700,2.805919677734375,-0.043978385627269745,-0.04606185480952263,0.005108000710606575
1782838082456849000,2.815848876953125,-0.045481741428375244,-0.06301819533109665,-0.00818863045424223
1782838082466777900,2.82577783203125,-0.046951260417699814,-0.055723898112773895,-0.023623492568731308
1782838082476706800,2.835706787109375,-0.04993639513850212,-0.04241501912474632,-0.038939595222473145
1782838082486636800,2.84563671875,-0.04100895673036575,-0.027504730969667435,-0.05653031915426254
1782838082496565800,2.855565673828125,-0.02287841960787773,-0.004739230498671532,-0.0838085412979126
1782838082506494700,2.86549462890625,-0.008731975220143795,-0.012952685356140137,-0.10754023492336273
1782838082516425000,2.875425048828125,-0.002013618126511574,0.003956790082156658,-0.11686849594116211
1782838082526354000,2.88535400390625,0.0031809965148568153,-0.008739601820707321,-0.11242158710956573
1782838082536283000,2.895282958984375,-0.006845538504421711,-0.04355404153466225,-0.0655406266450882
1782838082546211800,2.9052119140625,-0.018980413675308228,-0.05504004284739494,0.0031019961461424828
1782838082556141800,2.915141845703125,-0.028052736073732376,-0.04821356013417244,0.05872797593474388
1782838082566070800,2.92507080078125,-0.029048383235931396,-0.0528264082968235,0.09325847029685974
1782838082575999700,2.934999755859375,-0.019391227513551712,-0.055911947041749954,0.09385634958744049
1782838082585930000,2.944929931640625,-0.0022451821714639664,-0.05326908454298973,0.06783796101808548
1782838082595858700,2.954858642578125,0.013087701052427292,-0.05415671691298485,0.029696963727474213
1782838082605787600,2.96478759765625,0.01563074253499508,-0.055403776466846466,-0.008929545991122723
1782838082615716600,2.974716552734375,0.013490892015397549,-0.01812724396586418,-0.03275498375296593
1782838082625646800,2.984646728515625,0.009670356288552284,0.025192290544509888,-0.0363917201757431
1782838082635575800,2.994575927734375,0.0034279068931937218,0.037993308156728745,-0.021056171506643295
1782838082645504800,3.0045048828125,-0.01011463813483715,0.03806008771061897,0.004002898000180721
1782838082655434800,3.014434814453125,-0.021145451813936234,0.009690498001873493,0.032384470105171204
1782838082665363700,3.02436376953125,-0.023297244682908058,0.011553620919585228,0.056869134306907654
1782838082675292700,3.034292724609375,-0.008034136146306992,0.020547380670905113,0.05330529063940048
1782838082685221600,3.0442216796875,0.030890585854649544,0.021934911608695984,0.029093069955706596
1782838082695151900,3.05415185546875,0.0597669743001461,0.031208038330078125,0.011219799518585205
1782838082705080800,3.064080810546875,0.0554499477148056,0.024893714115023613,0.00015321001410484314
1782838082715009800,3.074009765625,0.03949122130870819,0.018891481682658195,-0.008730030618607998
1782838082724939800,3.083939697265625,0.024477167055010796,0.0021944502368569374,-0.03674984723329544
1782838082734868700,3.09386865234375,0.028812259435653687,-0.02031751722097397,-0.06123814359307289
1782838082744797700,3.103797607421875,0.02744990959763527,-0.04059942811727524,-0.07320399582386017
1782838082754727000,3.113726806640625,0.012352717109024525,-0.048774268478155136,-0.05736670643091202
1782838082764657000,3.123656982421875,-0.01740163564682007,-0.03946626931428909,-0.026726361364126205
1782838082774585600,3.133585693359375,-0.033748384565114975,-0.016549235209822655,-0.0027251550927758217
1782838082784514600,3.1435146484375,-0.021363411098718643,0.012580814771354198,-0.00043627992272377014
1782838082794444800,3.15344482421875,0.010685070417821407,0.024913910776376724,-0.012416243553161621
1782838082804373800,3.163373779296875,0.038687366992235184,0.010881210677325726,-0.023362457752227783
1782838082814302700,3.173302734375,0.03855154663324356,-0.001125650480389595,-0.016336506232619286
1782838082824232700,3.183232666015625,0.01580606773495674,-0.010694198310375214,-0.00743638863787055
1782838082834161700,3.19316162109375,-0.01313876360654831,-0.02390347793698311,-0.006443561986088753
1782838082844090600,3.203090576171875,-0.019936053082346916,-0.032050684094429016,-0.01627776212990284
1782838082854019800,3.213019775390625,-0.01912432350218296,-0.03235268592834473,-0.02409493923187256
1782838082863949800,3.22294970703125,-0.01468349527567625,-0.035111505538225174,-0.026329586282372475
1782838082873878800,3.232878662109375,-0.008250097744166851,-0.03651019558310509,-0.020194727927446365
1782838082883808000,3.24280810546875,-0.004505160264670849,-0.03893021121621132,-0.0110760647803545
1782838082893737700,3.25273779296875,0.00019798241555690765,-0.018677936866879463,0.00031347665935754776
1782838082903666700,3.262666748046875,0.005363232921808958,0.019514378160238266,0.006019399501383305
1782838082913595600,3.272595703125,0.020225802436470985,0.05515440180897713,-0.0009737950749695301
1782838082923524900,3.28252490234375,0.02951720543205738,0.06458693742752075,-0.007114979438483715
1782838082933454000,3.2924541015625,0.027145128697156906,0.04898427426815033,0.003908377140760422
1782838082943383000,3.302383056640625,0.007716395426541567,0.03326060250401497,0.030803563073277473
1782838082953312000,3.31231201171875,0.003467588685452938,-0.013101036660373211,0.06508138030767441
1782838082963242000,3.322241943359375,0.00697045074775815,-0.034524887800216675,0.07994475960731506
1782838082973171000,3.3321708984375,0.020103298127651215,-0.051186420023441315,0.06552906334400177
1782838082983100000,3.342099853515625,0.025133538991212845,-0.05641224980354309,0.03780408203601837
1782838082993030100,3.352030029296875,0.021233871579170227,-0.034659817814826965,0.00013233628123998642
1782838083002959000,3.361958984375,0.016153547912836075,-0.01816871389746666,-0.031059548258781433
1782838083012888000,3.37188818359375,0.015111187472939491,0.016256636008620262,-0.029022227972745895
1782838083022817000,3.381817138671875,0.022718457505106926,0.059896066784858704,-0.008009456098079681
1782838083032747000,3.3917470703125,0.04397501051425934,0.0798756331205368,0.018319886177778244
1782838083042676000,3.401676025390625,0.058145955204963684,0.05933414399623871,0.0336996428668499
1782838083052605000,3.41160498046875,0.05153173208236694,0.022661883383989334,0.04223107919096947
1782838083062535200,3.42153515625,0.03086615353822708,-0.026229912415146828,0.033622972667217255
1782838083072464000,3.4314638671875,0.010434381663799286,-0.06964902579784393,0.015891382470726967
1782838083082392800,3.441392822265625,-0.005202235653996468,-0.06044713407754898,0.0025039492174983025
1782838083092322000,3.451322021484375,-0.0017129629850387573,-0.0426284521818161,-0.012715216726064682
1782838083102252000,3.461251953125,0.0151370819658041,-0.03674204275012016,-0.016501788049936295
1782838083112181000,3.471180908203125,0.004887640941888094,-0.04518532752990723,-0.022213203832507133
1782838083122110200,3.481110107421875,-0.008180594071745872,-0.003913321532309055,-0.019906319677829742
1782838083132040000,3.4910400390625,-0.0056181009858846664,0.029471267014741898,-0.014239111915230751
1782838083141969000,3.500968994140625,0.003565003164112568,0.031328339129686356,0.0011092070490121841
1782838083151898000,3.510898193359375,0.01164103951305151,0.011994321830570698,0.013425794430077076
1782838083161828000,3.520828125,0.015896931290626526,-0.011242886073887348,0.014049563556909561
1782838083171757000,3.530757080078125,0.019931621849536896,-0.02674487978219986,0.017700757831335068
1782838083181686000,3.54068603515625,0.012202790006995201,-0.009239161387085915,0.022343846037983894
1782838083191615200,3.550615234375,0.005190687254071236,0.017966095358133316,0.028117047622799873
1782838083201545000,3.560544921875,-0.00011730846017599106,0.037651725113391876,0.024516351521015167
1782838083211474000,3.570473876953125,0.00019827578216791153,0.025072015821933746,0.010219171643257141
1782838083221403100,3.580403076171875,0.0034865587949752808,-0.024049201980233192,-0.006383629981428385
1782838083231333000,3.5903330078125,0.006951864343136549,-0.054448921233415604,-0.006467785686254501
1782838083241262000,3.600261962890625,0.0032651154324412346,-0.035094525665044785,0.009869921021163464
1782838083251191000,3.61019091796875,-0.00229742843657732,0.013128930702805519,0.02012016251683235
1782838083261121000,3.62012109375,-0.0013485532253980637,0.05478428676724434,0.019573939964175224
1782838083271050000,3.630050048828125,-0.0078112464398145676,0.06799249351024628,-0.0002730023115873337
1782838083280979000,3.63997900390625,-0.011704521253705025,0.033748507499694824,-0.023017197847366333
1782838083290908200,3.649908203125,-0.005720016546547413,-0.010645310394465923,-0.023628171533346176
1782838083300838000,3.659837890625,0.004062712658196688,-0.028180018067359924,-0.004881386645138264
1782838083310766800,3.669766845703125,0.00478203222155571,-0.047195255756378174,0.028129827231168747
1782838083320696000,3.679696044921875,0.002370455302298069,-0.04077750816941261,0.05501455068588257
1782838083330626000,3.6896259765625,0.0015414133667945862,-0.015808507800102234,0.04822136089205742
1782838083340555000,3.699554931640625,0.005375306587666273,0.0001411139965057373,0.015080726705491543
1782838083350484200,3.709484130859375,0.0065963659435510635,0.011357550509274006,-0.016655631363391876
1782838083360414000,3.7194140625,0.005658079404383898,0.011415200307965279,-0.034431274980306625
1782838083370343000,3.729343017578125,0.01703217439353466,0.016969755291938782,-0.031188078224658966
1782838083380271900,3.73927197265625,0.01935030147433281,0.01589145138859749,-0.012338533997535706
1782838083390201000,3.749201171875,0.021501336246728897,0.001955663785338402,0.011892768554389477
1782838083400131000,3.759131103515625,0.014655737206339836,-0.016857564449310303,0.021824605762958527
1782838083410060000,3.76906005859375,0.0010701538994908333,-0.025366898626089096,0.016333434730768204
1782838083419989000,3.778989013671875,-0.004798678681254387,-0.05135706439614296,-0.019580919295549393
1782838083429919000,3.7889189453125,0.00258626788854599,-0.05681974068284035,-0.040947191417217255
1782838083439848000,3.798847900390625,0.01525068748742342,-0.013891602866351604,-0.024621188640594482
1782838083449777200,3.808777099609375,0.025415707379579544,0.021984640508890152,-0.003683417569845915
1782838083459707100,3.81870703125,0.03360763192176819,0.033062830567359924,0.012590451166033745
1782838083469635800,3.8286357421875,0.022678550332784653,0.025546059012413025,0.011740369722247124
1782838083479565000,3.83856494140625,0.002576639875769615,0.0009788675233721733,0.008525989949703217
1782838083489495000,3.8484951171875,-0.010923455469310284,-0.0006930651143193245,0.013344448059797287
1782838083499424000,3.858424072265625,-0.014505770057439804,0.0038379235193133354,0.014763444662094116
1782838083509353000,3.86835302734375,-0.00374047365039587,0.005180421285331249,0.0087665393948555
1782838083519282200,3.8782822265625,-0.0040141018107533455,-0.010278390720486641,-0.0014530406333506107
1782838083529212000,3.8882119140625,0.0004903683438897133,-0.03290407359600067,-0.009430539794266224
1782838083539140900,3.898140869140625,0.0013289730995893478,-0.00907528679817915,0.0014005070552229881
1782838083549070000,3.908070068359375,-0.0013232696801424026,0.013663314282894135,0.013199908658862114
1782838083559000000,3.918,-0.003983580507338047,0.023067785426974297,0.008746390230953693
1782838083568929000,3.927928955078125,-0.011078507639467716,0.028601301833987236,-0.0035875081084668636
1782838083578858200,3.937858154296875,-0.018854163587093353,0.008739334531128407,-0.02021152153611183
1782838083588788000,3.9477880859375,-0.013125704601407051,-0.026696154847741127,-0.036609672009944916
1782838083598717000,3.957717041015625,-0.009093099273741245,-0.03906688094139099,-0.03200789541006088
1782838083608646000,3.96764599609375,-0.0004852293059229851,-0.01588779129087925,-0.004591182805597782
1782838083618575000,3.9775751953125,0.00533054256811738,0.00652699451893568,0.01941978558897972
1782838083628505000,3.987505126953125,-0.00028579775243997574,0.0233408622443676,0.029570959508419037
1782838083638434000,3.99743408203125,-0.007251182571053505,0.00748414546251297,0.014867600053548813
1782838083648363000,4.007363037109375,-0.012331163510680199,0.00025952327996492386,-0.0037215296179056168
1782838083658293000,4.01729296875,-0.0182790569961071,-0.0029965098947286606,-0.015662070363759995
1782838083668222000,4.027221923828125,-0.01893606036901474,-0.009274112991988659,-0.018671708181500435
1782838083678151200,4.037151123046875,-0.023085538297891617,-0.009266071021556854,-0.012858303263783455
1782838083688081200,4.0470810546875,-0.018992528319358826,-0.009010408073663712,-0.019912216812372208
1782838083698009900,4.057009765625,-0.012395352125167847,-0.010341404005885124,-0.033046137541532516
1782838083707939000,4.06693896484375,-0.0061861928552389145,-0.030326830223202705,-0.04674757272005081
1782838083717869000,4.076869140625,-0.010506623424589634,-0.030529333278536797,-0.03843982145190239
1782838083727798000,4.086798095703125,-0.01815815269947052,-0.00795664731413126,-0.00356918852776289
1782838083737727000,4.09672705078125,-0.014456348493695259,0.015992045402526855,0.022749513387680054
1782838083747656200,4.10665625,-0.008090062066912651,0.038308002054691315,0.04319007322192192
1782838083757586000,4.1165859375,-0.004318002611398697,0.049560949206352234,0.03997395187616348
1782838083767515000,4.126514892578125,0.00009751878678798676,0.034881070256233215,0.021642079576849937
1782838083777444000,4.136444091796875,-0.009551419876515865,0.010413800366222858,-0.006323026493191719
1782838083787374000,4.1463740234375,-0.01295121107250452,-0.016900110989809036,-0.03163823485374451
1782838083797303000,4.156302978515625,-0.012493221089243889,-0.026600975543260574,-0.04057939723134041
1782838083807232300,4.166232177734375,-0.010158693417906761,-0.047432221472263336,-0.04164519160985947
1782838083817162000,4.176161865234375,-0.006025935523211956,-0.05578700453042984,-0.031069129705429077
1782838083827091000,4.186091064453125,-0.005961221642792225,-0.04439719766378403,-0.00842746626585722
1782838083837020000,4.19602001953125,-0.015599926933646202,-0.020035095512866974,0.007861357182264328
1782838083846950100,4.2059501953125,-0.011710911989212036,0.022201839834451675,0.014639634639024734
1782838083856879000,4.215879150390625,-0.004757908172905445,0.059061937034130096,0.00889526680111885
1782838083866808000,4.22580810546875,-0.0006766133010387421,0.05299206078052521,-0.002144068479537964
1782838083876737000,4.235737060546875,0.0036280713975429535,0.012937122955918312,-0.013976860791444778
1782838083886667000,4.2456669921875,0.002162001095712185,-0.023465093225240707,0.0007062116637825966
1782838083896596000,4.255595947265625,-0.008035870268940926,-0.04116138070821762,0.02974538505077362
1782838083906525200,4.265525146484375,-0.007071007043123245,-0.037932299077510834,0.04671691358089447
1782838083916455000,4.275454833984375,0.009382219053804874,-0.015200545080006123,0.05192328989505768
1782838083926383900,4.2853837890625,0.009963586926460266,0.007676274515688419,0.033736031502485275
1782838083936312800,4.295312744140625,0.00917260255664587,0.010455706156790257,0.015565254725515842
1782838083946242800,4.305242919921875,0.0050878459587693214,0.019932564347982407,0.004475852474570274
1782838083956172000,4.315172119140625,0.0014649396762251854,0.03216646611690521,0.012881963513791561
1782838083966101000,4.32510107421875,0.0008524125441908836,0.024519197642803192,0.032624777406454086
1782838083976030700,4.33503076171875,-0.00465424545109272,0.003965476527810097,0.0481937900185585
1782838083985960000,4.3449599609375,-0.005402859300374985,-0.023862158879637718,0.032436396926641464
1782838083995889000,4.354888916015625,-0.004427892155945301,-0.04146711528301239,0.003434247337281704
1782838084005819000,4.36481884765625,-0.006841248832643032,-0.03199957311153412,-0.007138235494494438
1782838084015747800,4.374747802734375,0.0005664927884936333,-0.013043824583292007,0.0017285896465182304
1782838084025677000,4.384677001953125,0.01754254661500454,-0.009700225666165352,0.007575559429824352
1782838084035606000,4.39460595703125,0.03476304933428764,-0.006989157292991877,0.008342735469341278
1782838084045535700,4.40453564453125,0.03954395651817322,0.0008392045274376869,0.011818693950772285
1782838084055465000,4.41446484375,0.0315883532166481,0.0006675710901618004,0.015269194729626179
1782838084065394000,4.424393798828125,0.014815496280789375,-0.009489192627370358,0.0058216312900185585
1782838084075324000,4.434323974609375,-0.0012187520042061806,-0.01601099595427513,-0.009405303746461868
1782838084085253000,4.444253173828125,-0.012544908560812473,-0.025710761547088623,-0.01880679465830326
1782838084095181800,4.454181884765625,-0.004197417758405209,-0.024875907227396965,-0.015304023399949074
1782838084105111800,4.46411181640625,0.015215429477393627,-0.005326441023498774,-0.004885470494627953
1782838084115041000,4.474041015625,0.029254816472530365,0.008977929130196571,-0.004731540102511644
1782838084124970000,4.483969970703125,0.03025802969932556,0.008446894586086273,-0.009430155158042908
1782838084134900000,4.49389990234375,0.009719140827655792,0.002954784780740738,-0.009586060419678688
1782838084144828700,4.50382861328125,-0.016724184155464172,-0.002919349819421768,0.0021915026009082794
1782838084154758000,4.5137578125,-0.025717083364725113,-0.011765750125050545,0.013708195649087429
1782838084164688000,4.52368798828125,-0.016275376081466675,0.005124017596244812,0.02295282483100891
1782838084174616800,4.533616943359375,-0.003079598769545555,0.033080533146858215,0.02660416066646576
1782838084184546000,4.543546142578125,0.001030190847814083,0.03610322251915932,0.021269049495458603
1782838084194475000,4.55347509765625,-0.005126061849296093,0.021263357251882553,0.0037807216867804527
1782838084204404700,4.56340478515625,-0.01274882722645998,-0.00042515993118286133,-0.015914686024188995
1782838084214334000,4.573333984375,-0.011267980560660362,-0.016911018639802933,-0.030047576874494553
1782838084224263000,4.583262939453125,-0.006835682317614555,-0.024560416117310524,-0.03225560113787651
1782838084234193000,4.59319287109375,0.0009074034169316292,-0.022080618888139725,-0.026715271174907684
1782838084244121900,4.603121826171875,0.0011976882815361023,-0.002365768887102604,-0.0127011863514781
1782838084254051000,4.613051025390625,-0.0010013887658715248,0.011312960647046566,-0.0006183707155287266
1782838084263980800,4.622980712890625,-0.0013260282576084137,0.015455241315066814,-0.007265354506671429
1782838084273909800,4.63290966796875,-0.005602977238595486,-0.0026964321732521057,-0.026830341666936874
1782838084283839000,4.6428388671875,-0.0022985273972153664,-0.02485659532248974,-0.04233686253428459
1782838084293769000,4.65276904296875,0.0057218484580516815,-0.03171876072883606,-0.023599127307534218
1782838084303698000,4.662697998046875,0.012303585186600685,-0.03389136865735054,0.006905784830451012
1782838084313627000,4.672626953125,0.01645948737859726,-0.026157040148973465,0.024356504902243614
1782838084323556900,4.682556884765625,0.006061174441128969,-0.011500067077577114,0.025908062234520912
1782838084333485800,4.69248583984375,-0.002615976147353649,-0.011751445941627026,0.007984630763530731
1782838084343415000,4.7024150390625,-0.002993346191942692,-0.0037230802699923515,-0.011923562735319138
1782838084353345000,4.712344970703125,-0.004344651475548744,0.020481429994106293,-0.017419546842575073
1782838084363274000,4.72227392578125,0.00792426522821188,0.017053676769137383,-0.012999232858419418
1782838084373202700,4.73220263671875,0.02239552140235901,0.010219089686870575,0.006094898097217083
1782838084383133000,4.7421328125,0.02986142598092556,-0.016260188072919846,0.027199119329452515
1782838084393062000,4.752061767578125,0.031651820987463,-0.04890407621860504,0.043130043894052505
1782838084402990800,4.761990966796875,0.03154156729578972,-0.044177766889333725,0.03896353021264076
1782838084412920000,4.771920166015625,0.024971775710582733,-0.01936320587992668,0.016722317785024643
1782838084422849800,4.781849853515625,0.020099522545933723,0.004884609952569008,-0.0009312452748417854
1782838084432778800,4.79177880859375,0.013669786974787712,0.040517352521419525,-0.0035284804180264473
1782838084442708000,4.8017080078125,0.009473443031311035,0.046042874455451965,0.0074274977669119835
1782838084452638000,4.811637939453125,0.01755371317267418,0.04537618160247803,0.0327187106013298
1782838084462567000,4.82156689453125,0.024280326440930367,0.030366338789463043,0.05975405499339104
1782838084472495900,4.831495849609375,0.03415559232234955,-0.0014235498383641243,0.07122722268104553
1782838084482425900,4.84142578125,0.032747846096754074,-0.03457031771540642,0.0632031112909317
1782838084492354800,4.851354736328125,0.0224334504455328,-0.05671972036361694,0.04710220545530319
1782838084502283800,4.86128369140625,-0.00011260434985160828,-0.05910351127386093,0.02447545900940895
1782838084512214000,4.871214111328125,-0.015295551158487797,-0.03222537413239479,0.0036743609234690666
1782838084522143000,4.88114306640625,-0.01776164025068283,0.012174314819276333,-0.004401142708957195
1782838084532072000,4.891072021484375,-0.020276442170143127,0.03743109852075577,-0.014389043673872948
1782838084542002000,4.901001953125,-0.01824711263179779,0.025797344744205475,-0.019138790667057037
1782838084551931000,4.910930908203125,-0.019782181829214096,0.004334047436714172,-0.018903974443674088
1782838084561859800,4.92085986328125,-0.01872197538614273,-0.02222592383623123,-0.001980118453502655
1782838084571790000,4.9307900390625,-0.009898219257593155,-0.01169696543365717,0.02463557943701744
1782838084581719000,4.940718994140625,-0.0030440418049693108,0.004556306637823582,0.0401008203625679
1782838084591647700,4.950647705078125,-0.0029292600229382515,0.008866633288562298,0.0433402918279171
1782838084601578000,4.960577880859375,-0.010462276637554169,-0.0017724288627505302,0.02500282973051071
1782838084611507000,4.9705068359375,-0.020480584353208542,-0.023411255329847336,-0.0020525194704532623
1782838084621436000,4.980435791015625,-0.028370730578899384,-0.044518403708934784,-0.02929346077144146
1782838084631364900,4.99036474609375,-0.02604527585208416,-0.025479894131422043,-0.03264187276363373
1782838084641294800,5.000294921875,-0.009645264595746994,0.008350771851837635,-0.021175632253289223
1782838084651223800,5.010223876953125,0.009530417621135712,0.021742437034845352,-0.008839640766382217
1782838084661152800,5.02015283203125,0.029151257127523422,0.02997427061200142,0.0072413245216012
1782838084671083000,5.0300830078125,0.033731114119291306,0.01551160030066967,0.019794153049588203
1782838084681012000,5.040011962890625,0.02738027274608612,-0.02216440439224243,0.017232192680239677
1782838084690941000,5.04994091796875,0.019311096519231796,-0.030722294002771378,0.01798414997756481
1782838084700871000,5.059870849609375,0.016884690150618553,-0.021372467279434204,0.011796826496720314
1782838084710800000,5.0697998046875,0.01610284298658371,-0.00570468557998538,0.003642602823674679
1782838084720728800,5.079728759765625,0.018344957381486893,0.00802524108439684,-0.009224992245435715
1782838084730659000,5.0896591796875,0.01851259544491768,0.012981797568500042,-0.01763470284640789
1782838084740588000,5.099588134765625,0.013664576224982738,0.002494269050657749,-0.020769242197275162
1782838084750517000,5.10951708984375,0.018282122910022736,-0.0012842090800404549,-0.008771169930696487
1782838084760446700,5.11944677734375,0.013879385776817799,0.014673184603452682,0.013440659269690514
1782838084770376000,5.1293759765625,0.014997372403740883,0.022166306152939796,0.041050706058740616
1782838084780305000,5.139304931640625,0.015597382560372353,0.035220593214035034,0.06275680661201477
1782838084790235000,5.14923486328125,0.005383647978305817,0.0151428347453475,0.05791551247239113
1782838084800164000,5.1591640625,-0.00196907389909029,-0.0020358851179480553,0.03354838863015175
1782838084810092800,5.1690927734375,-0.005739938467741013,-0.0037569357082247734,-0.0030409852042794228
1782838084820022800,5.179022705078125,-0.0015478571876883507,-0.012146958149969578,-0.03270620107650757
1782838084829952000,5.188951904296875,-0.0009847786277532578,-0.006698228418827057,-0.04179511219263077
1782838084839881000,5.198880859375,-0.005796576850116253,0.005028201267123222,-0.019443200901150703
1782838084849811000,5.20881103515625,-0.007094669155776501,0.018580222502350807,0.008529404178261757
1782838084859740000,5.218739990234375,-0.00865714717656374,0.021395985037088394,0.0227485541254282
1782838084869668900,5.2286689453125,-0.021267296746373177,0.0034396378323435783,0.006597142666578293
1782838084879598800,5.238598876953125,-0.03532399237155914,-0.031999845057725906,-0.0308370478451252
1782838084889527800,5.24852783203125,-0.04280947893857956,-0.0662812888622284,-0.06261012703180313
1782838084899457000,5.25845703125,-0.03324580192565918,-0.05351942032575607,-0.07746922969818115
1782838084909386800,5.26838671875,-0.013217308558523655,-0.022732891142368317,-0.059371430426836014
1782838084919315700,5.278315673828125,-0.004804383032023907,0.032574307173490524,-0.008407051675021648
1782838084929245700,5.28824560546875,-0.00853872112929821,0.0490766279399395,0.04294929280877113
1782838084939175700,5.29817578125,-0.011233573779463768,0.04167996719479561,0.06552676856517792
1782838084949104600,5.308104736328125,-0.007663644850254059,0.014555428177118301,0.05802854895591736
1782838084959033600,5.31803369140625,-0.0014925682917237282,0.0013956846669316292,0.03805723786354065
1782838084968963600,5.327963623046875,0.008961422368884087,-0.0024271998554468155,0.02650611847639084
1782838084978892500,5.337892578125,0.010261311195790768,0.003108711913228035,0.012530648149549961
1782838084988821800,5.34782177734375,0.008285523392260075,0.009554841555655003,0.0005030222237110138
1782838084998751700,5.357751708984375,0.008960900828242302,0.00044150371104478836,-0.012775499373674393
1782838085008680700,5.3676806640625,0.002859247848391533,-0.017365625128149986,-0.023746319115161896
1782838085018609700,5.377609619140625,-0.0034364648163318634,-0.03543490543961525,-0.026386573910713196
1782838085028538600,5.38753857421875,0.0002490067854523659,-0.03329349309206009,-0.01442697923630476
1782838085038468600,5.397468505859375,0.010183129459619522,-0.015383200719952583,0.00039777345955371857
1782838085048397600,5.4073974609375,0.014469715766608715,0.017457589507102966,0.019452597945928574
1782838085058323700,5.41732373046875,0.01221135538071394,0.02772487699985504,0.03664889559149742
1782838085068252700,5.427252685546875,0.0073405178263783455,0.013367488980293274,0.04071008786559105
1782838085078182700,5.4371826171875,0.010432980954647064,-0.004551855847239494,0.03883282467722893
1782838085088111600,5.447111572265625,0.019754065200686455,-0.009846670553088188,0.03627147153019905
1782838085098040600,5.45704052734375,0.03578576073050499,-0.0017972663044929504,0.03528290614485741
1782838085107970800,5.466970703125,0.039247967302799225,0.0067726364359259605,0.03235602751374245
1782838085117899800,5.476899658203125,0.025990217924118042,0.015484369359910488,0.0338633768260479
1782838085127828500,5.486828369140625,0.004964959342032671,0.010358677245676517,0.028383949771523476
1782838085137758700,5.4967587890625,-0.012288596481084824,-0.004984858445823193,0.012313371524214745
1782838085147687700,5.506687744140625,-0.0144583098590374,-0.03967410698533058,-0.018899768590927124
1782838085157616600,5.51661669921875,-0.014797864481806755,-0.05563603341579437,-0.030286645516753197
1782838085167546600,5.526546630859375,-0.01530514843761921,-0.04403449594974518,-0.016513798385858536
1782838085177475600,5.5364755859375,-0.0133218914270401,-0.02708773873746395,0.008658667095005512
1782838085187404500,5.546404541015625,-0.006716147065162659,-0.014041467569768429,0.02309868484735489
1782838085197334800,5.556334716796875,-0.000986357219517231,-0.0011480394750833511,0.01997746154665947
1782838085207263700,5.566263671875,0.01028513815253973,0.010578039102256298,0.027165744453668594
1782838085217192700,5.576192626953125,0.005809962283819914,0.005312968976795673,0.04243125021457672
1782838085227122400,5.586122314453125,0.002484758384525776,-0.004620726220309734,0.05449831858277321
1782838085237051600,5.5960517578125,0.0035188645124435425,-0.006627684459090233,0.0567883737385273
1782838085246980600,5.605980712890625,0.006021816283464432,-0.0008846446871757507,0.054687678813934326
1782838085256910600,5.61591064453125,-0.0008656512945890427,-0.004177110269665718,0.031287819147109985
1782838085266839800,5.62583984375,-0.013452920131385326,-0.012734176591038704,-0.010536274872720242
1782838085276768800,5.635768798828125,-0.020494583994150162,-0.02468724176287651,-0.0423959381878376
1782838085286698500,5.645698486328125,-0.030277535319328308,-0.034636396914720535,-0.0489690862596035
1782838085296627700,5.655627685546875,-0.023769300431013107,-0.03118547424674034,-0.02579958736896515
1782838085306556700,5.665556640625,-0.008294424042105675,-0.03528521955013275,-0.0006757564842700958
1782838085316486700,5.675486572265625,0.0057508209720253944,-0.023974508047103882,0.021152842789888382
1782838085326415600,5.68541552734375,0.005547089036554098,-0.010942860506474972,0.030923714861273766
1782838085336344800,5.6953447265625,-0.002519626170396805,-0.011643005535006523,0.019008997827768326
1782838085346274600,5.705274658203125,-0.018117647618055344,-0.009838170371949673,0.015167608857154846
1782838085356203500,5.71520361328125,-0.02482375130057335,0.001545512117445469,0.01758602447807789
1782838085366132700,5.7251328125,-0.019057001918554306,-0.015017358586192131,0.02220303751528263
1782838085376062700,5.735062744140625,-0.009037922136485577,-0.00642253877595067,0.017850100994110107
1782838085385991700,5.74499169921875,-0.003629411570727825,-0.0036193598061800003,-0.0015203463844954967
1782838085395920600,5.754920654296875,0.005326266400516033,0.005911028012633324,-0.021497517824172974
1782838085405850600,5.7648505859375,0.0041482821106910706,-0.002280939370393753,-0.04229079931974411
1782838085415779600,5.774779541015625,-0.0017713923007249832,-0.0024340711534023285,-0.03580440208315849
1782838085425708800,5.784708740234375,-0.011006169952452183,0.0021071508526802063,-0.017569206655025482
1782838085435638800,5.794638671875,-0.012440281920135021,0.019902657717466354,-0.00034867366775870323
1782838085445567500,5.8045673828125,-0.00789066031575203,0.01987268403172493,0.004142993129789829
1782838085455496400,5.814496337890625,-0.0017890911549329758,-0.0032310374081134796,-0.0004285890609025955
1782838085465426700,5.8244267578125,-0.0013065459206700325,-0.030624471604824066,-0.014723654836416245
1782838085475355600,5.834355712890625,0.006444850470870733,-0.03871169313788414,-0.02052748203277588
1782838085485284600,5.84428466796875,0.01030961237847805,-0.04917687550187111,-0.02263905107975006
1782838085495214600,5.854214599609375,0.00789918564260006,-0.03990960493683815,-0.012941950000822544
1782838085505143600,5.8641435546875,0.012420806102454662,-0.00021699070930480957,0.009961712174117565
1782838085515072500,5.874072509765625,0.003677115775644779,0.03252524510025978,0.027916479855775833
1782838085525002800,5.884002685546875,-0.0022137919440865517,0.0359586663544178,0.02528335154056549
1782838085534931700,5.893931640625,-0.0026936931535601616,0.035433221608400345,0.02004065364599228
1782838085544860700,5.903860595703125,0.00016550440341234207,0.017344001680612564,0.00929834321141243
1782838085554790700,5.913790771484375,0.019652387127280235,-0.011700967326760292,-0.0017106314189732075
1782838085564719600,5.9237197265625,0.02316673845052719,-0.025949751958251,-0.005852810572832823
1782838085574648600,5.933648681640625,0.010614462196826935,-0.023941995576024055,0.0001680636778473854
1782838085584578800,5.943578857421875,-0.007453209720551968,-0.016786668449640274,0.009297920390963554
1782838085594507800,5.9535078125,-0.008479856885969639,-0.0027579348534345627,0.011248420923948288
1782838085604436700,5.963436767578125,0.00666050985455513,0.010831218212842941,0.0010959431529045105
1782838085614366700,5.97336669921875,0.02784222736954689,0.01967664249241352,-0.0005408357828855515
1782838085624295700,5.983295654296875,0.05095716938376427,0.021342162042856216,0.010635479353368282
1782838085634224600,5.993224609375,0.04659304767847061,0.009438098408281803,0.03479168191552162
1782838085644154600,6.003154541015625,0.018621135503053665,-0.0031899940222501755,0.05558176711201668
1782838085654083800,6.013083740234375,-0.007175573147833347,-0.0067959139123559,0.05006556212902069
1782838085664012500,6.023012451171875,-0.019920337945222855,0.0026507237926125526,0.017885364592075348
1782838085673942500,6.032942626953125,-0.010392880998551846,0.007872650399804115,-0.01958531141281128
1782838085683871700,6.042871826171875,0.006981551647186279,0.0029004206880927086,-0.04720018804073334
1782838085693800700,6.05280078125,0.02190137840807438,0.005574501119554043,-0.046228665858507156
1782838085703732700,6.062732666015625,0.03036220371723175,-0.0006125327199697495,-0.016973134130239487
1782838085713661700,6.07266162109375,0.01862645335495472,-0.013571474701166153,0.02247120812535286
1782838085723591700,6.082591796875,0.010569153353571892,-0.015263264998793602,0.05023087188601494
1782838085733520600,6.092520751953125,-0.005355484783649445,-0.015897363424301147,0.04469309374690056
1782838085743449600,6.10244970703125,-0.017408285290002823,-0.02638019248843193,0.013771634548902512
1782838085753379600,6.112379638671875,-0.019778762012720108,-0.00910932570695877,-0.017261382192373276
1782838085763308800,6.122308837890625,-0.024754272773861885,0.014972795732319355,-0.026173464953899384
1782838085773237800,6.13223779296875,-0.02038695476949215,0.02840471640229225,-0.014796974137425423
1782838085783167500,6.14216748046875,-0.008479246869683266,0.0337497740983963,0.015053404495120049
1782838085793096400,6.152096435546875,0.0002348814159631729,0.012789100408554077,0.03258046507835388
1782838085803025700,6.162025634765625,-0.002238830551505089,-0.01066297385841608,0.03221002593636513
1782838085812955600,6.17195556640625,-0.01148426067084074,-0.03176026791334152,0.009004837833344936
1782838085822884600,6.181884521484375,-0.013428371399641037,-0.03698073327541351,-0.015853706747293472
1782838085832813800,6.191813720703125,-0.008474359288811684,-0.010602124966681004,-0.026152417063713074
1782838085842743600,6.20174365234375,0.0010752864181995392,0.01941133663058281,-0.02347681112587452
1782838085852672500,6.211672607421875,0.0167237538844347,0.03276336193084717,-0.007687195669859648
1782838085862601700,6.221601806640625,0.019392987713217735,0.025143995881080627,0.018986856564879417
1782838085872531700,6.23153173828125,0.024802666157484055,-0.006161195691674948,0.034195370972156525
1782838085882460700,6.241460693359375,0.022354010492563248,-0.03905614838004112,0.025336917489767075
1782838085892389600,6.2513896484375,0.015555228106677532,-0.047258950769901276,0.004316322505474091
1782838085902319600,6.261319580078125,0.0007579522207379341,-0.04595327749848366,-0.013995205983519554
1782838085912248600,6.27124853515625,-0.000925164669752121,-0.030606012791395187,-0.021571898832917213
1782838085922177500,6.281177490234375,0.003106635995209217,0.009732410311698914,-0.01636165753006935
1782838085932107300,6.291107177734375,0.018997717648744583,0.025144122540950775,-0.00654364749789238
1782838085942036200,6.3010361328125,0.04106898605823517,0.030368052423000336,0.0022480906918644905
1782838085951966200,6.31096630859375,0.05299888551235199,0.014897217974066734,0.010865813121199608
1782838085961895200,6.320895263671875,0.048633936792612076,-0.011694681830704212,0.01976960152387619
1782838085971824000,6.33082421875,0.02428385615348816,-0.02435375191271305,0.023900166153907776
1782838085981754400,6.34075439453125,0.00753741106018424,-0.022429564967751503,0.02443629503250122
1782838085991683300,6.350683349609375,-0.0025506429374217987,-0.020924879238009453,0.012131157331168652
1782838086001612300,6.3606123046875,-0.004482469521462917,-0.005650210659950972,-0.0045244935899972916
1782838086011542000,6.3705419921875,0.0048606982454657555,0.01768840104341507,-0.02077164128422737
1782838086021471200,6.38047119140625,0.013125227764248848,0.023616459220647812,-0.03390113264322281
1782838086031400200,6.390400146484375,0.013037078082561493,-0.0055459532886743546,-0.04036276042461395
1782838086041330200,6.400330078125,0.0039037554524838924,-0.03251520171761513,-0.01822098344564438
1782838086051259400,6.41025927734375,-0.009669310413300991,-0.03968815878033638,0.013513776473701
1782838086061188000,6.42018798828125,-0.013344259932637215,-0.038759779185056686,0.043728362768888474
1782838086071118000,6.4301181640625,-0.014406062662601471,-0.022643927484750748,0.050233934074640274
1782838086081047300,6.44004736328125,-0.001114439219236374,-0.0006544739007949829,0.04082715883851051
1782838086090976300,6.449976318359375,0.011199751868844032,0.0241004079580307,0.031742583960294724
1782838086100906200,6.45990625,0.008523279801011086,0.024620801210403442,0.012971429154276848
1782838086110835200,6.469835205078125,0.0029069390147924423,0.026911918073892593,0.003683389164507389
1782838086120764200,6.47976416015625,-0.009614711627364159,0.025851573795080185,0.020537931472063065
1782838086130694100,6.489694091796875,-0.018513131886720657,0.020490631461143494,0.043462157249450684
1782838086140623000,6.499623046875,-0.005626026540994644,-0.0018737111240625381,0.03530820831656456
1782838086150552300,6.50955224609375,0.011323129758238792,-0.0239688940346241,0.010194332338869572
1782838086160482000,6.51948193359375,0.022522255778312683,-0.017921388149261475,-0.0011416785418987274
1782838086170411000,6.529410888671875,0.017354123294353485,-0.01515329722315073,0.003229367546737194
1782838086180340200,6.53934033203125,0.008516205474734306,-0.01819869689643383,0.009407736361026764
1782838086190270200,6.549270263671875,0.005917493253946304,-0.014836455695331097,0.004045727662742138
1782838086200199200,6.55919921875,0.014754185453057289,0.009099908173084259,-0.0020778346806764603
1782838086210128400,6.56912841796875,0.027543749660253525,0.03710091859102249,-0.00014491192996501923
1782838086220058000,6.57905810546875,0.032745979726314545,0.03633573651313782,-0.0035249879583716393
1782838086229987000,6.588987060546875,0.03553058207035065,0.02022095024585724,0.0018173130229115486
1782838086239916000,6.598916015625,0.0270384568721056,0.0012425398454070091,0.017365237697958946
1782838086249846300,6.60884619140625,0.009519384242594242,-0.014962262474000454,0.026932375505566597
1782838086259775200,6.618775146484375,-0.002169067971408367,-0.027780653908848763,0.020248165354132652
1782838086269705200,6.628705322265625,-0.003485468216240406,-0.03226328641176224,-0.003447044175118208
1782838086279634200,6.63863427734375,0.004769565537571907,-0.03437693044543266,-0.03595170006155968
1782838086289563100,6.648563232421875,0.01101254764944315,-0.022222796455025673,-0.048700787127017975
1782838086299493400,6.658493408203125,0.004587117582559586,0.0010927524417638779,-0.03455675393342972
1782838086309422300,6.66842236328125,-0.005728636868298054,-0.003649539314210415,-0.011803504079580307
1782838086319351300,6.678351318359375,-0.009301026351749897,-0.021574242040514946,0.0034233005717396736
1782838086329281000,6.688281005859375,-0.012726382352411747,-0.022671198472380638,0.011745944619178772
1782838086339210200,6.698210205078125,-0.017402106896042824,-0.024824844673275948,0.01150572020560503
1782838086349139200,6.70813916015625,-0.015865197405219078,-0.011523686349391937,0.003856589086353779
1782838086359069200,6.718069091796875,-0.014327521435916424,0.011575400829315186,-0.003951025195419788
1782838086368998400,6.727998291015625,-0.011995124630630016,0.03134298324584961,-0.008644313551485538
1782838086378927000,6.737927001953125,-0.007600967772305012,0.02084585465490818,-0.014043519273400307
1782838086388857000,6.747857177734375,-0.010762139223515987,-0.000834939070045948,-0.011024292558431625
1782838086398786300,6.757786376953125,-0.01911148428916931,-0.011910047382116318,-0.0033079013228416443
1782838086408715300,6.76771533203125,-0.0179080031812191,-0.013737774454057217,-0.0005414094775915146
1782838086418645200,6.777645263671875,-0.00529821403324604,-0.0009164633229374886,-0.00658013578504324
1782838086428574200,6.78757421875,0.0067853475920856,0.018501441925764084,-0.011656120419502258
1782838086438504200,6.797504150390625,0.009100455790758133,0.01887710765004158,-0.0008833520114421844
1782838086448433200,6.80743310546875,-0.003750894218683243,0.0027042627334594727,0.016512680798768997
1782838086458362000,6.817362060546875,-0.015290449373424053,-0.023223506286740303,0.029209710657596588
1782838086468292400,6.827292236328125,-0.01340972539037466,-0.038592610508203506,0.040493257343769073
1782838086478221000,6.837220947265625,-0.002998853102326393,-0.02049131691455841,0.03850364312529564
1782838086488150000,6.84714990234375,-0.0000033294782042503357,0.006531245075166225,0.022955041378736496
1782838086498080300,6.857080322265625,0.0006893938407301903,0.02412167191505432,0.004235776141285896
1782838086508009200,6.86700927734375,-0.01101013831794262,0.02242417261004448,-0.0035957815125584602
1782838086517938200,6.876938232421875,-0.025391926988959312,0.008989227004349232,0.0026295529678463936
1782838086527868200,6.8868681640625,-0.019321782514452934,-0.01595686748623848,0.014179683290421963
1782838086537797000,6.896797119140625,-0.0029091956093907356,-0.014027664437890053,0.022678541019558907
1782838086547726000,6.90672607421875,0.013307325541973114,0.004781709052622318,0.021223124116659164
1782838086557656300,6.91665625,0.01580999046564102,0.0045204320922493935,0.003464500419795513
1782838086567585300,6.926585205078125,0.0029509160667657852,0.007382798008620739,-0.009347967803478241
1782838086577514200,6.93651416015625,-0.011070764623582363,0.02613966539502144,-0.013203997164964676
1782838086587444200,6.9464443359375,-0.01908661425113678,0.028524793684482574,-0.008136800490319729
1782838086597373200,6.956373291015625,-0.020117660984396935,0.015476729720830917,-0.006446994375437498
1782838086607302100,6.96630224609375,-0.023475905880331993,-0.011006010696291924,-0.003305529709905386
1782838086617232100,6.976232177734375,-0.021550433710217476,-0.04311193898320198,-0.007994617335498333
1782838086627161300,6.986161376953125,-0.013306085020303726,-0.05501919984817505,-0.006043852306902409
1782838086637091000,6.996091064453125,-0.003909849561750889,-0.03756621479988098,-0.0029410836286842823
1782838086647020000,7.00602001953125,-0.0014288490638136864,-0.012730641290545464,0.010769401676952839
1782838086656949200,7.01594921875,-0.007773308083415031,0.005307534709572792,0.01992827281355858
1782838086666879200,7.025879150390625,-0.018804920837283134,0.0036268141120672226,0.024313166737556458
1782838086676808200,7.03580810546875,-0.027388207614421844,-0.0038462504744529724,0.016678808256983757
1782838086686737400,7.0457373046875,-0.025346629321575165,-0.012871969491243362,0.0031384993344545364
1782838086696667100,7.055667236328125,-0.016527708619832993,-0.005632603075355291,-0.004865867085754871
1782838086706596000,7.06559619140625,-0.004103264771401882,0.00762993935495615,-0.00786964688450098
1782838086716525000,7.075525146484375,0.010350382886826992,0.021322093904018402,-0.0073644062504172325
1782838086726455300,7.085455322265625,0.012849759310483932,0.007431842386722565,-0.0022370219230651855
1782838086736384300,7.09538427734375,0.002848108299076557,-0.017335545271635056,-0.002710313070565462
1782838086746313200,7.105313232421875,-0.013960165902972221,-0.05633487552404404,-0.0016469131223857403
1782838086756243200,7.1152431640625,-0.03306632488965988,-0.06461230665445328,0.010214860551059246
1782838086766172200,7.125172119140625,-0.05100005120038986,-0.04870631545782089,0.018862679600715637
1782838086776101000,7.13510107421875,-0.04555719718337059,-0.02164274826645851,0.02694009244441986
1782838086786031400,7.14503125,-0.030944697558879852,-0.0056254323571920395,0.02050722762942314
1782838086795960000,7.1549599609375,-0.01657792739570141,-0.015198932960629463,0.006694069132208824
1782838086805890000,7.16489013671875,-0.01544262282550335,-0.02702895924448967,0.006375554949045181
1782838086815819300,7.1748193359375,-0.02388804964721203,-0.020720679312944412,0.00686050858348608
1782838086825748200,7.184748291015625,-0.02749956212937832,-0.02792106568813324,0.011185748502612114
1782838086835678200,7.19467822265625,-0.02631494216620922,-0.032893404364585876,0.01163106132298708
1782838086845607200,7.204607177734375,-0.024848075583577156,-0.03677922114729881,0.0042780740186572075
1782838086855536000,7.2145361328125,-0.01389249972999096,-0.015655994415283203,-0.00013715028762817383
1782838086865466000,7.224466064453125,-0.009882045909762383,0.0001868847757577896,-0.007328217849135399
1782838086875395300,7.234395263671875,-0.0022318027913570404,-0.011599543504416943,-0.010719917714595795
1782838086885324300,7.24432421875,-0.001272532157599926,-0.019950684159994125,-0.00216211611405015
1782838086895254000,7.25425390625,-0.009744696319103241,-0.01119155716150999,0.019537100568413734
1782838086905183000,7.264182861328125,-0.01846734806895256,-0.0228348970413208,0.035380780696868896
1782838086915112200,7.2741123046875,-0.01951504498720169,-0.010206665843725204,0.030347663909196854
1782838086925042200,7.284042236328125,-0.020435437560081482,-0.013707125559449196,0.010068490169942379
1782838086934971400,7.293971435546875,-0.009746920317411423,-0.0161984171718359,-0.019071213901042938
1782838086944901400,7.3039013671875,0.0028543593361973763,-0.013651103712618351,-0.03900497406721115
1782838086954830300,7.313830322265625,0.008013283833861351,0.004286768846213818,-0.03935995325446129
1782838086964759300,7.32375927734375,0.01077844388782978,0.017158091068267822,-0.03274013102054596
1782838086974689500,7.333689453125,0.005640154238790274,0.010336884297430515,-0.01311369240283966
1782838086984618500,7.343618408203125,-0.0035469522699713707,-0.007319341879338026,0.005500737577676773
1782838086994547500,7.35354736328125,0.001168576069176197,-0.03448914736509323,0.020786650478839874
1782838087004477400,7.3634775390625,0.013027898035943508,-0.03196819871664047,0.03639064356684685
1782838087014406400,7.373406494140625,0.018346348777413368,-0.015201978385448456,0.03584238886833191
1782838087024335400,7.38333544921875,0.01602274179458618,-0.005044948309659958,0.0178665854036808
1782838087034265600,7.393265625,0.007732448633760214,0.0009472481906414032,0.00023661740124225616
1782838087044194600,7.403194580078125,-0.0020533371716737747,-0.00141976960003376,-0.023671377450227737
1782838087054123500,7.41312353515625,0.006616700440645218,-0.013286666013300419,-0.038512617349624634
1782838087064053500,7.423053466796875,0.02251577191054821,-0.010212579742074013,-0.0321149080991745
1782838087073982500,7.432982421875,0.031285643577575684,0.008619600906968117,-0.010596372187137604
1782838087083912400,7.442912353515625,0.031779658049345016,0.011448943987488747,0.006720034405589104
1782838087093841700,7.452841552734375,0.026118356734514236,0.014057169668376446,0.01456074882298708
1782838087103770400,7.462770263671875,0.019369905814528465,0.012145287357270718,0.01856561005115509
1782838087113700400,7.472700439453125,0.016051702201366425,0.0032907864078879356,0.011042846366763115
1782838087123629300,7.48262939453125,0.013067362830042839,-0.011304933577775955,0.0010384153574705124
1782838087133558500,7.49255859375,0.006511678919196129,-0.007266441360116005,0.00007824506610631943
1782838087143488500,7.502488525390625,-0.0030703749507665634,-0.0029113739728927612,0.004432247020304203
1782838087153417500,7.51241748046875,-0.011720797047019005,0.0032763537019491196,0.002490646205842495
1782838087163346400,7.522346435546875,-0.011825192719697952,-0.009015200659632683,-0.020359542220830917
1782838087173276400,7.5322763671875,-0.00973726250231266,-0.022556491196155548,-0.04414974898099899
1782838087183205400,7.542205322265625,-0.004760613664984703,-0.02436504326760769,-0.0405169315636158
1782838087193135600,7.552135498046875,-0.0008716573938727379,-0.029811877757310867,-0.01726125180721283
1782838087203064300,7.562064208984375,-0.0040141865611076355,-0.01730301044881344,0.009101112373173237
1782838087212993300,7.5719931640625,-0.011016486212611198,-0.003425062634050846,0.034914568066596985
1782838087222923500,7.581923583984375,-0.014151293784379959,0.015531051903963089,0.05143602192401886
1782838087232852500,7.5918525390625,-0.006737235933542252,0.01903820037841797,0.038186121731996536
1782838087242781400,7.601781494140625,0.007174052298069,0.020706404000520706,0.009032497182488441
1782838087252711400,7.61171142578125,0.01758328452706337,0.027368299663066864,-0.0005655353888869286
1782838087262640400,7.621640380859375,0.009137600660324097,0.02241375669836998,0.012463713064789772
1782838087272569300,7.6315693359375,-0.0058354660868644714,-0.010384779423475266,0.011386213824152946
1782838087282499600,7.64149951171875,-0.014336274936795235,-0.040400199592113495,-0.0016515576280653477
1782838087292428500,7.651428466796875,-0.011951159685850143,-0.04230377823114395,-0.009955568239092827
1782838087302357500,7.661357421875,0.0022131288424134254,-0.025431320071220398,-0.01385337021201849
1782838087312287200,7.671287353515625,0.01157041173428297,-0.006910099647939205,-0.013055220246315002
1782838087322216400,7.681216552734375,0.01760966144502163,0.01572197675704956,0.001892036758363247
1782838087332146400,7.691146484375,0.021481409668922424,0.020035959780216217,0.021823503077030182
1782838087342075400,7.701075439453125,0.012699903920292854,0.003667370416224003,0.0210392028093338
1782838087352004600,7.711004638671875,0.0104188472032547,-0.007303926628082991,0.0095619335770607
1782838087361934300,7.720934326171875,0.003134569153189659,-0.012865139171481133,0.012666646391153336
1782838087371863300,7.73086328125,0.0018613580614328384,-0.02195245400071144,0.012540780939161777
1782838087381792500,7.74079248046875,0.00298174936324358,-0.02206164225935936,0.015273717232048512
1782838087391722500,7.750722412109375,0.0016148658469319344,0.0033779488876461983,0.03328728675842285
1782838087401651500,7.7606513671875,0.006113210693001747,0.02326936274766922,0.051789335906505585
1782838087411580700,7.77058056640625,0.011532185599207878,0.028994999825954437,0.046456340700387955
1782838087421510400,7.780510498046875,0.020419420674443245,0.0233624167740345,0.026827778667211533
1782838087431439400,7.790439453125,0.02176849916577339,0.0016462979838252068,0.008383061736822128
1782838087441369600,7.80036962890625,0.01772821880877018,-0.018550049513578415,-0.0038549620658159256
1782838087451298600,7.810298583984375,0.009887166321277618,-0.01665097288787365,-0.004641527775675058
1782838087461227500,7.8202275390625,-0.0056643616408109665,-0.010945416986942291,-0.004014353267848492
1782838087471157500,7.830157470703125,-0.015500263310968876,-0.009111490100622177,0.0007142536342144012
1782838087481086500,7.84008642578125,-0.022392790764570236,-0.004752428270876408,-0.0014815223403275013
1782838087491015400,7.850015380859375,-0.0132244061678648,-0.000530017539858818,-0.0025762072764337063
1782838087500945400,7.8599453125,0.001791827380657196,-0.003005160018801689,-0.00214690575376153
1782838087510874600,7.86987451171875,0.017821766436100006,-0.0017371652647852898,-0.004195996560156345
1782838087520803300,7.87980322265625,0.022226635366678238,-0.001599745824933052,0.002143125981092453
1782838087530733300,7.8897333984375,0.010126328095793724,-0.004249344579875469,0.009089276194572449
1782838087540662500,7.89966259765625,-0.004746893420815468,-0.0029393360018730164,0.014607345685362816
1782838087550592500,7.909592529296875,-0.014217174611985683,-0.005451667122542858,0.01198180578649044
1782838087560521500,7.919521484375,-0.00829616840928793,-0.0025647999718785286,0.009565787389874458
1782838087570450400,7.929450439453125,0.003683541901409626,0.013164572417736053,0.00892956554889679
1782838087580380400,7.93938037109375,0.014968154020607471,0.02878933772444725,0.01488865353167057
1782838087590309400,7.949309326171875,0.01330067403614521,0.03826306015253067,0.019684430211782455
1782838087600238600,7.959238525390625,0.008252918720245361,0.026293214410543442,0.012971132062375546
1782838087610168600,7.96916845703125,0.0017909333109855652,0.006985977292060852,0.005703161470592022
1782838087620097300,7.97909716796875,-0.00964787695556879,-0.021404117345809937,-0.0014335773885250092
1782838087630026200,7.989026123046875,-0.013064881786704063,-0.022951969876885414,0.004080896265804768
1782838087639956500,7.99895654296875,-0.01298711821436882,-0.01088891550898552,0.01598336175084114
1782838087649885400,8.008885498046874,-0.00422745943069458,0.003052252344787121,0.02546314336359501
1782838087659815400,8.0188154296875,0.003940721042454243,0.009875538758933544,0.02299465797841549
1782838087669744400,8.028744384765625,0.013752222061157227,0.02626994624733925,0.01727104000747204
1782838087679673300,8.03867333984375,0.014964226633310318,0.025596965104341507,0.01469123549759388
1782838087689603300,8.048603271484374,0.009376151487231255,0.006522182375192642,-0.0033375415951013565
1782838087699532500,8.058532470703126,0.015553087927401066,-0.006096141412854195,-0.015239741653203964
1782838087709461500,8.06846142578125,0.015345245599746704,-0.015384991653263569,-0.015291359275579453
1782838087719391200,8.07839111328125,0.015524476766586304,-0.016523491591215134,-0.018909530714154243
1782838087729320400,8.088320556640625,0.011029327288269997,-0.013429432176053524,-0.022838225588202477
1782838087739250400,8.09825048828125,0.005655866581946611,-0.002265460789203644,-0.022908532992005348
1782838087749179400,8.108179443359376,-0.004593761637806892,-0.001107080839574337,-0.012666619382798672
1782838087759108600,8.118108642578125,-0.003232354298233986,-0.010892866179347038,-0.009647659957408905
1782838087769038300,8.128038330078125,0.0070573678240180016,-0.00482249865308404,0.007351486943662167
1782838087778967300,8.13796728515625,0.00939748715609312,0.009739666245877743,0.024278538301587105
1782838087788896500,8.147896484375,0.013000087812542915,0.009205074049532413,0.029912423342466354
1782838087798826500,8.157826416015626,0.01067834347486496,0.011637871153652668,0.024611134082078934
1782838087808755500,8.16775537109375,0.010333788581192493,0.01738511025905609,0.01246403343975544
1782838087818685400,8.177685546875,0.007278077304363251,0.014447110705077648,0.0034801261499524117
1782838087828614400,8.187614501953124,0.009624334052205086,0.000044415704905986786,0.002877195365726948
1782838087838543400,8.19754345703125,0.00956334825605154,-0.0015321755781769753,0.015005762688815594
1782838087848473600,8.2074736328125,0.000023568980395793915,-0.01289996225386858,0.028706010431051254
1782838087858402600,8.217402587890625,-0.011320432648062706,-0.015327434055507183,0.028845027089118958
1782838087868331500,8.22733154296875,-0.019863953813910484,-0.011806406080722809,0.0079429280012846
1782838087878261200,8.23726123046875,-0.023596374318003654,0.005628244020044804,-0.010714646428823471
1782838087888190500,8.2471904296875,-0.019791264086961746,0.01322869211435318,-0.022626973688602448
1782838087898119400,8.257119384765625,-0.005888496525585651,0.025713326409459114,-0.013545328751206398
1782838087908049400,8.26704931640625,0.00004571862518787384,0.03231697529554367,0.005095593631267548
1782838087917978600,8.276978515625,0.000014027580618858337,0.01649273931980133,0.01695678010582924
1782838087927908400,8.286908447265626,-0.0077594732865691185,-0.013116552494466305,0.021188810467720032
1782838087937840600,8.296840576171874,-0.019440099596977234,-0.022701801732182503,0.025296200066804886
1782838087947769900,8.306769775390626,-0.029709909111261368,-0.02220960706472397,0.017810363322496414
1782838087957699800,8.316699951171875,-0.03412969410419464,-0.012867236509919167,0.0008297814056277275
1782838087967628800,8.32662890625,-0.02330264449119568,0.009081758558750153,-0.01626567542552948
1782838087977558000,8.33655810546875,-0.010703494772315025,0.0336235836148262,-0.017327211797237396
1782838087987487700,8.34648779296875,0.0033832164481282234,0.03579016402363777,-0.010388809256255627
1782838087997416700,8.356416748046875,0.008192885667085648,0.021546248346567154,0.0041986554861068726
1782838088007347000,8.366346923828125,0.002531766891479492,0.0070454953238368034,0.023343298584222794
1782838088017276000,8.37627587890625,-0.009154983796179295,-0.01506007369607687,0.03230616822838783
1782838088027204900,8.386204833984374,-0.020702214911580086,-0.025738263502717018,0.027980033308267593
1782838088037134800,8.396134765625,-0.026474351063370705,-0.04657696560025215,0.008388490416109562
1782838088047063800,8.406063720703125,-0.023149581626057625,-0.048576563596725464,-0.01116983499377966
1782838088056992800,8.41599267578125,-0.014835460111498833,-0.017721710726618767,-0.014702518470585346
1782838088066922800,8.4259228515625,-0.0018830467015504837,0.016729429364204407,-0.010309673845767975
1782838088076852000,8.43585205078125,0.0029263561591506004,0.03171290457248688,-0.0054041314870119095
1782838088086781700,8.44578173828125,-0.0014391811564564705,0.03555155545473099,0.008974684402346611
1782838088096710700,8.455710693359375,-0.006421956233680248,0.008425396867096424,0.019403357058763504
1782838088106640000,8.465639892578125,-0.0056539298966526985,-0.01792856678366661,0.025475462898612022
1782838088116569900,8.47556982421875,-0.0015097856521606445,-0.02675721049308777,0.036328911781311035
1782838088126498800,8.485498779296876,0.003491985611617565,-0.01843138039112091,0.039113521575927734
1782838088136427800,8.495427734375,0.015016281977295876,0.0046667493879795074,0.030497394502162933
1782838088146357800,8.505357666015625,0.012360199354588985,0.026409443467855453,0.015606305561959743
1782838088156286700,8.51528662109375,-0.0009406916797161102,0.027964998036623,0.001921386457979679
1782838088166217000,8.525217041015624,-0.01807432621717453,0.007101431488990784,-0.0037171277217566967
1782838088176146000,8.53514599609375,-0.026593778282403946,-0.0116006163880229,0.00744098424911499
1782838088186074600,8.54507470703125,-0.013285838067531586,-0.013826390728354454,0.02069237269461155
1782838088196004900,8.5550048828125,0.005103820934891701,-0.018180925399065018,0.030189471319317818
1782838088205933800,8.564933837890624,0.014343198388814926,-0.010942367836833,0.032452210783958435
1782838088215862800,8.57486279296875,0.011818788014352322,0.0014828769490122795,0.031617842614650726
1782838088225792800,8.584792724609375,-0.001493317075073719,0.012502611614763737,0.023878950625658035
1782838088235721700,8.5947216796875,-0.026057783514261246,0.016242220997810364,0.0013054627925157547
1782838088245651700,8.604651611328125,-0.04384347423911095,-0.0025272713974118233,-0.03069126047194004
1782838088255580700,8.61458056640625,-0.051536813378334045,-0.027492275461554527,-0.054903388023376465
1782838088265510000,8.624510009765626,-0.0484471321105957,-0.04144138842821121,-0.054492682218551636
1782838088275439600,8.634439697265625,-0.03337177634239197,-0.04184991866350174,-0.028719674795866013
1782838088285368600,8.64436865234375,-0.014776487834751606,-0.024746321141719818,0.0049297260120511055
1782838088295297800,8.6542978515625,-0.0018028980121016502,0.0077375853434205055,0.036609090864658356
1782838088305227800,8.664227783203126,0.0036246497184038162,0.013843041844666004,0.04787454754114151
1782838088315156700,8.67415673828125,-0.001901409588754177,0.009434445761144161,0.028902718797326088
1782838088325086700,8.684086669921875,-0.024707969278097153,-0.0020247967913746834,0.0003521973267197609
1782838088335015700,8.694015625,-0.04232930392026901,-0.02002004347741604,-0.016983117908239365
1782838088344944600,8.703944580078126,-0.04194885492324829,-0.015992553904652596,-0.020113348960876465
1782838088354875000,8.713875,-0.03075745515525341,-0.005081050097942352,-0.0060489303432404995
1782838088364803800,8.723803955078125,-0.012630986049771309,-0.006122963968664408,-0.007342542987316847
1782838088374732800,8.73373291015625,0.005709937773644924,-0.018717318773269653,-0.003785358741879463
1782838088384662800,8.743662841796874,0.005144697614014149,-0.017354588955640793,0.010671923868358135
1782838088394591700,8.753591796875,0.000014117918908596039,-0.018576979637145996,0.024898264557123184
1782838088404521700,8.763521728515625,0.001299053430557251,-0.01146484725177288,0.031718865036964417
1782838088414451000,8.773450927734375,0.005412038881331682,0.01269747968763113,0.03162911534309387
1782838088424380000,8.7833798828125,0.012445162981748581,0.030471118167042732,0.02285284548997879
1782838088434309600,8.7933095703125,0.01370537094771862,0.028373880311846733,0.009322389960289001
1782838088444238600,8.803238525390626,0.004035522695630789,0.020964812487363815,0.0033874744549393654
1782838088454167800,8.813167724609375,-0.016795722767710686,-0.003592725843191147,0.002361091785132885
1782838088464097800,8.823097900390625,-0.02646656334400177,-0.04595675691962242,-0.000304677989333868
1782838088474026800,8.83302685546875,-0.024760007858276367,-0.05366474390029907,-0.002225350122898817
1782838088483956700,8.842956787109374,-0.017872661352157593,-0.03653876483440399,-0.004839994013309479
1782838088493885700,8.8528857421875,-0.010036840103566647,-0.012538890354335308,-0.005803791806101799
1782838088503814700,8.862814697265625,-0.009155677631497383,0.020198646932840347,-0.00479358434677124
1782838088513745000,8.872744873046875,-0.01196371577680111,0.039796315133571625,0.006362929940223694
1782838088523673900,8.882673828125,-0.021618355065584183,0.03063531592488289,0.023292064666748047
1782838088533602800,8.892602783203126,-0.03045685589313507,-0.002800404094159603,0.030547048896551132
1782838088543532800,8.90253271484375,-0.03130917251110077,-0.028164945542812347,0.024981627240777016
1782838088553461800,8.912461669921875,-0.029101677238941193,-0.043867744505405426,0.018299756571650505
1782838088563391700,8.922391845703125,-0.024042632430791855,-0.0351058766245842,-0.004083899315446615
1782838088573321000,8.932321044921874,-0.018195660784840584,-0.01538943313062191,-0.025259491056203842
1782838088583250000,8.94225,-0.019784126430749893,-0.00029368605464696884,-0.03777206316590309
1782838088593179600,8.9521796875,-0.033328697085380554,0.015184073708951473,-0.03456801548600197
1782838088603108900,8.96210888671875,-0.038364652544260025,0.023110736161470413,-0.03232337906956673
1782838088613037800,8.972037841796874,-0.03497178480029106,-0.0041847992688417435,-0.025880925357341766
1782838088622967800,8.9819677734375,-0.02799125388264656,-0.014813730493187904,0.0007399860769510269
1782838088632896800,8.991896728515625,-0.027517743408679962,-0.019745372235774994,0.02205006778240204
1782838088642826800,9.00182666015625,-0.017009418457746506,-0.026224952191114426,0.033787697553634644
1782838088652755700,9.011755615234375,-0.010924361646175385,-0.01096823439002037,0.03726871311664581
1782838088662684700,9.0216845703125,-0.01429007202386856,0.0030015185475349426,0.03592256084084511
1782838088672615000,9.031614990234376,-0.011545950546860695,0.014214756898581982,0.023737002164125443
1782838088682543900,9.0415439453125,-0.010554799810051918,0.018545687198638916,0.007174339145421982
1782838088692472600,9.05147265625,-0.014755936339497566,0.01953904703259468,-0.01103742141276598
1782838088702402800,9.06140283203125,-0.010683261789381504,0.025206271559000015,-0.015207796357572079
1782838088712331800,9.071331787109376,-0.006367077119648457,0.045724064111709595,-0.0014384547248482704
1782838088722261800,9.08126171875,-0.0054553197696805,0.04597904533147812,0.023589108139276505
1782838088732190700,9.091190673828125,-0.008444451726973057,0.019785523414611816,0.04312020167708397
1782838088742119700,9.10111962890625,-0.010022103786468506,0.00510253943502903,0.0511811338365078
1782838088752049700,9.111049560546874,-0.01624724268913269,0.0026822583749890327,0.048949405550956726
1782838088761979000,9.120978759765626,-0.022760257124900818,0.0013455646112561226,0.04056738317012787
1782838088771908900,9.130908935546875,-0.02716432511806488,0.015092535875737667,0.02444833144545555
1782838088781837800,9.140837890625,-0.015664072707295418,0.02007380872964859,-0.002964314538985491
1782838088791766800,9.150766845703124,-0.007816802710294724,0.020716164261102676,-0.034439414739608765
1782838088801696800,9.16069677734375,-0.002579769119620323,0.011510326527059078,-0.05747348070144653
1782838088811625700,9.170625732421875,-0.005531882867217064,-0.008905465714633465,-0.061642125248909
1782838088821554700,9.1805546875,-0.012224563397467136,-0.026484839618206024,-0.038406819105148315
1782838088831484700,9.190484619140625,-0.019898463040590286,-0.02665102109313011,-0.004719163291156292
1782838088841413600,9.20041357421875,-0.019749611616134644,-0.02178758941590786,0.022454313933849335
1782838088851344000,9.21034375,-0.015509591437876225,0.00856632087379694,0.025171004235744476
1782838088861272800,9.22027294921875,-0.006738516502082348,0.00932326540350914,0.015943847596645355
1782838088871201800,9.230201904296875,-0.005210661329329014,0.011059381067752838,-0.006159057840704918
1782838088881131800,9.2401318359375,-0.0007490795105695724,0.004693944938480854,-0.02110712230205536
1782838088891060700,9.250060791015626,0.011007711291313171,0.00587345939129591,-0.026265397667884827
1782838088900990700,9.25999072265625,0.01717308536171913,-0.007702155038714409,-0.023377224802970886
1782838088910919700,9.269919677734375,0.021879689767956734,-0.012747780419886112,-0.013460945338010788
1782838088920849000,9.279848876953125,0.012286022305488586,-0.017136072739958763,-0.010515542700886726
1782838088930778600,9.289778564453124,0.002651505172252655,-0.010760997422039509,-0.013075906783342361
1782838088940707800,9.299707763671876,-0.007317072711884975,0.001691434532403946,-0.013938636519014835
1782838088950637000,9.309636962890625,-0.016670893877744675,-0.0032913396134972572,-0.01507713831961155
1782838088960567000,9.319567138671875,-0.001398494467139244,-0.02182425558567047,-0.014230347238481045
1782838088970496000,9.32949609375,0.025739649310708046,-0.02379526197910309,0.0006378144025802612
1782838088980426000,9.339426025390624,0.04446227848529816,-0.0198991522192955,0.023469557985663414
1782838088990355000,9.34935498046875,0.055817198008298874,-0.023353539407253265,0.029322652146220207
1782838089000284000,9.359283935546875,0.05462608113884926,-0.019742636010050774,0.028827179223299026
1782838089010214100,9.369214111328125,0.03712831437587738,-0.0015215538442134857,-0.0031179706566035748
1782838089020143000,9.37914306640625,0.018306000158190727,0.0021574879065155983,-0.04990382492542267
1782838089030072800,9.38907275390625,-0.0022855615243315697,-0.008184365928173065,-0.07846090197563171
1782838089040002000,9.399001953125,-0.015827201306819916,-0.021173134446144104,-0.06253813207149506
1782838089049931000,9.408930908203125,-0.019031785428524017,-0.040381718426942825,-0.015655044466257095
1782838089059858200,9.418858154296874,-0.006524235010147095,-0.019762244075536728,0.035943977534770966
1782838089069788000,9.428787841796876,0.007229926530271769,-0.0077537852339446545,0.052716564387083054
1782838089079716900,9.438716796875,0.023308157920837402,-0.004907484631985426,0.02935999259352684
1782838089089646000,9.44864599609375,0.013650203123688698,0.007379274815320969,-0.004287716932594776
1782838089099576000,9.458576171875,-0.00005665794014930725,0.014170537702739239,-0.03597608208656311
1782838089109505000,9.468505126953126,-0.009681056253612041,0.00996913481503725,-0.049068715423345566
1782838089119435000,9.47843505859375,-0.015693217515945435,0.009262959472835064,-0.03305372595787048
1782838089129364000,9.488364013671875,-0.011197802610695362,0.010166305117309093,-0.00625673308968544
1782838089139293000,9.49829296875,-0.01329386979341507,0.003933326341211796,0.006748839281499386
1782838089149223200,9.50822314453125,-0.012830745428800583,-0.021562978625297546,0.0007058605551719666
1782838089159152000,9.518152099609376,-0.004137299954891205,-0.036779098212718964,-0.015073430724442005
1782838089169081900,9.528081787109375,0.0038750870153307915,-0.0400790199637413,-0.03800670802593231
1782838089179011000,9.538010986328125,0.012566165998578072,-0.03531453013420105,-0.053351275622844696
1782838089188940000,9.54793994140625,0.02355996146798134,-0.0024311495944857597,-0.03982188552618027
1782838089198870000,9.5578701171875,0.022820811718702316,0.026171285659074783,-0.004054149147123098
1782838089208799200,9.56779931640625,0.018005549907684326,0.05931193009018898,0.05030522868037224
1782838089218728200,9.577728271484375,0.01949356496334076,0.058131229132413864,0.07133251428604126
1782838089228658000,9.587657958984375,0.021410241723060608,0.05220037326216698,0.05597672611474991
1782838089238587100,9.597587158203124,0.03054945543408394,0.030203834176063538,0.01547672227025032
1782838089248517000,9.60751708984375,0.0419405922293663,-0.004479312337934971,-0.006367589812725782
1782838089258446000,9.617446044921875,0.03721737116575241,-0.024326583370566368,-0.00891458336263895
1782838089268375000,9.627375,0.026664864271879196,-0.030644666403532028,-0.01270133163779974
1782838089278305000,9.637304931640625,0.018000829964876175,-0.012580819427967072,-0.01440760400146246
1782838089288234000,9.64723388671875,0.0017451606690883636,0.026697341352701187,-0.022415729239583015
1782838089298164200,9.657164306640626,-0.003912442363798618,0.05371194705367088,-0.019362062215805054
1782838089308093200,9.66709326171875,-0.012438018806278706,0.05111243948340416,-0.015493553131818771
1782838089318022000,9.67702197265625,-0.011224651709198952,0.03993166983127594,-0.020400598645210266
1782838089327952100,9.6869521484375,-0.013026280328631401,0.03302130103111267,-0.05645474046468735
1782838089337881000,9.696881103515626,-0.00013739336282014847,0.053567636758089066,-0.0982448011636734
1782838089347811000,9.70681103515625,0.005642731674015522,0.07325825095176697,-0.10412106662988663
1782838089357740000,9.716739990234375,-0.039639297872781754,0.11781686544418335,0.006699545308947563
1782838089367669000,9.7266689453125,-0.10683218389749527,-0.03202376142144203,0.07429297268390656
1782838089377599000,9.736598876953124,-0.09205076843500137,-0.1627805382013321,0.025808721780776978
1782838089387528000,9.74652783203125,-0.03552570194005966,-0.1821340024471283,-0.03651190921664238
1782838089397457200,9.75645703125,-0.003791683353483677,-0.11951041966676712,-0.0866474062204361
1782838089407387100,9.76638720703125,0.0348699577152729,0.03003060072660446,-0.1302875578403473
1782838089417315800,9.77631591796875,0.03377840667963028,0.18313270807266235,-0.14801442623138428
1782838089427246000,9.78624609375,0.011910391971468925,0.34324169158935547,-0.08570738136768341
1782838089437175000,9.796175048828125,-0.017919175326824188,0.39844557642936707,0.015723008662462234
1782838089447104000,9.80610400390625,-0.014370245859026909,0.3259817659854889,0.07272876799106598
1782838089457034000,9.816033935546875,0.042769577354192734,0.21570244431495667,0.06718268245458603
1782838089466963000,9.825962890625,0.10671846568584442,0.12472381442785263,0.020876437425613403
