time,seconds_elapsed,z,y,x
1782835548786317600,0.106317626953125,0.5455559069544077,0.5616283592246473,-1.3398730781130492
1782835548796248600,0.11624853515625,0.914602569836378,0.7143783959165215,-1.3305129829630256
1782835548806178800,0.1261787109375,1.080868067792058,0.8193819081798195,-1.3939505591288208
1782835548816108800,0.13610888671875,1.0428472569555043,0.8511893974594771,-1.3899340169638394
1782835548826039800,0.146039794921875,0.4438701409369707,0.676861150687933,-1.2356620314016937
1782835548835969800,0.1559697265625,-0.24573884764313697,0.4950014854982495,-1.312385790120065
1782835548845900500,0.165900634765625,-0.2438946810811758,0.4946225691832602,-1.3712344310604034
1782835548855830500,0.17583056640625,0.5435311231285334,0.4456242911279201,-1.2727744952216744
1782835548865761500,0.185761474609375,0.5784609822124243,0.7443582313776016,-2.037743406821042
1782835548875691500,0.19569140625,0.13518471551537514,1.6170277853697537,-1.5548472235277295
1782835548885622500,0.20562255859375,0.5455664283484221,1.8735272426106035,-0.7494060162864625
1782835548895552500,0.215552490234375,0.358743295532465,1.6500601402692496,-0.6355711819875985
1782835548905482500,0.225482421875,-0.0787929662078619,0.9857944133907556,-1.4663981018327175
1782835548915413500,0.23541357421875,-0.18859598770737646,-0.00032791678011417387,-1.7421705609507858
1782835548925343500,0.245343505859375,-0.8530793028593063,-0.14485226917937397,-1.9053809091195464
1782835548935274200,0.255274169921875,-1.047614617487788,0.36400866871476173,-1.9223545480132103
1782835548945204500,0.26520458984375,-0.6273521466314792,0.858267373021692,-1.5648377255357802
1782835548955135200,0.27513525390625,-0.4269540774494409,1.0699730181597173,-1.525099443256855
1782835548965065500,0.2850654296875,-0.3196767750352621,0.8499377899631857,-1.2043350191153586
1782835548974995500,0.294995361328125,-0.48967152264714237,0.4713659044973552,-0.5470526483181863
1782835548984926500,0.304926513671875,-0.8763438585907221,0.3794377085149288,0.46622160041145977
1782835548994856400,0.3148564453125,-0.8426648763507604,0.19241408469080923,1.1877369355358183
1782835549004787500,0.324787353515625,-0.7865998747795819,-0.12048837390393018,0.8349670883897692
1782835549014717400,0.334717529296875,-0.6945832698613404,-0.39850992712303995,0.06540156971514224
1782835549024648400,0.3446484375,-0.9067699765145778,-0.3974364526726305,-0.5325472261689603
1782835549034578700,0.35457861328125,-0.9931558820694685,-0.04860781743302941,-0.6406492159042507
1782835549044508400,0.36450830078125,-0.660340808519721,0.3126101976498961,-0.43630861964151263
1782835549054439400,0.374439453125,-0.5208645332902669,0.4654718780227005,-0.44678975471071897
1782835549064369400,0.384369384765625,-0.22902269064188002,0.4034231258668005,-0.5160058412127196
1782835549074300400,0.394300537109375,0.04872983637750149,0.22425269976109266,-0.5271255664464086
1782835549084230400,0.40423046875,-0.0031038112342357633,0.3259551246523857,-0.22005159480944275
1782835549094161400,0.414161376953125,0.2091080298602581,0.3650697220750153,0.2500291652482003
1782835549104091400,0.42409130859375,-0.004206219518184662,0.33387364269196984,0.44720666494853795
1782835549114021600,0.434021728515625,-0.9927063847362995,0.4014884314771741,0.699200481333211
1782835549123952400,0.443952392578125,-0.39404783314764497,0.19852716074362395,0.426701783188805
1782835549133882600,0.453882568359375,0.001287117201089859,-0.2883620377086103,0.019456907076761124
1782835549143813400,0.4638134765625,-0.2610270176678896,-0.47868426468670366,0.2558321524385363
1782835549153743600,0.47374365234375,-0.08078326324224472,-0.4442814982168376,0.4447629981234669
1782835549163674400,0.48367431640625,-0.069590838098526,-0.2979944469939917,0.6011653467778116
1782835549173604600,0.4936044921875,-0.34084114361703394,-0.16859554833844304,0.6171775202281773
1782835549183534300,0.503534423828125,-0.5245101963162422,-0.29857465803474187,0.30754319658391177
1782835549193465300,0.51346533203125,-0.35567104848027226,-0.4614615464027971,-0.15443506716936825
1782835549203395300,0.523395263671875,-0.2803857981324196,-0.5108238354649395,-0.1977469701513648
1782835549213326300,0.533326416015625,-0.21797581144869327,-0.5755974094748497,-0.02437799686603248
1782835549223256300,0.54325634765625,-0.09461948089301586,-0.7034381919682026,0.19285192811880258
1782835549233187300,0.553187255859375,0.0019990648627281186,-0.8615635650228709,0.3897492591708898
1782835549243117600,0.56311767578125,0.06731587890386581,-0.9956475527547299,0.4636968677068129
1782835549253047600,0.573047607421875,0.08272855209112166,-1.117964384194836,0.5459520301325247
1782835549262978600,0.582978515625,0.2688093421071768,-1.2159670777853577,0.5534939334120601
1782835549272908500,0.592908447265625,0.5373889671117067,-1.2221454010941089,0.4812735505275428
1782835549282839600,0.602839599609375,0.5496645113170147,-1.0525914560522884,0.30341095561739057
1782835549292769500,0.61276953125,0.46592298279106614,-0.9676206049270928,0.2934459899093956
1782835549302700500,0.622700439453125,0.5247983656078576,-1.1494804893124848,0.449392521087639
1782835549312630500,0.632630615234375,0.5129647199511528,-1.451323136167228,0.6583566489651799
1782835549322560500,0.642560546875,0.48182548532187935,-1.6812297700367866,0.8981054624132812
1782835549332491500,0.652491455078125,0.616733137461543,-1.78293161040619,1.0423527514368296
1782835549342421500,0.66242138671875,0.6705559130638837,-1.6689806754469871,1.0386631762038916
1782835549352352300,0.672352294921875,0.641528556022048,-1.5268085852622986,0.859125158894807
1782835549362282500,0.682282470703125,0.5479390026986599,-1.5945650475405155,0.6936817909769714
1782835549372213200,0.692213134765625,0.5775415292799473,-1.7567073280863463,0.6457217699281871
1782835549382143500,0.7021435546875,0.5058054958462714,-1.8086792151249944,0.5947099600933492
1782835549392074200,0.71207421875,0.24448095653653143,-1.7526742731779812,0.5942567364331335
1782835549402004500,0.72200439453125,0.11200491545796394,-1.635080743932724,0.7186652794554829
1782835549411934500,0.7319345703125,-0.10553133552968501,-1.50533003616482,0.7615208169721066
1782835549421865500,0.741865478515625,-0.3215449069947004,-1.479092455971986,0.7291495563298463
1782835549431795500,0.75179541015625,-0.42673546626269815,-1.6787264089137315,0.6407070835713297
1782835549441726500,0.7617265625,-0.5541477942109108,-1.8364158017039298,0.5660638574540615
1782835549451656400,0.771656494140625,-0.6819324626028538,-1.8538453676715492,0.46532348252795636
1782835549461587500,0.78158740234375,-1.009829953494668,-1.7060023922435938,0.3441536291658878
1782835549471517400,0.791517333984375,-1.3306494688242674,-1.4610937118142842,0.13555440734429283
1782835549481447400,0.801447509765625,-1.3436392987787722,-1.2140193777836858,-0.15974161261226982
1782835549491378400,0.81137841796875,-1.2224193957298994,-1.0751865150243043,-0.34847518215943124
1782835549501308400,0.821308349609375,-1.1766361341983078,-1.0756791208468377,-0.47136429706215854
1782835549511239400,0.831239501953125,-1.2290893750131129,-1.127308989514783,-0.5307076992494986
1782835549521169400,0.84116943359375,-1.2182248666495084,-1.0644632417622952,-0.4554530632356181
1782835549531100400,0.851100341796875,-1.1569856773108242,-0.8948056171502917,-0.23215079606715588
1782835549541030400,0.861030517578125,-0.9294751447975635,-0.8359337414648383,-0.13592548741269855
1782835549550961400,0.87096142578125,-0.5211000956118107,-0.7835986471369862,-0.26859065785519776
1782835549560891400,0.880891357421875,-0.22176292877197265,-0.5781882296856492,-0.3843145573036745
1782835549570821600,0.890821533203125,-0.12049100425243377,-0.43384712489880617,-0.42022520758584136
1782835549580752400,0.90075244140625,-0.12892740868628025,-0.3789517516288906,-0.49614623508658257
1782835549590682600,0.9106826171875,-0.0723182172358036,-0.3219572871878743,-0.4932488331446424
1782835549600613400,0.92061328125,0.10158055207729338,-0.17042385974414645,-0.47302627545762804
1782835549610543600,0.930543701171875,0.31124738486409187,0.07567929116673767,-0.48788051104452457
1782835549620474400,0.940474365234375,0.23624913476407527,0.2910213200457394,-0.7287886140629649
1782835549630404400,0.950404296875,-0.23238076889812945,0.48198958984240886,-0.9104869512110948
1782835549640334300,0.960334228515625,-0.48350832384228704,0.6279902984045446,-0.7954078890047966
1782835549650265300,0.970265380859375,-0.40715515200197694,0.6689181557942181,-0.5141219636948778
1782835549660195300,0.9801953125,-0.3328483912974596,0.6211888016961514,-0.2869947679433971
1782835549670126300,0.990126220703125,-0.5113748204112053,0.5805000137593597,-0.23857344952579587
1782835549680056600,1.000056640625,-0.821122906628251,0.6184335847038775,-0.15974537547193465
1782835549689987300,1.0099873046875,-0.8629413561820983,0.5903206390932202,-0.1815024857824668
1782835549699917600,1.01991748046875,-0.6666717651069164,0.4101265690281987,-0.3764065971907228
1782835549709848300,1.029848388671875,-0.45172202348113055,0.29741635484509166,-0.4565607322165742
1782835549719778600,1.039778564453125,-0.22518355087041853,0.31781404990330336,-0.23289997046664357
1782835549729708500,1.04970849609375,0.022730887246131894,0.39347120230346916,0.11193502855952829
1782835549739639600,1.0596396484375,0.23925474632084368,0.44707807013280687,0.39662320006098595
1782835549749569500,1.069569580078125,0.43758886871039865,0.4429865630354732,0.5072802811065689
1782835549759500500,1.07950048828125,0.6095470253497361,0.36952421726584433,0.4632739661196246
1782835549769430300,1.08943017578125,0.7222679801225662,0.21950302101597188,0.4615816291185096
1782835549779361500,1.099361572265625,0.7760825724184512,0.06772256000861525,0.6015531770516187
1782835549789291300,1.109291259765625,0.8104922070205212,-0.015083952689543366,0.8213971935249864
1782835549799221500,1.119221435546875,0.7908125240385532,-0.0800338331144303,1.095386349422857
1782835549809152300,1.12915234375,0.7329810973167419,-0.12083528764545917,1.2934101637542248
1782835549819082500,1.13908251953125,0.6040811611592769,-0.10431392256394029,1.3723035215966404
1782835549829013200,1.14901318359375,0.37185061438679695,-0.12921513958647846,1.3643921639502048
1782835549838943000,1.15894287109375,0.07942074271738529,-0.19456987448520957,1.2687069535218178
1782835549848874000,1.1688740234375,-0.1850730742782354,-0.22328685040362178,1.165135227627307
1782835549858804000,1.178803955078125,-0.2803366982936859,-0.17095255979336796,1.1298314206644893
1782835549868735000,1.18873486328125,-0.37402386677265165,-0.08251103688292205,1.1918446631155908
1782835549878665000,1.1986650390625,-0.4024766387969255,-0.002014189366623759,1.2509316428564488
1782835549888595200,1.20859521484375,-0.29313071341514585,0.05586151488833129,1.191196282209456
1782835549898526200,1.218526123046875,-0.2517898182451725,0.13329649061597884,1.0569964130129665
1782835549908456200,1.228456298828125,-0.36727030085921286,0.2501609018690884,1.0326266725186257
1782835549918387200,1.23838720703125,-0.4621124845921993,0.2232018755339086,1.1500351275205611
1782835549928317200,1.248317138671875,-0.44078795701265333,0.0709485363177955,1.2233357799224556
1782835549938248200,1.258248291015625,-0.31414135273993016,-0.04518836437836289,1.286489570710808
1782835549948178200,1.26817822265625,-0.15032792411148546,-0.12819902134649455,1.329157768961787
1782835549958109200,1.278109130859375,0.0807967072457075,-0.18625819240957497,1.269875997301191
1782835549968039000,1.288038818359375,0.2730249139755964,-0.2047233850352466,1.2210439426582307
1782835549977969200,1.29796923828125,0.33497546645402904,-0.26855945899933575,1.2425816015318036
1782835549987900000,1.30789990234375,0.28468261854350563,-0.3667985186289996,1.284034432643652
1782835549997830100,1.317830078125,0.2809820104598999,-0.4331763860303908,1.2439609270609915
1782835550007761000,1.327760986328125,0.42648295280635357,-0.44167445752359924,1.1879935406453908
1782835550017691100,1.337691162109375,0.41612580944299693,-0.49315322728306055,1.188869738958031
1782835550027622000,1.347621826171875,0.2595978616476059,-0.5637454975090921,1.235741818639636
1782835550037552000,1.35755224609375,0.16676877130270004,-0.5866602899547666,1.226126579684764
1782835550047482000,1.367482177734375,0.15990239266455172,-0.5422152912896127,1.168389772443846
1782835550057413000,1.3774130859375,0.2024976718097925,-0.45199258405081927,1.045221511806175
1782835550067343000,1.387343017578125,0.19467384631633758,-0.3661310676962137,0.8447874214626848
1782835550077274000,1.397274169921875,0.08688099559545516,-0.3601314619552344,0.705322982801497
1782835550087204000,1.4072041015625,-0.01600070220828056,-0.501771929481253,0.7735602143339813
1782835550097135000,1.417135009765625,0.0013175123393535614,-0.6609337329115719,0.8398950463112443
1782835550107065000,1.427065185546875,-0.0023088614642620083,-0.7221118397127837,0.75935801291503
1782835550116996000,1.43699609375,0.17015782921910286,-0.7267096888970583,0.7324583155516534
1782835550126926000,1.446926025390625,0.15056582452058792,-0.7034278167046606,0.749333097180724
1782835550136857000,1.456857177734375,-0.039813539472222326,-0.6549399723894894,0.7586550522774458
1782835550146787000,1.466787109375,0.014947978284955024,-0.6707506319183856,0.6620592298101633
1782835550156717000,1.476717041015625,0.11358195551633835,-0.660186933132261,0.5322906941246242
1782835550166648000,1.48664794921875,0.15678630647063255,-0.6295457111530005,0.4655042093897238
1782835550176578000,1.496578125,0.17243629554510115,-0.5485892833009361,0.37511761682610956
1782835550186509000,1.506509033203125,0.21753157481253146,-0.47775735910013317,0.29295250730402767
1782835550196439000,1.51643896484375,0.29155133526921273,-0.529658445924893,0.2801275125224143
1782835550206370000,1.5263701171875,0.3527916936516762,-0.6029404666915535,0.19959756645411253
1782835550216300000,1.536300048828125,0.38773616578280923,-0.6073453505869955,0.16886775287594646
1782835550226230300,1.546230224609375,0.27280513374507426,-0.620381138575077,0.28163755175918337
1782835550236161000,1.5561611328125,0.11278057600557803,-0.7018996572893113,0.4178457651033997
1782835550246091000,1.566091064453125,-0.07416881353855133,-0.7000283104594797,0.5596059500189497
1782835550256022000,1.57602197265625,-0.32784780653119083,-0.7046396767124533,0.5562181707441807
1782835550265952000,1.585951904296875,-0.33031273533999916,-0.7209791824210434,0.4636828757140785
1782835550275883300,1.59588330078125,-0.4709913720965385,-0.6414740493558346,0.37478674090392883
1782835550285813000,1.60581298828125,-0.6288456000596284,-0.536803714569658,0.14936064998190848
1782835550295744300,1.615744140625,-0.6318804377108812,-0.4521146029952913,0.11752848291872069
1782835550305674000,1.625674072265625,-0.7040320662081241,-0.46941915434375403,0.3297715411353856
1782835550315605200,1.635605224609375,-0.898263429453969,-0.5523929133675992,0.5312319057866931
1782835550325535000,1.645534912109375,-1.0252636694699526,-0.6659334408950061,0.6127798697911202
1782835550335465200,1.65546533203125,-1.0925731186330319,-0.7432453747648745,0.6280035232122987
1782835550345396000,1.66539599609375,-1.244911798045039,-0.6727970430541783,0.5406282412938773
1782835550355326200,1.675326171875,-1.6116548601597547,-0.5487483463201671,0.5341287962719797
1782835550365257000,1.685257080078125,-2.03306182487607,-0.5977241933479904,0.6639187400717288
1782835550375187200,1.695187255859375,-2.228210302966833,-0.7733067510295659,0.6591682576090097
1782835550385118000,1.705117919921875,-2.1367396414935587,-0.7148109421148896,0.6139484021138399
1782835550395048200,1.715048095703125,-1.858040189012885,-0.37176235158145426,0.5870652905590832
1782835550404979000,1.72497900390625,-1.3886065677523611,0.03902808818295598,0.42598910487480457
1782835550414909200,1.7349091796875,-0.716315209197998,0.3140842887904495,0.1961582944541238
1782835550424839000,1.7448388671875,-0.06311492008268833,0.4818278234094381,0.1783866918494925
1782835550434770200,1.754770263671875,0.24217618672549723,0.6683605949766933,0.39077940593622623
1782835550444700000,1.764699951171875,0.09417232164740562,0.723969231082499,0.49094724167138337
1782835550454631200,1.774631103515625,-0.03415186044871807,0.40960444485023617,0.4037874291345477
1782835550464561000,1.784560791015625,0.10436346079409121,-0.15472119063436984,0.36449674449265
1782835550474492200,1.7944921875,0.35570670431554313,-0.5998600363329053,0.45675742383245377
1782835550484422000,1.804421875,0.5140946007639169,-0.6038447220548987,0.6566146276034415
1782835550494353200,1.814353271484375,0.581219925531745,-0.2751351841278374,0.7816407180022448
1782835550504283100,1.824283203125,0.8208820836097002,0.0721184568800032,0.5920564499098807
1782835550514213000,1.834213134765625,1.0279419487684964,0.2747362479381263,0.2967527398372069
1782835550524144000,1.84414404296875,1.0065765046566724,0.29496830410584807,0.07797641652743331
1782835550534074000,1.85407421875,0.9450462234169245,0.202424022051692,-0.12218988059218973
1782835550544005000,1.864005126953125,0.9159551534891128,0.08501242524459958,-0.21232191387284546
1782835550553935000,1.87393505859375,0.8608166191130876,-0.045126843449473375,-0.21945364718260243
1782835550563866000,1.8838662109375,0.7956149558842182,-0.10671440783441066,-0.14755450474224052
1782835550573796000,1.893796142578125,0.6034528001278638,-0.1271751581914723,-0.03533515194915235
1782835550583727000,1.90372705078125,0.4028448875874281,-0.12764321409463883,-0.016742688815155997
1782835550593657000,1.913656982421875,0.12884148396849632,-0.11461246760785579,-0.10356599027346819
1782835550603588000,1.923588134765625,-0.2017921538889408,-0.07018471233844757,-0.17826469117132945
1782835550613518000,1.93351806640625,-0.46794952018260955,-0.027587533497065303,-0.23563805366102605
1782835550623448000,1.943447998046875,-0.5885743799477815,0.033816052623093125,-0.3831380608702078
1782835550633379000,1.953379150390625,-0.6293132175713777,0.13146131107807157,-0.4484628755547106
1782835550643309000,1.96330908203125,-0.5419710342049598,0.17837299211770294,-0.43430403835345055
1782835550653240000,1.973239990234375,-0.360280003580451,0.133173521823436,-0.3924060572899878
1782835550663170000,1.983170166015625,-0.1185293487906456,0.013729469340667128,-0.2760012081063352
1782835550673101300,1.993101318359375,0.15139584560394287,-0.13044095505438744,-0.14786078507928177
1782835550683031000,2.003031005859375,0.39132571470737454,-0.24989012210369108,-0.06242923937346786
1782835550692962000,2.012962158203125,0.55206046654284,-0.34273959764949974,-0.0707493604838848
1782835550702892000,2.02289208984375,0.7882423812896013,-0.46195320237725973,-0.10135642446521669
1782835550712823000,2.032822998046875,1.0272866997301577,-0.5630149912774562,-0.08217197765428573
1782835550722753000,2.0427529296875,1.1423317135363817,-0.6251806478112936,-0.029547398860566315
1782835550732683300,2.052683349609375,1.273081076952815,-0.6468632681135088,-0.04532101431470364
1782835550742614000,2.062614013671875,1.3566449108242988,-0.6545619328573345,-0.07798753157649188
1782835550752544300,2.072544189453125,1.3584282871097326,-0.7228235681787133,-0.07998948251605033
1782835550762475000,2.08247509765625,1.2868641031116246,-0.8130447410475462,-0.0942532413965091
1782835550772405200,2.0924052734375,1.1057277837604285,-0.9158473822657018,-0.12852902048584072
1782835550782336000,2.1023359375,0.8828454955697059,-0.9809985574163496,-0.1980001411948353
1782835550792266200,2.112266357421875,0.6124591134041547,-1.091160548421368,-0.1728464107159525
1782835550802197000,2.122197021484375,0.4074894985228777,-1.2432254523932933,-0.08490527507569641
1782835550812127200,2.132127197265625,0.3204027512222528,-1.2634662763893603,-0.06571308334972709
1782835550822057000,2.142056884765625,0.23204057715833185,-1.183827872333303,-0.020976864919345823
1782835550831988200,2.15198828125,0.15382336501181124,-1.146348547962308,-0.007865874536894262
1782835550841921500,2.161921630859375,0.027437457501888272,-1.141689981566742,-0.05071459872024134
1782835550851852500,2.1718525390625,-0.08691197525560855,-1.1707313671339303,-0.10354049050603062
1782835550861782500,2.181782470703125,-0.16908055537641048,-1.2330318290285764,-0.16925421317657455
1782835550871713500,2.191713623046875,-0.3079273005306721,-1.3445586055807768,-0.11818705642530694
1782835550881643500,2.2016435546875,-0.3259118700325489,-1.4868877860233187,-0.04902638990497216
1782835550891574500,2.211574462890625,-0.20084932008087633,-1.5428417284354567,0.005610241097211838
1782835550901504500,2.22150439453125,-0.03213876706063747,-1.4744564667344093,0.05049724790882319
1782835550911435500,2.231435546875,0.0261205296844244,-1.3744419949300586,0.12951899963757021
1782835550921365500,2.241365478515625,-0.02989887917935848,-1.3858840109206736,0.21161265135863794
1782835550931295700,2.251295654296875,-0.07721358806192874,-1.4429174191325902,0.2367794057158753
1782835550941226500,2.2612265625,-0.11791034010946749,-1.4107996948599815,0.1871174943863414
1782835550951156700,2.27115673828125,-0.18968612103164195,-1.33584820651114,0.20518064554976298
1782835550961087500,2.28108740234375,-0.18688567665815353,-1.2144123226240278,0.19561863461947068
1782835550971017500,2.291017578125,-0.11596563578248023,-1.0843307754665612,0.201985265308246
1782835550980948700,2.30094873046875,-0.1316840139180422,-1.0058654337778687,0.21803223607735708
1782835550990878500,2.31087841796875,-0.23128595939874647,-1.0377486186422407,0.22953716123634949
1782835551000809700,2.320809814453125,-0.38184476965665815,-1.0516668154880404,0.17335784910311922
1782835551010739500,2.330739501953125,-0.5883598604142666,-1.0187756956901401,0.18783841080572455
1782835551020670700,2.340670654296875,-0.8187965095072984,-0.9777128137439489,0.17889849556284024
1782835551030600400,2.350600341796875,-0.8793430404067039,-0.8257176870726048,0.052136868342012165
1782835551040531700,2.36053173828125,-0.9947738386601209,-0.5187068437997251,-0.08300948792435228
1782835551050461400,2.37046142578125,-1.2840776872634887,-0.23558804050683974,-0.19041909321499986
1782835551060391700,2.3803916015625,-1.6131524052411317,-0.08282068735398351,-0.2644531196590513
1782835551070322400,2.390322509765625,-1.748428306171298,-0.1110797634370625,-0.31937830354534086
1782835551080252700,2.400252685546875,-1.9936627114236354,-0.23991956690512597,-0.2724076588600874
1782835551090183400,2.410183349609375,-2.3227321687042712,-0.38968196608833966,-0.20361940584871915
1782835551100113700,2.42011376953125,-2.398765022549033,-0.5124960795260965,-0.07270275957398116
1782835551110044400,2.43004443359375,-2.2343097888857124,-0.5576585788108408,-0.03630169542636722
1782835551119974700,2.439974609375,-2.005118171417713,-0.5162510481454432,0.018070603817515074
1782835551129905400,2.449905517578125,-1.5406208375155925,-0.488035226682201,0.08110694223865866
1782835551139835600,2.459835693359375,-0.9468371984869242,-0.4067807657316327,0.1491467515029013
1782835551149766700,2.4697666015625,-0.3035182519167661,-0.22599567097090184,0.16507840706296265
1782835551159696600,2.479696533203125,0.35642625076174733,0.05425897506251931,0.10847791037559508
1782835551169626400,2.48962646484375,0.8138637292802333,0.3149949738945812,0.11110877033583819
1782835551179557600,2.4995576171875,1.0023702851384877,0.4074220593098551,0.1423668821044266
1782835551189487600,2.509487548828125,1.1274895337134598,0.3072068042363971,0.08372209317311644
1782835551199418600,2.519418701171875,1.1389935090243817,0.16848850776739419,-0.011958294949680566
1782835551209348600,2.5293486328125,1.0667360820651053,0.12240772459395229,0.013433335938304663
1782835551219279600,2.539279541015625,0.9498229362994431,0.11308452738821506,0.0669309712395072
1782835551229209600,2.549209716796875,0.8729004401385784,0.09354754081256687,0.049775546038150785
1782835551239140600,2.559140625,0.774977241525054,0.1194542085506022,-0.004447627058625221
1782835551249070600,2.569070556640625,0.6589098989337683,0.22816556235589086,-0.10867555183954536
1782835551259001600,2.579001708984375,0.5057388603508473,0.42928478541932996,-0.3300173325899988
1782835551268931600,2.588931640625,0.19365619370639323,0.6135021196510643,-0.5699211904693394
1782835551278862600,2.598862548828125,-0.034379823985695834,0.7168809533219784,-0.7686968460813164
1782835551288792600,2.60879248046875,-0.21847850027382373,0.769437654511258,-0.873478751483187
1782835551298722600,2.61872265625,-0.6290367387175559,0.7364584180384874,-0.8404550913468003
1782835551308653600,2.628653564453125,-0.9489239416331052,0.5507010878231376,-0.6431538191363215
1782835551318583600,2.63858349609375,-1.0589490814507008,0.3550299740977585,-0.3718593456825241
1782835551328514600,2.6485146484375,-1.1176537838757037,0.2966649519558996,-0.1169624648001045
1782835551338444500,2.658444580078125,-1.0166413870751858,0.3609684242360294,0.07283044107425958
1782835551348375600,2.66837548828125,-0.8160662077605724,0.462366751614213,0.14216405300870538
1782835551358305800,2.678305908203125,-0.6004787527531386,0.5133493353545665,0.15786909673865884
1782835551368236500,2.688236572265625,-0.3355325158149004,0.5288084049668162,-0.004291961572878062
1782835551378166800,2.698166748046875,0.019270517659187317,0.5605827226292341,-0.1403995640868321
1782835551388097500,2.70809765625,0.3330611572653055,0.518589647160843,-0.14545008894205091
1782835551398027800,2.71802783203125,0.5356126050889491,0.4147983602315187,-0.10756196457445621
1782835551407958500,2.72795849609375,0.7183236264109611,0.2584842743825167,-0.07347264796793461
1782835551417888800,2.737888671875,0.9447714981287717,0.09989479094743728,-0.0074283233698457475
1782835551427818500,2.747818603515625,1.0281605599552393,0.022740751053020355,0.028213629506155847
1782835551437749500,2.75774951171875,1.072585392615199,-0.020316592646017668,0.13418949393294752
1782835551447679500,2.767679443359375,1.1123819809526205,-0.045862464247643946,0.1872272566374391
1782835551457610500,2.777610595703125,1.1270172400265932,-0.001249561669677496,0.16910181736014782
1782835551467540500,2.78754052734375,1.073327735415101,0.07492781521230936,0.11275558769479394
1782835551477471500,2.797471435546875,0.9929904623746871,0.11139248264804481,-0.07285312783010303
1782835551487401500,2.8074013671875,0.9096066612452268,0.07851093439608813,-0.20400003919675946
1782835551497332500,2.81733251953125,0.8468541447341441,0.025964900731295346,-0.2394762435844168
1782835551507262500,2.827262451171875,0.7469593537867069,-0.055753597534447905,-0.1328164885466918
1782835551517193500,2.837193359375,0.5645370862782001,-0.15321020154953002,-0.013652348983846605
1782835551527123700,2.847123779296875,0.409230789232254,-0.16899550744146108,-0.07174925824142991
1782835551537054500,2.857054443359375,0.26391806293427944,-0.12320318582057953,-0.2579562319204211
1782835551546984700,2.866984619140625,0.04933247844576835,-0.06065086805671453,-0.32259204142745584
1782835551556915500,2.87691552734375,-0.15526947216689585,-0.08554463242515921,-0.3451189670667052
1782835551566845700,2.886845703125,-0.27927111488878725,-0.16933555305078624,-0.3819516640972346
1782835551576775400,2.896775390625,-0.41377836953401564,-0.19577727751359342,-0.38885979951787736
1782835551586706700,2.906706787109375,-0.6812059018939733,-0.14253274019062517,-0.33333416552040723
1782835551596636400,2.916636474609375,-1.0571259576767682,-0.0857673352651298,-0.32537085849102587
1782835551606567700,2.926567626953125,-1.2176187174499034,-0.10080343022495508,-0.44894053953643887
1782835551616497400,2.936497314453125,-1.2592507045209407,-0.0628089228734374,-0.49126858258023853
1782835551626428700,2.9464287109375,-1.393316060617566,0.05795066918730735,-0.3961671999217942
1782835551636358400,2.9563583984375,-1.4776193146795034,0.1807875059135258,-0.2788029128551483
1782835551646289700,2.96628955078125,-1.581465473601222,0.15473463463783263,-0.16875455655874683
1782835551656219400,2.976219482421875,-1.5112006817638872,0.036988691309839485,-0.11330515700210816
1782835551666150700,2.986150634765625,-1.4134019863128662,0.04515051658600568,-0.072079047318222
1782835551676080400,2.996080322265625,-1.2683558019965886,0.14820099508538842,-0.1075484109731391
1782835551686011600,3.00601171875,-1.1789724681913851,0.23628742094784974,-0.12546707563195378
1782835551695941600,3.015941650390625,-1.2860159618496894,0.19049334576129912,-0.1321484348257072
1782835551705872600,3.02587255859375,-1.419853354409337,0.07728504586294294,-0.16705659353444352
1782835551715802600,3.035802734375,-1.5725988610565662,-0.0371872826218605,-0.18501303292037918
1782835551725732600,3.045732666015625,-1.8434101906359195,-0.1609026557482779,-0.1911644682222046
1782835551735663600,3.05566357421875,-1.8449182571113107,-0.3190974407773465,-0.23382766150450332
1782835551745593600,3.065593505859375,-1.5232260506004094,-0.42645920660458503,-0.2574372312813066
1782835551755524600,3.075524658203125,-1.141100125914812,-0.43323732243739066,-0.2857181538700126
1782835551765454600,3.08545458984375,-0.6400842024326324,-0.3267880683451891,-0.37723519350197166
1782835551775385600,3.095385498046875,0.015408581534028052,-0.11329320170283316,-0.5903297722477465
1782835551785315600,3.105315673828125,0.6739858875125646,0.19881993314512073,-0.7265634122941642
1782835551795246600,3.11524658203125,0.970957494264841,0.4889022187750786,-0.5690186886716634
1782835551805176600,3.125176513671875,0.8465846801429986,0.5369194499038159,-0.4386841896664351
1782835551815107600,3.135107666015625,0.7866711864501238,0.28363340175151824,-0.5239618782510981
1782835551825037600,3.14503759765625,0.7745534631550312,-0.05838526121228933,-0.486036563678272
1782835551834968600,3.154968505859375,0.7586959688097238,-0.23290946894735096,-0.46961997414547946
1782835551844899000,3.164899169921875,0.9800199216425418,-0.13500431744717062,-0.5531992613144219
1782835551854830000,3.174830078125,1.3531576532304286,0.19249767132103443,-0.7307017542079091
1782835551864760000,3.184760009765625,1.6028770949423312,0.5071285611435771,-0.8996898089952766
1782835551874690000,3.19468994140625,1.6652853280603885,0.6586189531631768,-1.0898579413902014
1782835551884621000,3.20462109375,1.5380039330154656,0.6871821267593652,-1.3008663249790668
1782835551894551000,3.214551025390625,1.3010703231185674,0.6637083121914417,-1.3679519022583961
1782835551904482000,3.22448193359375,1.0383797561526298,0.6539389786534011,-1.2308750893861056
1782835551914412000,3.234412109375,0.7748848870664834,0.6534688769236207,-1.0272498017858713
1782835551924343000,3.244343017578125,0.42528819006383417,0.6494604449998587,-0.80525372184515
1782835551934273000,3.25427294921875,0.12556348521113395,0.6357911083485931,-0.6311975700132548
1782835551944204000,3.2642041015625,-0.13106032906174658,0.7156218201063573,-0.6118306793075055
1782835551954134000,3.274134033203125,-0.29798049153387546,0.7739804855726659,-0.6668174571879207
1782835551964065000,3.28406494140625,-0.3572106791377067,0.7519292511537671,-0.7221464726347476
1782835551973995000,3.2939951171875,-0.37322248726189133,0.6943219155114144,-0.7367245216287672
1782835551983926000,3.303926025390625,-0.2639946353018284,0.6235755507022142,-0.7280876992519945
1782835551993856300,3.313856201171875,-0.035713702937960626,0.5266984270755202,-0.6103289695076644
1782835552003787000,3.323787109375,0.2846095533072948,0.39285343573130665,-0.4641636449683457
1782835552013717200,3.33371728515625,0.6277098740279674,0.27840288068689406,-0.4490518178911879
1782835552023648000,3.34364794921875,0.7510656200617551,0.15679237088523804,-0.4820665275361389
1782835552033578200,3.353578125,0.7347761640399694,-0.04615092580020427,-0.43360272168368097
1782835552043509000,3.363509033203125,0.8555120829641818,-0.33621881757862865,-0.4005184904664755
1782835552053439200,3.373439208984375,0.9138719174742698,-0.5620495072461664,-0.33327005077563226
1782835552063369000,3.383368896484375,0.9071727120965719,-0.6833336346376687,-0.2227091235809028
1782835552073300200,3.39330029296875,0.8417851709067821,-0.741627052848041,-0.12298201735056936
1782835552083230000,3.40322998046875,0.6745914521902799,-0.7985703716237097,-0.15267375658527016
1782835552093161200,3.4131611328125,0.4599883320450783,-0.8395488632220774,-0.18850388897713272
1782835552103091000,3.423091064453125,0.26065000104904174,-0.8702586934581399,-0.28044910915959625
1782835552113022200,3.433022216796875,0.2146972281694412,-0.8654962282966822,-0.5054548192450776
1782835552122952000,3.442951904296875,0.21538345686793325,-0.8372535188265144,-0.6671437665328384
1782835552132883000,3.452883056640625,0.21821955707669258,-0.8260911234948783,-0.7342584237761796
1782835552142813000,3.46281298828125,0.13915829532146454,-0.9097853788129985,-0.7210577275499701
1782835552152744000,3.472743896484375,0.07615384987592697,-1.0672982459925116,-0.6207696995012462
1782835552162674200,3.482674072265625,0.17494272540807723,-1.2424182276636362,-0.4637619688322767
1782835552172605000,3.49260498046875,0.22421499809920786,-1.3100104392908514,-0.41026064373664556
1782835552182535200,3.50253515625,0.2125929493665695,-1.3205579906597733,-0.31763025430161507
1782835552192466000,3.5124658203125,0.23806232166588304,-1.3513929816454648,-0.33960783896241337
1782835552202396200,3.522396240234375,0.29678455974757667,-1.3390166074141858,-0.3711052393795922
1782835552212327000,3.532326904296875,0.14446400051414965,-1.2737414405576883,-0.3624539500860497
1782835552222257200,3.542257080078125,0.0994108068227768,-1.2143205526873468,-0.4107221603011712
1782835552232187100,3.552187255859375,0.09503332239091396,-1.1651295285388827,-0.42313510368317364
1782835552242118100,3.5621181640625,-0.08898176726698875,-1.133706070140749,-0.42674379569962617
1782835552252048100,3.572048095703125,-0.17643968596756457,-1.128463785573095,-0.42392654632180926
1782835552261979100,3.581979248046875,-0.5625988116919994,-1.1058451265297828,-0.41176454549357294
1782835552271909000,3.5919091796875,-1.1470376992702485,-1.0841395637433975,-0.38800435173232106
1782835552281840000,3.601840087890625,-1.4300035770237445,-1.1248556780785322,-0.38311584903839974
1782835552291769900,3.611769775390625,-1.4153385073333977,-1.1485633014023304,-0.425036516857706
1782835552301701000,3.621701171875,-1.367129479959607,-1.0733642680332065,-0.3859528990952298
1782835552311630800,3.631630859375,-1.4225883323311805,-0.946071913202852,-0.30952235116977245
1782835552321562000,3.64156201171875,-1.308366909867525,-0.8523907360732554,-0.3004724910126999
1782835552331492000,3.6514921875,-1.2396353189468383,-0.8340539190676063,-0.3350618295632303
1782835552341423000,3.661423095703125,-1.2390396911412476,-0.9554949905864893,-0.39227289589699355
1782835552351353000,3.67135302734375,-1.109719483745098,-1.1076666428685187,-0.4338324387863278
1782835552361284000,3.6812841796875,-1.0044733948975801,-1.1483566729143262,-0.383545691823028
1782835552371214000,3.691214111328125,-1.1379267565757036,-1.13241296159029,-0.325499489839375
1782835552381145000,3.70114501953125,-1.3889981974184513,-1.1786531731091439,-0.35059944430440665
1782835552391075000,3.711074951171875,-1.7971739246398208,-1.234850130496919,-0.38757903899233787
1782835552401006000,3.721006103515625,-2.3397680591791867,-1.3550184786662458,-0.3475437465282157
1782835552410936000,3.73093603515625,-2.78035084900856,-1.4200959309935568,-0.33447102406322954
1782835552420867000,3.7408671875,-3.030526217794418,-1.3888796856053174,-0.3110174850983545
1782835552430797000,3.750797119140625,-2.8772219082206485,-1.1991436610173434,-0.26449542443081736
1782835552440727000,3.76072705078125,-2.480090137583017,-0.8345653026558458,-0.1716650189116597
1782835552450658000,3.770657958984375,-1.8297043213665485,-0.4753273189416155,-0.08756316917333751
1782835552460588000,3.780588134765625,-1.077576040509343,-0.20035638546478002,-0.113640407705307
1782835552470519000,3.79051904296875,-0.4014396969646215,-0.011494732558540999,-0.20114399217851459
1782835552480449300,3.80044921875,0.18312778542935848,0.08860149924512951,-0.20689744113869965
1782835552490380000,3.810380126953125,0.6727993080765009,0.02008274735752493,-0.1298061642821878
1782835552500310300,3.820310302734375,1.1410533641636371,-0.05125058702677488,-0.09077771077305077
1782835552510241000,3.830240966796875,1.516122940596938,-0.042958705630153415,-0.06819098123796284
1782835552520171300,3.840171142578125,1.634556427797675,0.04308247814029455,-0.027192615895345804
1782835552530102000,3.85010205078125,1.635977400511503,0.14509652626402675,-0.04280431878603995
1782835552540032300,3.8600322265625,1.5087392600864171,0.1997439161222428,-0.03652881871312857
1782835552549963000,3.869962890625,1.2054863811075687,0.237631163707003,0.01704706945605576
1782835552559893200,3.879893310546875,0.6499310581862926,0.2709316680233925,0.08606953308209776
1782835552569824000,3.889823974609375,0.058151160195469856,0.30272914736568923,0.12164192785322665
1782835552579754200,3.899754150390625,-0.36611703917086125,0.39787952026501294,0.1140015691678971
1782835552589685000,3.90968505859375,-0.6877958016782999,0.6026731209922581,0.057204307799413795
1782835552599615000,3.919614990234375,-1.0397311707615853,0.8469775519181042,0.005774455215595662
1782835552609546200,3.929546142578125,-1.3591162693738936,1.0139034865438938,-0.02143394277077168
1782835552619476000,3.93947607421875,-1.5077905810594558,1.1079105346269904,0.03553893089294433
1782835552629407200,3.9494072265625,-1.4807424151360988,1.0871961017698049,0.1128687657456845
1782835552639337000,3.9593369140625,-1.325489309582114,1.0014448408566414,0.16870978583525864
1782835552649268200,3.969268310546875,-0.9606412674337625,0.9703085288368165,0.19634006249550728
1782835552659198000,3.979197998046875,-0.45861119847297666,1.0642051022827625,0.19636092262044547
1782835552669128200,3.989128173828125,0.1184849251270294,1.1266287521656602,0.1836193683385849
1782835552679059000,3.999058837890625,0.6216700093418359,1.0544039853669702,0.23512820444274693
1782835552688989200,4.0089892578125,1.0172159720927476,0.8867620844915509,0.2865367219775915
1782835552698920000,4.018919921875,1.4665554843515156,0.7478130480065941,0.22352957311831415
1782835552708850200,4.02885009765625,1.9087661676436662,0.7519894569084048,0.14649272986277936
1782835552718781000,4.038781005859375,2.2110656914204356,0.8424507952086627,0.16169234482124448
1782835552728711200,4.048711181640625,2.363741639962792,0.8235295293785632,0.18890439606942236
1782835552738642000,4.058641845703125,2.518580319496989,0.7454629777491092,0.14284041790030896
1782835552748572200,4.068572265625,2.5926035870850086,0.6336090150691569,0.20216164478845894
1782835552758503200,4.078503173828125,2.540447283390164,0.5349193621277809,0.21127368346154687
1782835552768433200,4.08843310546875,2.509640057194233,0.5260894283317029,0.1610877299915999
1782835552778364200,4.0983642578125,2.4681828421682117,0.5224963722757995,0.18317695833332837
1782835552788294100,4.108294189453125,2.2431424991607667,0.45435953237786886,0.1586993004851043
1782835552798225200,4.11822509765625,1.975587541028857,0.2996224135220051,0.04908960960060358
1782835552808155100,4.128155029296875,1.7639157981604336,0.1899982557207346,-0.021890783160179852
1782835552818086100,4.138086181640625,1.400349027994275,0.20590806477516888,-0.02461333999186754
1782835552828016000,4.14801611328125,1.0321136814951897,0.22696678102537987,-0.03186784116476774
1782835552837947100,4.157947021484375,0.7942348997026681,0.2445798868663609,0.03873425633553415
1782835552847873300,4.167873291015625,0.5321686021149158,0.2755009487003088,0.11351594107542186
1782835552857804000,4.177803955078125,0.13394202197790145,0.313571882288903,0.1584008655278012
1782835552867734300,4.187734375,-0.43181203887462616,0.3892864639647305,0.21126794784050434
1782835552877665000,4.1976650390625,-0.9236369401633739,0.40387627646178004,0.17045809080731122
1782835552887595300,4.20759521484375,-1.300140348792076,0.4278784988179803,0.07489314575772732
1782835552897526000,4.217526123046875,-1.7726029624849557,0.5013897252306342,-0.03646284080483019
1782835552907456300,4.227456298828125,-2.2531460067808626,0.5059251767031848,-0.02864575557941571
1782835552917387000,4.237386962890625,-2.6526439220279454,0.3666435472629964,0.06419573758933693
1782835552927317200,4.247317138671875,-2.8447423648983237,0.19509572499021888,0.13024181575309485
1782835552937247000,4.2572470703125,-2.971746696567535,0.08585501354858278,0.19378100739615037
1782835552947178200,4.26717822265625,-3.0177684430301186,0.12075754623413085,0.14895453513273968
1782835552957108000,4.27710791015625,-2.726673619356751,0.30997926462441683,0.03134902318874374
1782835552967039200,4.287039306640625,-2.6208658049732447,0.5210505573816597,0.01582160104801878
1782835552976969000,4.296968994140625,-2.684959799221158,0.47741848253458735,0.10124920123107731
1782835552986900000,4.30689990234375,-2.632055307507515,0.14309943416267631,0.11763563308762386
1782835552996830200,4.316830322265625,-2.632181564235687,-0.2143812940880656,0.20921751811672
1782835553006761000,4.326760986328125,-2.6523364635139703,-0.5232269515726715,0.48843796226419506
1782835553016691200,4.336691162109375,-2.5363737503409385,-0.7290101478591561,0.7139897619251161
1782835553026622000,4.3466220703125,-2.2114415389955044,-0.7879696287628263,0.7822581192482262
1782835553036552200,4.35655224609375,-1.8949439785182476,-0.7517252530142664,0.8037962165132164
1782835553046483000,4.36648291015625,-1.6021733305871486,-0.6712013713605701,0.6783668790757655
1782835553056413200,4.3764130859375,-1.0945593240141869,-0.4758876197054982,0.41138000315539536
1782835553066344000,4.386343994140625,-0.6001578502357006,-0.22067527966573833,0.1702904791554436
1782835553076274200,4.396274169921875,-0.19356500829160211,-0.05214797425791621,0.045469702070392665
1782835553086205000,4.406204833984375,0.128040104457736,0.01600581677481532,0.001764379324018955
1782835553096135200,4.41613525390625,0.3587169920474291,-0.012860869812592863,-0.07098769928440452
1782835553106066200,4.426066162109375,0.6570306610584259,-0.1098383120086044,-0.21020145112015307
1782835553115996200,4.43599609375,1.109122686895728,-0.20787351962924003,-0.37352066649086774
1782835553125927200,4.44592724609375,1.3979466430276632,-0.22191431994140146,-0.5030398305252194
1782835553135857200,4.455857177734375,1.6066285564303397,-0.14195384432412683,-0.5905947798594832
1782835553145788200,4.4657880859375,1.8444757740408182,-0.11039295021668076,-0.7191439298179
1782835553155718100,4.47571826171875,1.9940859052717685,-0.10659019693285227,-0.8897779982466251
1782835553165649200,4.485649169921875,2.018257054454088,-0.06519158022627235,-1.0215200259622186
1782835553175579100,4.4955791015625,1.8540028963208197,0.04513604966923594,-1.1184351435117423
1782835553185510100,4.50551025390625,1.5697235978811979,0.12160861010551452,-1.2389467521607875
1782835553195440000,4.515440185546875,1.2797329360574483,0.19564327587038277,-1.2622868573464452
1782835553205371100,4.52537109375,0.8739502414524555,0.22899171098172663,-1.2726663586720823
1782835553215301000,4.535301025390625,0.4396463857620954,0.29823256659880276,-1.303015904228389
1782835553225231000,4.545231201171875,0.25439327874183654,0.3274086844615638,-1.1981629794169217
1782835553235162000,4.555162109375,0.20396774436235426,0.33929844421967864,-1.062471337292716
1782835553245092000,4.565092041015625,0.1875409256964922,0.3854704128079116,-0.8642872178331017
1782835553255023400,4.5750234375,0.36384091093242166,0.38537016730383034,-0.7773763385560363
1782835553264953000,4.584953125,0.5783709658414126,0.3127724024742842,-0.7756683655943721
1782835553274884000,4.594884033203125,0.7964215960919857,0.2379268587179482,-0.7793326602555811
1782835553284814000,4.60481396484375,1.0886381172716617,0.15109744717925785,-0.8171708080016076
1782835553294745000,4.6147451171875,1.2182529237002133,0.11069997033923863,-0.8493252840880304
1782835553304675000,4.624675048828125,1.2590589813411235,-0.058486821890622376,-0.8006932820618152
1782835553314606000,4.634606201171875,1.4565531457751988,-0.34708310674652454,-0.762298304150626
1782835553324536000,4.6445361328125,1.5880816768705843,-0.5982355038709938,-0.7796695640597492
1782835553334467000,4.654467041015625,1.600493999198079,-0.7520920405000447,-0.7284162736192346
1782835553344397000,4.66439697265625,1.559935778838396,-0.8416318800412118,-0.7234476914264262
1782835553354328000,4.674328125,1.4602636907309292,-0.8541479550041258,-0.7315258570071309
1782835553364258000,4.684258056640625,1.1887485967963933,-0.8302523348275571,-0.806913471750915
1782835553374189000,4.69418896484375,0.8961755172640085,-0.8189582759402692,-1.0779746844381093
1782835553384119000,4.704119140625,0.5783399861812591,-0.8623159908253699,-1.2121554836079478
1782835553394050000,4.714050048828125,0.3120686381191015,-0.9406628937661647,-1.2900300197966397
1782835553403980000,4.72397998046875,0.13066110061109065,-1.001633568361774,-1.282488079984486
1782835553413911000,4.7339111328125,-0.08196341293752193,-1.0481522314958274,-1.1188226084593682
1782835553423841300,4.74384130859375,-0.2744470557332039,-1.0811517801042645,-0.960500032332167
1782835553433772000,4.75377197265625,-0.332234058791399,-1.064783413627371,-0.9610734483059495
1782835553443702300,4.763702392578125,-0.5237678535163403,-0.9753761874899267,-1.0381820416234433
1782835553453633000,4.773633056640625,-0.6451379786908626,-0.9269617006719112,-1.008699415094778
1782835553463563300,4.783563232421875,-0.6972346611529588,-0.9047286799453198,-0.9852304228324442
1782835553473494000,4.793493896484375,-0.7566589100241661,-0.8284164246372878,-0.9345187649879604
1782835553483424300,4.80342431640625,-0.6817080061972141,-0.7219795185700059,-0.8202909127835184
1782835553493355000,4.81335498046875,-0.7135235326528548,-0.6902372034810483,-0.7959540516454726
1782835553503285200,4.82328515625,-0.8514870652318001,-0.718277156920731,-0.8391367752898484
1782835553513216000,4.833216064453125,-0.9971388142257929,-0.7518252062574029,-0.8075797536399215
1782835553523146200,4.843146240234375,-1.0914134272038936,-0.6868610050462186,-0.788781529667601
1782835553533077200,4.8530771484375,-1.2893436449676752,-0.5385757657434791,-0.7613312857493758
1782835553543007200,4.86300732421875,-1.6524533190160988,-0.3617386779561639,-0.8175591497320681
1782835553552938200,4.872938232421875,-1.914561117658019,-0.30244864992387593,-0.86504563498497
1782835553562868200,4.8828681640625,-2.1431220360070466,-0.38874358925968405,-0.903372589161247
1782835553572799200,4.89279931640625,-2.4788830998808145,-0.4769518148709088,-1.03887126599662
1782835553582729200,4.902729248046875,-2.6181319960951805,-0.4734009905215352,-1.0372774939991534
1782835553592660200,4.91266015625,-2.718124986720085,-0.3813968066934496,-1.004317035292089
1782835553602590200,4.922590087890625,-2.777017905193567,-0.33872941216006874,-0.9211289759304374
1782835553612521200,4.932521240234375,-2.946583029216528,-0.3852284207455814,-0.797748022390157
1782835553622451000,4.942450927734375,-3.096978757867217,-0.43836197197474536,-0.7267836309161037
1782835553632382200,4.95238232421875,-3.1445243528962132,-0.48412528669685123,-0.643300607195869
1782835553642312000,4.96231201171875,-2.9747365260332823,-0.47755496839582917,-0.5851441132381558
1782835553652242200,4.9722421875,-2.5962340525418517,-0.39970293629989023,-0.5085031374324113
1782835553662173000,4.9821728515625,-2.11152278265059,-0.267564529677853,-0.31667795854546127
1782835553672103200,4.992103271484375,-1.429318517369032,-0.08563011875152587,-0.26521796655170615
1782835553682034000,5.002033935546875,-0.5853934118241071,0.15499197039976714,-0.3146786744870245
1782835553691964200,5.011964111328125,0.17933657645285128,0.47645036815479397,-0.1269275766385719
1782835553701895200,5.021895263671875,0.5025701671868562,0.7242020899903029,0.2813075891524553
1782835553711825200,5.0318251953125,0.7247977908611297,0.7357394561141729,0.42790275647640225
1782835553721756200,5.041756103515625,1.0837369012266398,0.5980333323623984,0.4678392282085493
1782835553731686100,5.05168603515625,1.4348007481724023,0.5706444632425904,0.5685670724466443
1782835553741617200,5.0616171875,1.674161877477169,0.6383898196049034,0.6068391546305268
1782835553751547100,5.071547119140625,1.9753145693063734,0.6875429959610104,0.612414835871011
1782835553761478100,5.08147802734375,2.2132798603385684,0.639045360904187,0.6315356428612023
1782835553771408100,5.091408203125,2.3609482098519803,0.5613935275554657,0.6907387963276356
1782835553781339100,5.101339111328125,2.437595980724692,0.523428830820322,0.7447973534472286
1782835553791269000,5.11126904296875,2.3559213216006754,0.5537302994512021,0.8674009659394621
1782835553801200000,5.1212001953125,2.0103356138050557,0.5817756597183644,1.0869236415039747
1782835553811130000,5.131130126953125,1.5219588071435688,0.5774040205053985,1.1836072883851825
1782835553821061000,5.14106103515625,0.9759890586912632,0.643537996148318,1.1722872913390396
1782835553830991000,5.1509912109375,0.5232365231186151,0.8030211404874921,1.2108750884085893
1782835553840926000,5.160926025390625,0.10902911451756954,0.9471808973580599,1.3413432967960834
1782835553850856200,5.170856201171875,-0.36065234402418134,1.0058934908285737,1.4227800555109977
1782835553860787000,5.180786865234375,-0.7283768183916807,1.0235248629786073,1.3497031288623809
1782835553870717000,5.190717041015625,-1.1837076800197361,1.0297573276273906,1.3524100497335194
1782835553880648000,5.20064794921875,-1.5233072991430758,0.8875845067903398,1.4495065882645546
1782835553890578000,5.210577880859375,-1.460292332303524,0.6956932769298553,1.5549603285133837
1782835553900509000,5.220509033203125,-1.2276350845515727,0.6066543726481497,1.6323866825431583
1782835553910439000,5.23043896484375,-0.777108992856741,0.6504157729633152,1.7208521708510816
1782835553920370000,5.240369873046875,-0.22363456786274907,0.7001528866872191,1.8758812583908437
1782835553930300000,5.2502998046875,0.1669400362163782,0.6841057149887084,2.0211982224725187
1782835553940231000,5.26023095703125,0.3120511024624109,0.5578285285502672,2.1314980875782665
1782835553950161000,5.270160888671875,0.34304946731626984,0.331519773042202,2.1049325906053182
1782835553960092200,5.280092041015625,0.43836862091124057,0.1214396832793951,2.0517121648103
1782835553970022000,5.29002197265625,0.5890069261461496,0.03535933654233813,2.0030184226594865
1782835553979953200,5.299953125,0.6994640276402234,0.08919789423570036,1.9664545326329768
1782835553989883000,5.3098828125,0.7932049721330404,0.13804244303405283,2.027479348568618
1782835553999814100,5.319814208984375,0.7716261775314808,0.1432322667621076,2.049157073500007
1782835554009742800,5.329742919921875,0.6862947494655847,0.11968728665411471,1.9196353521823881
1782835554019672800,5.3396728515625,0.6355348685652017,0.13055515601858497,1.7849322827041147
1782835554029603800,5.349603759765625,0.6327034445315599,0.16548983740806578,1.696413895165175
1782835554039533800,5.359533935546875,0.6529524518340826,0.2255000694736838,1.6917675306640565
1782835554049464800,5.36946484375,0.5664782834738492,0.25863208535537124,1.6775120646879076
1782835554059395000,5.37939501953125,0.582183802127838,0.1848265521712601,1.559287690193206
1782835554069325800,5.389325927734375,0.7975058841973542,0.1227123335637152,1.4248523317404092
1782835554079256000,5.399256103515625,0.9009487230151891,0.1311488841280341,1.350756729568541
1782835554089186800,5.409186767578125,0.8824737396478652,0.17952340426184235,1.3090771039634943
1782835554099117000,5.419116943359375,0.8411877895355224,0.17528372086547314,1.3039775888673961
1782835554109047800,5.4290478515625,0.7677993127197027,0.07577953667081892,1.2705802000477908
1782835554118978000,5.43897802734375,0.5871949082881212,-0.08181881683506072,1.188209594548866
1782835554128908800,5.44890869140625,0.5124485871225595,-0.22539098307602107,1.0862553868535905
1782835554138839000,5.458839111328125,0.46585342468619345,-0.3005489537823945,1.0450085266426206
1782835554148769800,5.468769775390625,0.33697277775108814,-0.3605743103519082,1.0831594666648656
1782835554158700000,5.478699951171875,0.20593349147737025,-0.4086432716678828,1.0449513896279037
1782835554168630800,5.488630859375,0.18886779038608073,-0.4331840213475749,0.9569730272497982
1782835554178561000,5.49856103515625,0.210014623311162,-0.3319343451924622,0.9112466104719787
1782835554188492000,5.508491943359375,0.10804945583045482,-0.15474778638035058,0.777132592928037
1782835554198422000,5.518422119140625,-0.21544950784146785,-0.032823132595606146,0.5568113873969763
1782835554208353000,5.52835302734375,-0.5968716681718826,-0.022761355449631808,0.3327675080809742
1782835554218283000,5.538282958984375,-0.765982034164667,-0.08835757095403969,0.18962014312334358
1782835554228214000,5.548214111328125,-0.851621505266428,-0.13743552664946765,0.2335680059213191
1782835554238144000,5.55814404296875,-0.9194786514401435,-0.17183938909787683,0.344675972539559
1782835554248075000,5.568074951171875,-1.0093266801476477,-0.27385464279800653,0.45905675028339027
1782835554258005000,5.5780048828125,-0.9591121581703423,-0.376251406629011,0.5707951968248933
1782835554267936000,5.58793603515625,-1.0104822799235582,-0.4092250170785933,0.6131771254803985
1782835554277866000,5.597865966796875,-1.217125380975008,-0.25581454371660944,0.48509157444573936
1782835554287797000,5.607796875,-1.4481693483114242,-0.05051533155478537,0.25214747257642445
1782835554297727000,5.61772705078125,-1.8579630321234464,0.012226955823227763,0.05731481896918267
1782835554307658000,5.627657958984375,-2.2815040862590075,-0.06569909135699271,0.025783297086693344
1782835554317588000,5.637587890625,-2.600999659508467,-0.17563154792245475,0.11910316662322729
1782835554327519000,5.64751904296875,-2.802403106340766,-0.19914324681535361,0.22195618632175027
1782835554337449000,5.657448974609375,-2.8723037410408256,-0.08725015770141034,0.325550087515451
1782835554347380000,5.6673798828125,-2.7099814277529717,0.0824635079467669,0.3172371633308008
1782835554357310000,5.67731005859375,-2.383526536884904,0.1942528444252908,0.11888013498969376
1782835554367241000,5.687240966796875,-1.9326620070159435,0.30322938850540665,-0.027519728957861662
1782835554377171000,5.6971708984375,-1.3050251982241867,0.3888061331018805,0.06754475575629622
1782835554387102000,5.70710205078125,-0.6026718788832426,0.4509579072408378,0.2885193836947903
1782835554397032000,5.717031982421875,0.12433072854578495,0.52591651945021,0.4064701288798824
1782835554406963000,5.726962890625,0.7138894433557986,0.4719511205067858,0.4908737380437553
1782835554416893000,5.736892822265625,1.2916571826070546,0.3488806211551651,0.526366710903123
1782835554426824000,5.746823974609375,1.7767688499927519,0.358673299036175,0.5160857380485162
1782835554436754000,5.75675390625,1.9048861113399267,0.4754168603885919,0.5856148725550622
1782835554446685000,5.766684814453125,1.7497779672145843,0.4874673636663705,0.6065100688066333
1782835554456615000,5.776614990234375,1.5783908884614706,0.3970606781627983,0.4810002134788781
1782835554466546200,5.786546142578125,1.3291004858165978,0.26115437037460504,0.42060379510726775
1782835554476476000,5.796475830078125,0.9491799622207879,0.0533563271343708,0.5809323407620192
1782835554486407200,5.8064072265625,0.5975654956549405,-0.17577734960131347,0.891835953689739
1782835554496337000,5.8163369140625,0.43893151549100873,-0.28300927850380536,0.9859818987868726
1782835554506268000,5.826267822265625,0.47257893354892727,-0.1652873736385256,0.957406523296237
1782835554516198000,5.836197998046875,0.3670604575008154,0.09336838485337794,0.9631269467696547
1782835554526129000,5.84612890625,0.18466566252112387,0.2594597683511674,1.040488053543493
1782835554536059000,5.856058837890625,0.16647709487974643,0.22280272014848887,1.121682747130841
1782835554545990000,5.865989990234375,0.25398703602850436,0.1611469858981669,1.1815073934964835
1782835554555920000,5.875919921875,0.21089199066758155,0.21111082105003295,1.2317271761707962
1782835554565851000,5.885850830078125,0.07343582308888436,0.23783136245422065,1.279178663175553
1782835554575780900,5.89578076171875,0.07025894661843776,0.12862243439033627,1.2412735876731573
1782835554585711900,5.9057119140625,0.20371932255923747,-0.05035385738275945,1.141768965087086
1782835554595641900,5.915641845703125,0.3318634719133377,-0.29436734253801405,1.1080724471904337
1782835554605572900,5.92557275390625,0.492555553650856,-0.5588714982645586,1.0793328941140323
1782835554615503000,5.935503173828125,0.7192179449021816,-0.7924732237923889,0.9847848710220306
1782835554625433900,5.945433837890625,0.9791904850810765,-1.016480351294577,0.9056150343257934
1782835554635364000,5.955364013671875,1.1679530615270137,-1.198357113749534,0.8895721734762191
1782835554645294800,5.965294921875,1.2336650123655795,-1.312881756943464,0.8877356056988239
1782835554655228000,5.975227783203125,1.3115022852838039,-1.3583596057876943,0.8783196887083351
1782835554665158100,5.985158203125,1.403262285092473,-1.3742105242617428,0.8397498656868934
1782835554675089000,5.9950888671875,1.4149082992225885,-1.359415106189996,0.7486725874453782
1782835554685019100,6.00501904296875,1.2882611104279755,-1.3050208143100142,0.6756707718595862
1782835554694950000,6.014949951171875,1.0654986492246388,-1.2439863537631928,0.668649202659726
1782835554704879900,6.0248798828125,0.8053197728186845,-1.3045198790505528,0.6339676923137157
1782835554714811000,6.034810791015625,0.5560194333016872,-1.4081789909675717,0.6115259242072701
1782835554724740900,6.044740966796875,0.36116263163387774,-1.380625944261998,0.6352073901765048
1782835554734672100,6.054672119140625,0.1942500679463148,-1.25736854403615,0.708696550887823
1782835554744601900,6.064601806640625,0.04279109397828579,-1.1235268406275658,0.7573636972926556
1782835554754533000,6.074533203125,-0.04522387408316135,-1.020747653350234,0.7179478519011289
1782835554764462800,6.084462890625,-0.08870178128182887,-1.0121157263442873,0.6119847373580559
1782835554774394000,6.09439404296875,-0.2484294019013643,-1.0097978778559713,0.5350907001066952
1782835554784323800,6.10432373046875,-0.4413040898412466,-0.9524109069660306,0.40694121699035163
1782835554794255000,6.114255126953125,-0.49946284882128233,-0.8989753771156072,0.27592319270037113
1782835554804184800,6.124184814453125,-0.48183074601888654,-0.8846979915685951,0.18132643509581683
1782835554814116000,6.1341162109375,-0.651978053843975,-0.8907970390960573,0.2213866428054869
1782835554824045800,6.1440458984375,-1.1182347986340522,-0.8647484056040644,0.24177960688965394
1782835554833977000,6.15397705078125,-1.5596657297253609,-0.9024015521720051,0.11540933534028008
1782835554843907000,6.163906982421875,-1.8391425963193178,-1.030488710641861,0.2104298895811662
1782835554853838000,6.173838134765625,-1.9554396560132503,-1.0413909206673502,0.7563328929401933
1782835554863768000,6.18376806640625,-1.9413585236907005,-1.018487380268052,0.6836722189422696
1782835554873699000,6.193698974609375,-2.0226468138456344,-0.8391187281765043,0.672270461896807
1782835554883629300,6.20362939453125,-1.8849568375110626,-0.5260009463306516,0.910040303422138
1782835554893560000,6.21356005859375,-1.9135645078361034,-0.21954620257057247,1.0778452128395437
1782835554903490300,6.223490234375,-2.2071184150993823,-0.025394918823614714,1.2824375188410282
1782835554913421000,6.233421142578125,-2.292664947220683,0.054057022749632595,1.3639547954462468
1782835554923351300,6.243351318359375,-2.5392905145704745,0.061575873947143554,1.133283533879742
1782835554933282000,6.253281982421875,-2.827518842896819,0.14931567832902073,0.9432881277032196
1782835554943212300,6.26321240234375,-2.923531239452958,0.2089393952950835,0.960556877085939
1782835554953143000,6.27314306640625,-2.9462749861806627,0.2739003816358745,0.9501301025524735
1782835554963073300,6.2830732421875,-2.6643448812156914,0.30336905270442366,1.0762112549621612
1782835554973004000,6.293004150390625,-2.192415351486206,0.34003961797580123,1.1829658486764878
1782835554982934300,6.302934326171875,-1.7762720063865183,0.40301922124102707,1.4068110636152327
1782835554992865300,6.312865234375,-1.3169313245952128,0.5245321158871055,1.5741306006684899
1782835555002795300,6.322795166015625,-0.7131956158727407,0.6820699713774026,1.652389606130123
1782835555012726300,6.332726318359375,0.033714638075232506,0.8254282026067375,1.6562633788235483
1782835555022656300,6.34265625,0.3591688274681568,0.9612721126832068,1.2810941414080559
1782835555032587300,6.352587158203125,0.5367524227738381,1.1104106808796523,1.154384189575538
1782835555042517200,6.362517333984375,0.8351543545901775,1.1683930603794752,1.1710798152454196
1782835555052448300,6.3724482421875,1.2264210325866938,1.2158422092966734,0.8318802282903343
1782835555062378200,6.382378173828125,1.5536679506152868,1.2808204390332103,0.3694713545674458
1782835555072309200,6.392309326171875,1.721765924695134,1.2394753060795367,0.19786672407351433
1782835555082239200,6.4022392578125,1.8290531639814376,1.0514134252488612,0.33819022724945097
1782835555092170200,6.412170166015625,1.887382603353262,0.7519239904567598,0.4832604134958237
1782835555102100200,6.422100341796875,1.9012685053646563,0.5128419703543186,0.592386814375408
1782835555112031200,6.43203125,1.9244068043678997,0.40143180591911076,0.7226242462143302
1782835555121961200,6.441961181640625,1.939693805348873,0.41939372519776225,0.8299827971711754
1782835555131892200,6.451892333984375,1.7837836971908807,0.5201650067187845,0.8826328757323324
1782835555141822200,6.461822265625,1.3353566236019134,0.641266544084996,0.8349690611511469
1782835555151753200,6.471753173828125,0.7339654321789741,0.5984595218852162,0.7568443495936691
1782835555161683200,6.48168310546875,0.32376141400039193,0.4386472917221486,0.6136651281930506
1782835555171614200,6.4916142578125,0.06206862590014934,0.3696490126892924,0.36696298847571013
1782835555181544200,6.501544189453125,-0.2792728684544563,0.4599595443420112,0.19165190467927604
1782835555191475200,6.51147509765625,-0.4717804766476154,0.5385197247073054,0.16997907511871307
1782835555201405200,6.5214052734375,-0.5043599732130766,0.5204799178868532,0.2524614338964224
1782835555211336200,6.531336181640625,-0.38915538493096824,0.45444852583557366,0.21015134663442148
1782835555221266200,6.54126611328125,-0.19941665692925453,0.3735511346943676,0.1817702333405614
1782835555231197200,6.551197265625,0.10815642333626746,0.3613289281114936,0.15370695382421834
1782835555241127200,6.561127197265625,0.4168003477036953,0.39824470031559467,0.19422014773208646
1782835555251058200,6.57105810546875,0.5344856468856335,0.3614683365821838,0.31552312595453114
1782835555260988200,6.58098828125,0.6480173335194588,0.24952947209775447,0.4320088035557419
1782835555270919400,6.59091943359375,0.8273457266658544,0.12604776159673928,0.5380512304127216
1782835555280849200,6.60084912109375,0.9766086518943309,0.029504911425709723,0.573692452636361
1782835555290780400,6.610780517578125,0.969969067749381,-0.08324205457121134,0.5406619609003886
1782835555300710100,6.620710205078125,1.0548580127447842,-0.23291560642719267,0.43956075330525635
1782835555310641400,6.630641357421875,1.2335697352975605,-0.3734178637035191,0.33567287413366137
1782835555320571100,6.640571044921875,1.077374964979291,-0.4335391549281776,0.3323514746259898
1782835555330502100,6.650502197265625,0.8002385240316391,-0.47140331389829515,0.4288132954500615
1782835555340432100,6.66043212890625,0.9037029901593923,-0.5256615583084523,0.5745065820308402
1782835555350363100,6.670363037109375,1.0271300478637218,-0.47848158172145483,0.6155287301078438
1782835555360293000,6.680293212890625,0.8382324468612671,-0.33447657702118155,0.44158261452168224
1782835555370224000,6.69022412109375,0.5220405913323164,-0.2593515587363392,0.20257473736768586
1782835555380154000,6.700154052734375,0.2615980955541134,-0.30591216131597754,-0.012292577538499608
1782835555390085000,6.710085205078125,-0.014438859719038008,-0.4310341133046895,-0.22669877773895858
1782835555400015000,6.72001513671875,-0.18437047896683215,-0.501260399762541,-0.38370135730877514
1782835555409946000,6.729946044921875,-0.22982465467453,-0.45345410797074437,-0.4868124799542129
1782835555419876000,6.7398759765625,-0.31827859867513175,-0.42787499168664217,-0.547175544045493
1782835555429807000,6.74980712890625,-0.4870125325709581,-0.5676392900772392,-0.505158612777479
1782835555439737300,6.7597373046875,-0.652699938377738,-0.7844659314908087,-0.36144974147956815
1782835555449668000,6.769668212890625,-0.7050409509897232,-0.8752839742742479,-0.25055850461823864
1782835555459598300,6.779598388671875,-0.8972370090156793,-0.8440119070455432,-0.0956536279800348
1782835555469529000,6.789529052734375,-1.1840005254864692,-0.7576065661378204,0.10626271854415535
1782835555479460400,6.79946044921875,-1.3415811972051859,-0.6954504080846905,0.32485432380363344
1782835555489390000,6.80939013671875,-1.4078957901120186,-0.7109503211639822,0.38865247691012916
1782835555499321300,6.8193212890625,-1.3279226742088794,-0.6452041757948697,0.34552162958346305
1782835555509251000,6.8292509765625,-1.1693956615507601,-0.42836628233492374,0.336101109483093
1782835555519182000,6.83918212890625,-1.0730360589921475,-0.19013050379827617,0.3786011846255511
1782835555529112000,6.849112060546875,-1.084842232120037,-0.04300897451266646,0.36352760719954963
1782835555539043000,6.85904296875,-1.1910206333816051,-0.032139936104416844,0.22090738965487106
1782835555548973300,6.868973388671875,-1.1564461636066437,-0.13290697984173894,0.05398717238381505
1782835555558904000,6.878904052734375,-1.2182476630032062,-0.23613632203936574,-0.000990563673619181
1782835555568834300,6.888834228515625,-1.542906318104267,-0.2548362732689827,0.14618021158119662
1782835555578765000,6.89876513671875,-1.7874837207525966,-0.13629713373668492,0.3286844034858048
1782835555588695300,6.9086953125,-1.7984318157464265,-0.03379880922734737,0.38223018877767023
1782835555598626000,6.9186259765625,-1.6003548829883336,0.010261793230101466,0.3715087786791846
1782835555608556300,6.928556396484375,-1.262500646227598,0.16096556491665542,0.23240648786127566
1782835555618487000,6.938487060546875,-0.6791174051821232,0.5501292792845517,-0.026823152395291254
1782835555628417300,6.948417236328125,-0.27609073128700257,0.92519447180368,-0.14774335097838193
1782835555638348000,6.95834814453125,0.04646949023008346,1.0604863740205763,-0.07428757194685749
1782835555648278300,6.9682783203125,0.37167467329800125,0.9768703715704381,-0.004450832795863971
1782835555658209300,6.978209228515625,0.679971976184845,0.7985641610786318,-0.018709376645088194
1782835555668139300,6.98813916015625,0.9691074824839829,0.5957272473771125,-0.043788708447199315
1782835555678070300,6.9980703125,1.1245318529516457,0.37461204192414876,-0.025453444077819583
1782835555688000300,7.008000244140625,1.0514672012627124,0.18996281908117232,0.12191752992421388
1782835555697931300,7.01793115234375,0.9792682264924049,0.12143661453947424,0.19491127180140463
1782835555707861200,7.027861328125,0.9643857146590947,0.09695347679853439,-0.0032240035478025672
1782835555717792300,7.037792236328125,0.9327554816424846,0.11294497278705239,-0.42004908383395523
1782835555727722200,7.04772216796875,0.8729121305763721,0.13931129392608999,-0.7490930048145353
1782835555737653200,7.0576533203125,0.6549836654007435,0.1440072697225958,-0.9337960767365991
1782835555747583200,7.067583251953125,0.433237103241682,0.11318126576095819,-1.0709868713773787
1782835555757514200,7.07751416015625,0.1742991668075323,0.01896400899328291,-1.1436918959736824
1782835555767444200,7.0874443359375,-0.19075462704598903,-0.08304580134674906,-1.2009576516367495
1782835555777375200,7.097375244140625,-0.5583832398235797,-0.13398578805439174,-1.301289226566255
1782835555787305200,7.10730517578125,-0.7896995943605899,-0.2554552819501609,-1.341710230412334
1782835555797236200,7.117236328125,-0.8563853586673736,-0.3844886352289468,-1.272853697937727
1782835555807166200,7.127166259765625,-0.8493558984220028,-0.47084465710222717,-1.0802701018989085
1782835555817097200,7.13709716796875,-0.8197042720019817,-0.5168611428678035,-0.8392537527330219
1782835555827027200,7.147027099609375,-0.8232306925624608,-0.490967919133231,-0.7093040152616799
1782835555836958200,7.156958251953125,-0.6664514003545046,-0.4155032936304807,-0.675716437632218
1782835555846883800,7.1668837890625,-0.05750643255114555,-0.24722601746097206,-0.6629195729665458
1782835555856814800,7.17681494140625,0.5744920785814523,-0.08751381360627711,-0.6088285748820752
1782835555866744800,7.186744873046875,0.9743757782757282,-0.02051627993658185,-0.44347146047558633
1782835555876675800,7.19667578125,1.1855588608443737,-0.1428407101612538,-0.2896178829886019
1782835555886606000,7.206606201171875,1.2334428940474986,-0.37338995278328657,-0.1691361214885488
1782835555896536800,7.216536865234375,1.268368076956272,-0.6500044156834482,-0.06408135396204888
1782835555906467000,7.226467041015625,1.322860130122304,-0.9264090352252126,0.0485841442964971
1782835555916397800,7.236397705078125,1.3251304131418467,-1.0835442281987517,0.1339585712539032
1782835555926328000,7.246328125,1.1785603802591562,-1.1331744474820793,0.15797094967793673
1782835555936258800,7.2562587890625,1.0824275721937417,-1.1491175742842257,-0.0079660469757393
1782835555946188800,7.266188720703125,0.8939753768712282,-1.1387200989104806,-0.2832426488682627
1782835555956119800,7.276119873046875,0.7377402745425701,-1.023563222227618,-0.5770642671570182
1782835555966049800,7.2860498046875,0.6579863543480634,-0.7895810094822198,-0.7559846640244126
1782835555975980800,7.295980712890625,0.5561456900298595,-0.6143813867036253,-0.7164075636565684
1782835555985910800,7.305910888671875,0.2578419578909874,-0.6768291481144726,-0.6591279255986213
1782835555995842000,7.315842041015625,-0.11761924820840358,-0.877145457297191,-0.6765577107619494
1782835556005771800,7.325771728515625,-0.45515784314870833,-1.1050642783503979,-0.5652239725638181
1782835556015703000,7.335703125,-0.6774322285741567,-1.293388828705251,-0.5141333253391087
1782835556025632800,7.3456328125,-0.6680062285810708,-1.4135438790015875,-0.5662588320368901
1782835556035564000,7.35556396484375,-0.4942261172115803,-1.4334212765127419,-0.5915734521659091
1782835556045493800,7.36549365234375,-0.31377953369021416,-1.3588866984017192,-0.6979172365896403
1782835556055425000,7.375425048828125,-0.16126900484263895,-1.3086641392484306,-0.8695050255466252
1782835556065354800,7.385354736328125,-0.03265080823600292,-1.3546516911804676,-1.0362170982260257
1782835556075286000,7.3952861328125,-0.029144845941662785,-1.4614163678973913,-1.0642243184398859
1782835556085215700,7.4052158203125,-0.09066752839684486,-1.6351596543878315,-0.9109117524944246
1782835556095147000,7.41514697265625,-0.22943302500844,-1.8251251768827437,-0.8731310340240597
1782835556105076700,7.42507666015625,-0.4162719399154186,-1.9272125094383954,-1.0193891514133662
1782835556115008000,7.435008056640625,-0.5213198758423329,-1.8519615997515617,-1.0768537906493991
1782835556124937700,7.444937744140625,-0.5394295330286025,-1.6187135464996099,-1.1649708308458329
1782835556134868700,7.45486865234375,-0.47990591543614863,-1.386357912042737,-1.2022351972918957
1782835556144798700,7.464798828125,-0.5433230333358049,-1.1817195018772035,-1.0212753304861486
1782835556154729700,7.474729736328125,-0.6752566381007432,-0.9622290480818599,-0.7878343119453638
1782835556164661000,7.484660888671875,-0.7059966442793607,-0.731678709481284,-0.5044515970192849
1782835556174590700,7.4945908203125,-0.7138491113454103,-0.5976178834293038,-0.2891383923759684
1782835556184522000,7.50452197265625,-0.9772358438819646,-0.5342094602927565,-0.2398077770937234
1782835556194451700,7.51445166015625,-1.4528653971731662,-0.3854955472491681,-0.23722126773186025
1782835556204383000,7.524383056640625,-1.8315280296623706,-0.10269231271147727,-0.38691180725526064
1782835556214312700,7.534312744140625,-2.125176629471779,0.19888035809546709,-0.5971238893672823
1782835556224244000,7.544243896484375,-2.5199521923720836,0.4323389853581786,-0.778847068695724
1782835556234173700,7.554173583984375,-3.001551467722654,0.5619544493738562,-0.8878244530260563
1782835556244105000,7.56410498046875,-3.318552301546931,0.5987865618824958,-0.8191901850000023
1782835556254034700,7.57403466796875,-3.208660432720184,0.5808199664287269,-0.7787568331290036
1782835556263966000,7.583966064453125,-2.6694173621743915,0.6453477489840239,-0.8169277930259704
1782835556273896000,7.59389599609375,-2.144210415765643,0.877896129534021,-0.7792894056357443
1782835556283827000,7.603826904296875,-1.5761603529304264,1.0996109083153307,-0.6735800101254135
1782835556293757000,7.6137568359375,-0.9272066153436899,1.1932426202800124,-0.5576769181851298
1782835556303688000,7.62368798828125,-0.3322884193271398,1.0954228089757263,-0.3173678039731458
1782835556313618000,7.633617919921875,0.20105273369848728,0.9174996064521371,-0.07224500586912036
1782835556323548700,7.643548583984375,0.6536492019265889,0.8635717630401253,0.05219057129062712
1782835556333479000,7.65347900390625,1.0499451062619685,0.8638187966037542,0.08986856003887951
1782835556343409700,7.66340966796875,1.4941057545781136,0.8408958939168601,0.09486772003304213
1782835556353340000,7.67333984375,1.7040613411784171,0.804890879882127,0.05111731603592634
1782835556363270700,7.683270751953125,1.766324612867832,0.7627471438966691,0.09358261212594807
1782835556373201000,7.693200927734375,1.7908125729143618,0.7393208217322826,0.2718584274794906
1782835556383132000,7.7031318359375,1.7318553570330142,0.7153036940678954,0.49523017968758937
1782835556393062000,7.713061767578125,1.707060522994399,0.7628380370505153,0.6719426912471652
1782835556402993000,7.722992919921875,1.569247797062993,0.9288540902897715,0.801508032510802
1782835556412923000,7.7329228515625,1.3853759152680634,1.0806152620747684,0.8841103278737514
1782835556422854000,7.74285400390625,1.145993743175268,1.1133756681650877,0.7702814849242567
1782835556432784000,7.752783935546875,0.9120967244952917,1.0939216106325387,0.6056442457575351
1782835556442715000,7.76271484375,0.7286041974067687,1.1073550927013158,0.5747205535750836
1782835556452644900,7.772644775390625,0.5762082348495722,1.1647481280058622,0.6432064261063933
1782835556462575900,7.782575927734375,0.31753508683145043,1.145633969952166,0.6943032838761806
1782835556472505900,7.792505859375,0.07865969521701335,1.0363663705036044,0.5892720068231224
1782835556482436900,7.802436767578125,-0.03638707215487957,0.9187351395964622,0.4784769055463373
1782835556492366800,7.812366943359375,-0.08464695293307303,0.8684379077717661,0.5089749561952427
1782835556502297900,7.8222978515625,-0.2528320207744837,0.8972162584885954,0.435046892610006
1782835556512227800,7.832227783203125,-0.3747013276427984,0.8259573410473764,0.38404355834256854
1782835556522158800,7.842158935546875,-0.32916824147999285,0.6641821402482688,0.3353277139578014
1782835556532088800,7.8520888671875,-0.1776227582722902,0.6043494567066431,0.22700762449242173
1782835556542019800,7.862019775390625,-0.028099136281013487,0.6464587059006095,0.27328551940685136
1782835556551950000,7.8719501953125,0.03676759590506554,0.731403180475533,0.43858514973875135
1782835556561880800,7.881880859375,0.05424889205992221,0.7456492941014469,0.5078679448014125
1782835556571811000,7.89181103515625,0.19100363337099552,0.5949810321196913,0.4178261470874771
1782835556581741800,7.901741943359375,0.3025929537653923,0.39107846194803714,0.3241244386265054
1782835556591672000,7.911672119140625,0.47524143075644965,0.24086583477929233,0.37265769298598167
1782835556601602800,7.921602783203125,0.5906184529960156,0.2167095909051597,0.41910913610272105
1782835556611533800,7.931533935546875,0.6491144811064005,0.20417714932933448,0.4161934313191101
1782835556621463800,7.9414638671875,0.6597504414111376,0.11455080054849386,0.44252183160055425
1782835556631394800,7.951394775390625,0.6467687947630882,-0.01203399053439498,0.44684024278894063
1782835556641324800,7.96132470703125,0.5515729752868413,-0.1259527767896652,0.4300803927764296
1782835556651255800,7.971255859375,0.5537894822925329,-0.20099033598676322,0.3906290376801044
1782835556661186000,7.98118603515625,0.6404711559236049,-0.18279679990932343,0.3610486133327707
1782835556671116800,7.99111669921875,0.6657435443460941,-0.055969286111742254,0.30043124568685886
1782835556681047000,8.001047119140624,0.6789730282753705,0.01217529870122671,0.2829406702470034
1782835556690977800,8.010977783203124,0.6150578977257013,-0.02067439310774207,0.23573800690416244
1782835556700908000,8.020907958984376,0.482549707943201,-0.15383607836291194,0.175095833610557
1782835556710838800,8.0308388671875,0.43063539631068704,-0.32054391325861215,0.16961469878572968
1782835556720769000,8.04076904296875,0.30754326964914797,-0.44404535137340423,0.1676359095260501
1782835556730699800,8.05069970703125,0.09744564422965049,-0.5802689084172249,0.16744941051062195
1782835556740630000,8.060630126953125,0.010014029014110564,-0.6982147582314908,0.14909787085987627
1782835556750560800,8.070560791015625,0.0016150339812040328,-0.7341055713020265,0.10617306749932467
1782835556760491000,8.080490966796875,-0.22258652011454105,-0.7029118300065398,0.0623315876852721
1782835556770422000,8.090422119140625,-0.4929091893941164,-0.6703190355680883,0.0014054828837513924
1782835556780352000,8.10035205078125,-0.6382523108303546,-0.6326619434773921,-0.07186163257472217
1782835556790283000,8.110282958984374,-0.8521434833139181,-0.51320773492679,-0.07735756310988218
1782835556800212700,8.120212646484376,-1.0644313122540712,-0.33968861258104444,-0.10645973895359784
1782835556810144000,8.13014404296875,-1.1734236018925905,-0.2266469014212489,-0.2342227069703862
1782835556820073700,8.14007373046875,-1.2991869935899971,-0.2267759346283972,-0.3639680809760466
1782835556830005000,8.1500048828125,-1.3819482789069413,-0.3213571293376386,-0.440262106507644
1782835556839939000,8.15993896484375,-1.3595651821851729,-0.4026750839784741,-0.4352616313392296
1782835556849870000,8.1698701171875,-1.2314023281306028,-0.3974908132083714,-0.37869072607252746
1782835556859800000,8.179800048828126,-1.046080247527361,-0.33169439895674585,-0.3276446851745248
1782835556869731000,8.18973095703125,-0.8194745548993349,-0.31825857880041003,-0.2572115510329604
1782835556879661300,8.199661376953125,-0.5603846427738666,-0.38814460045322774,-0.09388652697596699
1782835556889592000,8.209592041015625,-0.42981063592433927,-0.5065177357688546,0.12762257316540926
1782835556899522300,8.219522216796875,-0.6352110434383154,-0.5036319511994719,0.2230311951421201
1782835556909453000,8.229453125,-0.9396785589039325,-0.4830424598962068,0.2154735097715631
1782835556919383300,8.23938330078125,-0.8624825064986944,-0.48009164726659653,0.0531173307467252
1782835556929314000,8.24931396484375,-0.8446428984254598,-0.33465792493745683,-0.16062767473179845
1782835556939244300,8.259244384765625,-1.0280687900185583,-0.118695499137789,-0.30323004609253257
1782835556949175000,8.269175048828124,-1.1547995654433965,-0.026428134328871963,-0.2847456738423556
1782835556959105300,8.279105224609374,-1.223688392752409,-0.09132511552274226,-0.24341632297970353
1782835556969036000,8.2890361328125,-1.1187117684960364,-0.14324066926427184,-0.2495032416779548
1782835556978966300,8.29896630859375,-0.843932119807601,0.003236132377013564,-0.2581392238045111
1782835556988897300,8.308897216796876,-0.6607838761121034,0.27052608289718627,-0.27604546737316993
1782835556998828300,8.318828369140626,-0.4015595239520073,0.5073815129913389,-0.36777788505516945
1782835557008758300,8.32875830078125,-0.20001929899752138,0.6464348135683685,-0.4222180619034916
1782835557018689300,8.338689208984375,-0.053981765556335444,0.6569463437758386,-0.3128006787206977
1782835557028619300,8.348619384765625,0.20317630172371864,0.6299920666810125,-0.14596264157406985
1782835557038550000,8.358550048828125,0.6072662209361791,0.6798308141484857,-0.11330262711830437
1782835557048480300,8.368480224609375,0.9656395141124725,0.8060111891489475,-0.12610219519771634
1782835557058411000,8.378410888671874,1.058905826830864,0.8680687821984291,-0.14587346545327454
1782835557068341200,8.38834130859375,1.0587789855808019,0.790917811043933,-0.20860574289392678
1782835557078272000,8.39827197265625,1.032185577687621,0.6447646883990615,-0.31775468439888205
1782835557088202200,8.4082021484375,0.9231903654396534,0.5075526317745447,-0.4615145917642861
1782835557098133000,8.418133056640626,0.8013876940667629,0.4559097574945539,-0.6496851936664432
1782835557108063200,8.428063232421875,0.6717594436347484,0.5205820630870759,-0.7847534431952983
1782835557117994200,8.437994140625,0.42231238912343977,0.5897137592412531,-0.915004209439829
1782835557127924200,8.44792431640625,0.12303542803823947,0.5470232030279935,-1.1239210275769234
1782835557137855200,8.457855224609375,-0.4081722200900316,0.40629568562842905,-1.2772668382048606
1782835557147785200,8.46778515625,-0.8321019812822341,0.28402590820044277,-1.2679910603374243
1782835557157716200,8.47771630859375,-0.9349316566377878,0.2931195344340056,-1.2628415686197578
1782835557167646200,8.487646240234374,-0.9796364752829074,0.437365435218066,-1.2152544725365937
1782835557177577200,8.4975771484375,-1.084298042240739,0.49824433987699446,-1.1818944931179285
1782835557187507200,8.507507080078126,-1.0431728356480598,0.40662184884287417,-1.1380241525355725
1782835557197438200,8.517438232421876,-0.8921697887539863,0.27426746138259767,-1.0930803375028073
1782835557207368200,8.5273681640625,-0.7005570835739374,0.19021788982078433,-1.0492844503961503
1782835557217299200,8.53729931640625,-0.5116039529919624,0.12404876979924738,-1.021900038255751
1782835557227229200,8.547229248046875,-0.20433540863096714,-0.01002871512658894,-0.9626951312236487
1782835557237160200,8.55716015625,0.11435352441072463,-0.1902853290338069,-0.8600567406564951
1782835557247090200,8.567090087890625,0.4742722934633493,-0.37034875845648346,-0.7153652149967848
1782835557257021200,8.577021240234375,0.9097381786704063,-0.5014590641397982,-0.6041171092554927
1782835557266951400,8.586951416015625,1.303738081023097,-0.5618811649419367,-0.5012256937753409
1782835557276882200,8.596882080078124,1.5075065034210682,-0.5852127945601939,-0.4241084787599742
1782835557286812400,8.6068125,1.5778455295383929,-0.6462135720331221,-0.4026652932368219
1782835557296743200,8.6167431640625,1.5430828437149524,-0.7207110330041497,-0.3920814284455031
1782835557306673400,8.62667333984375,1.3880606243073939,-0.7694075516339391,-0.3833790665518492
1782835557316604200,8.636604248046876,1.3619500314950943,-0.8188100996412336,-0.4561039648924023
1782835557326534100,8.6465341796875,1.275432608515024,-0.8437159928388893,-0.5168140157904476
1782835557336465200,8.656465087890625,1.1273989328205585,-0.8107419439978897,-0.49807015235386787
1782835557346395100,8.66639501953125,0.9357494027614593,-0.7863530604116619,-0.5097109057869762
1782835557356326100,8.676326171875,0.5956792435169219,-0.8053869928359985,-0.5022911310497671
1782835557366257200,8.686257080078125,0.19964111333489418,-0.8653933524440973,-0.5122038185812533
1782835557376187400,8.6961875,-0.10939736330807208,-0.8588854318547994,-0.5958440056245774
1782835557386118100,8.7061181640625,-0.23937457330822942,-0.7598187622945756,-0.6481806343223899
1782835557396048400,8.71604833984375,-0.30775369752943516,-0.6042996262155473,-0.7464017929691821
1782835557405979100,8.725979248046874,-0.34837329268753525,-0.4905675216387957,-0.7993194364253431
1782835557415909400,8.735909423828126,-0.5048895500451326,-0.4812533114571124,-0.762487177786231
1782835557425840000,8.745840087890626,-0.6718219874769449,-0.5849116196565329,-0.6368033541310578
1782835557435770400,8.755770263671875,-0.7473579977154732,-0.6927723479818553,-0.5184052305046468
1782835557445701000,8.765701171875,-0.728932114186883,-0.7458435014992952,-0.4915383394323289
1782835557455631400,8.77563134765625,-0.7079682366132736,-0.7008818585488945,-0.49518992074243723
1782835557465562000,8.78556201171875,-0.7632569931149482,-0.6356381828092038,-0.4618061220567673
1782835557475492400,8.795492431640625,-0.8227969773203134,-0.5889075574249029,-0.41003026904687284
1782835557485423000,8.805423095703125,-0.8172901965975761,-0.5134437356397509,-0.31086941839717325
1782835557495353300,8.815353271484375,-0.7624304791629314,-0.4004090387426317,-0.2113643574196845
1782835557505284400,8.825284423828125,-0.8359013735651969,-0.25290201727077366,-0.13122063418999313
1782835557515214000,8.835214111328124,-1.0496487536638974,-0.10626951361112295,-0.10269128979817033
1782835557525145300,8.845145263671874,-1.2058727500766515,0.00342222953364253,-0.07854564038328826
1782835557535075000,8.855074951171876,-1.368866094493866,0.09958623645491897,-0.1024062623117119
1782835557545006300,8.86500634765625,-1.4123597837835549,0.22986242940165102,-0.058027095424383876
1782835557554936000,8.87493603515625,-1.367047646895051,0.3592592822305858,0.052124447251856325
1782835557564867300,8.884867431640625,-1.3071125258922576,0.45712768191695213,0.15894282691739497
1782835557574797000,8.894797119140625,-1.1607681184589862,0.5396684563510119,0.23948285598829389
1782835557584728300,8.904728271484375,-1.0761609130144119,0.6231923966035247,0.3034687136866152
1782835557594658000,8.914657958984375,-1.0387766465157269,0.6529198647387325,0.4252888476509601
1782835557604589300,8.92458935546875,-1.0488760157257317,0.6173769883230328,0.5190886096589267
1782835557614519000,8.93451904296875,-1.0075549943000077,0.6035951312080026,0.5659685073208064
1782835557624450300,8.9444501953125,-0.9907891529381274,0.6861847132198512,0.5850780622646212
1782835557634380000,8.954380126953126,-0.9097750035494565,0.7661592904277146,0.5167343746829778
1782835557644311300,8.964311279296876,-0.7979056971698999,0.7796686142116784,0.40851606509163974
1782835557654241300,8.9742412109375,-0.7068710890263319,0.8109607013151049,0.2985485737454146
1782835557664172300,8.98417236328125,-0.6507949815392494,0.850238380344957,0.2528233260113746
1782835557674103300,8.994103271484375,-0.5849515132755041,0.8853333668626845,0.36009003396630285
1782835557684033300,9.004033203125,-0.32780338286757466,0.9156068515080958,0.4873492171794176
1782835557693964300,9.01396435546875,-0.03348433645069599,1.0873099374078214,0.45204511795565483
1782835557703894000,9.02389404296875,0.25405191795825954,1.3367574303105472,0.4062316074162721
1782835557713825300,9.0338251953125,0.5063923558235168,1.5271617826141417,0.444208506045863
1782835557723755000,9.043755126953124,0.5993108780175447,1.5268116540022194,0.4377539961442351
1782835557733686300,9.053686279296874,0.6868716725707054,1.3864929365992544,0.4425727215375751
1782835557743616000,9.063615966796876,0.7965110279411077,1.243360184688866,0.49493908778652546
1782835557753547300,9.07354736328125,0.9031798430681228,1.1600398041844366,0.5091640855591744
1782835557763477000,9.08347705078125,0.856759452676773,1.0742296526908874,0.5252877565599978
1782835557773408300,9.093408203125,0.814390383502841,0.9944714947126805,0.5415681524924933
1782835557783338200,9.103338134765625,0.8270195634514093,0.9694618488796055,0.4850650517649948
1782835557793269200,9.113269287109375,0.7674345710605383,0.9634006491445004,0.5073672652702779
1782835557803199200,9.12319921875,0.6640601213037968,0.9250279561303555,0.4808042525153607
1782835557813130200,9.133130126953125,0.533444028878212,0.8784725411824882,0.38453583537153896
1782835557823060200,9.143060302734375,0.32953122957348824,0.8561021578118204,0.37309155435860153
1782835557832991200,9.1529912109375,0.1266723232358694,0.9229736539490521,0.36771402603872116
1782835557842916900,9.162916748046875,-0.03196984023451805,0.9986281760007143,0.2943435963362455
1782835557852848000,9.17284814453125,-0.2019014594823122,0.9812158534288405,0.2385756049502641
1782835557862777900,9.18277783203125,-0.21668167998492716,0.9207796510361135,0.19064276416935025
1782835557872709000,9.192709228515625,-0.18378186542391775,0.9163578160058706,0.22556663190387188
1782835557882638800,9.202638916015625,-0.14552490774393081,0.8894831800185143,0.35183095886074006
1782835557892570000,9.212570068359375,-0.09178045807480811,0.7806883126482367,0.43675395225621755
1782835557902499800,9.222499755859374,0.07307108142971992,0.640059433317557,0.3888479264169931
1782835557912431000,9.23243115234375,0.23292554329931733,0.5146743003480136,0.31364195185042915
1782835557922360800,9.24236083984375,0.32370822250843045,0.4243544163450598,0.3165086663931608
1782835557932292000,9.2522919921875,0.4218921178847551,0.3226405202116817,0.3740331460576504
1782835557942221800,9.262221923828125,0.48700551830828187,0.18410452150702475,0.38170338842459023
1782835557952153000,9.272153076171875,0.49739305680990215,0.01827858401238918,0.4730998886831104
1782835557962083000,9.2820830078125,0.5344739564478397,-0.11680369404181837,0.5699241861440241
1782835557972013800,9.292013916015625,0.5322615410953759,-0.09578596738912165,0.5898021681770682
1782835557981945000,9.301945068359375,0.4931511814564466,0.04767755084559321,0.5272616869814694
1782835557991874800,9.311874755859375,0.4286369159698486,0.16290435095950961,0.4655357370391488
1782835558001806000,9.32180615234375,0.22803192603886127,0.14538418409898876,0.36718116127103567
1782835558011733000,9.33173291015625,0.10786883856654167,0.021234803469479084,0.3392127386976033
1782835558021664000,9.3416640625,0.0244213245511055,-0.10959960788190364,0.3775418117657304
1782835558031594000,9.351593994140625,-0.09484744442999363,-0.17971490824595093,0.4329731185432523
1782835558041525000,9.36152490234375,-0.08187690369784832,-0.22892098383307455,0.44112990231812
1782835558051455000,9.371455078125,-0.0012175590962171553,-0.24744353266917168,0.4438206027068197
1782835558061386000,9.381385986328125,-0.037087913900613785,-0.24730083626285193,0.49120245854146777
1782835558071317000,9.39131689453125,-0.10199556261897086,-0.2756163187082857,0.4893538350000977
1782835558081247000,9.4012470703125,-0.1354179397493601,-0.31791239571124313,0.49224962950684126
1782835558091178000,9.411177978515624,-0.1429021580249071,-0.3349823345862329,0.5167416081413626
1782835558101108000,9.42110791015625,-0.19844927320182323,-0.28948789993338286,0.45632601014524693
1782835558111039000,9.4310390625,-0.12608663230240344,-0.25835268389210103,0.4000624172620475
1782835558120969000,9.440968994140626,-0.11439268737733363,-0.23574841870032248,0.42380839983485635
1782835558130900000,9.45089990234375,-0.1748316662490368,-0.22325857415720818,0.4752051173340529
1782835558140830000,9.460829833984375,-0.12726678199768066,-0.2241748852845281,0.4804579232957214
1782835558150761000,9.470760986328125,-0.20047113441824913,-0.16602913191653787,0.39900012179277833
1782835558160691000,9.48069091796875,-0.34798984632790086,-0.0805070035841316,0.4005444286253303
1782835558170622200,9.490622314453125,-0.44762043338119983,-0.06282324365973473,0.4326338035862893
1782835558180552000,9.500552001953125,-0.5555266813486814,-0.06935505658127367,0.38226277587302027
1782835558190483200,9.510483154296875,-0.5476975951582193,-0.07054507008343934,0.415407724301517
1782835558200413000,9.520412841796874,-0.4614595736414194,-0.016758388707786797,0.43046800385452805
1782835558210344200,9.53034423828125,-0.3379851696640253,0.06235774503983557,0.4500958105187863
1782835558220274000,9.54027392578125,-0.21098434512615202,0.08697159648835659,0.5052998844116926
1782835558230205200,9.550205078125,-0.16492811187207698,0.04568060487471521,0.5036682646218688
1782835558240135000,9.560135009765625,-0.3261334038287401,0.012023834466561674,0.5786532168488949
1782835558250066000,9.57006591796875,-0.46529053010642524,-0.012342691157385706,0.6216993085015565
1782835558259996000,9.579995849609375,-0.43877486362457274,0.025075331480428575,0.5053195389602333
1782835558269927000,9.589927001953125,-0.5216390247941017,0.10906425889618694,0.445020187754929
1782835558279857000,9.59985693359375,-0.6599690525978803,0.2065549113113433,0.5241613098133355
1782835558289788000,9.609787841796875,-0.7849819181889295,0.2906255256611854,0.5736341100452468
1782835558299718000,9.6197177734375,-0.9195435333698987,0.4100967584118247,0.45834513141531497
1782835558309649000,9.62964892578125,-0.9880331322282552,0.5330856438945979,0.2840172865025699
1782835558319579000,9.639578857421874,-0.9567588730424642,0.6120687258470803,0.11915014757011085
1782835558329510000,9.649510009765624,-0.9063269089221954,0.6550620643991977,0.021579927112720904
1782835558339440000,9.659440185546876,-0.79646952688694,0.6731783705219626,-0.010283639735728501
1782835558349371000,9.669370849609376,-0.6262181741654873,0.6867279532510787,-0.009841266263090074
1782835558359302100,9.67930224609375,-0.5897954461753369,0.6646615943282842,0.026493564247898754
1782835558369232000,9.68923193359375,-0.5518395172685384,0.6186783532451838,-0.025781470455788075
1782835558379163100,9.6991630859375,-0.6086784258216619,0.5744859411016107,-0.05621368932686746
1782835558389092900,9.7090927734375,-0.6237421394407748,0.5192905619718134,-0.07833806204721332
1782835558399024000,9.719024169921875,-0.46673605273962016,0.5001176594682037,-0.10683218899518251
1782835558408953900,9.728953857421875,-0.28592005138397214,0.5435049657739699,-0.08658120893128216
1782835558418885000,9.738885009765625,-0.1471416952908039,0.6201857621334492,0.025130276538059115
1782835558428814800,9.74881494140625,0.04959317520856857,0.6415817475140094,0.034553792313113806
1782835558438745900,9.758745849609374,0.3147311353266239,0.6340320627868176,-0.08310586097091435
1782835558448676000,9.768676025390626,0.423541054135561,0.6191131644658744,-0.14117979121170937
1782835558458606800,9.77860693359375,0.5573620800822973,0.5658652661420405,-0.11308759612813592
1782835558468537000,9.788537109375,0.6507862137109041,0.4818173020154237,0.005928513266146183
1782835558478467800,9.7984677734375,0.7137585104525089,0.4426956903301179,0.14268858833946288
1782835558488398000,9.808398193359375,0.710513244920969,0.4210243951395154,0.265992494588159
1782835558498328800,9.818328857421875,0.6604506986349821,0.3747938282318413,0.29077399422116573
1782835558508259000,9.828259033203125,0.5818944637924433,0.3703833183132112,0.2399501812390983
1782835558518189800,9.83818994140625,0.4488929375350475,0.39540056293085213,0.10008501628991216
1782835558528120000,9.8481201171875,0.287412335768342,0.41286563860327,-0.06995287634395063
1782835558538050800,9.85805078125,0.09658230539858341,0.4423490688495338,-0.1314262397646904
1782835558547981000,9.86798095703125,-0.028100305324792862,0.4991198806025088,-0.21630908381287006
1782835558557912000,9.877912109375,0.03556172724664211,0.5498598877586424,-0.3335464200315997
1782835558567842000,9.887842041015626,0.29923487550914285,0.5702474267490207,-0.4327461413869634
1782835558577773000,9.89777294921875,1.70588388043046,0.6490075136005878,-0.2732178792644292
1782835558587703000,9.907703125,0.3757575586974621,0.5060127088561653,0.31063360034730286
1782835558597634000,9.917634033203125,-0.6441197415590286,-0.08661642637513578,0.5143193494305014
1782835558607564800,9.927564697265625,-0.7781547025173902,-0.4774309766899794,0.18387275857776403
1782835558617499100,9.9374990234375,-0.8524170395582914,-0.39653614283204075,-0.2573867980020121
1782835558627429000,9.94742919921875,-0.41525194921791553,-0.06969378701634704,-0.4111391070716083
1782835558637360000,9.957360107421875,-0.1617073962599039,0.487119573142007,-0.48012149441558866
