time,seconds_elapsed,z,y,x
1782835548786317600,0.106317626953125,-0.8386754989624023,0.308225154876709,-0.07820942252874374
1782835548796248600,0.11624853515625,-0.9797782897949219,0.38642728328704834,0.016164220869541168
1782835548806178800,0.1261787109375,-1.0866776704788208,0.43514928221702576,0.0906844288110733
1782835548816108800,0.13610888671875,-1.1566389799118042,0.4483889043331146,0.12307033687829971
1782835548826039800,0.146039794921875,-1.1682838201522827,0.377815842628479,0.09552797675132751
1782835548835969800,0.1559697265625,-1.137912631034851,0.25112074613571167,0.05413419008255005
1782835548845900500,0.165900634765625,-1.1365870237350464,0.2442275583744049,0.06299330294132233
1782835548855830500,0.17583056640625,-1.1802481412887573,0.4403959810733795,0.1310405284166336
1782835548865761500,0.185761474609375,-1.2777122259140015,0.457066148519516,0.13190869987010956
1782835548875691500,0.19569140625,-1.472859263420105,0.3665980398654938,0.11884350329637527
1782835548885622500,0.20562255859375,-1.6668568849563599,0.35360828042030334,0.08126428723335266
1782835548895552500,0.215552490234375,-1.7292063236236572,0.2006826400756836,0.05808945745229721
1782835548905482500,0.225482421875,-1.5665972232818604,0.015342324040830135,0.1162882149219513
1782835548915413500,0.23541357421875,-1.3756858110427856,-0.06126350536942482,0.19224795699119568
1782835548925343500,0.245343505859375,-1.1665815114974976,-0.20781709253787994,0.24200214445590973
1782835548935274200,0.255274169921875,-1.0724360942840576,-0.25390949845314026,0.26832082867622375
1782835548945204500,0.26520458984375,-1.064993977546692,-0.29096341133117676,0.26612958312034607
1782835548955135200,0.27513525390625,-1.082052230834961,-0.40018096566200256,0.23202940821647644
1782835548965065500,0.2850654296875,-1.116415023803711,-0.5605477094650269,0.18400190770626068
1782835548974995500,0.294995361328125,-1.2331600189208984,-0.7331572771072388,0.09974588453769684
1782835548984926500,0.304926513671875,-1.4766602516174316,-0.7594794034957886,-0.03594030812382698
1782835548994856400,0.3148564453125,-1.7695398330688477,-0.6247618198394775,-0.2264561951160431
1782835549004787500,0.324787353515625,-1.9893298149108887,-0.4403804838657379,-0.45008519291877747
1782835549014717400,0.334717529296875,-2.0818161964416504,-0.3433700501918793,-0.6697767972946167
1782835549024648400,0.3446484375,-2.118861436843872,-0.3667004108428955,-0.8511584997177124
1782835549034578700,0.35457861328125,-2.1553211212158203,-0.32658976316452026,-0.940981388092041
1782835549044508400,0.36450830078125,-2.1653189659118652,-0.271210640668869,-0.941078782081604
1782835549054439400,0.374439453125,-2.1239168643951416,-0.2594757080078125,-0.8712371587753296
1782835549064369400,0.384369384765625,-2.031219720840454,-0.2893679141998291,-0.7239747643470764
1782835549074300400,0.394300537109375,-1.9244441986083984,-0.4311476945877075,-0.5483403205871582
1782835549084230400,0.40423046875,-1.8533248901367188,-0.5532793402671814,-0.36253902316093445
1782835549094161400,0.414161376953125,-1.8194562196731567,-0.6670607924461365,-0.1816728413105011
1782835549104091400,0.42409130859375,-1.7930575609207153,-0.5712317824363708,-0.24040894210338593
1782835549114021600,0.434021728515625,-1.8303178548812866,-0.54373699426651,-0.30633363127708435
1782835549123952400,0.443952392578125,-1.7543654441833496,-0.7106859087944031,-0.23384839296340942
1782835549133882600,0.453882568359375,-1.6843427419662476,-0.9050931930541992,-0.19269242882728577
1782835549143813400,0.4638134765625,-1.6714789867401123,-1.0800026655197144,-0.15369510650634766
1782835549153743600,0.47374365234375,-1.6991490125656128,-1.1877107620239258,-0.10784080624580383
1782835549163674400,0.48367431640625,-1.755615472793579,-1.1710283756256104,-0.1453077644109726
1782835549173604600,0.4936044921875,-1.809180498123169,-1.1059178113937378,-0.2418406903743744
1782835549183534300,0.503534423828125,-1.7994576692581177,-0.9580049514770508,-0.31212037801742554
1782835549193465300,0.51346533203125,-1.792862892150879,-0.6954713463783264,-0.36032840609550476
1782835549203395300,0.523395263671875,-1.8365414142608643,-0.3830886781215668,-0.39260533452033997
1782835549213326300,0.533326416015625,-1.885865569114685,-0.10247725993394852,-0.40396690368652344
1782835549223256300,0.54325634765625,-1.9091488122940063,0.07909080386161804,-0.407438188791275
1782835549233187300,0.553187255859375,-1.8871124982833862,0.15867777168750763,-0.40258482098579407
1782835549243117600,0.56311767578125,-1.8410145044326782,0.1449105143547058,-0.37394753098487854
1782835549253047600,0.573047607421875,-1.7902235984802246,0.08714387565851212,-0.29777926206588745
1782835549262978600,0.582978515625,-1.73654043674469,0.021402917802333832,-0.16462448239326477
1782835549272908500,0.592908447265625,-1.6848567724227905,-0.06586753576993942,-0.03860396146774292
1782835549282839600,0.602839599609375,-1.6282728910446167,-0.19950130581855774,0.038812920451164246
1782835549292769500,0.61276953125,-1.5833210945129395,-0.33443114161491394,0.06527062505483627
1782835549302700500,0.622700439453125,-1.54941725730896,-0.4501785933971405,0.061012864112854004
1782835549312630500,0.632630615234375,-1.5436238050460815,-0.5423092842102051,0.047424882650375366
1782835549322560500,0.642560546875,-1.5587358474731445,-0.5869337916374207,0.03569009527564049
1782835549332491500,0.652491455078125,-1.5869756937026978,-0.5665646195411682,0.03644190728664398
1782835549342421500,0.66242138671875,-1.6104917526245117,-0.48272979259490967,0.04418765753507614
1782835549352352300,0.672352294921875,-1.5995814800262451,-0.38261303305625916,0.07515063136816025
1782835549362282500,0.682282470703125,-1.5665769577026367,-0.25817179679870605,0.14364810287952423
1782835549372213200,0.692213134765625,-1.50350821018219,-0.09800715744495392,0.2290807068347931
1782835549382143500,0.7021435546875,-1.4278467893600464,-0.0059432340785861015,0.28961384296417236
1782835549392074200,0.71207421875,-1.3575178384780884,0.0037304311990737915,0.3120887875556946
1782835549402004500,0.72200439453125,-1.3042927980422974,-0.026781603693962097,0.2637051045894623
1782835549411934500,0.7319345703125,-1.26509428024292,-0.06151028722524643,0.1311635673046112
1782835549421865500,0.741865478515625,-1.2062889337539673,-0.08063352108001709,-0.016147267073392868
1782835549431795500,0.75179541015625,-1.1215016841888428,-0.08084045350551605,-0.13603425025939941
1782835549441726500,0.7617265625,-1.0099927186965942,-0.031080350279808044,-0.2247619926929474
1782835549451656400,0.771656494140625,-0.891724705696106,0.02527586556971073,-0.2654939889907837
1782835549461587500,0.78158740234375,-0.7808058261871338,0.04597029834985733,-0.2527746260166168
1782835549471517400,0.791517333984375,-0.6729477643966675,0.04407918453216553,-0.16364528238773346
1782835549481447400,0.801447509765625,-0.5916885137557983,0.08279593288898468,0.00889827311038971
1782835549491378400,0.81137841796875,-0.5395421981811523,0.14479058980941772,0.23192256689071655
1782835549501308400,0.821308349609375,-0.5170770883560181,0.19696538150310516,0.46253857016563416
1782835549511239400,0.831239501953125,-0.5115014910697937,0.2147265374660492,0.6551293134689331
1782835549521169400,0.84116943359375,-0.5510379672050476,0.19889169931411743,0.7482759356498718
1782835549531100400,0.851100341796875,-0.6463093757629395,0.15451037883758545,0.7171254754066467
1782835549541030400,0.861030517578125,-0.7757397294044495,0.11557551473379135,0.6005861759185791
1782835549550961400,0.87096142578125,-0.9153575301170349,0.0720437541604042,0.4555749297142029
1782835549560891400,0.880891357421875,-1.019197940826416,0.01617516577243805,0.30758947134017944
1782835549570821600,0.890821533203125,-1.0458390712738037,-0.053665436804294586,0.17407375574111938
1782835549580752400,0.90075244140625,-0.985968291759491,-0.11695407330989838,0.06969700753688812
1782835549590682600,0.9106826171875,-0.8563802242279053,-0.11730454117059708,0.001679074950516224
1782835549600613400,0.92061328125,-0.6794422268867493,-0.021577658131718636,-0.023043684661388397
1782835549610543600,0.930543701171875,-0.4793114960193634,0.12424585968255997,0.004047321155667305
1782835549620474400,0.940474365234375,-0.287354975938797,0.14716675877571106,0.05134916678071022
1782835549630404400,0.950404296875,-0.14164116978645325,0.06603062152862549,0.11122661828994751
1782835549640334300,0.960334228515625,-0.05433005094528198,-0.037871103733778,0.17886775732040405
1782835549650265300,0.970265380859375,-0.0576251745223999,-0.14578932523727417,0.2145429253578186
1782835549660195300,0.9801953125,-0.12208002805709839,-0.2714751660823822,0.20295684039592743
1782835549670126300,0.990126220703125,-0.2271105796098709,-0.42737287282943726,0.1372460126876831
1782835549680056600,1.000056640625,-0.3493588864803314,-0.5117105841636658,0.045113369822502136
1782835549689987300,1.0099873046875,-0.4373342990875244,-0.47048643231391907,-0.031850650906562805
1782835549699917600,1.01991748046875,-0.4683831036090851,-0.3362087309360504,-0.050261348485946655
1782835549709848300,1.029848388671875,-0.477950781583786,-0.16079193353652954,-0.019560694694519043
1782835549719778600,1.039778564453125,-0.49952903389930725,0.02128312736749649,0.06055118516087532
1782835549729708500,1.04970849609375,-0.5397834777832031,0.1646951586008072,0.14361251890659332
1782835549739639600,1.0596396484375,-0.5710793733596802,0.2546789050102234,0.2032877802848816
1782835549749569500,1.069569580078125,-0.5680806636810303,0.29555362462997437,0.210801899433136
1782835549759500500,1.07950048828125,-0.5289502143859863,0.27134913206100464,0.1840481013059616
1782835549769430300,1.08943017578125,-0.46434324979782104,0.1953025758266449,0.14503997564315796
1782835549779361500,1.099361572265625,-0.3989236354827881,0.09877964854240417,0.09862314164638519
1782835549789291300,1.109291259765625,-0.3518621027469635,-0.00527830608189106,0.04988010972738266
1782835549799221500,1.119221435546875,-0.3376043438911438,-0.11348014324903488,0.011461880058050156
1782835549809152300,1.12915234375,-0.37277376651763916,-0.20643937587738037,-0.03570989519357681
1782835549819082500,1.13908251953125,-0.4482860267162323,-0.29045170545578003,-0.09172437340021133
1782835549829013200,1.14901318359375,-0.5219133496284485,-0.3700735569000244,-0.15694278478622437
1782835549838943000,1.15894287109375,-0.5639724135398865,-0.4640582501888275,-0.20201066136360168
1782835549848874000,1.1688740234375,-0.58254474401474,-0.5216243267059326,-0.21859443187713623
1782835549858804000,1.178803955078125,-0.5986771583557129,-0.518233597278595,-0.2088501900434494
1782835549868735000,1.18873486328125,-0.6189696192741394,-0.5061079859733582,-0.17646056413650513
1782835549878665000,1.1986650390625,-0.6245164275169373,-0.43915849924087524,-0.12599392235279083
1782835549888595200,1.20859521484375,-0.6049683094024658,-0.30563268065452576,-0.06756576895713806
1782835549898526200,1.218526123046875,-0.5732174515724182,-0.16950248181819916,-0.02505468763411045
1782835549908456200,1.228456298828125,-0.5400909185409546,-0.06457953155040741,-0.018779214471578598
1782835549918387200,1.23838720703125,-0.49285122752189636,0.0024466942995786667,-0.04040094092488289
1782835549928317200,1.248317138671875,-0.4369376599788666,0.05323690548539162,-0.07219509035348892
1782835549938248200,1.258248291015625,-0.3955240845680237,0.09478103369474411,-0.1113666296005249
1782835549948178200,1.26817822265625,-0.37387338280677795,0.16464878618717194,-0.134708434343338
1782835549958109200,1.278109130859375,-0.389346182346344,0.25851041078567505,-0.1466461420059204
1782835549968039000,1.288038818359375,-0.4196185767650604,0.343391478061676,-0.16272525489330292
1782835549977969200,1.29796923828125,-0.44058525562286377,0.35633835196495056,-0.1808861941099167
1782835549987900000,1.30789990234375,-0.45690804719924927,0.3041955232620239,-0.1760331243276596
1782835549997830100,1.317830078125,-0.48380792140960693,0.2756664752960205,-0.15866324305534363
1782835550007761000,1.327760986328125,-0.5235337615013123,0.2696149945259094,-0.13156451284885406
1782835550017691100,1.337691162109375,-0.557549774646759,0.23105159401893616,-0.1108177974820137
1782835550027622000,1.347621826171875,-0.5608968734741211,0.16179315745830536,-0.10955359041690826
1782835550037552000,1.35755224609375,-0.5299656391143799,0.106752410531044,-0.12093866616487503
1782835550047482000,1.367482177734375,-0.46505481004714966,0.0831751823425293,-0.1320352554321289
1782835550057413000,1.3774130859375,-0.3840312957763672,0.09422162175178528,-0.13263553380966187
1782835550067343000,1.387343017578125,-0.30168822407722473,0.10260738432407379,-0.12454111874103546
1782835550077274000,1.397274169921875,-0.2413480430841446,0.058038029819726944,-0.11307403445243835
1782835550087204000,1.4072041015625,-0.20014308393001556,-0.014436967670917511,-0.08460483700037003
1782835550097135000,1.417135009765625,-0.18184974789619446,-0.10296670347452164,-0.023745957762002945
1782835550107065000,1.427065185546875,-0.17222829163074493,-0.15363439917564392,0.08019775152206421
1782835550116996000,1.43699609375,-0.16871722042560577,-0.16670803725719452,0.20245611667633057
1782835550126926000,1.446926025390625,-0.17373915016651154,-0.18491287529468536,0.2844204902648926
1782835550136857000,1.456857177734375,-0.19044391810894012,-0.17154653370380402,0.3111262917518616
1782835550146787000,1.466787109375,-0.19186604022979736,-0.1180068701505661,0.32105058431625366
1782835550156717000,1.476717041015625,-0.19153070449829102,-0.025036433711647987,0.31798139214515686
1782835550166648000,1.48664794921875,-0.17493228614330292,0.04866655170917511,0.2995986342430115
1782835550176578000,1.496578125,-0.143166184425354,0.08645525574684143,0.2599509656429291
1782835550186509000,1.506509033203125,-0.10638819634914398,0.09471611678600311,0.20874156057834625
1782835550196439000,1.51643896484375,-0.06531428545713425,0.06539063155651093,0.15869612991809845
1782835550206370000,1.5263701171875,-0.02021791599690914,0.013101057149469852,0.1290346384048462
1782835550216300000,1.536300048828125,-0.0004732329398393631,-0.06493131071329117,0.11617791652679443
1782835550226230300,1.546230224609375,-0.007802251726388931,-0.16975705325603485,0.1336575746536255
1782835550236161000,1.5561611328125,-0.05357396975159645,-0.27522921562194824,0.16894610226154327
1782835550246091000,1.566091064453125,-0.13250046968460083,-0.3695210814476013,0.18741992115974426
1782835550256022000,1.57602197265625,-0.23274379968643188,-0.45009395480155945,0.20577122271060944
1782835550265952000,1.585951904296875,-0.3298860490322113,-0.46171969175338745,0.2076636701822281
1782835550275883300,1.59588330078125,-0.41095244884490967,-0.41082918643951416,0.2063780575990677
1782835550285813000,1.60581298828125,-0.4552232325077057,-0.3110203146934509,0.21410682797431946
1782835550295744300,1.615744140625,-0.48017221689224243,-0.18645191192626953,0.22501549124717712
1782835550305674000,1.625674072265625,-0.4868903160095215,-0.10021131485700607,0.2062854766845703
1782835550315605200,1.635605224609375,-0.47825324535369873,-0.07792554795742035,0.14701926708221436
1782835550325535000,1.645534912109375,-0.45376256108283997,-0.11504415422677994,0.07328007370233536
1782835550335465200,1.65546533203125,-0.4518798589706421,-0.22033828496932983,-0.0023306934162974358
1782835550345396000,1.66539599609375,-0.49343931674957275,-0.43001267313957214,-0.08800990879535675
1782835550355326200,1.675326171875,-0.5741593241691589,-0.6997318267822266,-0.19245052337646484
1782835550365257000,1.685257080078125,-0.6662053465843201,-0.9182367920875549,-0.28394395112991333
1782835550375187200,1.695187255859375,-0.7112827301025391,-1.0048279762268066,-0.30961889028549194
1782835550385118000,1.705117919921875,-0.724884569644928,-0.9378697276115417,-0.2450292408466339
1782835550395048200,1.715048095703125,-0.69795823097229,-0.7749736905097961,-0.07865533977746964
1782835550404979000,1.72497900390625,-0.6256909966468811,-0.5388801693916321,0.1495344191789627
1782835550414909200,1.7349091796875,-0.5146942734718323,-0.26236623525619507,0.3744710683822632
1782835550424839000,1.7448388671875,-0.4349525570869446,-0.03625374659895897,0.5246699452400208
1782835550434770200,1.754770263671875,-0.42510905861854553,0.024853713810443878,0.5325909852981567
1782835550444700000,1.764699951171875,-0.4566291868686676,-0.0021510059013962746,0.39823317527770996
1782835550454631200,1.774631103515625,-0.48937609791755676,0.01419291365891695,0.19442114233970642
1782835550464561000,1.784560791015625,-0.4886980950832367,0.09606274962425232,0.0038607921451330185
1782835550474492200,1.7944921875,-0.4673171043395996,0.217212975025177,-0.10764314979314804
1782835550484422000,1.804421875,-0.4602157771587372,0.29983940720558167,-0.14003810286521912
1782835550494353200,1.814353271484375,-0.4576650559902191,0.3705926835536957,-0.08460468053817749
1782835550504283100,1.824283203125,-0.442353218793869,0.4587302803993225,0.038595281541347504
1782835550514213000,1.834213134765625,-0.40669772028923035,0.5385010838508606,0.17315688729286194
1782835550524144000,1.84414404296875,-0.3513553738594055,0.5745754837989807,0.28031930327415466
1782835550534074000,1.85407421875,-0.2816254794597626,0.5565527677536011,0.3492942750453949
1782835550544005000,1.864005126953125,-0.24098803102970123,0.4534718692302704,0.3842780888080597
1782835550553935000,1.87393505859375,-0.25165313482284546,0.29045847058296204,0.3808186650276184
1782835550563866000,1.8838662109375,-0.3114248514175415,0.09344019740819931,0.3236520290374756
1782835550573796000,1.893796142578125,-0.38735103607177734,-0.11907980591058731,0.20682941377162933
1782835550583727000,1.90372705078125,-0.4476511478424072,-0.2837233543395996,0.04233713075518608
1782835550593657000,1.913656982421875,-0.4887295961380005,-0.3876078128814697,-0.1501549929380417
1782835550603588000,1.923588134765625,-0.5079416036605835,-0.3974391222000122,-0.3347213566303253
1782835550613518000,1.93351806640625,-0.498433917760849,-0.30353087186813354,-0.46317365765571594
1782835550623448000,1.943447998046875,-0.46721476316452026,-0.1416519731283188,-0.5224825739860535
1782835550633379000,1.953379150390625,-0.43571335077285767,0.06595713645219803,-0.5092739462852478
1782835550643309000,1.96330908203125,-0.3998238146305084,0.27889925241470337,-0.4371083974838257
1782835550653240000,1.973239990234375,-0.36025944352149963,0.45730191469192505,-0.33163079619407654
1782835550663170000,1.983170166015625,-0.31906113028526306,0.5584567785263062,-0.2125089466571808
1782835550673101300,1.993101318359375,-0.28837502002716064,0.5972928404808044,-0.12042590975761414
1782835550683031000,2.003031005859375,-0.24175691604614258,0.5602208375930786,-0.08376110345125198
1782835550692962000,2.012962158203125,-0.18568554520606995,0.4746209681034088,-0.0851975604891777
1782835550702892000,2.02289208984375,-0.10969837009906769,0.37364134192466736,-0.10311131924390793
1782835550712823000,2.032822998046875,-0.027274783700704575,0.2648249566555023,-0.12310504913330078
1782835550722753000,2.0427529296875,0.05313670262694359,0.14235281944274902,-0.12134336680173874
1782835550732683300,2.052683349609375,0.11979168653488159,0.02578670158982277,-0.09052509069442749
1782835550742614000,2.062614013671875,0.1506316065788269,-0.05634119361639023,-0.04106593132019043
1782835550752544300,2.072544189453125,0.14461183547973633,-0.10593438148498535,-0.005075931083410978
1782835550762475000,2.08247509765625,0.11000219732522964,-0.15056203305721283,-0.00600324384868145
1782835550772405200,2.0924052734375,0.057199813425540924,-0.20292812585830688,-0.04771096259355545
1782835550782336000,2.1023359375,0.0027136672288179398,-0.2445589154958725,-0.11308890581130981
1782835550792266200,2.112266357421875,-0.04732494801282883,-0.26063892245292664,-0.18941573798656464
1782835550802197000,2.122197021484375,-0.07572329789400101,-0.2502962648868561,-0.23965440690517426
1782835550812127200,2.132127197265625,-0.09208827465772629,-0.2122245728969574,-0.27630850672721863
1782835550822057000,2.142056884765625,-0.09306485950946808,-0.1458950787782669,-0.30361470580101013
1782835550831988200,2.15198828125,-0.06805431097745895,-0.0660814717411995,-0.3287341594696045
1782835550841921500,2.161921630859375,-0.029012637212872505,0.019280564039945602,-0.3447858393192291
1782835550851852500,2.1718525390625,0.012207061983644962,0.09112407267093658,-0.34642380475997925
1782835550861782500,2.181782470703125,0.05546798184514046,0.11611331254243851,-0.34000691771507263
1782835550871713500,2.191713623046875,0.0920427069067955,0.09764814376831055,-0.3075084388256073
1782835550881643500,2.2016435546875,0.13295339047908783,0.062308523803949356,-0.22814436256885529
1782835550891574500,2.211574462890625,0.15802603960037231,0.019176270812749863,-0.11198247224092484
1782835550901504500,2.22150439453125,0.1521463245153427,-0.0007953066378831863,0.015689197927713394
1782835550911435500,2.231435546875,0.12119598686695099,-0.021160218864679337,0.11939281970262527
1782835550921365500,2.241365478515625,0.09333399683237076,-0.03719564527273178,0.19324254989624023
1782835550931295700,2.251295654296875,0.08471706509590149,-0.04148276522755623,0.2213216871023178
1782835550941226500,2.2612265625,0.08989797532558441,-0.04400424659252167,0.216020405292511
1782835550951156700,2.27115673828125,0.10812023282051086,-0.04508359730243683,0.20603114366531372
1782835550961087500,2.28108740234375,0.12173351645469666,-0.01890472136437893,0.21642626821994781
1782835550971017500,2.291017578125,0.12512359023094177,0.021526681259274483,0.22801348567008972
1782835550980948700,2.30094873046875,0.11279795318841934,0.03576473891735077,0.21632300317287445
1782835550990878500,2.31087841796875,0.09356632083654404,0.021311938762664795,0.18166668713092804
1782835551000809700,2.320809814453125,0.07398996502161026,-0.011594078503549099,0.14968691766262054
1782835551010739500,2.330739501953125,0.04208827018737793,-0.024892963469028473,0.13490840792655945
1782835551020670700,2.340670654296875,0.0034101177006959915,0.009446102194488049,0.16556592285633087
1782835551030600400,2.350600341796875,-0.028685294091701508,0.06728512048721313,0.20564743876457214
1782835551040531700,2.36053173828125,-0.052854280918836594,0.11602097004652023,0.19824331998825073
1782835551050461400,2.37046142578125,-0.05313025042414665,0.13888944685459137,0.11932473629713058
1782835551060391700,2.3803916015625,-0.028773244470357895,0.19209221005439758,-0.022514956071972847
1782835551070322400,2.390322509765625,0.008579329587519169,0.29683125019073486,-0.21337325870990753
1782835551080252700,2.400252685546875,0.03218984976410866,0.38757792115211487,-0.4177247881889343
1782835551090183400,2.410183349609375,0.020635876804590225,0.44932621717453003,-0.6000034809112549
1782835551100113700,2.42011376953125,-0.02416062541306019,0.5055676698684692,-0.7186630368232727
1782835551110044400,2.43004443359375,-0.06866651773452759,0.521658182144165,-0.7597235441207886
1782835551119974700,2.439974609375,-0.08144063502550125,0.4957781732082367,-0.7072965502738953
1782835551129905400,2.449905517578125,-0.045959971845149994,0.5000939965248108,-0.5664263367652893
1782835551139835600,2.459835693359375,0.030580611899495125,0.5309626460075378,-0.35740041732788086
1782835551149766700,2.4697666015625,0.14595182240009308,0.5769811272621155,-0.10574840754270554
1782835551159696600,2.479696533203125,0.2639647424221039,0.623116672039032,0.14257991313934326
1782835551169626400,2.48962646484375,0.35770130157470703,0.6098090410232544,0.3323633670806885
1782835551179557600,2.4995576171875,0.4314969480037689,0.5359355807304382,0.4304867386817932
1782835551189487600,2.509487548828125,0.49973806738853455,0.41769883036613464,0.46747225522994995
1782835551199418600,2.519418701171875,0.5507175922393799,0.2631702423095703,0.44586309790611267
1782835551209348600,2.5293486328125,0.5657956600189209,0.11531661450862885,0.38407230377197266
1782835551219279600,2.539279541015625,0.5617076754570007,-0.0397653803229332,0.31912365555763245
1782835551229209600,2.549209716796875,0.556207537651062,-0.1839718222618103,0.2704974114894867
1782835551239140600,2.559140625,0.5380873680114746,-0.3028185963630676,0.2513929605484009
1782835551249070600,2.569070556640625,0.5135592818260193,-0.38398709893226624,0.2428438663482666
1782835551259001600,2.579001708984375,0.4784919023513794,-0.4458637833595276,0.2371111512184143
1782835551268931600,2.588931640625,0.4154309928417206,-0.4745734930038452,0.23819121718406677
1782835551278862600,2.598862548828125,0.32297882437705994,-0.46080443263053894,0.2524076998233795
1782835551288792600,2.60879248046875,0.21215282380580902,-0.4614347815513611,0.2331109344959259
1782835551298722600,2.61872265625,0.09555403888225555,-0.5040373802185059,0.1871010959148407
1782835551308653600,2.628653564453125,-0.0052490513771772385,-0.5106332302093506,0.12158311903476715
1782835551318583600,2.63858349609375,-0.08299177885055542,-0.4687023162841797,0.058434247970581055
1782835551328514600,2.6485146484375,-0.1358831226825714,-0.3629862070083618,0.02168405055999756
1782835551338444500,2.658444580078125,-0.16544847190380096,-0.19705608487129211,0.010435658507049084
1782835551348375600,2.66837548828125,-0.186279296875,0.0026481738314032555,0.0095916036516428
1782835551358305800,2.678305908203125,-0.18687690794467926,0.20473389327526093,0.013786349445581436
1782835551368236500,2.688236572265625,-0.16612452268600464,0.3772793114185333,0.024822434410452843
1782835551378166800,2.698166748046875,-0.13848277926445007,0.48046162724494934,0.03466654568910599
1782835551388097500,2.70809765625,-0.12065102905035019,0.4845661222934723,0.0395008847117424
1782835551398027800,2.71802783203125,-0.12547534704208374,0.37411391735076904,0.04376140981912613
1782835551407958500,2.72795849609375,-0.14685119688510895,0.22670219838619232,0.06887496262788773
1782835551417888800,2.737888671875,-0.17681334912776947,0.06571731716394424,0.1094823107123375
1782835551427818500,2.747818603515625,-0.22286009788513184,-0.08484513312578201,0.1513403207063675
1782835551437749500,2.75774951171875,-0.269282728433609,-0.17331773042678833,0.1975426971912384
1782835551447679500,2.767679443359375,-0.29920387268066406,-0.20675931870937347,0.23819266259670258
1782835551457610500,2.777610595703125,-0.31434208154678345,-0.21176205575466156,0.2509329617023468
1782835551467540500,2.78754052734375,-0.30301591753959656,-0.20006003975868225,0.23501597344875336
1782835551477471500,2.797471435546875,-0.2759219706058502,-0.16985473036766052,0.1976022869348526
1782835551487401500,2.8074013671875,-0.24987994134426117,-0.13971103727817535,0.16443508863449097
1782835551497332500,2.81733251953125,-0.250813364982605,-0.12893590331077576,0.1264200508594513
1782835551507262500,2.827262451171875,-0.2750706672668457,-0.14389139413833618,0.09783738851547241
1782835551517193500,2.837193359375,-0.3110009729862213,-0.16581107676029205,0.08493465185165405
1782835551527123700,2.847123779296875,-0.33392176032066345,-0.16801609098911285,0.08040378987789154
1782835551537054500,2.857054443359375,-0.35320332646369934,-0.15700018405914307,0.0776362270116806
1782835551546984700,2.866984619140625,-0.3915170729160309,-0.1558903455734253,0.052798476070165634
1782835551556915500,2.87691552734375,-0.43982332944869995,-0.17561398446559906,0.022731386125087738
1782835551566845700,2.886845703125,-0.48584064841270447,-0.22906626760959625,-0.004869665019214153
1782835551576775400,2.896775390625,-0.5360788106918335,-0.32281938195228577,-0.030912715941667557
1782835551586706700,2.906706787109375,-0.5960854887962341,-0.4688662886619568,-0.051812563091516495
1782835551596636400,2.916636474609375,-0.6385605335235596,-0.6163833141326904,-0.0396733433008194
1782835551606567700,2.926567626953125,-0.6575097441673279,-0.7090039849281311,0.013158957473933697
1782835551616497400,2.936497314453125,-0.6645786166191101,-0.7326672077178955,0.05751790106296539
1782835551626428700,2.9464287109375,-0.6743932366371155,-0.6962721347808838,0.06942738592624664
1782835551636358400,2.9563583984375,-0.6976336240768433,-0.5845735669136047,0.0493660606443882
1782835551646289700,2.96628955078125,-0.7200486660003662,-0.4093635678291321,0.020812153816223145
1782835551656219400,2.976219482421875,-0.7258408069610596,-0.20249535143375397,-0.032613255083560944
1782835551666150700,2.986150634765625,-0.7218613028526306,-0.01332415733486414,-0.11631090939044952
1782835551676080400,2.996080322265625,-0.7091971635818481,0.11682186275720596,-0.2237532138824463
1782835551686011600,3.00601171875,-0.697732150554657,0.1831090897321701,-0.36152058839797974
1782835551695941600,3.015941650390625,-0.7182166576385498,0.18447795510292053,-0.523925244808197
1782835551705872600,3.02587255859375,-0.7646213173866272,0.14437943696975708,-0.6951366066932678
1782835551715802600,3.035802734375,-0.8478506803512573,0.032540515065193176,-0.8469448089599609
1782835551725732600,3.045732666015625,-0.9376823306083679,-0.09549396485090256,-0.9443464875221252
1782835551735663600,3.05566357421875,-1.0168548822402954,-0.1640719622373581,-0.9476573467254639
1782835551745593600,3.065593505859375,-1.0572339296340942,-0.16907447576522827,-0.8479148745536804
1782835551755524600,3.075524658203125,-1.0503361225128174,-0.14405541121959686,-0.6535560488700867
1782835551765454600,3.08545458984375,-1.0003550052642822,-0.09100677818059921,-0.37510570883750916
1782835551775385600,3.095385498046875,-0.9212858080863953,0.01912611722946167,-0.05239929258823395
1782835551785315600,3.105315673828125,-0.8564162254333496,0.18731936812400818,0.2250770628452301
1782835551795246600,3.11524658203125,-0.8399059176445007,0.3196422755718231,0.3789752721786499
1782835551805176600,3.125176513671875,-0.8296042084693909,0.41468939185142517,0.3982636332511902
1782835551815107600,3.135107666015625,-0.8015976548194885,0.46235570311546326,0.3283466100692749
1782835551825037600,3.14503759765625,-0.7594007849693298,0.4235231578350067,0.22850866615772247
1782835551834968600,3.154968505859375,-0.7064363360404968,0.3131500482559204,0.17919917404651642
1782835551844899000,3.164899169921875,-0.6779558062553406,0.18615072965621948,0.22244836390018463
1782835551854830000,3.174830078125,-0.6766042709350586,0.07886582612991333,0.34152042865753174
1782835551864760000,3.184760009765625,-0.6949855089187622,-0.031643323600292206,0.4823160171508789
1782835551874690000,3.19468994140625,-0.7156960964202881,-0.16081169247627258,0.5936747789382935
1782835551884621000,3.20462109375,-0.7331873774528503,-0.3161316215991974,0.6487926840782166
1782835551894551000,3.214551025390625,-0.753763735294342,-0.49927639961242676,0.6430402994155884
1782835551904482000,3.22448193359375,-0.7855696678161621,-0.6730589866638184,0.5672033429145813
1782835551914412000,3.234412109375,-0.8297643065452576,-0.7831175327301025,0.40815481543540955
1782835551924343000,3.244343017578125,-0.8929170370101929,-0.8272133469581604,0.18456724286079407
1782835551934273000,3.25427294921875,-0.9592374563217163,-0.7788615226745605,-0.0726938471198082
1782835551944204000,3.2642041015625,-1.0221471786499023,-0.6146202087402344,-0.30886831879615784
1782835551954134000,3.274134033203125,-1.0612863302230835,-0.35148683190345764,-0.49610212445259094
1782835551964065000,3.28406494140625,-1.0547149181365967,-0.06682340800762177,-0.6131393313407898
1782835551973995000,3.2939951171875,-0.9966012239456177,0.18470655381679535,-0.6595616936683655
1782835551983926000,3.303926025390625,-0.9144521951675415,0.3806014955043793,-0.6243739128112793
1782835551993856300,3.313856201171875,-0.8351826667785645,0.5150586366653442,-0.5143547058105469
1782835552003787000,3.323787109375,-0.7633479237556458,0.5836482048034668,-0.3720622956752777
1782835552013717200,3.33371728515625,-0.6923727989196777,0.5608211755752563,-0.2426321655511856
1782835552023648000,3.34364794921875,-0.6204845905303955,0.42385774850845337,-0.15470339357852936
1782835552033578200,3.353578125,-0.5490854978561401,0.21893708407878876,-0.09899884462356567
1782835552043509000,3.363509033203125,-0.4850021004676819,-0.00711384741589427,-0.06229716166853905
1782835552053439200,3.373439208984375,-0.45067715644836426,-0.20523253083229065,-0.043817486613988876
1782835552063369000,3.383368896484375,-0.4621036648750305,-0.32410407066345215,-0.05051006004214287
1782835552073300200,3.39330029296875,-0.4984244108200073,-0.3532843291759491,-0.08759750425815582
1782835552083230000,3.40322998046875,-0.5370176434516907,-0.3083299994468689,-0.15388347208499908
1782835552093161200,3.4131611328125,-0.5626484751701355,-0.2181960940361023,-0.23064109683036804
1782835552103091000,3.423091064453125,-0.559481143951416,-0.10627015680074692,-0.2801224887371063
1782835552113022200,3.433022216796875,-0.5352397561073303,-0.008025340735912323,-0.2819124162197113
1782835552122952000,3.442951904296875,-0.5015256404876709,0.09110268205404282,-0.26048409938812256
1782835552132883000,3.452883056640625,-0.46315184235572815,0.16038508713245392,-0.23240162432193756
1782835552142813000,3.46281298828125,-0.43129903078079224,0.17557425796985626,-0.22803062200546265
1782835552152744000,3.472743896484375,-0.418059378862381,0.18285134434700012,-0.2337806522846222
1782835552162674200,3.482674072265625,-0.4153132736682892,0.19354674220085144,-0.23564967513084412
1782835552172605000,3.49260498046875,-0.42363590002059937,0.20159295201301575,-0.23538681864738464
1782835552182535200,3.50253515625,-0.44395068287849426,0.22066162526607513,-0.24062198400497437
1782835552192466000,3.5124658203125,-0.45248451828956604,0.2385769635438919,-0.2438526600599289
1782835552202396200,3.522396240234375,-0.4366433620452881,0.2102120816707611,-0.24082854390144348
1782835552212327000,3.532326904296875,-0.3988291323184967,0.1470184624195099,-0.2171272188425064
1782835552222257200,3.542257080078125,-0.35379382967948914,0.08014659583568573,-0.170381098985672
1782835552232187100,3.552187255859375,-0.32422688603401184,0.010468712076544762,-0.10171868652105331
1782835552242118100,3.5621181640625,-0.31910642981529236,-0.04041934013366699,-0.03334302455186844
1782835552252048100,3.572048095703125,-0.3177199959754944,-0.09501521289348602,0.02140943706035614
1782835552261979100,3.581979248046875,-0.31257399916648865,-0.1879844069480896,0.029963502660393715
1782835552271909000,3.5919091796875,-0.29778385162353516,-0.25156259536743164,0.015929441899061203
1782835552281840000,3.601840087890625,-0.26420679688453674,-0.23271459341049194,0.023062773048877716
1782835552291769900,3.611769775390625,-0.23448403179645538,-0.12487441301345825,0.05613310635089874
1782835552301701000,3.621701171875,-0.23010225594043732,-0.005589720327407122,0.09570416808128357
1782835552311630800,3.631630859375,-0.24423620104789734,0.11516572535037994,0.13464918732643127
1782835552321562000,3.64156201171875,-0.26056939363479614,0.2428773045539856,0.15768517553806305
1782835552331492000,3.6514921875,-0.25926071405410767,0.31322309374809265,0.14056158065795898
1782835552341423000,3.661423095703125,-0.22627025842666626,0.3179880380630493,0.10378333181142807
1782835552351353000,3.67135302734375,-0.1834373027086258,0.2558905780315399,0.07852485030889511
1782835552361284000,3.6812841796875,-0.1558699905872345,0.13072124123573303,0.0473957285284996
1782835552371214000,3.691214111328125,-0.16950324177742004,-0.039554618299007416,0.018761955201625824
1782835552381145000,3.70114501953125,-0.2094234675168991,-0.22539645433425903,-0.003003124613314867
1782835552391075000,3.711074951171875,-0.29146909713745117,-0.35836008191108704,-0.04736926034092903
1782835552401006000,3.721006103515625,-0.3946859836578369,-0.4119838774204254,-0.13465562462806702
1782835552410936000,3.73093603515625,-0.47317972779273987,-0.37299680709838867,-0.2325773984193802
1782835552420867000,3.7408671875,-0.5159386396408081,-0.2586398124694824,-0.2862766981124878
1782835552430797000,3.750797119140625,-0.5334153771400452,-0.050054389983415604,-0.2591332495212555
1782835552440727000,3.76072705078125,-0.520918071269989,0.2203318178653717,-0.14406585693359375
1782835552450658000,3.770657958984375,-0.4635290801525116,0.4975684583187103,0.03740619495511055
1782835552460588000,3.780588134765625,-0.35516855120658875,0.7032037377357483,0.2504284381866455
1782835552470519000,3.79051904296875,-0.21669775247573853,0.8103832006454468,0.4459284245967865
1782835552480449300,3.80044921875,-0.07816176861524582,0.812594473361969,0.6071381568908691
1782835552490380000,3.810380126953125,0.043191295117139816,0.7215191721916199,0.746268630027771
1782835552500310300,3.820310302734375,0.1370122730731964,0.5707558393478394,0.8536272048950195
1782835552510241000,3.830240966796875,0.18816520273685455,0.3539838492870331,0.9305976033210754
1782835552520171300,3.840171142578125,0.18937338888645172,0.10143441706895828,0.9768388867378235
1782835552530102000,3.85010205078125,0.14334943890571594,-0.17663314938545227,0.9817859530448914
1782835552540032300,3.8600322265625,0.056752175092697144,-0.44262024760246277,0.9321346879005432
1782835552549963000,3.869962890625,-0.06559797376394272,-0.6803926229476929,0.7970325350761414
1782835552559893200,3.879893310546875,-0.1939559280872345,-0.8619760870933533,0.5777745842933655
1782835552569824000,3.889823974609375,-0.31700754165649414,-0.953514575958252,0.3412856459617615
1782835552579754200,3.899754150390625,-0.43967634439468384,-0.9331676959991455,0.12108887732028961
1782835552589685000,3.90968505859375,-0.5582698583602905,-0.8328117728233337,-0.06553933024406433
1782835552599615000,3.919614990234375,-0.668857216835022,-0.7013058662414551,-0.18901821970939636
1782835552609546200,3.929546142578125,-0.7553201913833618,-0.5226892828941345,-0.22828732430934906
1782835552619476000,3.93947607421875,-0.8082283139228821,-0.2838467061519623,-0.19460131227970123
1782835552629407200,3.9494072265625,-0.8164063692092896,-0.021476875990629196,-0.09246722608804703
1782835552639337000,3.9593369140625,-0.7636632323265076,0.20736046135425568,0.0422123558819294
1782835552649268200,3.969268310546875,-0.6708863973617554,0.3664502501487732,0.19361519813537598
1782835552659198000,3.979197998046875,-0.5632995367050171,0.4573522210121155,0.34367215633392334
1782835552669128200,3.989128173828125,-0.46616628766059875,0.5004349946975708,0.4739454388618469
1782835552679059000,3.999058837890625,-0.40174606442451477,0.49165746569633484,0.5650477409362793
1782835552688989200,4.0089892578125,-0.3607451021671295,0.45105066895484924,0.6260485053062439
1782835552698920000,4.018919921875,-0.3296147882938385,0.3998503088951111,0.6768838763237
1782835552708850200,4.02885009765625,-0.31287628412246704,0.34635138511657715,0.6931867003440857
1782835552718781000,4.038781005859375,-0.31369706988334656,0.27326086163520813,0.6613719463348389
1782835552728711200,4.048711181640625,-0.3080280125141144,0.1788371503353119,0.6036931872367859
1782835552738642000,4.058641845703125,-0.29097113013267517,0.07831938564777374,0.5203536152839661
1782835552748572200,4.068572265625,-0.2580443322658539,-0.030768487602472305,0.43676337599754333
1782835552758503200,4.078503173828125,-0.22350916266441345,-0.14618635177612305,0.3658320903778076
1782835552768433200,4.08843310546875,-0.20617568492889404,-0.23076435923576355,0.31392577290534973
1782835552778364200,4.0983642578125,-0.2201281189918518,-0.28896769881248474,0.2479872703552246
1782835552788294100,4.108294189453125,-0.2635083496570587,-0.3252050578594208,0.16107633709907532
1782835552798225200,4.11822509765625,-0.31072720885276794,-0.3444463908672333,0.08137327432632446
1782835552808155100,4.128155029296875,-0.35997676849365234,-0.3731369078159332,0.017528250813484192
1782835552818086100,4.138086181640625,-0.4217039942741394,-0.422072172164917,-0.04427691176533699
1782835552828016000,4.14801611328125,-0.48804014921188354,-0.45165082812309265,-0.08681265264749527
1782835552837947100,4.157947021484375,-0.5423973798751831,-0.4524766206741333,-0.11407482624053955
1782835552847873300,4.167873291015625,-0.5876908302307129,-0.43255937099456787,-0.1412997990846634
1782835552857804000,4.177803955078125,-0.6029276847839355,-0.42408299446105957,-0.2041901797056198
1782835552867734300,4.187734375,-0.5811195969581604,-0.4286543130874634,-0.2984256148338318
1782835552877665000,4.1976650390625,-0.5282456278800964,-0.4383293688297272,-0.3949138820171356
1782835552887595300,4.20759521484375,-0.4753057062625885,-0.47182556986808777,-0.47608277201652527
1782835552897526000,4.217526123046875,-0.4621875286102295,-0.542363703250885,-0.5342922210693359
1782835552907456300,4.227456298828125,-0.48743191361427307,-0.6142386794090271,-0.5498144626617432
1782835552917387000,4.237386962890625,-0.5345970988273621,-0.6226823329925537,-0.5062292814254761
1782835552927317200,4.247317138671875,-0.5859149098396301,-0.5189988017082214,-0.4030461609363556
1782835552937247000,4.2572470703125,-0.6224507689476013,-0.3468061685562134,-0.26560452580451965
1782835552947178200,4.26717822265625,-0.6436399221420288,-0.11110709607601166,-0.11768163740634918
1782835552957108000,4.27710791015625,-0.6545905470848083,0.12185854464769363,-0.02580118179321289
1782835552967039200,4.287039306640625,-0.6513039469718933,0.2351379692554474,-0.045088592916727066
1782835552976969000,4.296968994140625,-0.6398478746414185,0.25353723764419556,-0.15761561691761017
1782835552986900000,4.30689990234375,-0.6261575818061829,0.1990252584218979,-0.3384101688861847
1782835552996830200,4.316830322265625,-0.6480541229248047,0.10223127901554108,-0.5318119525909424
1782835553006761000,4.326760986328125,-0.7034412026405334,-0.0032882243394851685,-0.6750484704971313
1782835553016691200,4.336691162109375,-0.7865075469017029,-0.05713723599910736,-0.7162764668464661
1782835553026622000,4.3466220703125,-0.8581559062004089,-0.05117761716246605,-0.6529683470726013
1782835553036552200,4.35655224609375,-0.8987167477607727,-0.0011542392894625664,-0.501426100730896
1782835553046483000,4.36648291015625,-0.8871535658836365,0.10756957530975342,-0.28358036279678345
1782835553056413200,4.3764130859375,-0.8306524753570557,0.23509274423122406,-0.0214979350566864
1782835553066344000,4.386343994140625,-0.7434078454971313,0.3527064621448517,0.23653094470500946
1782835553076274200,4.396274169921875,-0.6485812664031982,0.46701472997665405,0.44724470376968384
1782835553086205000,4.406204833984375,-0.5704430341720581,0.564081072807312,0.5730603933334351
1782835553096135200,4.41613525390625,-0.5051937699317932,0.6318768858909607,0.6144480109214783
1782835553106066200,4.426066162109375,-0.4545835852622986,0.6778084635734558,0.6082329750061035
1782835553115996200,4.43599609375,-0.4202672243118286,0.667203962802887,0.5935734510421753
1782835553125927200,4.44592724609375,-0.4206957221031189,0.5880955457687378,0.5794405937194824
1782835553135857200,4.455857177734375,-0.45062923431396484,0.47068408131599426,0.572979748249054
1782835553145788200,4.4657880859375,-0.48833030462265015,0.3423740565776825,0.5798943638801575
1782835553155718100,4.47571826171875,-0.5245890617370605,0.1941557079553604,0.5813773274421692
1782835553165649200,4.485649169921875,-0.5716655254364014,0.025056440383195877,0.5592970848083496
1782835553175579100,4.4955791015625,-0.6352745294570923,-0.17107842862606049,0.5192556381225586
1782835553185510100,4.50551025390625,-0.712255597114563,-0.33743810653686523,0.4585520625114441
1782835553195440000,4.515440185546875,-0.8070986270904541,-0.4888450503349304,0.3688313364982605
1782835553205371100,4.52537109375,-0.8852014541625977,-0.5957435369491577,0.2409180998802185
1782835553215301000,4.535301025390625,-0.9383443593978882,-0.5970505475997925,0.09145711362361908
1782835553225231000,4.545231201171875,-0.9660500288009644,-0.5011152625083923,-0.04363519325852394
1782835553235162000,4.555162109375,-0.9725825190544128,-0.3433317244052887,-0.15078163146972656
1782835553245092000,4.565092041015625,-0.9745277166366577,-0.11878224462270737,-0.21468205749988556
1782835553255023400,4.5750234375,-0.9622848629951477,0.146859809756279,-0.22892197966575623
1782835553264953000,4.584953125,-0.9307900667190552,0.4063952565193176,-0.21182554960250854
1782835553274884000,4.594884033203125,-0.8736940622329712,0.6127600073814392,-0.16787095367908478
1782835553284814000,4.60481396484375,-0.8084514141082764,0.7263339161872864,-0.13126234710216522
1782835553294745000,4.6147451171875,-0.7514088153839111,0.7081536054611206,-0.12601596117019653
1782835553304675000,4.624675048828125,-0.7051001787185669,0.6153967380523682,-0.1391027271747589
1782835553314606000,4.634606201171875,-0.6496996879577637,0.4765912890434265,-0.1478762924671173
1782835553324536000,4.6445361328125,-0.5993563532829285,0.3144495189189911,-0.16349466145038605
1782835553334467000,4.654467041015625,-0.5512938499450684,0.1393803358078003,-0.16568945348262787
1782835553344397000,4.66439697265625,-0.5035566687583923,0.006170087493956089,-0.15288418531417847
1782835553354328000,4.674328125,-0.46443971991539,-0.07481423020362854,-0.14653995633125305
1782835553364258000,4.684258056640625,-0.4198189973831177,-0.1241181269288063,-0.16977204382419586
1782835553374189000,4.69418896484375,-0.36696091294288635,-0.14724519848823547,-0.21902649104595184
1782835553384119000,4.704119140625,-0.3197172284126282,-0.17002880573272705,-0.28218603134155273
1782835553394050000,4.714050048828125,-0.2748028635978699,-0.20767192542552948,-0.32423096895217896
1782835553403980000,4.72397998046875,-0.24898695945739746,-0.24611492455005646,-0.34044748544692993
1782835553413911000,4.7339111328125,-0.23381294310092926,-0.27190691232681274,-0.32302528619766235
1782835553423841300,4.74384130859375,-0.2215312421321869,-0.24665004014968872,-0.26888346672058105
1782835553433772000,4.75377197265625,-0.1938445270061493,-0.17511697113513947,-0.2005903720855713
1782835553443702300,4.763702392578125,-0.14852231740951538,-0.07226169854402542,-0.13481402397155762
1782835553453633000,4.773633056640625,-0.08678465336561203,0.035292189568281174,-0.07452458143234253
1782835553463563300,4.783563232421875,-0.02102668397128582,0.10209305584430695,0.009749019518494606
1782835553473494000,4.793493896484375,0.018233848735690117,0.14197595417499542,0.0934525579214096
1782835553483424300,4.80342431640625,0.05074864998459816,0.1410403847694397,0.1672535389661789
1782835553493355000,4.81335498046875,0.07161635160446167,0.07280297577381134,0.2078014314174652
1782835553503285200,4.82328515625,0.08647705614566803,-0.05264922231435776,0.20722219347953796
1782835553513216000,4.833216064453125,0.08423364907503128,-0.1891973316669464,0.17533829808235168
1782835553523146200,4.843146240234375,0.06926082819700241,-0.3044799864292145,0.1315591186285019
1782835553533077200,4.8530771484375,0.05737992003560066,-0.4158414900302887,0.08625269681215286
1782835553543007200,4.86300732421875,0.05560305714607239,-0.489300012588501,0.05470462888479233
1782835553552938200,4.872938232421875,0.0647924616932869,-0.5026931166648865,0.03763394057750702
1782835553562868200,4.8828681640625,0.07860361039638519,-0.5163971781730652,0.020980659872293472
1782835553572799200,4.89279931640625,0.10073553025722504,-0.4968964159488678,0.005953105166554451
1782835553582729200,4.902729248046875,0.09737595170736313,-0.4499528706073761,-0.0029538366943597794
1782835553592660200,4.91266015625,0.05371071770787239,-0.3812640309333801,-0.015102328732609749
1782835553602590200,4.922590087890625,-0.017332032322883606,-0.3259621858596802,-0.058523572981357574
1782835553612521200,4.932521240234375,-0.11020290851593018,-0.3099551498889923,-0.14626097679138184
1782835553622451000,4.942450927734375,-0.1967010498046875,-0.3074302077293396,-0.2592173218727112
1782835553632382200,4.95238232421875,-0.2584369480609894,-0.30242404341697693,-0.35222089290618896
1782835553642312000,4.96231201171875,-0.26297256350517273,-0.2816993296146393,-0.3799656927585602
1782835553652242200,4.9722421875,-0.22316479682922363,-0.26868394017219543,-0.3149912357330322
1782835553662173000,4.9821728515625,-0.14229711890220642,-0.27941808104515076,-0.15524284541606903
1782835553672103200,4.992103271484375,-0.031464144587516785,-0.2950953245162964,0.0731293261051178
1782835553682034000,5.002033935546875,0.07572436332702637,-0.264199435710907,0.3424963355064392
1782835553691964200,5.011964111328125,0.10053709149360657,-0.15993475914001465,0.565568745136261
1782835553701895200,5.021895263671875,0.05188300088047981,-0.00034908484667539597,0.6811819076538086
1782835553711825200,5.0318251953125,-0.011023483239114285,0.19696582853794098,0.69797682762146
1782835553721756200,5.041756103515625,-0.05249209702014923,0.40399304032325745,0.6453572511672974
1782835553731686100,5.05168603515625,-0.07319112867116928,0.5328910946846008,0.553113579750061
1782835553741617200,5.0616171875,-0.0819404125213623,0.5692307353019714,0.4520556330680847
1782835553751547100,5.071547119140625,-0.0864095389842987,0.5184506177902222,0.37048912048339844
1782835553761478100,5.08147802734375,-0.08450564742088318,0.3978203237056732,0.3267325758934021
1782835553771408100,5.091408203125,-0.08316604793071747,0.23086626827716827,0.3148166239261627
1782835553781339100,5.101339111328125,-0.0925488993525505,0.02512243017554283,0.3135510981082916
1782835553791269000,5.11126904296875,-0.10166966170072556,-0.22564275562763214,0.3058304190635681
1782835553801200000,5.1212001953125,-0.10013514757156372,-0.49729716777801514,0.2630046606063843
1782835553811130000,5.131130126953125,-0.07323992252349854,-0.7820038795471191,0.21255454421043396
1782835553821061000,5.14106103515625,-0.047973986715078354,-1.0413696765899658,0.15851527452468872
1782835553830991000,5.1509912109375,-0.04967683181166649,-1.225134253501892,0.12000957131385803
1782835553840926000,5.160926025390625,-0.08770836889743805,-1.320673942565918,0.08530884981155396
1782835553850856200,5.170856201171875,-0.12539665400981903,-1.286303162574768,0.0336461141705513
1782835553860787000,5.180786865234375,-0.16119806468486786,-1.1504194736480713,-0.04718349128961563
1782835553870717000,5.190717041015625,-0.16929493844509125,-1.0001194477081299,-0.15040390193462372
1782835553880648000,5.20064794921875,-0.13105301558971405,-0.794364333152771,-0.22978952527046204
1782835553890578000,5.210577880859375,-0.04589126259088516,-0.5539505481719971,-0.23657014966011047
1782835553900509000,5.220509033203125,0.05902290344238281,-0.29703086614608765,-0.15969693660736084
1782835553910439000,5.23043896484375,0.14829032123088837,-0.039451636373996735,-0.023253578692674637
1782835553920370000,5.240369873046875,0.21656177937984467,0.19273285567760468,0.10520133376121521
1782835553930300000,5.2502998046875,0.27036479115486145,0.33415108919143677,0.17815087735652924
1782835553940231000,5.26023095703125,0.31461986899375916,0.3761129379272461,0.16366994380950928
1782835553950161000,5.270160888671875,0.36742478609085083,0.3450313210487366,0.09999112784862518
1782835553960092200,5.280092041015625,0.4236403703689575,0.2789343297481537,0.030809924006462097
1782835553970022000,5.29002197265625,0.47397705912590027,0.18342429399490356,-0.0315810851752758
1782835553979953200,5.299953125,0.5000003576278687,0.09770458936691284,-0.07099826633930206
1782835553989883000,5.3098828125,0.5012184977531433,0.030737802386283875,-0.11440459638834
1782835553999814100,5.319814208984375,0.5015696883201599,-0.010512007400393486,-0.16619931161403656
1782835554009742800,5.329742919921875,0.5017178654670715,-0.03206166625022888,-0.22435559332370758
1782835554019672800,5.3396728515625,0.5030491948127747,-0.015392141416668892,-0.2711779773235321
1782835554029603800,5.349603759765625,0.5112236142158508,0.03532897308468819,-0.30030015110969543
1782835554039533800,5.359533935546875,0.5223079323768616,0.09735532850027084,-0.3264393210411072
1782835554049464800,5.36946484375,0.5615831613540649,0.12193107604980469,-0.3648570775985718
1782835554059395000,5.37939501953125,0.61821049451828,0.165781632065773,-0.40301913022994995
1782835554069325800,5.389325927734375,0.6762518286705017,0.21865913271903992,-0.42914679646492004
1782835554079256000,5.399256103515625,0.7239139080047607,0.25521448254585266,-0.46707072854042053
1782835554089186800,5.409186767578125,0.7591853141784668,0.2587774395942688,-0.5230947136878967
1782835554099117000,5.419116943359375,0.8030563592910767,0.23512433469295502,-0.6115545630455017
1782835554109047800,5.4290478515625,0.8578270077705383,0.17939122021198273,-0.7126200199127197
1782835554118978000,5.43897802734375,0.9444953203201294,0.11202310770750046,-0.8147588968276978
1782835554128908800,5.44890869140625,1.0362751483917236,0.05583988130092621,-0.8868524432182312
1782835554138839000,5.458839111328125,1.1048002243041992,0.022983403876423836,-0.9224905967712402
1782835554148769800,5.468769775390625,1.16611647605896,-0.009850569069385529,-0.9061683416366577
1782835554158700000,5.478699951171875,1.218938946723938,-0.017438979819417,-0.8332776427268982
1782835554168630800,5.488630859375,1.2795377969741821,0.01653520204126835,-0.7213791608810425
1782835554178561000,5.49856103515625,1.34157133102417,0.07133160531520844,-0.601108968257904
1782835554188492000,5.508491943359375,1.3809326887130737,0.08254854381084442,-0.5073036551475525
1782835554198422000,5.518422119140625,1.3965330123901367,0.012741503305733204,-0.42267534136772156
1782835554208353000,5.52835302734375,1.4135887622833252,-0.09726608544588089,-0.31620317697525024
1782835554218283000,5.538282958984375,1.446791648864746,-0.20494434237480164,-0.18490029871463776
1782835554228214000,5.548214111328125,1.4909112453460693,-0.2938576936721802,-0.05017600953578949
1782835554238144000,5.55814404296875,1.5448848009109497,-0.3742223083972931,0.07257094979286194
1782835554248075000,5.568074951171875,1.6085885763168335,-0.3977627754211426,0.16988897323608398
1782835554258005000,5.5780048828125,1.6720174551010132,-0.34980830550193787,0.2540491223335266
1782835554267936000,5.58793603515625,1.7227582931518555,-0.28421345353126526,0.30586835741996765
1782835554277866000,5.597865966796875,1.7585245370864868,-0.2124204933643341,0.32570120692253113
1782835554287797000,5.607796875,1.7654694318771362,-0.2101573795080185,0.3002023994922638
1782835554297727000,5.61772705078125,1.739117980003357,-0.2898713946342468,0.23457838594913483
1782835554307658000,5.627657958984375,1.6757116317749023,-0.39898499846458435,0.1310926377773285
1782835554317588000,5.637587890625,1.5602827072143555,-0.4775506556034088,0.019663836807012558
1782835554327519000,5.64751904296875,1.3852028846740723,-0.48027482628822327,-0.08017520606517792
1782835554337449000,5.657448974609375,1.1557267904281616,-0.36765214800834656,-0.15287737548351288
1782835554347380000,5.6673798828125,0.9292513728141785,-0.12484722584486008,-0.17199432849884033
1782835554357310000,5.67731005859375,0.7480413913726807,0.16617156565189362,-0.11904801428318024
1782835554367241000,5.687240966796875,0.6347206830978394,0.4776808023452759,-0.0011198455467820168
1782835554377171000,5.6971708984375,0.5741335153579712,0.765321671962738,0.15947595238685608
1782835554387102000,5.70710205078125,0.5689966678619385,1.0307388305664062,0.3250417709350586
1782835554397032000,5.717031982421875,0.6086942553520203,1.2611159086227417,0.45756465196609497
1782835554406963000,5.726962890625,0.6838616728782654,1.4167896509170532,0.5641106367111206
1782835554416893000,5.736892822265625,0.7801743745803833,1.5164669752120972,0.6384665966033936
1782835554426824000,5.746823974609375,0.8666156530380249,1.5237451791763306,0.6576995253562927
1782835554436754000,5.75675390625,0.9158782362937927,1.4041670560836792,0.607012152671814
1782835554446685000,5.766684814453125,0.9339497089385986,1.1678643226623535,0.494419664144516
1782835554456615000,5.776614990234375,0.9351813793182373,0.8497843742370605,0.33307549357414246
1782835554466546200,5.786546142578125,0.9273703098297119,0.4281051754951477,0.15647701919078827
1782835554476476000,5.796475830078125,0.9065569043159485,-0.05414403975009918,-0.01832089200615883
1782835554486407200,5.8064072265625,0.8796240091323853,-0.5317835807800293,-0.14364974200725555
1782835554496337000,5.8163369140625,0.8515782356262207,-0.8540963530540466,-0.20737093687057495
1782835554506268000,5.826267822265625,0.8206831216812134,-1.0191903114318848,-0.20658522844314575
1782835554516198000,5.836197998046875,0.7780233025550842,-1.0547879934310913,-0.1718757152557373
1782835554526129000,5.84612890625,0.7295178771018982,-0.9723729491233826,-0.08847714215517044
1782835554536059000,5.856058837890625,0.7035803198814392,-0.7777259945869446,0.01243588700890541
1782835554545990000,5.865989990234375,0.7166755199432373,-0.4882185757160187,0.08894399553537369
1782835554555920000,5.875919921875,0.7606275081634521,-0.15671837329864502,0.06446634978055954
1782835554565851000,5.885850830078125,0.8378400206565857,0.16584452986717224,-0.050451088696718216
1782835554575780900,5.89578076171875,0.933523416519165,0.45521217584609985,-0.22801628708839417
1782835554585711900,5.9057119140625,1.01651132106781,0.6695049405097961,-0.4206283390522003
1782835554595641900,5.915641845703125,1.060692548751831,0.8020864129066467,-0.5966867208480835
1782835554605572900,5.92557275390625,1.0685330629348755,0.842919647693634,-0.7173408269882202
1782835554615503000,5.935503173828125,1.0580180883407593,0.8089209198951721,-0.7569971084594727
1782835554625433900,5.945433837890625,1.0431692600250244,0.7150000333786011,-0.7265011668205261
1782835554635364000,5.955364013671875,1.021450161933899,0.5594179034233093,-0.6483299136161804
1782835554645294800,5.965294921875,0.9993071556091309,0.3528248071670532,-0.523047149181366
1782835554655228000,5.975227783203125,0.9742361903190613,0.16494038701057434,-0.3653259575366974
1782835554665158100,5.985158203125,0.9590768814086914,-0.0033707749098539352,-0.19002985954284668
1782835554675089000,5.9950888671875,0.9505810737609863,-0.14995169639587402,-0.0410558357834816
1782835554685019100,6.00501904296875,0.94490647315979,-0.2842412292957306,0.07506324350833893
1782835554694950000,6.014949951171875,0.9454082250595093,-0.4153563678264618,0.1454114466905594
1782835554704879900,6.0248798828125,0.9486645460128784,-0.5104321837425232,0.1888429820537567
1782835554714811000,6.034810791015625,0.9468914270401001,-0.563943088054657,0.20436522364616394
1782835554724740900,6.044740966796875,0.9403992295265198,-0.5782280564308167,0.20570601522922516
1782835554734672100,6.054672119140625,0.9165197610855103,-0.5601105690002441,0.1819857656955719
1782835554744601900,6.064601806640625,0.8800234198570251,-0.5111928582191467,0.14252513647079468
1782835554754533000,6.074533203125,0.8510197401046753,-0.4205569624900818,0.10705795884132385
1782835554764462800,6.084462890625,0.8343064188957214,-0.2995561361312866,0.08550898730754852
1782835554774394000,6.09439404296875,0.8254916667938232,-0.1482643336057663,0.08478593826293945
1782835554784323800,6.10432373046875,0.8156551718711853,0.01910999044775963,0.10065407305955887
1782835554794255000,6.114255126953125,0.7919673919677734,0.2024095058441162,0.137022465467453
1782835554804184800,6.124184814453125,0.7418330311775208,0.34617871046066284,0.18419328331947327
1782835554814116000,6.1341162109375,0.659927487373352,0.3681548535823822,0.23440904915332794
1782835554824045800,6.1440458984375,0.5900408625602722,0.23799671232700348,0.2938678562641144
1782835554833977000,6.15397705078125,0.542671263217926,0.008952608332037926,0.3634301722049713
1782835554843907000,6.163906982421875,0.513268768787384,-0.24398133158683777,0.4540445804595947
1782835554853838000,6.173838134765625,0.48521319031715393,-0.4484657645225525,0.5580775141716003
1782835554863768000,6.18376806640625,0.5394447445869446,-0.6601466536521912,0.7222722172737122
1782835554873699000,6.193698974609375,0.615409255027771,-0.6953656077384949,0.928428053855896
1782835554883629300,6.20362939453125,0.6700278520584106,-0.5355879664421082,1.1507753133773804
1782835554893560000,6.21356005859375,0.7112072110176086,-0.4078640937805176,1.3263359069824219
1782835554903490300,6.223490234375,0.7315224409103394,-0.3588186204433441,1.4289101362228394
1782835554913421000,6.233421142578125,0.7727899551391602,-0.333727091550827,1.436846375465393
1782835554923351300,6.243351318359375,0.8350343108177185,-0.36922746896743774,1.345640778541565
1782835554933282000,6.253281982421875,0.9008644223213196,-0.3572025001049042,1.160238265991211
1782835554943212300,6.26321240234375,0.9359216094017029,-0.31998154520988464,0.8885825276374817
1782835554953143000,6.27314306640625,0.934348464012146,-0.2786119878292084,0.5733340382575989
1782835554963073300,6.2830732421875,0.8936251401901245,-0.20448614656925201,0.26816412806510925
1782835554973004000,6.293004150390625,0.8232138156890869,-0.0946994498372078,0.0062227994203567505
1782835554982934300,6.302934326171875,0.7225303053855896,0.049117814749479294,-0.19494907557964325
1782835554992865300,6.312865234375,0.6039908528327942,0.2063543051481247,-0.30806684494018555
1782835555002795300,6.322795166015625,0.48630812764167786,0.4006384313106537,-0.32650718092918396
1782835555012726300,6.332726318359375,0.40798187255859375,0.5640795230865479,-0.2931968867778778
1782835555022656300,6.34265625,0.4008132219314575,0.6977315545082092,-0.2641216516494751
1782835555032587300,6.352587158203125,0.42708131670951843,0.8943583369255066,-0.24214334785938263
1782835555042517200,6.362517333984375,0.49586623907089233,1.1664975881576538,-0.19652193784713745
1782835555052448300,6.3724482421875,0.5973981618881226,1.4251210689544678,-0.13263723254203796
1782835555062378200,6.382378173828125,0.6838171482086182,1.538422703742981,-0.09308060258626938
1782835555072309200,6.392309326171875,0.7239099740982056,1.4911366701126099,-0.06423164159059525
1782835555082239200,6.4022392578125,0.720483124256134,1.346671462059021,-0.03762274980545044
1782835555092170200,6.412170166015625,0.7047582268714905,1.1343351602554321,0.006980402395129204
1782835555102100200,6.422100341796875,0.6799492835998535,0.8662925362586975,0.0636715441942215
1782835555112031200,6.43203125,0.6286367774009705,0.5784173607826233,0.13124313950538635
1782835555121961200,6.441961181640625,0.5459155440330505,0.2897421717643738,0.18420283496379852
1782835555131892200,6.451892333984375,0.4313090443611145,0.02530520036816597,0.19426319003105164
1782835555141822200,6.461822265625,0.3065609633922577,-0.18062956631183624,0.1402718871831894
1782835555151753200,6.471753173828125,0.20218554139137268,-0.34417724609375,0.060030847787857056
1782835555161683200,6.48168310546875,0.13776417076587677,-0.45833003520965576,-0.01163746789097786
1782835555171614200,6.4916142578125,0.0797988772392273,-0.5604092478752136,-0.08245145529508591
1782835555181544200,6.501544189453125,0.0025638481602072716,-0.6497313380241394,-0.14237941801548004
1782835555191475200,6.51147509765625,-0.09413659572601318,-0.6525769233703613,-0.16244100034236908
1782835555201405200,6.5214052734375,-0.16655796766281128,-0.5598747730255127,-0.12981685996055603
1782835555211336200,6.531336181640625,-0.18755806982517242,-0.447214275598526,-0.05248319357633591
1782835555221266200,6.54126611328125,-0.15928958356380463,-0.29786452651023865,0.05014294013381004
1782835555231197200,6.551197265625,-0.11679139733314514,-0.10459917783737183,0.1459171324968338
1782835555241127200,6.561127197265625,-0.08154795318841934,0.07473209500312805,0.1949392855167389
1782835555251058200,6.57105810546875,-0.0666787251830101,0.20312069356441498,0.1762111335992813
1782835555260988200,6.58098828125,-0.045421671122312546,0.26943910121917725,0.1183246299624443
1782835555270919400,6.59091943359375,-0.024319849908351898,0.31191492080688477,0.029749756678938866
1782835555280849200,6.60084912109375,-0.01630556955933571,0.3303208649158478,-0.09135130792856216
1782835555290780400,6.610780517578125,-0.03547021001577377,0.31287530064582825,-0.21854707598686218
1782835555300710100,6.620710205078125,-0.0991523265838623,0.280687153339386,-0.3489631116390228
1782835555310641400,6.630641357421875,-0.19151848554611206,0.20763903856277466,-0.47336921095848083
1782835555320571100,6.640571044921875,-0.297666072845459,0.05597124993801117,-0.5679838061332703
1782835555330502100,6.650502197265625,-0.40971776843070984,-0.101699598133564,-0.5813747048377991
1782835555340432100,6.66043212890625,-0.5277133584022522,-0.24017955362796783,-0.5088118314743042
1782835555350363100,6.670363037109375,-0.6473017930984497,-0.3705655336380005,-0.3850049078464508
1782835555360293000,6.680293212890625,-0.7348328828811646,-0.4857392907142639,-0.24446068704128265
1782835555370224000,6.69022412109375,-0.7657727003097534,-0.5440324544906616,-0.09360592067241669
1782835555380154000,6.700154052734375,-0.7240939736366272,-0.5421728491783142,0.056006334722042084
1782835555390085000,6.710085205078125,-0.6100661754608154,-0.5042417049407959,0.18726316094398499
1782835555400015000,6.72001513671875,-0.45907366275787354,-0.44091087579727173,0.2839605510234833
1782835555409946000,6.729946044921875,-0.3038020730018616,-0.4136965572834015,0.3411881625652313
1782835555419876000,6.7398759765625,-0.18962398171424866,-0.4234158992767334,0.35102158784866333
1782835555429807000,6.74980712890625,-0.14029158651828766,-0.4358198344707489,0.3324228823184967
1782835555439737300,6.7597373046875,-0.15892085433006287,-0.40051811933517456,0.3044368624687195
1782835555449668000,6.769668212890625,-0.2340608835220337,-0.33660224080085754,0.25115206837654114
1782835555459598300,6.779598388671875,-0.36378031969070435,-0.284122496843338,0.160073921084404
1782835555469529000,6.789529052734375,-0.5377329587936401,-0.2151825726032257,0.022625785320997238
1782835555479460400,6.79946044921875,-0.7253471612930298,-0.10344770550727844,-0.1106622964143753
1782835555489390000,6.80939013671875,-0.8809157609939575,0.044152405112981796,-0.20994867384433746
1782835555499321300,6.8193212890625,-0.9804180264472961,0.25028717517852783,-0.26823097467422485
1782835555509251000,6.8292509765625,-1.031589150428772,0.46033868193626404,-0.3084865212440491
1782835555519182000,6.83918212890625,-1.0530425310134888,0.6034074425697327,-0.34181085228919983
1782835555529112000,6.849112060546875,-1.063162088394165,0.612339437007904,-0.3747562766075134
1782835555539043000,6.85904296875,-1.0845857858657837,0.5417830944061279,-0.38526758551597595
1782835555548973300,6.868973388671875,-1.1230015754699707,0.3979097604751587,-0.36218011379241943
1782835555558904000,6.878904052734375,-1.1994253396987915,0.12894050776958466,-0.32390889525413513
1782835555568834300,6.888834228515625,-1.3156205415725708,-0.20536476373672485,-0.2875996232032776
1782835555578765000,6.89876513671875,-1.4426651000976562,-0.47939571738243103,-0.2793058753013611
1782835555588695300,6.9086953125,-1.5453709363937378,-0.6243281960487366,-0.2705414295196533
1782835555598626000,6.9186259765625,-1.5943098068237305,-0.621528685092926,-0.23740404844284058
1782835555608556300,6.928556396484375,-1.580001950263977,-0.4456804394721985,-0.17371535301208496
1782835555618487000,6.938487060546875,-1.5072579383850098,-0.1652146577835083,-0.08644939959049225
1782835555628417300,6.948417236328125,-1.4098632335662842,0.13452571630477905,-0.01664261892437935
1782835555638348000,6.95834814453125,-1.3049002885818481,0.38955745100975037,0.019677244126796722
1782835555648278300,6.9682783203125,-1.19440758228302,0.5505937337875366,0.03789166733622551
1782835555658209300,6.978209228515625,-1.0992246866226196,0.6304534673690796,0.03614867478609085
1782835555668139300,6.98813916015625,-1.020019292831421,0.6473248600959778,0.02525394782423973
1782835555678070300,6.9980703125,-0.972621500492096,0.5783333778381348,0.01121932826936245
1782835555688000300,7.008000244140625,-0.9533625841140747,0.4476025104522705,-0.0064621963538229465
1782835555697931300,7.01793115234375,-0.9395580887794495,0.3227338194847107,-0.015364877879619598
1782835555707861200,7.027861328125,-0.9037798643112183,0.22066549956798553,-0.012702515348792076
1782835555717792300,7.037792236328125,-0.8398632407188416,0.1313033103942871,-0.0071286847814917564
1782835555727722200,7.04772216796875,-0.7720857858657837,0.03809533268213272,0.0032121026888489723
1782835555737653200,7.0576533203125,-0.7165573835372925,-0.05123402178287506,0.01265271008014679
1782835555747583200,7.067583251953125,-0.6946454048156738,-0.10627330839633942,0.008094709366559982
1782835555757514200,7.07751416015625,-0.6757165193557739,-0.1503560096025467,-0.012714552693068981
1782835555767444200,7.0874443359375,-0.6648731827735901,-0.2294982373714447,-0.07808876782655716
1782835555777375200,7.097375244140625,-0.6677663326263428,-0.3471284508705139,-0.17862656712532043
1782835555787305200,7.10730517578125,-0.694653332233429,-0.46938860416412354,-0.2785901725292206
1782835555797236200,7.117236328125,-0.7375326752662659,-0.5496262907981873,-0.35376444458961487
1782835555807166200,7.127166259765625,-0.7788596153259277,-0.565412163734436,-0.39979079365730286
1782835555817097200,7.13709716796875,-0.796111524105072,-0.5419467687606812,-0.39518165588378906
1782835555827027200,7.147027099609375,-0.774579644203186,-0.4961228370666504,-0.35527393221855164
1782835555836958200,7.156958251953125,-0.7342820763587952,-0.3640003800392151,-0.28266534209251404
1782835555846883800,7.1668837890625,-0.6703774333000183,-0.13343454897403717,-0.16772517561912537
1782835555856814800,7.17681494140625,-0.6121689081192017,0.11948662251234055,-0.05358618125319481
1782835555866744800,7.186744873046875,-0.560435950756073,0.3114214539527893,0.04387645795941353
1782835555876675800,7.19667578125,-0.5155200362205505,0.38432180881500244,0.11267079412937164
1782835555886606000,7.206606201171875,-0.49334603548049927,0.3769570589065552,0.15277880430221558
1782835555896536800,7.216536865234375,-0.49739500880241394,0.33886948227882385,0.15855814516544342
1782835555906467000,7.226467041015625,-0.5295012593269348,0.2635853886604309,0.135540172457695
1782835555916397800,7.236397705078125,-0.5950308442115784,0.13006465137004852,0.09861018508672714
1782835555926328000,7.246328125,-0.6796748638153076,0.000012373551726341248,0.038518887013196945
1782835555936258800,7.2562587890625,-0.7579379677772522,-0.12740778923034668,-0.025821512565016747
1782835555946188800,7.266188720703125,-0.7990524172782898,-0.2674005627632141,-0.07793478667736053
1782835555956119800,7.276119873046875,-0.8126440644264221,-0.3397403657436371,-0.12285076081752777
1782835555966049800,7.2860498046875,-0.8027235269546509,-0.3033685088157654,-0.16848722100257874
1782835555975980800,7.295980712890625,-0.7711203098297119,-0.18946823477745056,-0.200619176030159
1782835555985910800,7.305910888671875,-0.7125704288482666,-0.09012433141469955,-0.22354206442832947
1782835555995842000,7.315842041015625,-0.65191251039505,-0.01516922377049923,-0.2400122880935669
1782835556005771800,7.325771728515625,-0.6023127436637878,0.0361189991235733,-0.2402096390724182
1782835556015703000,7.335703125,-0.5480494499206543,0.04041452705860138,-0.2070239931344986
1782835556025632800,7.3456328125,-0.4991128146648407,0.03740116208791733,-0.12254586815834045
1782835556035564000,7.35556396484375,-0.4746050238609314,0.06473726779222488,-0.0026256893761456013
1782835556045493800,7.36549365234375,-0.4620276987552643,0.12595082819461823,0.13405199348926544
1782835556055425000,7.375425048828125,-0.4702938497066498,0.2028059959411621,0.26848188042640686
1782835556065354800,7.385354736328125,-0.4913993775844574,0.2554958462715149,0.3771103620529175
1782835556075286000,7.3952861328125,-0.5142301321029663,0.27213233709335327,0.4417409300804138
1782835556085215700,7.4052158203125,-0.5113259553909302,0.2784956693649292,0.444716215133667
1782835556095147000,7.41514697265625,-0.45061150193214417,0.24124440550804138,0.40017029643058777
1782835556105076700,7.42507666015625,-0.347406268119812,0.16912174224853516,0.32840049266815186
1782835556115008000,7.435008056640625,-0.24906574189662933,0.10158409178256989,0.2600482702255249
1782835556124937700,7.444937744140625,-0.17983074486255646,0.053201645612716675,0.20867669582366943
1782835556134868700,7.45486865234375,-0.1596442013978958,0.028853289783000946,0.20115111768245697
1782835556144798700,7.464798828125,-0.1672419309616089,-0.023143332451581955,0.23572374880313873
1782835556154729700,7.474729736328125,-0.18721114099025726,-0.07783740013837814,0.2885838747024536
1782835556164661000,7.484660888671875,-0.2075001746416092,-0.09001816809177399,0.35135218501091003
1782835556174590700,7.4945908203125,-0.22006866335868835,-0.11879224330186844,0.41001349687576294
1782835556184522000,7.50452197265625,-0.2507650554180145,-0.18094003200531006,0.4536192715167999
1782835556194451700,7.51445166015625,-0.3074217438697815,-0.23768796026706696,0.47254085540771484
1782835556204383000,7.524383056640625,-0.3846648931503296,-0.29230034351348877,0.4584662914276123
1782835556214312700,7.534312744140625,-0.4785686731338501,-0.3277326226234436,0.3837124705314636
1782835556224244000,7.544243896484375,-0.5670852065086365,-0.3841058909893036,0.24046316742897034
1782835556234173700,7.554173583984375,-0.6291946172714233,-0.48818239569664,0.04689545929431915
1782835556244105000,7.56410498046875,-0.6384837031364441,-0.5657514929771423,-0.14148244261741638
1782835556254034700,7.57403466796875,-0.6000111699104309,-0.5130383372306824,-0.25812652707099915
1782835556263966000,7.583966064453125,-0.537539541721344,-0.3506002128124237,-0.29171937704086304
1782835556273896000,7.59389599609375,-0.4788881540298462,-0.1662665605545044,-0.26061442494392395
1782835556283827000,7.603826904296875,-0.42836639285087585,0.0014713117852807045,-0.16327348351478577
1782835556293757000,7.6137568359375,-0.3912847638130188,0.13668377697467804,-0.03303097188472748
1782835556303688000,7.62368798828125,-0.36754509806632996,0.2558479607105255,0.12102943658828735
1782835556313618000,7.633617919921875,-0.3527100086212158,0.3637581467628479,0.2595767676830292
1782835556323548700,7.643548583984375,-0.33983123302459717,0.4514901340007782,0.36714184284210205
1782835556333479000,7.65347900390625,-0.31343913078308105,0.5449374914169312,0.43829959630966187
1782835556343409700,7.66340966796875,-0.28673532605171204,0.6225875020027161,0.4823482930660248
1782835556353340000,7.67333984375,-0.28794583678245544,0.6422170400619507,0.4976077079772949
1782835556363270700,7.683270751953125,-0.3245709538459778,0.6245924830436707,0.48107829689979553
1782835556373201000,7.693200927734375,-0.38028860092163086,0.5634773373603821,0.4520987570285797
1782835556383132000,7.7031318359375,-0.4388035833835602,0.4838876724243164,0.4022670090198517
1782835556393062000,7.713061767578125,-0.4848233461380005,0.3778785467147827,0.33120983839035034
1782835556402993000,7.722992919921875,-0.5027480125427246,0.227431520819664,0.22598782181739807
1782835556412923000,7.7329228515625,-0.4753025770187378,0.03848472610116005,0.11062037199735641
1782835556422854000,7.74285400390625,-0.40128159523010254,-0.15457794070243835,-0.0009293211624026299
1782835556432784000,7.752783935546875,-0.29247424006462097,-0.3315333425998688,-0.1003417819738388
1782835556442715000,7.76271484375,-0.20739930868148804,-0.4622649848461151,-0.17007292807102203
1782835556452644900,7.772644775390625,-0.16564548015594482,-0.5617712140083313,-0.2079421430826187
1782835556462575900,7.782575927734375,-0.15898439288139343,-0.6528268456459045,-0.21291612088680267
1782835556472505900,7.792505859375,-0.17803451418876648,-0.7046628594398499,-0.18220987915992737
1782835556482436900,7.802436767578125,-0.21122922003269196,-0.6933913230895996,-0.11710384488105774
1782835556492366800,7.812366943359375,-0.24862952530384064,-0.6693570613861084,-0.035899773240089417
1782835556502297900,7.8222978515625,-0.27192816138267517,-0.6749587655067444,0.04988676682114601
1782835556512227800,7.832227783203125,-0.28294286131858826,-0.6359546184539795,0.13184799253940582
1782835556522158800,7.842158935546875,-0.27559706568717957,-0.49978163838386536,0.1966368407011032
1782835556532088800,7.8520888671875,-0.2572460174560547,-0.2836938202381134,0.23936672508716583
1782835556542019800,7.862019775390625,-0.25493112206459045,-0.04420621693134308,0.23711349070072174
1782835556551950000,7.8719501953125,-0.27045920491218567,0.16175706684589386,0.19189567863941193
1782835556561880800,7.881880859375,-0.2751748859882355,0.30924317240715027,0.1018238365650177
1782835556571811000,7.89181103515625,-0.25545573234558105,0.3782104253768921,-0.001787478569895029
1782835556581741800,7.901741943359375,-0.20847491919994354,0.39186978340148926,-0.10056918114423752
1782835556591672000,7.911672119140625,-0.1755952388048172,0.36808469891548157,-0.19201041758060455
1782835556601602800,7.921602783203125,-0.16660280525684357,0.2989463806152344,-0.27052947878837585
1782835556611533800,7.931533935546875,-0.16822513937950134,0.1965770572423935,-0.3248614966869354
1782835556621463800,7.9414638671875,-0.1823742538690567,0.08248031884431839,-0.34484079480171204
1782835556631394800,7.951394775390625,-0.18980786204338074,-0.03245557099580765,-0.34602105617523193
1782835556641324800,7.96132470703125,-0.18374331295490265,-0.1264372020959854,-0.31077972054481506
1782835556651255800,7.971255859375,-0.1736842691898346,-0.16704514622688293,-0.232865110039711
1782835556661186000,7.98118603515625,-0.16377730667591095,-0.14420348405838013,-0.13308311998844147
1782835556671116800,7.99111669921875,-0.15950532257556915,-0.08247100561857224,-0.015305905602872372
1782835556681047000,8.001047119140624,-0.14203418791294098,-0.009472163394093513,0.09145782887935638
1782835556690977800,8.010977783203124,-0.11448155343532562,0.019749781116843224,0.17284484207630157
1782835556700908000,8.020907958984376,-0.08808908611536026,0.017228033393621445,0.21155042946338654
1782835556710838800,8.0308388671875,-0.07939863204956055,-0.006188850849866867,0.2093387395143509
1782835556720769000,8.04076904296875,-0.09074582904577255,-0.08824537694454193,0.16770847141742706
1782835556730699800,8.05069970703125,-0.11887575685977936,-0.2044803947210312,0.10855960100889206
1782835556740630000,8.060630126953125,-0.17788688838481903,-0.28616273403167725,0.058514274656772614
1782835556750560800,8.070560791015625,-0.25389036536216736,-0.3067029118537903,0.011916473507881165
1782835556760491000,8.080490966796875,-0.3298780918121338,-0.30228713154792786,-0.013525769114494324
1782835556770422000,8.090422119140625,-0.38330116868019104,-0.24993330240249634,-0.010943214409053326
1782835556780352000,8.10035205078125,-0.4081993103027344,-0.1885005682706833,0.007138583809137344
1782835556790283000,8.110282958984374,-0.42456120252609253,-0.1375192403793335,0.022464577108621597
1782835556800212700,8.120212646484376,-0.4381262958049774,-0.07601460814476013,0.030100125819444656
1782835556810144000,8.13014404296875,-0.43929317593574524,-0.021022051572799683,0.02991425432264805
1782835556820073700,8.14007373046875,-0.4408990740776062,0.015385488979518414,0.026831379160284996
1782835556830005000,8.1500048828125,-0.4360004961490631,0.0249203909188509,0.009601501747965813
1782835556839939000,8.15993896484375,-0.4324877858161926,0.02956387586891651,0.005956166423857212
1782835556849870000,8.1698701171875,-0.44389206171035767,0.04064873605966568,0.011460894718766212
1782835556859800000,8.179800048828126,-0.47275036573410034,0.04533856362104416,0.023979617282748222
1782835556869731000,8.18973095703125,-0.5101500749588013,0.07631072402000427,0.04625750705599785
1782835556879661300,8.199661376953125,-0.5662966966629028,0.12782824039459229,0.0629856213927269
1782835556889592000,8.209592041015625,-0.6394934058189392,0.14296987652778625,0.05643334984779358
1782835556899522300,8.219522216796875,-0.706615149974823,0.05522165447473526,0.018814070150256157
1782835556909453000,8.229453125,-0.7344269156455994,-0.029462594538927078,-0.032375842332839966
1782835556919383300,8.23938330078125,-0.7209880948066711,-0.08221688121557236,-0.08749742060899734
1782835556929314000,8.24931396484375,-0.7079683542251587,-0.14611409604549408,-0.14087189733982086
1782835556939244300,8.259244384765625,-0.7069374322891235,-0.23112380504608154,-0.20056693255901337
1782835556949175000,8.269175048828124,-0.721410870552063,-0.3209907114505768,-0.2503505051136017
1782835556959105300,8.279105224609374,-0.7306368350982666,-0.37822338938713074,-0.2714981436729431
1782835556969036000,8.2890361328125,-0.7328314185142517,-0.3543904721736908,-0.2662274241447449
1782835556978966300,8.29896630859375,-0.7375891804695129,-0.2718484699726105,-0.2333882600069046
1782835556988897300,8.308897216796876,-0.7518541216850281,-0.14825065433979034,-0.18900838494300842
1782835556998828300,8.318828369140626,-0.7768694758415222,-0.035954736173152924,-0.14081262052059174
1782835557008758300,8.32875830078125,-0.7993079423904419,0.026994973421096802,-0.10308299958705902
1782835557018689300,8.338689208984375,-0.8159326910972595,0.04854767024517059,-0.05882711708545685
1782835557028619300,8.348619384765625,-0.8048814535140991,0.08128739148378372,-0.00019039306789636612
1782835557038550000,8.358550048828125,-0.7710849046707153,0.14951092004776,0.06867974996566772
1782835557048480300,8.368480224609375,-0.7297228574752808,0.23719674348831177,0.13749563694000244
1782835557058411000,8.378410888671874,-0.6941917538642883,0.33172670006752014,0.1900981217622757
1782835557068341200,8.38834130859375,-0.662585973739624,0.42376434803009033,0.2195867896080017
1782835557078272000,8.39827197265625,-0.6247722506523132,0.4574024975299835,0.21896733343601227
1782835557088202200,8.4082021484375,-0.5771252512931824,0.40309441089630127,0.2008155733346939
1782835557098133000,8.418133056640626,-0.5484280586242676,0.2770107686519623,0.16602137684822083
1782835557108063200,8.428063232421875,-0.5665693879127502,0.1137584000825882,0.10124089568853378
1782835557117994200,8.437994140625,-0.6272737383842468,-0.05273604020476341,0.01712149567902088
1782835557127924200,8.44792431640625,-0.6913812756538391,-0.2463608831167221,-0.07384833693504333
1782835557137855200,8.457855224609375,-0.7451779246330261,-0.46644049882888794,-0.1573919653892517
1782835557147785200,8.46778515625,-0.7728984951972961,-0.6318919658660889,-0.21421153843402863
1782835557157716200,8.47771630859375,-0.7881786227226257,-0.6699354648590088,-0.23832647502422333
1782835557167646200,8.487646240234374,-0.7854512929916382,-0.6064282059669495,-0.23825877904891968
1782835557177577200,8.4975771484375,-0.7614436745643616,-0.4644383490085602,-0.2127092182636261
1782835557187507200,8.507507080078126,-0.7301742434501648,-0.24005138874053955,-0.16954539716243744
1782835557197438200,8.517438232421876,-0.7023114562034607,0.02747698687016964,-0.1320936381816864
1782835557207368200,8.5273681640625,-0.6719736456871033,0.26667460799217224,-0.11594836413860321
1782835557217299200,8.53729931640625,-0.6335341334342957,0.42480406165122986,-0.1347406953573227
1782835557227229200,8.547229248046875,-0.5861276984214783,0.493231862783432,-0.16871881484985352
1782835557237160200,8.55716015625,-0.5396430492401123,0.4646076560020447,-0.19019588828086853
1782835557247090200,8.567090087890625,-0.493704229593277,0.41923290491104126,-0.18635763227939606
1782835557257021200,8.577021240234375,-0.45649483799934387,0.3892284035682678,-0.149470716714859
1782835557266951400,8.586951416015625,-0.4287240505218506,0.3649338483810425,-0.08558496087789536
1782835557276882200,8.596882080078124,-0.4070461690425873,0.3205117881298065,-0.01852922886610031
1782835557286812400,8.6068125,-0.3838951885700226,0.2510710060596466,0.04197411239147186
1782835557296743200,8.6167431640625,-0.35331064462661743,0.1382054090499878,0.08268105983734131
1782835557306673400,8.62667333984375,-0.3066638112068176,0.015202781185507774,0.11510396003723145
1782835557316604200,8.636604248046876,-0.24752114713191986,-0.09647048264741898,0.1496286392211914
1782835557326534100,8.6465341796875,-0.20621488988399506,-0.20874638855457306,0.17859460413455963
1782835557336465200,8.656465087890625,-0.20724713802337646,-0.2655058205127716,0.18975351750850677
1782835557346395100,8.66639501953125,-0.2386968731880188,-0.2974584102630615,0.1767742931842804
1782835557356326100,8.676326171875,-0.2852420210838318,-0.31264322996139526,0.13877524435520172
1782835557366257200,8.686257080078125,-0.31221768260002136,-0.32195645570755005,0.08410453796386719
1782835557376187400,8.6961875,-0.3136637508869171,-0.29607051610946655,0.041617803275585175
1782835557386118100,8.7061181640625,-0.28667300939559937,-0.24035094678401947,0.020977219566702843
1782835557396048400,8.71604833984375,-0.2445404827594757,-0.15101227164268494,0.03251323848962784
1782835557405979100,8.725979248046874,-0.19701379537582397,-0.06496856361627579,0.06526198983192444
1782835557415909400,8.735909423828126,-0.15138745307922363,-0.01708892546594143,0.11182443052530289
1782835557425840000,8.745840087890626,-0.12128551304340363,0.01097588986158371,0.15618285536766052
1782835557435770400,8.755770263671875,-0.11116869747638702,0.04823644459247589,0.19709379971027374
1782835557445701000,8.765701171875,-0.11631536483764648,0.10370498895645142,0.2360597550868988
1782835557455631400,8.77563134765625,-0.12752167880535126,0.1551455408334732,0.26164183020591736
1782835557465562000,8.78556201171875,-0.13206352293491364,0.17763705551624298,0.2731257379055023
1782835557475492400,8.795492431640625,-0.11945478618144989,0.16773968935012817,0.2767353951931
1782835557485423000,8.805423095703125,-0.09914173185825348,0.17101475596427917,0.26910844445228577
1782835557495353300,8.815353271484375,-0.07690433412790298,0.17949426174163818,0.2567670941352844
1782835557505284400,8.825284423828125,-0.06819511204957962,0.15791065990924835,0.22274310886859894
1782835557515214000,8.835214111328124,-0.06167169660329819,0.10465463250875473,0.1768893301486969
1782835557525145300,8.845145263671874,-0.05198051780462265,0.033041659742593765,0.13400672376155853
1782835557535075000,8.855074951171876,-0.035217516124248505,-0.04786171391606331,0.11146093159914017
1782835557545006300,8.86500634765625,-0.03556089103221893,-0.12244774401187897,0.11545072495937347
1782835557554936000,8.87493603515625,-0.04378846287727356,-0.1747322529554367,0.15130220353603363
1782835557564867300,8.884867431640625,-0.05382976680994034,-0.17919716238975525,0.19986315071582794
1782835557574797000,8.894797119140625,-0.061079688370227814,-0.13989609479904175,0.24461916089057922
1782835557584728300,8.904728271484375,-0.07126972824335098,-0.06824976950883865,0.2570454180240631
1782835557594658000,8.914657958984375,-0.08648543804883957,0.02202952653169632,0.22933655977249146
1782835557604589300,8.92458935546875,-0.09236108511686325,0.11522004753351212,0.15915662050247192
1782835557614519000,8.93451904296875,-0.1115289255976677,0.22148016095161438,0.05370716750621796
1782835557624450300,8.9444501953125,-0.14359384775161743,0.3029203414916992,-0.06362202763557434
1782835557634380000,8.954380126953126,-0.17641732096672058,0.34063923358917236,-0.16694894433021545
1782835557644311300,8.964311279296876,-0.2231840044260025,0.34454062581062317,-0.2440006583929062
1782835557654241300,8.9742412109375,-0.2779490053653717,0.2937203049659729,-0.2765626013278961
1782835557664172300,8.98417236328125,-0.3177547752857208,0.20661446452140808,-0.25454747676849365
1782835557674103300,8.994103271484375,-0.3383926749229431,0.14597322046756744,-0.1846560388803482
1782835557684033300,9.004033203125,-0.33403855562210083,0.14011983573436737,-0.06232430785894394
1782835557693964300,9.01396435546875,-0.2993428707122803,0.16583505272865295,0.08136015385389328
1782835557703894000,9.02389404296875,-0.2538730502128601,0.22356371581554413,0.20880675315856934
1782835557713825300,9.0338251953125,-0.19924284517765045,0.27199193835258484,0.29822131991386414
1782835557723755000,9.043755126953124,-0.13769857585430145,0.2903393507003784,0.33348655700683594
1782835557733686300,9.053686279296874,-0.07779582589864731,0.29461240768432617,0.31488436460494995
1782835557743616000,9.063615966796876,-0.042368605732917786,0.2958296239376068,0.2529299855232239
1782835557753547300,9.07354736328125,-0.008498256094753742,0.2737533450126648,0.15610410273075104
1782835557763477000,9.08347705078125,0.014345990493893623,0.21142861247062683,0.04396401718258858
1782835557773408300,9.093408203125,0.023496080189943314,0.1387520134449005,-0.052321773022413254
1782835557783338200,9.103338134765625,0.003748801536858082,0.07222218066453934,-0.13286258280277252
1782835557793269200,9.113269287109375,-0.04221975430846214,0.015412427484989166,-0.1849135309457779
1782835557803199200,9.12319921875,-0.0940169095993042,-0.04126176983118057,-0.20146827399730682
1782835557813130200,9.133130126953125,-0.1405327469110489,-0.10156185925006866,-0.20250850915908813
1782835557823060200,9.143060302734375,-0.19048406183719635,-0.1654990315437317,-0.18904995918273926
1782835557832991200,9.1529912109375,-0.24164818227291107,-0.19218924641609192,-0.17187656462192535
1782835557842916900,9.162916748046875,-0.27414941787719727,-0.19373856484889984,-0.1464279741048813
1782835557852848000,9.17284814453125,-0.2779353857040405,-0.17667675018310547,-0.10621558129787445
1782835557862777900,9.18277783203125,-0.25482091307640076,-0.14051553606987,-0.05864669382572174
1782835557872709000,9.192709228515625,-0.2334357500076294,-0.09977956116199493,-0.019989579916000366
1782835557882638800,9.202638916015625,-0.23504847288131714,-0.057432349771261215,-0.007880425080657005
1782835557892570000,9.212570068359375,-0.24622657895088196,-0.005712695419788361,-0.014631272293627262
1782835557902499800,9.222499755859374,-0.25280508399009705,0.07381037622690201,-0.04352518543601036
1782835557912431000,9.23243115234375,-0.24682387709617615,0.1385030746459961,-0.08876003324985504
1782835557922360800,9.24236083984375,-0.24459858238697052,0.17064273357391357,-0.1519244909286499
1782835557932292000,9.2522919921875,-0.24692724645137787,0.14275065064430237,-0.21487736701965332
1782835557942221800,9.262221923828125,-0.25841644406318665,0.057210128754377365,-0.25972750782966614
1782835557952153000,9.272153076171875,-0.27733179926872253,-0.045149799436330795,-0.272665411233902
1782835557962083000,9.2820830078125,-0.29385775327682495,-0.13801980018615723,-0.24228666722774506
1782835557972013800,9.292013916015625,-0.31254541873931885,-0.20803509652614594,-0.18074899911880493
1782835557981945000,9.301945068359375,-0.3229498565196991,-0.23458868265151978,-0.1048441156744957
1782835557991874800,9.311874755859375,-0.31613561511039734,-0.23211966454982758,-0.033645838499069214
1782835558001806000,9.32180615234375,-0.2950345575809479,-0.22296449542045593,0.012494519352912903
1782835558011733000,9.33173291015625,-0.27366480231285095,-0.1939520239830017,0.04594328999519348
1782835558021664000,9.3416640625,-0.26368412375450134,-0.17982430756092072,0.06264806538820267
1782835558031594000,9.351593994140625,-0.27599191665649414,-0.17196664214134216,0.06493306159973145
1782835558041525000,9.36152490234375,-0.302871972322464,-0.1485123634338379,0.06635245680809021
1782835558051455000,9.371455078125,-0.33821213245391846,-0.13136106729507446,0.06117633730173111
1782835558061386000,9.381385986328125,-0.38189697265625,-0.13529446721076965,0.045256391167640686
1782835558071317000,9.39131689453125,-0.41981881856918335,-0.1557946801185608,0.03290092200040817
1782835558081247000,9.4012470703125,-0.4478105902671814,-0.15312403440475464,0.01777634769678116
1782835558091178000,9.411177978515624,-0.4786798357963562,-0.14518088102340698,0.005314618349075317
1782835558101108000,9.42110791015625,-0.49732303619384766,-0.13360649347305298,0.004664100706577301
1782835558111039000,9.4310390625,-0.5105288624763489,-0.13054519891738892,0.017929039895534515
1782835558120969000,9.440968994140626,-0.5333672761917114,-0.16202998161315918,0.044253889471292496
1782835558130900000,9.45089990234375,-0.5508618354797363,-0.1916951984167099,0.0780416801571846
1782835558140830000,9.460829833984375,-0.5653794407844543,-0.20888574421405792,0.12015831470489502
1782835558150761000,9.470760986328125,-0.5719326734542847,-0.24810266494750977,0.14827170968055725
1782835558160691000,9.48069091796875,-0.5768579244613647,-0.28215232491493225,0.161660298705101
1782835558170622200,9.490622314453125,-0.5707283616065979,-0.32365795969963074,0.1665986031293869
1782835558180552000,9.500552001953125,-0.5593934059143066,-0.3642968237400055,0.17282196879386902
1782835558190483200,9.510483154296875,-0.562129557132721,-0.3485069274902344,0.18381603062152863
1782835558200413000,9.520412841796874,-0.5653298497200012,-0.2871389389038086,0.2024182230234146
1782835558210344200,9.53034423828125,-0.5671378970146179,-0.1964779794216156,0.22078950703144073
1782835558220274000,9.54027392578125,-0.5649171471595764,-0.1332460343837738,0.223136767745018
1782835558230205200,9.550205078125,-0.5702192187309265,-0.15105965733528137,0.20287677645683289
1782835558240135000,9.560135009765625,-0.5706161856651306,-0.2402096390724182,0.16376079618930817
1782835558250066000,9.57006591796875,-0.5791018009185791,-0.3357766568660736,0.12514443695545197
1782835558259996000,9.579995849609375,-0.5880178213119507,-0.4059222638607025,0.09238017350435257
1782835558269927000,9.589927001953125,-0.6108589768409729,-0.46307024359703064,0.07023918628692627
1782835558279857000,9.59985693359375,-0.6506404280662537,-0.49090006947517395,0.05068377032876015
1782835558289788000,9.609787841796875,-0.6866359710693359,-0.5018539428710938,0.030502069741487503
1782835558299718000,9.6197177734375,-0.6960904002189636,-0.49487459659576416,0.01681387424468994
1782835558309649000,9.62964892578125,-0.671993613243103,-0.45595863461494446,0.01530492678284645
1782835558319579000,9.639578857421874,-0.6220658421516418,-0.4122962951660156,0.03543321043252945
1782835558329510000,9.649510009765624,-0.5670340061187744,-0.3986643850803375,0.07116644084453583
1782835558339440000,9.659440185546876,-0.5315225720405579,-0.36630651354789734,0.12057752162218094
1782835558349371000,9.669370849609376,-0.5279648303985596,-0.3263401985168457,0.16231273114681244
1782835558359302100,9.67930224609375,-0.5432342290878296,-0.2776338458061218,0.18654195964336395
1782835558369232000,9.68923193359375,-0.571439266204834,-0.2165878266096115,0.18445350229740143
1782835558379163100,9.6991630859375,-0.5981490015983582,-0.16498972475528717,0.15952853858470917
1782835558389092900,9.7090927734375,-0.6093939542770386,-0.10751339048147202,0.12291938811540604
1782835558399024000,9.719024169921875,-0.608015239238739,-0.051150258630514145,0.08207867294549942
1782835558408953900,9.728953857421875,-0.600238561630249,-0.02379879355430603,0.04808022826910019
1782835558418885000,9.738885009765625,-0.5854847431182861,-0.0013624047860503197,0.025522060692310333
1782835558428814800,9.74881494140625,-0.5570544600486755,0.05162704363465309,0.021847430616617203
1782835558438745900,9.758745849609374,-0.5202499628067017,0.10534054785966873,0.03756739944219589
1782835558448676000,9.768676025390626,-0.4921480417251587,0.157517209649086,0.05307232588529587
1782835558458606800,9.77860693359375,-0.4771595299243927,0.17939674854278564,0.0747298151254654
1782835558468537000,9.788537109375,-0.4866020083427429,0.16657868027687073,0.09061557054519653
1782835558478467800,9.7984677734375,-0.5315646529197693,0.12673720717430115,0.09889419376850128
1782835558488398000,9.808398193359375,-0.5882510542869568,0.060942742973566055,0.08730385452508926
1782835558498328800,9.818328857421875,-0.6403180360794067,-0.012439155019819736,0.07085224241018295
1782835558508259000,9.828259033203125,-0.6742150187492371,-0.05736348778009415,0.04765398055315018
1782835558518189800,9.83818994140625,-0.6802820563316345,-0.042193569242954254,0.006344640627503395
1782835558528120000,9.8481201171875,-0.6607860922813416,-0.022946104407310486,-0.05079028382897377
1782835558538050800,9.85805078125,-0.6235413551330566,-0.01713944599032402,-0.11578172445297241
1782835558547981000,9.86798095703125,-0.5739570260047913,0.031044328585267067,-0.19174519181251526
1782835558557912000,9.877912109375,-0.5181583762168884,0.079922616481781,-0.2767096757888794
1782835558567842000,9.887842041015626,-0.4759693741798401,0.24183854460716248,-0.24728946387767792
1782835558577773000,9.89777294921875,-0.5462284684181213,0.21265193819999695,-0.14450231194496155
1782835558587703000,9.907703125,-0.6361136436462402,-0.07738547027111053,-0.16912217438220978
1782835558597634000,9.917634033203125,-0.6777705550193787,-0.23090635240077972,-0.283913791179657
1782835558607564800,9.927564697265625,-0.6590772867202759,-0.26995307207107544,-0.40962645411491394
1782835558617499100,9.9374990234375,-0.625527024269104,-0.20711557567119598,-0.4414510428905487
1782835558627429000,9.94742919921875,-0.610887885093689,-0.11531935632228851,-0.3658079504966736
1782835558637360000,9.957360107421875,-0.6184449195861816,-0.11700905114412308,-0.21800392866134644
