time,seconds_elapsed,z,y,x
1782836461845582800,0.085582763671875,-0.07813713264763354,-0.2117297749322839,0.12069467359837144
1782836461855511800,0.09551171875,0.02537935592830181,-0.16707661340916527,0.1266019066144712
1782836461865440800,0.105440673828125,0.10552081413567066,-0.1227666393005289,0.17011132319625466
1782836461875370000,0.115369873046875,0.02704115166068077,-0.12589987755864857,0.21551656346200032
1782836461885299000,0.125298828125,-0.049340661752223965,-0.12918985901474953,0.1689710853862576
1782836461895228000,0.135227783203125,-0.04627659800648689,-0.17203516739830374,0.1268744764781557
1782836461905158100,0.145158203125,-0.06374152754843235,-0.2018907188925892,0.1612502270769328
1782836461915087000,0.155087158203125,-0.12458382652401924,-0.20791805289071053,0.15448476979630066
1782836461925015800,0.165015869140625,-0.1980927148491144,-0.22823095574229954,0.14873027965649963
1782836461934944800,0.17494482421875,-0.22111177138686178,-0.22863118883995337,0.1704299058924429
1782836461944873700,0.184873779296875,-0.15132278036773203,-0.22350215538842602,0.15090225340072064
1782836461954803000,0.194802978515625,-0.08917524401247501,-0.21424080790514125,0.12565761150168253
1782836461964732000,0.20473193359375,-0.07225976504683494,-0.1818937866549939,0.10673413544818758
1782836461974662000,0.214661865234375,0.0071545479297637935,-0.17122072747657074,0.04942567315455526
1782836461984591000,0.224591064453125,0.0036713819891214367,-0.17380862507792189,0.10662736887177451
1782836461994520000,0.23452001953125,-0.10631517938375472,-0.20720583123443648,0.11928624983886256
1782836462004448800,0.24444873046875,-0.04313654641509056,-0.22576087583433835,0.032862496491614726
1782836462014377700,0.254377685546875,0.04132569760084152,-0.24400325602218506,0.025973211901914327
1782836462024307000,0.264306884765625,-0.04137538196146488,-0.22146717896210028,0.07036982311438769
1782836462034237000,0.27423681640625,-0.06353168419003487,-0.17843551769359037,0.046244175307918335
1782836462044166000,0.284165771484375,-0.04446341110467911,-0.14331477568009868,0.0831459007203579
1782836462054095000,0.29409521484375,0.0028296704679727554,-0.1549312349221669,0.13465090089961887
1782836462064024000,0.304024169921875,-0.019628245055675505,-0.1856125697161071,0.1374446963366121
1782836462073953000,0.313953125,-0.12209668588340282,-0.1846861207872629,0.15826352115003392
1782836462083881700,0.3238818359375,-0.22360884889960286,-0.16576750357197598,0.18624193539451805
1782836462093811000,0.33381103515625,-0.21374270392358302,-0.18471295399526133,0.16028887123148888
1782836462103741000,0.343740966796875,-0.162561382740736,-0.20510831096591425,0.15858162892218677
1782836462113670000,0.353669921875,-0.07532616688013076,-0.19314548597158862,0.16179481881503016
1782836462123598800,0.363598876953125,0.018035422906279564,-0.18877397462278603,0.133776894544065
1782836462133528000,0.373528076171875,-0.010554127240180969,-0.21324704762743785,0.12673658411111682
1782836462143457000,0.38345703125,-0.07476502586603165,-0.24217887187292797,0.12310230099568142
1782836462153386000,0.393385986328125,-0.029774376016855238,-0.22006788835711777,0.06961440163720399
1782836462163318000,0.403318115234375,0.06097264735698699,-0.17224526648502797,0.10469272928107529
1782836462173247000,0.4132470703125,-0.0350134457141161,-0.1572723181555979,0.1698371641636826
1782836462183176000,0.423176025390625,-0.12378595414459705,-0.19097835279926656,0.1108330769333057
1782836462193105000,0.43310498046875,-0.15163199244737624,-0.2754341122754849,0.07163670124504715
1782836462203033900,0.443033935546875,-0.11321429124772547,-0.26632015563994643,0.0727529919238761
1782836462212963800,0.4529638671875,-0.06977613153755664,-0.1986105281781405,0.07954341924898325
1782836462222893000,0.46289306640625,-0.04438800778090954,-0.14451907343594356,0.08466786785693839
1782836462232822000,0.472822021484375,-0.03371697616279125,-0.18283578021284191,0.10164947086134925
1782836462242751000,0.4827509765625,-0.08769348102211952,-0.20966849502092227,0.1414048321392387
1782836462252680000,0.492679931640625,-0.1384416714847088,-0.1918041726315394,0.14663285071952267
1782836462262609000,0.50260888671875,-0.22528408863544463,-0.1928081255096942,0.1673862456139177
1782836462272539000,0.512538818359375,-0.16945289582014084,-0.1952937317803502,0.11433838164051995
1782836462282467800,0.5224677734375,-0.08264321189522743,-0.17460187608115374,0.06138968545896932
1782836462292397000,0.53239697265625,0.034788404786586756,-0.1639770216923207,0.05939821938080713
1782836462302326000,0.542325927734375,0.03782967217862606,-0.1610789256306365,0.06549777836492285
1782836462312255000,0.5522548828125,-0.002274959194660187,-0.14145159389041365,0.0934994821534492
1782836462322184000,0.562183837890625,-0.09914075770974158,-0.1491682692149654,0.13127006282228976
1782836462332113200,0.572113037109375,-0.15447627596259117,-0.16215787997376171,0.13730559839317574
1782836462342043000,0.58204296875,-0.07889642658233642,-0.17126637498289346,0.16530094550615176
1782836462351971300,0.591971435546875,-0.12596096009612082,-0.17287260460313408,0.18263766382485627
1782836462361900500,0.601900634765625,-0.16002689582705495,-0.1813876272311434,0.1685602212967351
1782836462371829500,0.61182958984375,-0.16132044276893137,-0.22877492642588912,0.12103011609781533
1782836462381758500,0.621758544921875,-0.10806932957470416,-0.2542855440510437,0.09609390082713216
1782836462391687400,0.6316875,0.00023205519020557403,-0.23491858028005808,0.07056382958283647
1782836462401617400,0.641617431640625,0.07643149777352809,-0.1998276854155585,0.09148889124970883
1782836462411546400,0.65154638671875,0.07354629772603512,-0.17460801356099545,0.11217499306155368
1782836462421475300,0.661475341796875,0.02182838544845581,-0.16097064295057206,0.11523648125771432
1782836462431404300,0.671404296875,-0.009522446104884147,-0.14317512974739074,0.15522795284641905
1782836462441333500,0.68133349609375,-0.08483692254722118,-0.17020309313293547,0.15765423014527186
1782836462451262500,0.691262451171875,-0.11433072805702686,-0.2268406338950619,0.09859090527463704
1782836462461191400,0.70119140625,-0.13794716596603393,-0.21137272338923066,0.13130769141893833
1782836462471121700,0.71112158203125,-0.15017594842016696,-0.16601828172896058,0.15789311693506314
1782836462481050400,0.72105029296875,-0.07189385434389114,-0.14223130955863744,0.1632803811976686
1782836462490979300,0.730979248046875,-0.02100713219344616,-0.17394516573809085,0.16593000065730884
1782836462500908300,0.740908203125,-0.06828969237208365,-0.21688761435318737,0.1537062779707834
1782836462510837500,0.75083740234375,-0.13085399283468724,-0.20289489096645263,0.12502508575180546
1782836462520766500,0.760766357421875,-0.0936199484616518,-0.13220032940972595,0.14988485651910305
1782836462530695400,0.7706953125,-0.10546528455615042,-0.10895776631440966,0.19140708133904263
1782836462540625700,0.780625732421875,-0.12655600337982176,-0.1638710405671969,0.17421600030241532
1782836462550554600,0.7905546875,-0.11288637446761131,-0.2562554558845237,0.13466755977347492
1782836462560483300,0.8004833984375,-0.10862287180423735,-0.2895241037579253,0.1021345509645529
1782836462570412300,0.810412353515625,-0.07672960393726826,-0.21843016762007025,0.07251381287313997
1782836462580341500,0.820341552734375,0.041571781316399575,-0.13519351987633854,0.0914262926085852
1782836462590270500,0.8302705078125,0.1018809963285923,-0.13498689138833433,0.0941374147308059
1782836462600200400,0.840200439453125,0.08180909915864468,-0.23555165401920675,0.05401955854976549
1782836462610129400,0.85012939453125,-0.0055383449047803875,-0.2396140446199104,0.07067580205732957
1782836462620058600,0.86005859375,-0.11134557476639748,-0.19707363746706394,0.13625278313830494
1782836462629987600,0.869987548828125,-0.14498305595219135,-0.20116218542233108,0.14047856587348506
1782836462639916500,0.87991650390625,-0.17143325598239897,-0.1756601529624313,0.15019631535476072
1782836462649845200,0.88984521484375,-0.18518413343727588,-0.15658471948392688,0.21768291118303312
1782836462659775500,0.899775390625,-0.14883330163955688,-0.14627726048119366,0.21439271053122355
1782836462669704400,0.909704345703125,-0.020932897913455963,-0.12363131157215684,0.15837174903117118
1782836462679633400,0.91963330078125,0.044538229906558986,-0.1299329689996317,0.1433428875297308
1782836462689562600,0.929562744140625,-0.005227379259467125,-0.15553152063656597,0.11959714241893961
1782836462699491600,0.93949169921875,-0.07565466818213462,-0.16627156237028537,0.06933021440096199
1782836462709420500,0.949420654296875,-0.09895020357370377,-0.17649287745952605,0.11361414075288921
1782836462719349500,0.959349609375,-0.12404431281983852,-0.1895143081286922,0.16779752982854843
1782836462729279500,0.969279541015625,-0.11528875943422316,-0.17599325737431645,0.16337081769378856
1782836462739208400,0.97920849609375,-0.10978373227715492,-0.15809077666532248,0.18938973190095273
1782836462749137400,0.989137451171875,-0.07313070266246795,-0.20565843739565462,0.15834562820922582
1782836462759066600,0.999066650390625,-0.009828735575079918,-0.2118934593277052,0.10826470601633191
1782836462768995600,1.00899560546875,-0.04227437662780285,-0.1870347297400236,0.10710441179899498
1782836462778924500,1.018924560546875,-0.10539105027616023,-0.19198595893923193,0.13303875299524515
1782836462788854300,1.028854248046875,-0.055714872959256166,-0.1882296020803973,0.08239588607065379
1782836462798783500,1.038783447265625,0.04196516454815864,-0.20106343775559216,0.08456170406872406
1782836462808712400,1.04871240234375,0.029508418557047843,-0.2046855737755075,0.13761097454791887
1782836462818641400,1.058641357421875,-0.04846037178635597,-0.22274320851359516,0.11525564261591062
1782836462828570400,1.0685703125,-0.09392331532239913,-0.21430800965614616,0.101495504142344
1782836462838499600,1.07849951171875,-0.05633914233744144,-0.17780596935208887,0.15020179524747654
1782836462848428500,1.088428466796875,-0.0534872600376606,-0.1589295290444046,0.1408402570590377
1782836462858358300,1.098358154296875,-0.04098550586104393,-0.15497651710230856,0.12663823830317705
1782836462868287500,1.10828759765625,-0.005362988337874412,-0.15650664927903563,0.12406771196173504
1782836462878216400,1.118216552734375,-0.03602174597382545,-0.13232538056150078,0.1415288969103247
1782836462888145400,1.1281455078125,-0.13872224199175834,-0.16691380579657852,0.10062281296104192
1782836462898074400,1.138074462890625,-0.12281330972015857,-0.21682412066292017,0.06091702644592151
1782836462908003600,1.148003662109375,-0.10176116934120655,-0.23771548098959028,0.07091909102760255
1782836462917933600,1.15793359375,-0.06635726300477982,-0.19349486566483973,0.1293748601928353
1782836462927862500,1.167862548828125,-0.02127425869703293,-0.1433450064215809,0.1305341314968653
1782836462937791500,1.17779150390625,-0.07726210337877273,-0.13433098476286975,0.1673896431474015
1782836462947720400,1.187720458984375,-0.1269996554940939,-0.15587898236736655,0.19297128018215298
1782836462957649400,1.1976494140625,-0.10533727426230907,-0.17696637672279028,0.1545570678475313
1782836462967578400,1.207578369140625,-0.12761574156582356,-0.2094051131106913,0.12974471641853452
1782836462977507300,1.21750732421875,-0.12517068650126456,-0.25445947584584355,0.08093538506403565
1782836462987437600,1.2274375,-0.07976151897907256,-0.1796876914454624,0.0850605387026444
1782836462997366500,1.237366455078125,-0.0994628292709589,-0.14491134242285042,0.0971412544555962
1782836463007295500,1.24729541015625,-0.0860083044141531,-0.19935290751066057,0.06359557973910122
1782836463017224400,1.257224365234375,-0.043594227054715155,-0.22245288379751144,0.07528232773840426
1782836463027153400,1.2671533203125,-0.03534896127879619,-0.1813706395637244,0.1130091240644455
1782836463037082400,1.277082275390625,-0.0681003072798252,-0.15559347995687275,0.14742104195514694
1782836463047012600,1.2870126953125,-0.0872147575944662,-0.15856182824317364,0.12608458647578955
1782836463056941600,1.296941650390625,-0.05961480300724506,-0.15550295212920753,0.09408718238091096
1782836463066870500,1.30687060546875,-0.09423895714282989,-0.23282632070854306,0.08818234225129708
1782836463076799500,1.316799560546875,-0.1101724393337965,-0.23097915847189723,0.10481166121931745
1782836463086728400,1.326728515625,-0.05584171420931816,-0.13661862077601253,0.14112643532296643
1782836463096657400,1.336657470703125,0.002619242587685585,-0.09388645391073078,0.19278129230169577
1782836463106586400,1.34658642578125,-0.00923603037893772,-0.10223558191992342,0.2382254032731056
1782836463116516400,1.356516357421875,-0.05876432365775108,-0.13421893922314046,0.19542044516624882
1782836463126445600,1.366445556640625,-0.15009645344316958,-0.13984313578046859,0.1575130863752216
1782836463136374500,1.37637451171875,-0.23429800069630144,-0.16355280493088065,0.1584201364838518
1782836463146303500,1.386303466796875,-0.14543606041669846,-0.19697554738745093,0.1025159514975734
1782836463156232400,1.396232421875,-0.08031389216482639,-0.18111659173741937,0.09424005312137305
1782836463166161700,1.40616162109375,-0.0033580782562494275,-0.18301278074756264,0.05709063655817881
1782836463176091400,1.41609130859375,0.0394312621563673,-0.20107162106204776,0.0393337017997168
1782836463186020400,1.426020263671875,0.026889760491251944,-0.1686911176674068,0.03872300428915769
1782836463195949600,1.435949462890625,0.09173077371418475,-0.15005750967226922,0.04940172602338716
1782836463205878500,1.44587841796875,0.07195873627364635,-0.16968674110863358,0.07345693894214927
1782836463215807500,1.455807373046875,-0.037112463819980616,-0.19861125883050262,0.08487025856124236
1782836463225736400,1.465736328125,-0.17827216209173202,-0.2449756081856787,0.06827814806476235
1782836463235665700,1.475665771484375,-0.21104162827134132,-0.22115276098437606,0.10595705012846737
1782836463245595400,1.485595458984375,-0.1562432856351137,-0.1672991883849725,0.13113825313616542
1782836463255524400,1.4955244140625,-0.14527531689703463,-0.13452555748689918,0.14158939492590725
1782836463265453600,1.50545361328125,-0.1073883615732193,-0.12524740499928594,0.14287691398579627
1782836463275382500,1.515382568359375,-0.026005963394045827,-0.16895437171347438,0.1261250828829594
1782836463285311500,1.5253115234375,-0.019472762233018873,-0.14848752040918917,0.13774972543148323
1782836463295240400,1.535240478515625,-0.08101590295433998,-0.1132082998983562,0.1292903602471575
1782836463305170400,1.54517041015625,-0.08521393916606902,-0.13529559201132504,0.08815315268943086
1782836463315099400,1.555099365234375,-0.11298925032019615,-0.18926369436848908,0.11726004124088212
1782836463325028400,1.5650283203125,-0.10482231047749518,-0.1768382568310946,0.12889781726561486
1782836463334957300,1.574957275390625,-0.07556815894246101,-0.12972597518544643,0.1324229409181513
1782836463344886500,1.584886474609375,-0.046212885120511055,-0.1291841964589432,0.13739853737363592
1782836463354815700,1.594815673828125,-0.026788053682446477,-0.15168339384105056,0.11889863876076415
1782836463364744700,1.60474462890625,-0.017699322819709776,-0.146634695616737,0.11947839314378797
1782836463374674700,1.6146748046875,-0.04428980810344219,-0.17955460311770438,0.1288846655230969
1782836463384603600,1.624603759765625,-0.09129881203770637,-0.2363101807689294,0.038030272784642875
1782836463394532600,1.63453271484375,-0.06332008726596831,-0.2505084731977433,0.06193617689320817
1782836463404461600,1.644461669921875,-0.07635901705920696,-0.21478742720354346,0.1274240366523154
1782836463414390800,1.654390869140625,-0.07761281651258468,-0.17222038777209817,0.06147398447524756
1782836463424319700,1.66431982421875,-0.08416296880841255,-0.2005357606196776,0.12415248590204864
1782836463434249700,1.674249755859375,-0.03766600604951381,-0.19862758891079574,0.18705190007053316
1782836463444179000,1.684178955078125,-0.06080313600897789,-0.11676043942198157,0.2504715935197659
1782836463454107600,1.694107666015625,-0.09517068503499031,-0.09115122026056051,0.20190525887459515
1782836463464036600,1.70403662109375,-0.08591770352125168,-0.27524478198215363,0.04707039699899032
1782836463473965600,1.713965576171875,-0.2258990056633949,-0.3748271094469353,-0.009738865334540605
1782836463483894800,1.723894775390625,-0.16772271102666853,-0.2830588897991925,-0.03744593355804682
1782836463493823700,1.73382373046875,-0.06244798060655594,-0.17032858267612755,0.016785294981021433
1782836463503753700,1.743753662109375,0.009086977297067641,-0.016063172985240817,0.19957192055620251
1782836463513682700,1.7536826171875,-0.004985387197136879,0.06808770352657884,0.31918848006166517
1782836463523612000,1.76361181640625,-0.08832242657542229,-0.04348207191713154,0.241119754741434
1782836463533540600,1.77354052734375,-0.1537216582030058,-0.19811415949594227,0.2004195503614843
1782836463543469600,1.783469482421875,-0.06558686315417289,-0.2321934296324849,0.105815175706055
1782836463553398500,1.7933984375,-0.057950084665417664,-0.20800679062008856,0.03211673789191991
1782836463563328800,1.803328857421875,-0.07652619031965732,-0.2063106542266905,-0.0025181568333879113
1782836463573257700,1.8132578125,-0.1191957037448883,-0.17697883434556425,0.04412219645157456
1782836463583186700,1.823186767578125,-0.12161679341197013,-0.15333053999356924,0.05945223285667598
1782836463593116000,1.833115966796875,-0.029661563292145726,-0.11440817720741032,0.08851261538527905
1782836463603044900,1.843044921875,-0.02452712301313877,-0.11747099884413183,0.13306582366526126
1782836463612973600,1.8529736328125,-0.050370004799962044,-0.15499536793325094,0.15160815491406246
1782836463622903800,1.86290380859375,-0.0414443555444479,-0.20858933974839747,0.13261015231963247
1782836463632832800,1.872832763671875,-0.06656827540695667,-0.25709300268720836,0.06027651831898838
1782836463642761700,1.88276171875,-0.03421089715957641,-0.2609843841025606,0.05460446403194218
1782836463652690700,1.892690673828125,-0.026398177582025527,-0.16748448182400316,0.10862120957011356
1782836463662620000,1.902619873046875,-0.029237784922122954,-0.11653514276612549,0.08448721406040713
1782836463672548900,1.912548828125,-0.0014554595053195953,-0.1235608401518315,0.11952999546686187
1782836463682477800,1.922477783203125,-0.013062310668826103,-0.11620170956067741,0.14196094991834834
1782836463692407600,1.932407470703125,-0.07524199572801589,-0.10202646921388804,0.16193303997563196
1782836463702336800,1.942336669921875,-0.124214993211627,-0.131938682798855,0.16688180322311819
1782836463712265700,1.952265625,-0.17921674946546554,-0.15521270047836006,0.12905289822947233
1782836463722194700,1.962194580078125,-0.21139234140515326,-0.1862760568598285,0.13189117212900892
1782836463732123600,1.97212353515625,-0.05021802910864353,-0.19848909375555812,0.09106368810757993
1782836463742052900,1.982052978515625,-0.03226853092014789,-0.17561518130954354,0.11892651314837857
1782836463751982600,1.991982666015625,-0.006577040302753448,-0.12935414619836955,0.09774475504038854
1782836463761911600,2.00191162109375,0.09852993233501911,-0.15080372492969035,0.07971804516352712
1782836463771840800,2.0118408203125,0.11499591396749019,-0.2020607782298699,0.07276225294256583
1782836463781769700,2.021769775390625,0.013821604603528976,-0.21046203828509896,0.07632305069668217
1782836463791698700,2.03169873046875,-0.0564846882879734,-0.16672208261676133,0.09987703609503805
1782836463801627600,2.041627685546875,-0.08259878823161125,-0.17637747091893105,0.10236930956849828
1782836463811556900,2.051556884765625,-0.1145376488059759,-0.2198095662144944,0.14332794568892568
1782836463821486600,2.061486572265625,-0.1030921256840229,-0.22762144554182887,0.11425128787895664
1782836463831415600,2.07141552734375,-0.09074877693951129,-0.23827285914402455,0.08419893517093732
1782836463841344800,2.0813447265625,-0.13364859198927878,-0.21208171190880237,0.12660603480031712
1782836463851273700,2.091273681640625,-0.10876315705776214,-0.13821414633914827,0.13040414844164624
1782836463861202700,2.10120263671875,-0.1059720650345087,-0.14195289447605608,0.1064230236724019
1782836463871131600,2.111131591796875,-0.1528413682371378,-0.2022735076650977,0.08872720798403023
1782836463881062000,2.121061767578125,-0.07134498828947544,-0.1810311054110527,0.08574642034126445
1782836463890990800,2.130990966796875,-0.023825112223625183,-0.11497483464684337,0.12251525835534557
1782836463900919600,2.14091943359375,-0.10919745682179927,-0.08247117979656904,0.1581967029915191
1782836463910848500,2.1508486328125,-0.16391747352480887,-0.08792813002821058,0.18077618080191313
1782836463920777700,2.16077783203125,-0.15789748258292674,-0.1520690686903894,0.14625749633479862
1782836463930706700,2.170706787109375,-0.09188099583983421,-0.19522990929652004,0.06122320631826296
1782836463940635600,2.1806357421875,-0.014517185652256012,-0.18846067088991403,0.018929029011446982
1782836463950566000,2.19056591796875,0.03232347597777843,-0.1664573672659695,0.04586366982404142
1782836463960494800,2.200494873046875,-0.0016319851160049438,-0.14083185455687344,0.0746816949641332
1782836463970423800,2.210423828125,0.001522095000743866,-0.15440722931437192,0.07727105387020855
1782836463980352800,2.220352783203125,0.037159225571155544,-0.16379914437476545,0.10210167160825803
1782836463990281700,2.23028173828125,-0.05454699822366237,-0.16495744756441563,0.1215284392750822
1782836464000210700,2.240210693359375,-0.1036275477349758,-0.20114508815705776,0.08749428692189976
1782836464010140700,2.250140625,-0.1295259591013193,-0.21293756155315785,0.145378028352838
1782836464020069600,2.260069580078125,-0.1696469570875168,-0.18959201300740242,0.1515069412956014
1782836464029998800,2.269998779296875,-0.12819675632417202,-0.1780209272770211,0.12636930343499406
1782836464039927800,2.279927734375,-0.10558335797786712,-0.20212755985576658,0.11317057997016236
1782836464049856800,2.289856689453125,-0.05873042138814926,-0.2366914717040956,0.08549449140680954
1782836464059785700,2.29978564453125,-0.09774433491528034,-0.20870693824607878,0.0695233988855034
1782836464069715700,2.3097158203125,-0.1345230367362499,-0.15536208235379306,0.10257442195285112
1782836464079644700,2.319644775390625,-0.01932955437004566,-0.06134608377926051,0.1448129783486016
1782836464089573600,2.32957373046875,0.024579145461320874,-0.04004672717358917,0.16044479244556278
1782836464099502800,2.3395029296875,-0.011280687949061393,-0.09954214158486574,0.09965471684755757
1782836464109431800,2.349431884765625,-0.08078677037358284,-0.1412102594152093,0.09480565111488104
1782836464119360800,2.35936083984375,-0.1349585055440664,-0.18070457687042651,0.09364400519067421
1782836464129290800,2.369290771484375,-0.11649170548319816,-0.17710589479133484,0.07030607369579374
1782836464139219700,2.3792197265625,-0.045936990788578984,-0.14075173852536826,0.05086244622571393
1782836464149148700,2.389148681640625,-0.022401801422238347,-0.1068557160012424,0.12652535251323133
1782836464159077600,2.39907763671875,-0.04589958138763904,-0.08495466717537492,0.1557698229044676
1782836464169006800,2.4090068359375,-0.05937164190113544,-0.11102116511762142,0.11505593705903738
1782836464178935800,2.418935791015625,-0.10858955405652522,-0.16442231777440755,0.08838787476075813
1782836464188864800,2.42886474609375,-0.0900210471868515,-0.17943218231443314,0.1204568097218871
1782836464198794500,2.43879443359375,-0.08388298282325267,-0.18037907124310731,0.12794714721096678
1782836464208723700,2.4487236328125,-0.13625146796405316,-0.19576810782644896,0.12209741653576492
1782836464218652700,2.458652587890625,-0.11604045458436012,-0.21726075851451604,0.09764597084103152
1782836464228581600,2.46858154296875,-0.06005377894639968,-0.19063812452685086,0.08846223690491169
1782836464238510600,2.478510498046875,-0.024895371803641316,-0.1609669166235253,0.09862168400539084
1782836464248439800,2.488439697265625,-0.007733809122443198,-0.16165983079113067,0.07365195005759596
1782836464258369800,2.498369873046875,-0.037731472501158714,-0.17248568764477967,0.10303763728411867
1782836464268298800,2.508298828125,-0.0721919605076313,-0.1391135063316673,0.13046820838749407
1782836464278227700,2.518227783203125,-0.10453706379532814,-0.09394625780656933,0.12133846966093405
1782836464288156700,2.52815673828125,-0.06043430269658565,-0.12474003999903797,0.13556761388573796
1782836464298085600,2.538085693359375,-0.027871757265925407,-0.15878705183379352,0.15470091503132133
1782836464308014600,2.5480146484375,-0.08551730602681637,-0.11097568200808018,0.16048024735143407
1782836464317944800,2.55794482421875,-0.1647878266185522,-0.10154054886046797,0.14824392091166227
1782836464327873800,2.567873779296875,-0.12609364656507968,-0.1832650750081986,0.09216934779454022
1782836464337802800,2.577802734375,-0.04804126959145069,-0.2381786780545488,0.04603648737398907
1782836464347731500,2.5877314453125,-0.03345101870298386,-0.16260080143567174,0.06131738740773871
1782836464357660400,2.597660400390625,-0.05122925197780132,-0.07399944832101464,0.127490781745594
1782836464367589000,2.607589111328125,-0.03073065382838249,-0.0988478757103905,0.13273355950359253
1782836464377518300,2.617518310546875,-0.08295885371565818,-0.18323880805578083,0.08738507266007363
1782836464387448300,2.6274482421875,-0.07743921351134776,-0.20668080271333455,0.06304083193317056
1782836464397377300,2.637377197265625,-0.04423486304581165,-0.19045911469813434,0.04483401624904945
1782836464407306200,2.64730615234375,-0.058474400800466536,-0.18680464731119573,0.06210658329036087
1782836464417235500,2.6572353515625,-0.09305237770676612,-0.15980576388966292,0.10268484179107472
1782836464427164400,2.667164306640625,-0.19749007278084754,-0.11668145590163767,0.1455553394148126
1782836464437093400,2.67709326171875,-0.1399824711859226,-0.12283438904080539,0.1617138077343814
1782836464447023400,2.6870234375,-0.14099310953319072,-0.1603733346445486,0.1349158354461193
1782836464456952300,2.696952392578125,-0.07574117742180823,-0.12582626433316618,0.1264882901721634
1782836464466881300,2.70688134765625,-0.013362754920125007,-0.12584727058857678,0.09658847941104322
1782836464476810200,2.716810302734375,-0.05617664525210857,-0.11475615039486438,0.09492644621664657
1782836464486739500,2.726739501953125,-0.061141574183106416,-0.11287267473582177,0.12537033725921065
1782836464496668400,2.73666845703125,-0.06790566149055957,-0.10035049882568418,0.13111295429812744
1782836464506597400,2.746597412109375,-0.1007172132462263,-0.11341127512454986,0.10437031065998598
1782836464516527400,2.75652734375,-0.09028525108098984,-0.1459534353543073,0.10486907222867012
1782836464526456300,2.766456298828125,-0.0826788677304983,-0.1349373531581834,0.08179355452964082
1782836464536385300,2.77638525390625,-0.0703010321944952,-0.12127419051937759,0.08427751683248207
1782836464546314200,2.786314208984375,-0.012889292189478874,-0.08043138106465339,0.11047975171729922
1782836464556243500,2.796243408203125,-0.0495744705080986,-0.13469755305293946,0.09222352566719054
1782836464566172400,2.80617236328125,-0.061867550370097155,-0.2197223993876949,0.07490881825089454
1782836464576102100,2.81610205078125,-0.03601473171114921,-0.24575784460455177,0.08591098151952027
1782836464586031000,2.826031005859375,-0.06762275289595127,-0.191979748394154,0.12871687120813877
1782836464595960300,2.835960205078125,-0.06837737065553665,-0.11628226398359984,0.13275288525857032
1782836464605889300,2.84588916015625,-0.10666589251756667,-0.14365666618663817,0.13583897817302495
1782836464615818200,2.855818359375,-0.1540910760372877,-0.17578735953867433,0.10029253982705995
1782836464625747200,2.865747314453125,-0.07766951513588428,-0.1632734400002286,0.1136614139607176
1782836464635677400,2.875677490234375,-0.02116612214744091,-0.08460508655272424,0.1587162698862143
1782836464645606400,2.8856064453125,-0.08554887020885944,-0.06804580061361193,0.16568775286665186
1782836464655535000,2.89553515625,-0.16160393588542937,-0.16063549271207303,0.1363891411353834
1782836464665464300,2.90546435546875,-0.13100070782899856,-0.20189601612221447,0.06325757995638996
1782836464675393300,2.915393310546875,-0.045825347107648844,-0.16017459720205515,0.05046880726562813
1782836464685322200,2.925322265625,-0.027406477841734885,-0.10318115567434578,0.03510914290724322
1782836464695251200,2.935251220703125,-0.06236205588877201,-0.08367339519318193,0.09641474854564294
1782836464705181400,2.945181396484375,-0.14798925203084945,-0.0885331832492724,0.13686868654694406
1782836464715110400,2.9551103515625,-0.061522682455182075,-0.08005224555395543,0.11766239323038608
1782836464725039400,2.965039306640625,0.027359131568670272,-0.11163115024212747,0.12840647181840611
1782836464734968000,2.974968017578125,-0.03367021441161632,-0.11470277623981237,0.06280145195303484
1782836464744897300,2.984897216796875,-0.06325462081432343,-0.1271541884686798,0.04890625239033252
1782836464754826200,2.994826171875,-0.05377601385116577,-0.19913944742307066,0.04534260509200394
1782836464764756200,3.004756103515625,-0.07529051104485988,-0.2328853574194014,0.038495515676215286
1782836464774685400,3.014685546875,-0.07260054130852223,-0.1598758699838072,0.0801441433547996
1782836464784614400,3.024614501953125,-0.039408465802669525,-0.10467168649304658,0.12233465935774147
1782836464794543400,3.03454345703125,-0.09794891757667064,-0.16773093086574226,0.14456347883325069
1782836464804472300,3.044472412109375,-0.12297639132738113,-0.21998422866165637,0.07956585027649998
1782836464814401300,3.0544013671875,-0.08695698344111442,-0.20545506031066177,0.04366078948490321
1782836464824330200,3.064330322265625,-0.06264496448338032,-0.1856778717709705,0.06485401883497834
1782836464834260200,3.07426025390625,-0.03625789281725883,-0.14654935542084277,0.08433931175600737
1782836464844189400,3.084189453125,-0.10521861631870269,-0.13988558668270706,0.10639005298456176
1782836464854118400,3.094118408203125,-0.10476619637608528,-0.11702164764143526,0.1396816068095155
1782836464864047400,3.10404736328125,-0.055500353425741195,-0.09103837100323289,0.1432298373430036
1782836464873976300,3.113976318359375,-0.07112053188383578,-0.13207962563950568,0.14996835181778295
1782836464883905500,3.123905517578125,-0.12751403475701809,-0.17395433542523533,0.11951465176725759
1782836464893835300,3.133835205078125,-0.10470599062144756,-0.19807561758384107,0.05847140512578189
1782836464903764200,3.14376416015625,-0.01364800160229206,-0.18359207847286016,0.06725678739408031
1782836464913693200,3.153693115234375,0.015803718331456183,-0.14051628580167888,0.11322771698487921
1782836464923622400,3.163622314453125,-0.07460778947770595,-0.14522954152654854,0.12785230853436513
1782836464933551400,3.17355126953125,-0.10056874468624591,-0.1600468426365405,0.07916269456939772
1782836464943480300,3.183480224609375,-0.06630640960037708,-0.14725147580821066,0.06728144691130146
1782836464953410300,3.193410400390625,0.007187281155586242,-0.1652145641306415,0.08333912173751741
1782836464963339300,3.20333935546875,-0.006302315014600753,-0.18547884206753223,0.042187629926111546
1782836464973268200,3.213268310546875,-0.10816694473028182,-0.2152486880397424,0.03485345111312344
1782836464983197200,3.223197265625,-0.17434885116815566,-0.20340517857614904,0.042316571801714595
1782836464993126400,3.23312646484375,-0.16223346596062183,-0.1706023581162095,0.08568298144992441
1782836465003055400,3.243055419921875,-0.1541565424889326,-0.13828359484616667,0.12866426423806696
1782836465012984300,3.252984375,-0.14358137246072292,-0.12024937751628458,0.12781913691712543
1782836465022914300,3.262914306640625,-0.1173351705700159,-0.1396765470419079,0.07204723654100671
1782836465032843300,3.27284326171875,-0.09665478611290454,-0.14248250784073024,0.1020494664969854
1782836465042772200,3.282772216796875,-0.010441314515471457,-0.11220281265024096,0.08504409902449697
1782836465052701200,3.292701171875,0.00022445640563964844,-0.10024499262459576,0.09185710350759327
1782836465062630400,3.30263037109375,-0.0676209993302822,-0.13414791981354354,0.08494557055346667
1782836465072559400,3.312559326171875,-0.12092939566969871,-0.15978311366643755,0.07781957286475226
1782836465082489300,3.3224892578125,-0.04374386465847492,-0.15327606985997408,0.09188583641173317
1782836465092418300,3.332418212890625,-0.020377602118253707,-0.1140832195693627,0.10780213000588118
1782836465102347300,3.34234716796875,-0.04740647881925106,-0.12158128370717167,0.11182280035670845
1782836465112276200,3.352276123046875,-0.025670447829365728,-0.1521595965180546,0.09630778103983029
1782836465122205200,3.362205078125,0.03690320498347282,-0.16615250256787983,0.07298738520164043
1782836465132134100,3.372134033203125,0.001765256106853485,-0.15612550447434187,0.08251896446105092
1782836465142063400,3.3820634765625,-0.09130056560337543,-0.15190061678830533,0.04222628143606707
1782836465151993300,3.391993408203125,-0.07143032848536968,-0.17303101003523916,0.029085717899259178
1782836465161922300,3.40192236328125,-0.023332944792509077,-0.1781011894389987,0.07903563412362709
1782836465171851500,3.4118515625,-0.06052724167704582,-0.16278660633135586,0.10439686987334862
1782836465181780200,3.4217802734375,-0.09484510634243488,-0.17841416437830776,0.08794475236944854
1782836465191709200,3.431709228515625,-0.11204232485890388,-0.20977749008703975,0.09194821585714817
1782836465201638100,3.44163818359375,-0.14701894569396973,-0.19785291474387048,0.13696009115744381
1782836465211568400,3.451568359375,-0.1204892506867647,-0.10968783415462821,0.15516091549219563
1782836465221497300,3.461497314453125,-0.06915420024693011,-0.07255187986120581,0.10691108118398114
1782836465231426300,3.47142626953125,-0.021434417694807053,-0.12729370653722435,0.10541928998995571
1782836465241355500,3.48135546875,-0.08370821077823638,-0.14872162142600864,0.10198442017044872
1782836465251284500,3.491284423828125,-0.11562135238945484,-0.14496405899077652,0.07557274378603324
1782836465261213200,3.501213134765625,-0.08572539581954479,-0.11328483573328703,0.06850050384486094
1782836465271142100,3.51114208984375,-0.08602642459273338,-0.12302987508028745,0.06571480038277805
1782836465281072400,3.521072265625,-0.061756491211056704,-0.1848980830375105,0.049229237267002464
1782836465291001300,3.53100146484375,-0.05348199934065342,-0.1726337178133428,0.046921343917120245
1782836465300930300,3.540930419921875,-0.03206862443387508,-0.12023407034929841,0.07364851599149405
1782836465310859300,3.550859375,-0.02823942153453827,-0.09246606571879237,0.05906619268115609
1782836465320788500,3.56078857421875,-0.01939794343113899,-0.10977394153550267,0.050607265888247634
1782836465330717400,3.570717529296875,-0.06816226660013198,-0.1861752633664757,0.05044122513895854
1782836465340647200,3.580647216796875,-0.14708967284262178,-0.22729414981622248,0.09724431297127156
1782836465350577200,3.5905771484375,-0.13051204752922058,-0.19210216919742523,0.07593385044969618
1782836465360506400,3.60050634765625,-0.10073416438102721,-0.14342508592046796,0.10323166201887651
1782836465370435300,3.610435302734375,-0.11287643759548663,-0.22165157735198734,0.0636834954845719
1782836465380364300,3.6203642578125,-0.06549217060804367,-0.21880743996724486,0.048804764777235686
1782836465390293200,3.630293212890625,-0.05840016652047634,-0.14689199484605342,0.10475467033507302
1782836465400222200,3.64022216796875,-0.0015250176101922989,-0.07501936595328151,0.12343509488031268
1782836465410152200,3.650152099609375,0.007437456524372101,-0.05098313172962516,0.10426781839989126
1782836465420081200,3.6600810546875,-0.03729074299633503,-0.09709149702973663,0.11534520232919603
1782836465430010400,3.67001025390625,-0.10661094745993614,-0.14845358160696923,0.11219039156008512
1782836465439939300,3.679939208984375,-0.16892039637863634,-0.13947682321872562,0.12494445826364681
1782836465449868300,3.689868408203125,-0.17548282363414763,-0.10805449733175336,0.14147449984196572
1782836465459797200,3.69979736328125,-0.1323369248688221,-0.12107358991336077,0.13473289836095645
1782836465469727200,3.709727294921875,-0.1261760641515255,-0.14432470164131372,0.07842055269889533
1782836465479656200,3.71965625,-0.05855740290880203,-0.11215024221278726,0.0595259922126308
1782836465489585200,3.729585205078125,0.006757657566666603,-0.09204787683933972,0.03798064322294667
1782836465499514000,3.73951416015625,0.02563946816921234,-0.13923384477570652,0.035067294793203474
1782836465509443300,3.749443359375,0.02071077959537506,-0.16663250463716686,-0.013349511846061795
1782836465519372300,3.759372314453125,0.021423311778903005,-0.1637037211762741,-0.008334606293495745
1782836465529302000,3.769302001953125,0.014354104045033454,-0.12315452437326312,0.05664086523037404
1782836465539231200,3.779231201171875,-0.08978197773396969,-0.13562727165110408,0.09452257812349125
1782836465549160200,3.78916015625,-0.12680150257349013,-0.1906287721766159,0.10584146092478185
1782836465559089200,3.799089111328125,-0.15777122585475445,-0.17086674467343835,0.17132727485727517
1782836465569018000,3.80901806640625,-0.16810323477685452,-0.1264265683138743,0.17224369558244942
1782836465578947300,3.818947265625,-0.13495266032516956,-0.10846059391461312,0.12885063538933172
1782836465588876300,3.828876220703125,-0.12524082912802695,-0.15125592567659912,0.0782775457653217
1782836465598806000,3.838805908203125,-0.12203764917254448,-0.15191175923682748,0.05403866510903462
1782836465608735200,3.8487353515625,-0.10094050060808658,-0.10406743698958307,0.07251622402593493
1782836465618664200,3.858664306640625,-0.03974398136734962,-0.07691139024496078,0.09869588175276293
1782836465628593200,3.86859326171875,-0.049531215888261794,-0.08799812652450055,0.11202573905028403
1782836465638522000,3.878522216796875,-0.14525018245577812,-0.09840130098666995,0.12345442063529044
1782836465648451300,3.888451416015625,-0.09247311651408671,-0.09507931695710867,0.14842715025776995
1782836465658381300,3.89838134765625,0.034379823985695834,-0.0744427716417238,0.10679165605539455
1782836465668310300,3.908310302734375,0.048558571463823315,-0.0713832379406318,0.07510514454059303
1782836465678239200,3.9182392578125,-0.01837619916796684,-0.10533939315415919,0.06641043623043223
1782836465688168200,3.928168212890625,0.007288403442502022,-0.12472107957024127,0.06155554354516789
1782836465698097200,3.93809716796875,0.016607435929775236,-0.10007266826499253,0.0562055242867209
1782836465708026000,3.948026123046875,-0.0107575408577919,-0.10158047901205718,0.08593257229682058
1782836465717955000,3.957955078125,-0.10150222614407539,-0.1283290409343317,0.11781619555260986
1782836465727885300,3.96788525390625,-0.2334942830979824,-0.18891184872351585,0.09660188688188791
1782836465737814300,3.977814208984375,-0.1557207230657339,-0.1701075968692079,0.0928622071632184
1782836465747743200,3.9877431640625,-0.05316635752022266,-0.13100151154659687,0.12580571473548188
1782836465757672200,3.997672119140625,-0.009179331755638122,-0.15670261024255305,0.10028278561802581
1782836465767601200,4.00760107421875,-0.02160042191147804,-0.1678142252350226,0.09207480137888342
1782836465777530000,4.017530029296875,-0.07542261299192905,-0.1647992978606373,0.14341244563460348
1782836465787459000,4.027458984375,-0.08539689451754093,-0.16614103132579475,0.13251913130162282
1782836465797389300,4.037389404296875,0.0018593641310930252,-0.1569736457362771,0.08271488889195025
1782836465807318300,4.047318359375,0.010216273587942123,-0.09845434634815901,0.11108398295445367
1782836465817247200,4.057247314453125,-0.06538052692711353,-0.08432016866412013,0.1309708058810793
1782836465827176400,4.067176513671875,-0.20481822371184824,-0.132039184031263,0.10593288380159065
1782836465837105200,4.077105224609375,-0.22717034077346324,-0.17558325180131942,0.10291602019844576
1782836465847034000,4.0870341796875,-0.1318611240506172,-0.1691908838830888,0.11021876269355416
1782836465856964000,4.096964111328125,-0.09626140288114547,-0.14814776706080882,0.11507237673718482
1782836465866893300,4.106893310546875,-0.0812193165719509,-0.11538904147092252,0.10488852584781125
1782836465876822300,4.116822265625,-0.009997077879309653,-0.10935283004660158,0.10560220880880951
1782836465886751200,4.126751220703125,0.056365445822477336,-0.1270429466465488,0.06546920985756441
1782836465896680200,4.13668017578125,0.042642625418305394,-0.13799133390132337,0.020654775091819465
1782836465906609400,4.146609375,-0.05036240601539611,-0.12862203253153712,0.044759434909187254
1782836465916539100,4.1565390625,-0.1259668053150177,-0.12793594996351748,0.061341444136761125
1782836465926468000,4.166468017578125,-0.13388415431082248,-0.13927804924361406,0.06338562678284942
1782836465936397300,4.176397216796875,-0.12067512864768504,-0.16861973293162882,0.09507003767210989
1782836465946326300,4.186326171875,-0.09264262786209583,-0.15613014411684126,0.09625647097770124
1782836465956255200,4.196255126953125,-0.07930968355834483,-0.13430044349413364,0.0375808850493282
1782836465966184200,4.20618408203125,-0.0656692807406187,-0.14178718252032996,0.11509151982907205
1782836465976113400,4.216113525390625,-0.12910685690641402,-0.13823971917182207,0.06877175853429361
1782836465986043100,4.226043212890625,-0.054148354294896124,-0.1468730709498748,0.0527727002938278
1782836465995972000,4.23597216796875,-0.1071399397701025,-0.11299151534251868,0.12225499998396262
1782836466005901300,4.2459013671875,-0.14518296243846415,-0.09126501936595886,0.13756764686284587
1782836466015830300,4.255830322265625,-0.08852759375870227,-0.1188082022646442,0.12469930612985045
1782836466025759200,4.26575927734375,-0.027544425007700917,-0.12521434297990053,0.11821104008909314
1782836466035688200,4.275688232421875,-0.02011339822411537,-0.14596954623889177,0.08486307990178465
1782836466045618200,4.2856181640625,-0.07859773589670657,-0.1598299484828487,0.05953390152445063
1782836466055547100,4.295547119140625,-0.13670388790667057,-0.16010218955297023,0.09182690929872915
1782836466065476000,4.30547607421875,-0.08389408873915671,-0.14078472747951745,0.06498864153269678
1782836466075405000,4.315405029296875,-0.007028875723481178,-0.12623400488384068,0.02414638006724417
1782836466085334300,4.325334228515625,0.03639233285188675,-0.14056611629277466,0.00993230554740876
1782836466095263200,4.33526318359375,0.010913023680448532,-0.14950608633458615,0.020342603870108722
1782836466105192200,4.345192138671875,-0.09973229386210442,-0.12222319833990186,0.04951859386870637
1782836466115122400,4.355122314453125,-0.15286825624406336,-0.10726276243217289,0.11222758176531641
1782836466125051100,4.365051025390625,-0.20190730470120904,-0.13808993543758988,0.14360431494489312
1782836466134980000,4.37497998046875,-0.1689274106413126,-0.180611162965931,0.09667281495993957
1782836466144909000,4.384908935546875,-0.10285890145003795,-0.18478077680077404,0.058156037299986925
1782836466154838300,4.39483837890625,-0.10367723209559916,-0.15884806130602955,0.04666263818200678
1782836466164767200,4.404767333984375,-0.10227554860413074,-0.13469137904047965,0.06463325222376734
1782836466174696200,4.4146962890625,-0.08806114529073238,-0.0989518110089004,0.08783150125332176
1782836466184626200,4.424626220703125,-0.0773638101875782,-0.07691968314927071,0.0898283193600364
1782836466194555400,4.434555419921875,-0.019429507613182066,-0.09786368697863071,0.06723437463287264
1782836466204484400,4.444484375,-0.03629354865252971,-0.11304653346538543,0.06624682490024715
1782836466214413000,4.4544130859375,-0.12552841389775277,-0.16112093814145773,0.04481571340737864
1782836466224342000,4.464342041015625,-0.10683891099691391,-0.1703317244812846,0.045537762337923046
1782836466234271200,4.474271240234375,-0.06851356425583362,-0.14013240105062721,0.03879827974876389
1782836466244201200,4.484201171875,-0.0891582928776741,-0.1086042401690036,0.049007813068665564
1782836466254130200,4.494130126953125,-0.08110942645668982,-0.11435352441072463,0.0796844534211792
1782836466264059400,4.504059326171875,-0.05782733506858349,-0.119525885547325,0.11492969859717413
1782836466273988400,4.51398828125,-0.041754152145981785,-0.14553466195296497,0.04897047673296183
1782836466283917300,4.523917236328125,-0.004454056799411773,-0.1947592230448499,0.04980862632384524
1782836466293846000,4.533845947265625,0.006672901892662048,-0.17240601000469177,0.06747749920636414
1782836466303776300,4.5437763671875,-0.08136895417571068,-0.16589922192655504,0.04554506886154413
1782836466313705200,4.553705322265625,-0.09407470649182796,-0.1568224372299388,0.05749499784167856
1782836466323634200,4.56363427734375,-0.08621931681632995,-0.15214969617854804,0.08632759949639439
1782836466333563400,4.5735634765625,-0.0924438904196024,-0.17277082472909241,0.06881088496828451
1782836466343492400,4.583492431640625,-0.04037175787687301,-0.15591533232238142,0.0699524196862243
1782836466353421600,4.593421630859375,-0.025315058520436286,-0.1024143725529313,0.12604008974693715
1782836466363350300,4.603350341796875,-0.08314473167657851,-0.08533625037148594,0.12374023357303812
1782836466373280500,4.613280517578125,-0.15367665001749992,-0.09890851985644548,0.08015223532970994
1782836466383209500,4.62320947265625,-0.13069500288069247,-0.11700699806157498,0.0752059197676368
1782836466393138400,4.633138427734375,-0.07045066979825496,-0.13004600092004984,0.054049478763993825
1782836466403067400,4.6430673828125,-0.09422200600802898,-0.13135299186538904,0.058511079549044366
1782836466412996600,4.65299658203125,-0.22911212249100207,-0.1365583054235205,0.05856845402577891
1782836466422925600,4.662925537109375,-0.13807751434743404,-0.08818053388670086,0.06054627517107874
1782836466432854500,4.6728544921875,0.02768763287067413,-0.05375336362794041,0.09171813342832029
1782836466442784300,4.6827841796875,0.08924714020490646,-0.09418276997618377,0.03383990842271596
1782836466452713500,4.69271337890625,0.02944178306162357,-0.13058821803797035,0.0021379984093829987
1782836466462642400,4.702642333984375,-0.04336041829884052,-0.1226744492387399,0.07540036462750285
1782836466472571400,4.7125712890625,-0.07795300825238227,-0.1255151890899986,0.08724966451106593
1782836466482500400,4.722500244140625,-0.0670242024809122,-0.14505447722058742,0.04704244954613968
1782836466492429600,4.7324296875,-0.023764321947097777,-0.15683347008060664,0.06642855640901252
1782836466502359300,4.742359375,-0.07880231855809688,-0.18649232995901255,0.11599807674735783
1782836466512288300,4.752288330078125,-0.14157587785720824,-0.14936492429822681,0.09774128444166853
1782836466522217500,4.762217529296875,-0.1803776099383831,-0.13066840713471173,0.09247360970443114
1782836466532146400,4.772146484375,-0.09904898777306079,-0.176287344950065,0.11412976212482899
1782836466542075400,4.782075439453125,-0.03396481344401836,-0.2055421540722251,0.10186667554229498
1782836466552004400,4.79200439453125,-0.044966684451699254,-0.16473189518023282,0.03900693579707294
1782836466561933600,4.80193359375,-0.06588964549303054,-0.0788544140715152,0.0876839094761759
1782836466571863300,4.81186328125,-0.04043897789418697,-0.07986720784325152,0.1070674407894723
1782836466581792300,4.821792236328125,-0.0993798271626234,-0.09038637336790561,0.09978141196714714
1782836466591721500,4.831721435546875,-0.139886609596014,-0.11922902149260044,0.09295211393637583
1782836466601650400,4.841650390625,-0.10268296036124229,-0.14536708683371544,0.084806710072048
1782836466611579400,4.851579345703125,-0.10253566084504127,-0.13081081128008662,0.08544908136250451
1782836466621508400,4.86150830078125,-0.09635667994916439,-0.09231025410257279,0.0895056998095475
1782836466631438600,4.8714384765625,-0.032256840482354165,-0.08814235730078071,0.06298988719722255
1782836466641367600,4.881367431640625,0.02509820089936256,-0.08491952279675752,0.055378973802085965
1782836466651296300,4.891296142578125,0.043400750309228894,-0.12719744308851658,0.01195500701405108
1782836466661225200,4.90122509765625,0.014275193589925765,-0.1616467155812308,0.027338253177423028
1782836466671154400,4.911154541015625,-0.015447744500637054,-0.14675101547278463,0.08811674793548882
1782836466681083400,4.92108349609375,-0.019137246668338773,-0.12541625876016915,0.1001194117498584
1782836466691012400,4.931012451171875,-0.09614566754698753,-0.14220040296372025,0.1415630001093261
1782836466700942600,4.940942626953125,-0.12093407184481621,-0.16724307428356258,0.12310105888666584
1782836466710871600,4.95087158203125,-0.1430330909281969,-0.19685298045370728,0.07745910552190616
1782836466720800500,4.960800537109375,-0.15302666167616844,-0.17127163567990064,0.1022594194532372
1782836466730729200,4.970729248046875,-0.15108838708996772,-0.12716682875454424,0.09809157745037227
1782836466740658400,4.980658447265625,-0.09802958159744739,-0.12115429046675562,0.04233306627878919
1782836466750587400,4.99058740234375,-0.09331365899145602,-0.12304956616144627,0.041939244655612856
1782836466760517400,5.000517333984375,-0.1734142006665468,-0.1407182015819475,0.0868326994743198
1782836466770446600,5.010446533203125,-0.17763094157874584,-0.0883009453959763,0.0842507384234108
1782836466780375600,5.02037548828125,-0.09027005351185798,-0.04275434216447174,0.06819631500020623
1782836466790304500,5.030304443359375,-0.03987900592386722,-0.09468059996310621,0.08429477849453687
1782836466800233500,5.0402333984375,-0.06592880845963954,-0.14999942280948161,0.07088882375350222
1782836466810162400,5.050162353515625,-0.13547463837265966,-0.1711891450282186,0.06692302539506927
1782836466820091400,5.06009130859375,-0.06765080994665622,-0.15605656742397694,0.04371582587407902
1782836466830021400,5.070021484375,0.0682055212199688,-0.0820421407295391,0.07117268219618127
1782836466839950300,5.079950439453125,0.06020750820338726,-0.07089388352110981,0.07158144566016271
1782836466849879600,5.089879638671875,0.005643558844923973,-0.15403119907621293,0.05094093655571341
1782836466859808500,5.09980859375,0.010803133565187454,-0.18670944330841302,0.08934307486005127
1782836466869737500,5.109737548828125,-0.025121581774950025,-0.1515453370772302,0.13353108482314274
1782836466879666400,5.11966650390625,-0.08654606455266475,-0.11306246168687939,0.12596128888968378
1782836466889595400,5.129595458984375,-0.08534721015691757,-0.14823091529961674,0.11727733943555503
1782836466899525400,5.139525390625,-0.06526069993972777,-0.15912760889977215,0.10337234913120046
1782836466909454300,5.149454345703125,-0.06254208863079548,-0.10740125758741051,0.07764834448369219
1782836466919383600,5.159383544921875,-0.09292845906615256,-0.08841266214214265,0.10566109938919543
1782836466929312500,5.1693125,-0.08252981464862823,-0.13157090893238782,0.07204356501288711
1782836466939241500,5.179241455078125,-0.08547872758209704,-0.1428293119844049,0.0853015443842858
1782836466949170400,5.18917041015625,-0.12450140893757343,-0.13962839705124497,0.0936962285682559
1782836466959100400,5.199100341796875,-0.16338731217086314,-0.1632622244864702,0.006051007134653627
1782836466969029400,5.209029296875,-0.2075567087650299,-0.16121742078587412,0.033650852124020456
1782836466978958300,5.218958251953125,-0.17921148876845835,-0.10390143277291208,0.07490068974336608
1782836466988887300,5.22888720703125,-0.12161094819307326,-0.05335603487342596,0.09749560258490964
1782836466998816500,5.23881640625,-0.09727028766274452,-0.06975640392377973,0.10724338187826797
1782836467008745500,5.248745361328125,-0.09698036480545998,-0.11106456586793065,0.10181516455076635
1782836467018674400,5.25867431640625,-0.11654431245326995,-0.11937036619205027,0.0955683425830677
1782836467028604400,5.2686044921875,-0.04749006544947624,-0.12284268194511531,0.0487022542508319
1782836467038533400,5.278533447265625,-0.018683657681941985,-0.11377488427255301,0.0024803821062669156
1782836467048462300,5.28846240234375,-0.004821136546134948,-0.12653032094929367,0.0032010975962504743
1782836467058391300,5.298391357421875,-0.04388181182444095,-0.14493253134135156,0.028207766020949928
1782836467068320500,5.308320556640625,-0.08756897785961627,-0.13116674857828764,0.053983994046039874
1782836467078249500,5.31824951171875,-0.031284196057915686,-0.1427029091257602,0.07083641771283
1782836467088176400,5.32817626953125,-0.05999181962609291,-0.14984090777952222,0.08089465119484812
1782836467098105300,5.338105224609375,-0.07538871072232722,-0.1433077431511134,0.08921217848937958
1782836467108035300,5.348035400390625,-0.09858312382698059,-0.12456165122482925,0.1024214781471528
1782836467117964500,5.357964599609375,-0.09265607186555862,-0.10931691848300397,0.10877930447496473
1782836467127893500,5.3678935546875,-0.021417466560006142,-0.11308036266975104,0.10062452999409288
1782836467137822500,5.377822509765625,-0.01277004972398281,-0.09282598507236689,0.10543916373420506
1782836467147751400,5.38775146484375,0.00850011731982231,-0.10113448881022631,0.09298512115683406
1782836467157680400,5.397680419921875,-0.05613397515416145,-0.1598144221201539,0.1251267560279928
1782836467167609300,5.407609375,-0.1743336535990238,-0.11786756041366606,0.17424290657564998
1782836467177539300,5.417539306640625,-0.1528583193719387,-0.060156472135894,0.15207610121937468
1782836467187468500,5.427468505859375,-0.06524550237059593,-0.08411975072119385,0.1310556528866291
1782836467197397500,5.4373974609375,-0.03934183030724525,-0.11828684527166188,0.0979031239398755
1782836467207326500,5.447326416015625,0.0237502934217453,-0.1484446311155334,0.01808916238751262
1782836467217255400,5.45725537109375,0.06044657765626907,-0.14118907049670815,-0.0225186144686304
1782836467227184600,5.4671845703125,0.0014957915157079696,-0.1042256597585976,0.0004074665560387075
1782836467237114400,5.4771142578125,-0.08892097699046135,-0.1003695323197171,0.033143560189008714
1782836467247043300,5.487043212890625,-0.08899638031423092,-0.13358758251704275,0.05693411255590617
1782836467256972300,5.49697216796875,-0.09209960702657699,-0.18011746116485447,0.06165259244516492
1782836467266901500,5.506901611328125,-0.10119184502065182,-0.15752948952075094,0.1243652701362036
1782836467276830500,5.51683056640625,-0.17460311819016933,-0.14722045961543917,0.11499735700590535
1782836467286759400,5.526759521484375,-0.2286567799389362,-0.16721319060195236,0.08362325417483225
1782836467296688400,5.5366884765625,-0.20827216355800626,-0.15787063110861926,0.0872025922326371
1782836467306618400,5.546618408203125,-0.13715689237117767,-0.14464491003900765,0.08182268929257988
1782836467316547300,5.55654736328125,-0.04200666560232639,-0.1441253431443125,0.04928557056412101
1782836467326476300,5.566476318359375,0.06088029289841652,-0.11703468978609889,0.05201547045204788
1782836467336405500,5.576405517578125,0.062166241055727,-0.057094527282007035,0.08482128658667207
1782836467346334500,5.58633447265625,-0.041867549392580986,-0.06183868960179388,0.12748994149537757
1782836467356264000,5.596263916015625,-0.11698679552376269,-0.09656221245862542,0.08928445827430113
1782836467366193000,5.60619287109375,-0.11456278324723243,-0.12006507045794278,0.06200105882296338
1782836467376122600,5.61612255859375,-0.11212941862046719,-0.12064338180255144,0.05736870458088815
1782836467386051800,5.6260517578125,-0.0654033232808113,-0.12228446354046463,0.05002447929792106
1782836467395980800,5.635980712890625,-0.014195114091038703,-0.11218071041628717,0.060649388485681265
1782836467405909800,5.64590966796875,-0.029439444974064824,-0.0982274057244882,0.08448719579409808
1782836467415838700,5.655838623046875,-0.05068272401094436,-0.090999244569242,0.09904942616447805
1782836467425768000,5.665767822265625,-0.09736322664320468,-0.1333462845744565,0.1250662397461012
1782836467435698000,5.675697998046875,-0.10289221919775009,-0.15913411170579492,0.1105501318060793
1782836467445626600,5.685626708984375,-0.07681377508938313,-0.16762407295778392,0.11593173351287842
1782836467455555800,5.695555908203125,-0.07284311789274216,-0.18086217858493328,0.11182992421723902
1782836467465484800,5.70548486328125,-0.02965922520458698,-0.1678872904712334,0.07221762467185035
1782836467475413800,5.715413818359375,-0.08432429684996605,-0.12734960144292562,0.09825210177432746
1782836467485342700,5.7253427734375,-0.10073065724968909,-0.1137916162116453,0.1204733772641979
1782836467495271700,5.735271728515625,-0.04940554368197918,-0.1057675189057365,0.053367834909074006
1782836467505202000,5.745201904296875,-0.09881284092962742,-0.1417590889370069,0.058559814061596986
1782836467515131000,5.755130859375,-0.09750877259373664,-0.1665552016172558,0.09102622390771284
1782836467525059600,5.7650595703125,-0.1184942774772644,-0.15899397258274256,0.06525366741074248
1782836467534988800,5.77498876953125,-0.10838847852647304,-0.13401139741968363,0.048942620611656454
1782836467544917800,5.784917724609375,-0.028304887986183164,-0.13660590742491185,0.037116062282864
1782836467554846700,5.7948466796875,-0.0052735564887523645,-0.13849475337881595,0.04655135982725769
1782836467564777000,5.80477685546875,-0.020527824243903158,-0.09630900488253683,0.045607886698376385
1782836467574706000,5.814705810546875,-0.0811672941237688,-0.12793646142017095,0.08013621577667072
1782836467584635000,5.824634765625,-0.13840776921510695,-0.17038126271143555,0.05998818463059142
1782836467594563800,5.834563720703125,-0.11646014130115509,-0.16128628477100282,0.05864519079010933
1782836467604492800,5.844492919921875,-0.0658265171289444,-0.11577204943913966,0.10173585223685949
1782836467614421800,5.854421875,0.0006032265901565551,-0.08274374966025352,0.08892294975183904
1782836467624350700,5.864350830078125,-0.028479660031199453,-0.08903152469284832,0.05710411709425971
1782836467634281000,5.874281005859375,-0.08376140227019786,-0.15262367036584765,0.038756559498887504
1782836467644210000,5.8842099609375,-0.1343798288732767,-0.19718791149649767,0.03647783744456246
1782836467654139000,5.894138916015625,-0.11106325069367885,-0.18944759956803173,0.04210915786242112
1782836467664067800,5.90406787109375,-0.08357493978738784,-0.15293416108712554,0.06910977658331394
1782836467673996800,5.913996826171875,-0.06138824242055416,-0.11947232872918248,0.05735798225747421
1782836467683925800,5.92392578125,-0.024480361261963842,-0.06489058798570185,0.043711040101107206
1782836467693854700,5.933854736328125,-0.04744213465452194,-0.05892196190487593,0.10046696481220424
1782836467703784700,5.94378466796875,-0.14453531218469143,-0.13182802549861372,0.11386407865965738
1782836467713714000,5.9537138671875,-0.21651158411502835,-0.17208613040056078,0.10048260077275335
1782836467723645700,5.963645751953125,-0.16301730981469154,-0.12679832423571497,0.1014101456801407
1782836467733575000,5.973574951171875,-0.06624328123629093,-0.10855108520966023,0.11958342442084104
1782836467743504600,5.983504638671875,-0.04116904573440552,-0.10186031886674463,0.07448664731606841
1782836467753433600,5.99343359375,0.02394552373290062,-0.09087054015565663,0.05637114491090178
1782836467763362800,6.00336279296875,0.07207213352024555,-0.08978632511552423,0.010237261577043681
1782836467773291800,6.013291748046875,0.02675882758796215,-0.12765326056461782,-0.012385982309840619
1782836467783220700,6.023220703125,-0.04507891265451908,-0.1483333162281662,0.024209051773604003
1782836467793149700,6.033149658203125,-0.06991115609407425,-0.1280061656555161,0.06815011950461193
1782836467803080000,6.043079833984375,-0.1273000997453928,-0.12100542004797607,0.11758328184587881
1782836467813009000,6.0530087890625,-0.12387421694993972,-0.1547808849323541,0.09707244526939467
1782836467822937600,6.0629375,-0.12127952428162098,-0.1762468302765861,0.09436282098451629
1782836467832866800,6.07286669921875,-0.19453180749714374,-0.13862667266279458,0.11287766143819317
1782836467842795800,6.082795654296875,-0.14078735782802104,-0.09579057049900293,0.08514867364382371
1782836467852724700,6.092724853515625,-0.049396775853633876,-0.09779511525444685,0.06447278269873932
1782836467862653700,6.10265380859375,-0.043048283609747884,-0.1159680834678933,0.04456075226562097
1782836467872584000,6.112583984375,-0.03674479955136776,-0.1104546172760427,0.0026703151877969502
1782836467882513000,6.122512939453125,-0.0448252301543951,-0.10321589819416403,0.029864063594304022
1782836467892441900,6.13244189453125,-0.10570844566226005,-0.07227803135588765,0.056580330682173365
1782836467902370800,6.142370849609375,-0.1403577342391014,-0.06489080718141049,0.09867124050185083
1782836467912299800,6.1522998046875,-0.13530571154654025,-0.08610332575384527,0.1183083447174169
1782836467922228700,6.162228759765625,-0.11496551882922648,-0.09803053144551813,0.09883961933869868
1782836467932158700,6.17215869140625,-0.041050387790799135,-0.09815463274922222,0.05758110522255301
1782836467942088000,6.182087890625,-0.027129414466023443,-0.1355707191582769,-0.001658544329367578
1782836467952017000,6.192016845703125,-0.010573416462540626,-0.14578162245135753,0.04328366326820105
1782836467961945900,6.20194580078125,0.00668283876478672,-0.10416410229708999,0.018373331357445566
1782836467971874800,6.211874755859375,-0.023669044879078862,-0.08672087313029915,0.05782859544390812
1782836467981803800,6.2218037109375,-0.02052256354689598,-0.11699808410275726,0.07980404294654726
1782836467991732700,6.231732666015625,-0.03337561537921428,-0.1575406685018912,0.07803458558861166
1782836468001662700,6.241662841796875,-0.09909750308990478,-0.1506129150653258,0.10621486081443726
1782836468011592000,6.251592041015625,-0.20705401993989944,-0.1522683175895363,0.1279460512324236
1782836468021521000,6.26152099609375,-0.13678221383988856,-0.13189572043996303,0.09230018936628476
1782836468031449900,6.271449951171875,-0.010425532424449921,-0.10510485374592245,0.05678381736502051
1782836468041378800,6.28137890625,-0.011879822885990142,-0.08703435952626168,0.14224802323142066
1782836468051308000,6.29130810546875,-0.07368482941389083,-0.08646558319497853,0.08838922646762802
1782836468061236700,6.30123681640625,0.000173018479347229,-0.1065465769868344,0.04748332518143579
1782836468071166700,6.311166748046875,0.022096680995821953,-0.06711177116651088,0.07279001773232593
1782836468081095700,6.321095703125,-0.06969079134166241,-0.0281356688991189,0.11798625488989055
1782836468091025000,6.33102490234375,-0.136902625349164,-0.04631408047266304,0.08157123528216034
1782836468100953900,6.340953857421875,-0.14213175817430018,-0.07338179134670644,0.05680071370089426
1782836468110882800,6.3508828125,-0.10243103142678738,-0.126083015573211,0.06147387487739324
1782836468120811800,6.360811767578125,-0.12193769592940806,-0.1602904786666855,0.039796332609094674
1782836468130741800,6.37074169921875,-0.08579378488063812,-0.17360270897597074,0.034954189807549114
1782836468140670700,6.380670654296875,-0.026052725145220754,-0.14553926506284623,0.039851734324451535
1782836468150599700,6.390599609375,-0.038190906706452366,-0.1253186436045915,0.06559332942757755
1782836468160529000,6.40052880859375,-0.05667115077078342,-0.12372198553029447,0.07039762443676591
1782836468170457900,6.410457763671875,-0.08146540028750895,-0.1479451571607962,0.062478704538382585
1782836468180386800,6.42038671875,-0.08187398108839988,-0.16285886784996836,0.08522228686930611
1782836468190315800,6.430315673828125,-0.10410451759696006,-0.14632924639675765,0.09505575341843069
1782836468200245800,6.440245849609375,-0.12600889089107511,-0.12089037883356213,0.08593324815025552
1782836468210174700,6.4501748046875,-0.04046761946678162,-0.11248144692853093,0.07263530209464952
1782836468220103700,6.460103759765625,-0.015954524978995323,-0.11683452757149934,0.049433034477103496
1782836468230032600,6.47003271484375,0.012750175979733467,-0.08154829279799014,0.05235131481029093
1782836468239961900,6.4799619140625,0.004798340192437172,-0.0488197431506589,0.08255831009075044
1782836468249890800,6.489890869140625,-0.07243979778885841,-0.07944521957151592,0.10437675866708158
1782836468259819800,6.49981982421875,-0.13349720081984995,-0.1126568034954369,0.11405225817551835
1782836468269749800,6.509749755859375,-0.1500859320491552,-0.13901669489368795,0.11985075185382738
1782836468279678700,6.5196787109375,-0.09213292477428912,-0.1517173691758886,0.10424737840006128
1782836468289607700,6.529607666015625,-0.060789107483625406,-0.14645769508201628,0.10584403647435828
1782836468299536600,6.53953662109375,-0.07403846515715122,-0.13812416650075465,0.07494261092264205
1782836468309465900,6.5494658203125,-0.07502280001938343,-0.11878573470450937,0.05970677387332543
1782836468319394800,6.559394775390625,-0.061682841452956196,-0.16083404749147592,0.05454875178933143
1782836468329323800,6.56932373046875,-0.04047346468567848,-0.21184538240227846,-0.003847122148517519
1782836468339254000,6.57925390625,-0.01511807415485382,-0.17189959485251455,0.02007456405106932
1782836468349182700,6.5891826171875,-0.034815877315402026,-0.10635748415552079,0.07478380363173782
1782836468359114500,6.599114501953125,-0.05959785187244415,-0.09488331946097314,0.03769786249250173
1782836468369043500,6.60904345703125,-0.08884382010102272,-0.13559402696862816,0.026009653188474476
1782836468378972400,6.618972412109375,-0.12295651758313178,-0.16118205721154807,0.04661940182847902
1782836468388901400,6.6289013671875,-0.14700024099349976,-0.10293024965319782,0.06356217065984383
1782836468398831400,6.638831298828125,-0.12216098329126834,-0.03758589001800865,0.07040767090674489
1782836468408760300,6.64876025390625,-0.02690086640715599,-0.06080437811799347,0.07978727447483688
1782836468418689500,6.658689453125,-0.018310148194432257,-0.06134557232260704,0.09146465185759589
1782836468428618500,6.668618408203125,-0.1413461607545614,-0.059641069959662854,0.0866658550074324
1782836468438547500,6.67854736328125,-0.20983225248157977,-0.09772698192168026,0.06171051491117104
1782836468448476400,6.688476318359375,-0.12684943336844443,-0.15235555748157203,0.06263765795975923
1782836468458405400,6.6984052734375,-0.038036008405685426,-0.15899010012522338,0.03361884955056012
1782836468468335400,6.70833544921875,0.010193477234244346,-0.10873886286672205,0.028197957012988627
1782836468478264300,6.718264404296875,-0.003419453054666519,-0.08854041670765728,0.07171162964478135
1782836468488193500,6.728193603515625,-0.0061252048820257185,-0.12374522027540952,0.06450465740803629
1782836468498122500,6.73812255859375,-0.08648936592936515,-0.16561799383237957,0.05075125920251011
1782836468508051500,6.748051513671875,-0.0595826543033123,-0.19141225070450454,0.047987603175453836
1782836468517980400,6.75798046875,-0.007999182060360908,-0.1781770311541855,0.05987674187906086
1782836468527909600,6.76790966796875,-0.038708208578824996,-0.15951032460704445,0.057203431016579265
1782836468537839400,6.77783935546875,-0.05492752197384834,-0.1898087244980037,0.037426626069378105
1782836468547768300,6.787768310546875,-0.09942600439190864,-0.1967702340736985,0.06867923967894167
1782836468557697500,6.797697509765625,-0.10993979962170124,-0.12638645549919456,0.10553654142776503
1782836468567626500,6.80762646484375,-0.07318389415442943,-0.10577336412463337,0.10258877927176653
1782836468577555500,6.817555419921875,-0.04584697441756725,-0.13787347967531532,0.0758573328810744
1782836468587484400,6.827484375,-0.0651730216562748,-0.1328771692253649,0.06315238428255543
1782836468597413600,6.83741357421875,-0.06681260555684566,-0.13840250851809976,0.016983173906989394
1782836468607343400,6.84734326171875,-0.11748071652054785,-0.10888459148034453,0.023495880269259212
1782836468617272300,6.857272216796875,-0.1754319702297449,-0.06566939033847302,0.04518416312728077
1782836468627201300,6.867201171875,-0.0918506007015705,-0.06457556721977889,0.037234482764452695
1782836468637130500,6.877130615234375,-0.05616320124864578,-0.0677026497317478,0.03800338477771729
1782836468647059500,6.8870595703125,-0.1123597202450037,-0.10046042547356336,0.0274018747318536
1782836468656988400,6.896988525390625,-0.06520283227264881,-0.12518464196138082,-0.010998692669905722
1782836468666918400,6.90691845703125,-0.057115387406945224,-0.11288268467318266,-0.011533804193604736
1782836468676847400,6.916847412109375,-0.07763093669116497,-0.11443287325724959,-0.021865904447250065
1782836468686776300,6.9267763671875,-0.05583937612175941,-0.1308929731382057,-0.022192761781439183
1782836468696705300,6.936705322265625,-0.05667991859912872,-0.13776318770125506,-0.0024619514004327356
1782836468706634500,6.946634521484375,-0.07816928135156631,-0.1599567897329107,-0.0013599815079011022
1782836468716563500,6.9565634765625,-0.058927405264973635,-0.16737499356754124,-0.0035032223479822275
1782836468726492400,6.966492431640625,-0.08348843054771422,-0.16998652777280657,0.03902101912135258
1782836468736422700,6.976422607421875,-0.11162439170777796,-0.1295521529885009,0.054209656028077
1782836468746351400,6.986351318359375,-0.04789572364091873,-0.09495203731562941,0.049320258285012096
1782836468756280300,6.9962802734375,-0.04135843082666397,-0.10780402970202267,0.06294029416814446
1782836468766209300,7.006209228515625,-0.07540040116012096,-0.1181304126009345,0.078881028083805
1782836468776138500,7.016138427734375,-0.08279168045520782,-0.09566354658585041,0.08201664096210151
1782836468786067500,7.0260673828125,-0.1162982287377119,-0.06880425429809837,0.09998688967768102
1782836468795996400,7.035996337890625,-0.1494295139670372,-0.09020016661342233,0.10671009698547422
1782836468805926400,7.045926513671875,-0.1259749886214733,-0.1337601260723546,0.050214357580523936
1782836468815855600,7.055855712890625,-0.06693243254423141,-0.1334536174064502,0.012294504634104668
1782836468825784300,7.065784423828125,-0.009416647642850875,-0.07439633868411183,0.031145061581861228
1782836468835713300,7.07571337890625,-0.014623568636178969,-0.035275128857605156,0.030626207073219117
1782836468845642200,7.085642333984375,0.012179098093509673,-0.06443626834694295,0.028431674437317995
1782836468855571500,7.095571533203125,-0.022341011145710944,-0.09413341440912336,0.017296824699733405
1782836468865500400,7.10550048828125,-0.1051835450053215,-0.10694028901215642,0.019780677404720334
1782836468875430400,7.115430419921875,-0.05084580561816692,-0.12002711306773126,0.016636314964387566
1782836468885359600,7.125359619140625,-0.012704583272337913,-0.136864156502299,0.024767982564307747
1782836468895288600,7.13528857421875,-0.053559740751981735,-0.1458610808957368,0.039805684959329665
1782836468905217500,7.145217529296875,-0.07928688720464706,-0.13737681873217225,0.03316178996544331
1782836468915146200,7.155146240234375,-0.09259937324225902,-0.10505557124409824,0.05362791061736643
1782836468925075500,7.165075439453125,-0.1261275488346815,-0.12830788854844868,0.0743522438140586
1782836468935005400,7.17500537109375,-0.18644553167521952,-0.1642490070341155,0.08598676843577996
1782836468944934400,7.184934326171875,-0.17719956442415713,-0.14265928917974233,0.08651265547340735
1782836468954863400,7.19486328125,-0.10410802472829818,-0.10108754439596086,0.1035275944918394
1782836468964792600,7.20479248046875,-0.09300152430236339,-0.12336064140461385,0.10622587539879605
1782836468974721500,7.214721435546875,-0.12336743647158145,-0.15103004449885338,0.0688944715985097
1782836468984650500,7.224650390625,-0.11974573884308337,-0.12720021956749258,0.047021918214764445
1782836468994579200,7.2345791015625,-0.0913625249236822,-0.0893763560751453,0.09275151333035901
1782836469004509400,7.244509521484375,-0.07683598692119122,-0.08572893948350101,0.10202866117097437
1782836469014438400,7.2544384765625,-0.013039514315128325,-0.12982114265561104,0.0206644562356174
1782836469024367400,7.264367431640625,0.05463993720412254,-0.15038637630045412,-0.0030398608862422403
1782836469034296600,7.274296630859375,0.027581249886751175,-0.0681056045094505,0.06208946775877848
1782836469044225500,7.2842255859375,-0.04424187730848789,-0.03627718203961849,0.06513477200511843
1782836469054154500,7.294154541015625,-0.029304420417547224,-0.09295015944130718,0.039394583407789466
1782836469064083500,7.30408349609375,0.014971359160542487,-0.11893836798295378,0.053734074405580756
1782836469074013400,7.314013427734375,-0.01972293760180473,-0.08966708265002817,0.07234905076548456
1782836469083942400,7.3239423828125,-0.07546879022121429,-0.11810246514808385,0.05127225086931139
1782836469093871400,7.333871337890625,-0.11952303600311279,-0.14801066014505923,0.03546162787303328
1782836469103800600,7.343800537109375,-0.1592588340640068,-0.08112761970050633,0.11969676686851308
1782836469113729500,7.3537294921875,-0.10805705461502074,-0.04779314004927873,0.13911677600098774
1782836469123658500,7.363658447265625,-0.0836421598047018,-0.0918910423098132,0.09701697048880159
1782836469133587500,7.37358740234375,-0.1672533399492502,-0.1418105999285355,0.06789218095447867
1782836469143517400,7.383517333984375,-0.12055822426974773,-0.1737496066333726,0.03101535252127796
1782836469153446400,7.3934462890625,-0.02154430781006813,-0.15336955682970582,0.015914850555732846
1782836469163375400,7.403375244140625,-0.025800796210765836,-0.11658307356107979,0.016547942561190573
1782836469173304300,7.41330419921875,-0.1329641168564558,-0.12328542074393481,0.06289444573242217
1782836469183233500,7.423233642578125,-0.14373743980526923,-0.1487376227127388,0.06814599131876603
1782836469193162500,7.43316259765625,-0.06559680002629757,-0.11720438379719852,0.09970613650754094
1782836469203092200,7.44309228515625,-0.0749935739248991,-0.08549388861861079,0.11875636247955262
1782836469213021400,7.453021484375,-0.0573562104254961,-0.1131125479063019,0.050958253016695376
1782836469222950400,7.462950439453125,-0.00877425808608532,-0.16270817080028355,-0.0075287880696356295
1782836469232879400,7.47287939453125,0.002851297777891159,-0.15205463830623775,0.019111874765064565
1782836469242808300,7.482808349609375,-0.02562543964385986,-0.1419232665227726,0.02245123005453497
1782836469252737500,7.492737548828125,-0.023275077125430105,-0.15527349075488744,0.018263203780166805
1782836469262666500,7.50266650390625,-0.025248423025012016,-0.16380984843187033,0.0526468271581456
1782836469272596500,7.512596435546875,-0.09317921895682811,-0.1576683500021696,0.07008172688800841
1782836469282525400,7.522525390625,-0.16362228997051714,-0.11248605003841221,0.10902895012078806
1782836469292454400,7.532454345703125,-0.17363339637517927,-0.09025091041997074,0.11808273753430694
1782836469302383400,7.54238330078125,-0.11410860973894596,-0.09263258139211684,0.09179076027311384
1782836469312312300,7.552312255859375,-0.08573182556033133,-0.10697824640236794,0.09292078721635043
1782836469322241500,7.562241455078125,-0.08355565056502819,-0.11147793244179338,0.04459934897664934
1782836469332170500,7.57217041015625,-0.08449322367608547,-0.11462898035123943,0.04674529323047027
1782836469342100500,7.5821005859375,-0.10750409690737724,-0.11370057692732662,0.09130969875790178
1782836469352025300,7.592025390625,-0.08497253162562847,-0.09261256151739507,0.08406469606570899
1782836469361954600,7.60195458984375,-0.061385319811105725,-0.08791684144921601,0.0837390625742264
1782836469371883500,7.611883544921875,-0.025974399212002754,-0.09463113479819148,0.10564613928208128
1782836469381812200,7.621812255859375,-0.010937573599815368,-0.1180446705462411,0.0501891500740312
1782836469391741200,7.6317412109375,0.0003267477363348007,-0.1486605388885364,-0.00969657882908359
1782836469401670400,7.64167041015625,0.024728783065080643,-0.12680811497736721,0.022654004351329058
1782836469411600400,7.651600341796875,0.01182370878458023,-0.0936699616158381,0.03228476966889575
1782836469421529300,7.661529296875,-0.045969139492511746,-0.087201861580275,0.038129458842799065
1782836469431458300,7.671458251953125,-0.1260012921065092,-0.10393749046698213,0.09237730972310527
1782836469441387500,7.681387451171875,-0.13849486297667027,-0.1320419970428571,0.09172715698499231
1782836469451316500,7.69131640625,-0.16204408086836336,-0.12508556550107897,0.10896233289167284
1782836469461245200,7.7012451171875,-0.14327099133729934,-0.10466478182822465,0.1218343268864788
1782836469471174100,7.711174072265625,-0.1364928755044937,-0.11198540703989565,0.10344886669982224
1782836469481104400,7.7211044921875,-0.1342570792764425,-0.10810655631255357,0.07997512519713491
1782836469491033300,7.731033447265625,-0.07446984231173992,-0.07861844989117235,0.050516043940838425
1782836469500962300,7.74096240234375,-0.05857026239037513,-0.056951465549506246,0.01982676330246031
1782836469510891500,7.7508916015625,-0.07876140202581881,-0.08797649921458214,0.045648474437091496
1782836469520820500,7.760820556640625,-0.08901625405848025,-0.12036105772983283,0.0728970583033748
1782836469530749400,7.77074951171875,-0.14692074601650237,-0.12769351950976998,0.10604087422071024
1782836469540679400,7.780679443359375,-0.09465630577206612,-0.14299747162554413,0.09395339993340894
1782836469550608400,7.7906083984375,-0.03114507984817028,-0.13066168513298035,0.08645610298058018
1782836469560537300,7.800537353515625,-0.03661795830130577,-0.11924484011624008,0.060581620479095724
1782836469570466300,7.81046630859375,-0.042127077111601824,-0.11619060364477336,0.039622346015367654
1782836469580395500,7.8203955078125,-0.0007049333989620208,-0.1196730024004355,0.023668295960407704
1782836469590324500,7.830324462890625,-0.02183189257979393,-0.11120824865493922,0.0517820270223543
1782836469600253400,7.84025341796875,-0.10669453409016132,-0.1306385234531015,0.04461312177367508
1782836469610183200,7.85018310546875,-0.06676642832756043,-0.1392134595748037,0.034896596135105935
1782836469620112400,7.8601123046875,-0.04017594304382801,-0.10718914920669048,0.043566407466027884
1782836469630041300,7.870041259765625,-0.05835282024741172,-0.08276702093798667,0.03086412574863061
1782836469639970300,7.87997021484375,-0.0853279209345579,-0.07159823239818215,0.048593240918405355
1782836469649899300,7.889899169921875,-0.1541746626675129,-0.0674548855157569,0.057054688461963085
1782836469659828500,7.899828369140625,-0.09955518372952937,-0.08586367177907377,0.11504536086609586
1782836469669757400,7.90975732421875,-0.1573287427842617,-0.10253094813730568,0.08054010213613509
1782836469679687200,7.919687255859375,-0.11471300537288188,-0.039209472631849346,0.09959357951115816
1782836469689616400,7.929616455078125,-0.08111819428503513,-0.07986139915697277,0.06640168666839599
1782836469699545300,7.93954541015625,-0.025528993532061575,-0.1127965772923082,0.009391001744940876
1782836469709474300,7.949474365234375,-0.052799277773499485,-0.06902399799600244,0.05242089118147269
1782836469719403300,7.9594033203125,-0.09291676862835883,-0.048106443782150746,0.05684594108210876
1782836469729332500,7.96933251953125,-0.08872165502607822,-0.08959920504558831,0.043831068017892535
1782836469739261400,7.979261474609375,-0.06015373218953609,-0.12879600085895507,0.04837868485227227
1782836469749191200,7.989191162109375,-0.04179156154692173,-0.14447083211373538,0.044481768745277074
1782836469759120100,7.9991201171875,-0.06530278551578521,-0.09985876978598535,0.06049810691410675
1782836469769049300,8.00904931640625,-0.12363748558461665,-0.0781530243365094,0.06511688928855583
1782836469778978300,8.018978271484375,-0.10565057799518107,-0.12148407041039318,0.028992249195836484
1782836469788907300,8.0289072265625,-0.04568213924467563,-0.14425656830854713,0.01722105604978278
1782836469798836200,8.038836181640624,0.010617840126156807,-0.12083240156862884,0.00489959034351632
1782836469808765400,8.048765380859376,-0.008504208973050117,-0.12337302596215158,-0.006102371995709836
1782836469818695400,8.0586953125,-0.12573825725615023,-0.1376531879881397,0.04569121760027483
1782836469828624100,8.0686240234375,-0.17518354842662812,-0.11073792772945015,0.06808858030941337
1782836469838553300,8.07855322265625,-0.08566226745545863,-0.07090345506705344,0.10073995480099693
1782836469848482300,8.088482421875,-0.047806291791796685,-0.07942541889250278,0.11295343008814379
1782836469858411300,8.098411376953125,-0.06502163048684596,-0.11375895605105905,0.0754678221068345
1782836469868340200,8.10834033203125,-0.052450902727246285,-0.11621906255427747,0.06485964485816657
1782836469878269400,8.11826953125,-0.06362754577994346,-0.0715473059285432,0.10262719331970438
1782836469888199400,8.128199462890626,-0.08569616972506046,-0.05491816962361335,0.09086832993226125
1782836469898128400,8.13812841796875,-0.09649170450568198,-0.07327676006965339,0.060402994242869316
1782836469908057300,8.148057373046875,-0.11530278795957564,-0.07167882335372269,0.08806176634524017
1782836469917986300,8.157986328125,-0.09919804085493088,-0.0703544428821653,0.09846183553487062
1782836469927915300,8.167915283203126,-0.07125263383090495,-0.07984992791488767,0.04789705708147958
1782836469937844200,8.17784423828125,-0.031045126605033873,-0.1227270927414298,-0.0067104939566925165
1782836469947774500,8.1877744140625,0.012851882788538932,-0.14051244987677783,-0.02570604886570945
1782836469957703400,8.197703369140624,0.06357844594120979,-0.11439159139879047,-0.015375373384170233
1782836469967632400,8.20763232421875,0.012070961543917656,-0.05952164483107626,0.004770721533149481
1782836469977561300,8.217561279296875,-0.06400573144257068,-0.05355064413007348,0.03636049467520788
1782836469987490300,8.227490234375,-0.1052004961401224,-0.13113317510224878,0.05910440579969436
1782836469997419300,8.237419189453124,-0.16160919658243655,-0.1993691279930994,0.017116773691400886
1782836470007348200,8.24734814453125,-0.1687660825997591,-0.179878172516264,0.042682920896075664
1782836470017277200,8.257277099609375,-0.11204407842457294,-0.09588175591379404,0.108119872451853
1782836470027207400,8.26720751953125,-0.11537059249877929,-0.07511281639039516,0.1157621856322512
1782836470037136400,8.277136474609375,-0.11158464421927929,-0.11056374020632356,0.09497430394636466
1782836470047065300,8.2870654296875,-0.06324585298597812,-0.08684921221770346,0.08032333584660664
1782836470056994600,8.29699462890625,-0.08478431557714938,-0.07553422014024108,0.0755019983710721
1782836470066923300,8.30692333984375,-0.1362228263914585,-0.12326722750011831,0.04041398958340287
1782836470076852200,8.316852294921874,-0.07851999448537826,-0.1367379728393629,0.03899098930926993
1782836470086782500,8.326782470703124,-0.046941199395060536,-0.09959613679442554,0.05833238024758175
1782836470096711400,8.33671142578125,-0.00964344213604927,-0.026348822014965117,0.07444700942542404
1782836470106640400,8.346640380859375,-0.04922317285239696,-0.02391447100751102,0.07040662972712888
1782836470116569300,8.3565693359375,-0.06573533171415329,-0.08859152584038674,0.03215871387012303
1782836470126498600,8.36649853515625,-0.03180909671485424,-0.11551493287291377,0.01852437546700239
1782836470136427500,8.376427490234375,-0.004767360532283783,-0.10868556177690625,0.009720142367761581
1782836470146356200,8.386356201171875,-0.04058744645416736,-0.09244995483420788,0.0005164981547743082
1782836470156286200,8.3962861328125,-0.052039399316906924,-0.09667506171595304,0.006409373851958662
1782836470166215400,8.40621533203125,-0.08314882332980632,-0.10608692358583212,0.020722488299477843
1782836470176144400,8.416144287109375,-0.07390227155685425,-0.12491057426035404,0.023670670580584554
1782836470186073300,8.4260732421875,-0.11225684439241886,-0.12449318909849971,0.03947289107469842
1782836470196002300,8.436002197265625,-0.16992343594133852,-0.13497136502563953,0.05303484009504318
1782836470205931500,8.445931640625,-0.1521609847575426,-0.12508549243584274,0.05446595061039552
1782836470215860500,8.455860595703125,-0.12824468711912632,-0.08511610481478274,0.07958046332374215
1782836470225790200,8.465790283203125,-0.11554594906568527,-0.0635947029562667,0.04573748616110533
1782836470235719400,8.475719482421875,-0.07946750446856021,-0.10063388234432787,0.03153921199860051
1782836470245648400,8.4856484375,-0.11095336057841777,-0.14934358924925326,0.05309968549218028
1782836470255577300,8.495577392578125,-0.1433341197013855,-0.16288031249679624,0.04187310235053301
1782836470265506300,8.50550634765625,-0.06457856289446354,-0.06937737801093607,0.03753273505866527
1782836470275435500,8.515435546875,0.016979776373505593,-0.06453362777419389,0.10303592025106773
1782836470285364500,8.525364501953124,-0.016979191851615904,-0.10213113516476005,0.08057064340487122
1782836470295294200,8.535294189453126,-0.1288946754604578,-0.10270783907417208,0.009764401634596288
1782836470305223200,8.54522314453125,-0.08853519254326819,-0.09157083391211926,0.01610756011623889
1782836470315152400,8.55515234375,-0.01574292805492878,-0.09848941766154021,0.006811488379444927
1782836470325081300,8.565081298828124,-0.043648587590456006,-0.12287753406278788,0.008498418553080408
1782836470335010300,8.57501025390625,-0.1633715300798416,-0.11823449402991681,0.019078977142460644
1782836470344939300,8.584939208984375,-0.1816144582569599,-0.11475994978714733,0.0421839401316829
1782836470354868500,8.594868408203125,-0.03814239138960838,-0.10930709120873361,0.03337725934702903
1782836470364798200,8.604798095703124,0.03978197529017925,-0.07958203422632068,0.0525215385443531
1782836470374727200,8.61472705078125,-0.029329554858803748,-0.09169566586818545,0.05119346827836707
1782836470384656400,8.624656494140625,-0.10964403154551983,-0.1477978211119771,0.021391510134842244
1782836470394585300,8.63458544921875,-0.030005846685171124,-0.14437968323156236,0.019818433865532278
1782836470404514300,8.644514404296874,0.0020639467924833295,-0.05546338241621852,0.06650169471045955
1782836470414443300,8.654443359375,-0.07450491362512111,-0.056248176118358965,0.08580253444267437
1782836470424372500,8.66437255859375,-0.10827098962664604,-0.07616623443346471,0.0616325543041341
1782836470434302200,8.67430224609375,-0.10748071603178977,-0.07842983198389411,0.05297317303568125
1782836470444231200,8.684231201171874,-0.06515139434635639,-0.10333214498497545,0.0454723141525872
1782836470454160400,8.694160400390626,-0.05399462503790855,-0.09171729317810386,0.052801451464276755
1782836470464089300,8.70408935546875,-0.053468555337190624,-0.08127298298794776,0.07781085983533412
1782836470474018300,8.714018310546875,-0.09253566035628319,-0.07778262012153864,0.1089286315514706
1782836470483947300,8.723947265625,-0.1818967823296785,-0.10215707332361489,0.1397620516345836
1782836470493876500,8.73387646484375,-0.1672282055079937,-0.15159133164342492,0.05835053695878013
1782836470503806500,8.743806396484375,-0.02555062084197998,-0.10893043991606682,0.0546795020295307
1782836470513735200,8.753735107421875,0.0035492169141769407,-0.06682542850580066,0.06912619799515232
1782836470523664100,8.7636640625,-0.0033189152896404266,-0.13056790590230374,0.010907963912840933
1782836470533593300,8.77359326171875,0.03257189778089523,-0.19502141764499245,-0.00733558531878516
1782836470543522300,8.783522216796875,0.017691139513254163,-0.1640472739169374,0.024808588569331914
1782836470553451300,8.793451171875,-0.017596446967124937,-0.12530351910069584,0.012436543453298508
1782836470563380200,8.803380126953124,-0.03837093944847583,-0.09429225823264568,0.03224007201064378
1782836470573310500,8.813310546875,-0.1331254448980093,-0.1081370975812897,0.08233807320250197
1782836470583239400,8.823239501953125,-0.22824293844103813,-0.1549579219996929,0.045985615703277284
1782836470593168400,8.83316845703125,-0.1802940233081579,-0.14453491032589227,0.0459185235501267
1782836470603097300,8.843097412109374,-0.11546996122002601,-0.08807838868647813,0.09177819305248558
1782836470613026300,8.8530263671875,-0.09530863220095634,-0.047031581092253326,0.07877723891576752
1782836470622955300,8.862955322265625,-0.05983867489099502,-0.029903336158767342,0.04876035937992856
1782836470632884200,8.87288427734375,-0.052069209933280944,-0.027068514591641724,0.0637685799521394
1782836470642814500,8.882814453125,-0.0987047043800354,-0.0439030372755602,0.10359435785142704
1782836470652743400,8.892743408203126,-0.12220774504244326,-0.0827409366486594,0.047554344591032714
1782836470662672400,8.90267236328125,-0.05554477708935737,-0.11223718984387815,0.06032401072252541
1782836470672601300,8.912601318359375,0.005920622220635414,-0.08603829769361764,0.054169561479706314
1782836470682530300,8.9225302734375,-0.01043430025279522,-0.04410374747943133,0.05924545823819935
1782836470692459300,8.932459228515626,-0.003305471286177635,-0.04463902339991182,0.07270619364008307
1782836470702388200,8.94238818359375,0.004262333619594574,-0.09990786962471902,0.04849547963235527
1782836470712318500,8.952318359375,-0.0116986211001873,-0.15828304783441124,0.023280867545399812
1782836470722247400,8.962247314453125,-0.028718729484081267,-0.1603727501226589,0.023508356158342212
1782836470732176400,8.97217626953125,-0.08762859909236431,-0.13979429167006163,0.025588724362663923
1782836470742105300,8.982105224609375,-0.11465806031525135,-0.15852266527656464,0.03902865443853661
1782836470752034300,8.992034423828125,-0.07302899585366249,-0.16651183739956468,0.04885912531297654
1782836470761963300,9.00196337890625,-0.06343640712201595,-0.1464781533481553,0.05391147679910063
1782836470771892200,9.011892333984376,-0.066597501501441,-0.12741462950315327,0.0935778080866672
1782836470781822500,9.021822509765625,-0.0795072519570589,-0.11134520944021642,0.0943508017531596
1782836470791751400,9.03175146484375,-0.09689970078468323,-0.10258066903054713,0.07239632397331297
1782836470801680400,9.041680419921875,-0.10571545992493629,-0.0960016924990341,0.06566683305520564
1782836470811609300,9.051609375,-0.14680734876990317,-0.09322181598953902,0.06351940923035145
1782836470821538600,9.06153857421875,-0.171423903632164,-0.09878054609522223,0.015808668501209468
1782836470831467300,9.07146728515625,-0.12395429644882679,-0.0921354455249384,0.023114315339457243
1782836470841397200,9.081397216796875,-0.05469780487120151,-0.07445464474260807,0.034925000245682895
1782836470851326200,9.091326171875,-0.04474515065550804,-0.07299797966089099,0.031472247709613294
1782836470861255400,9.10125537109375,-0.0941863501727581,-0.0395277813334018,0.07560107483137399
1782836470871184400,9.111184326171875,-0.13911737878918648,-0.0967024611795321,0.06362096990868449
1782836470881113300,9.12111328125,-0.12430734767019748,-0.16328797998223452,0.01339990859273821
1782836470891042300,9.131042236328126,-0.10305471628308295,-0.1597551296809688,-0.0010104556841775774
1782836470900971500,9.140971435546875,-0.0451432100623846,-0.11078363003470003,-0.003131155898887664
1782836470910901200,9.1509013671875,-0.05802373442351818,-0.051258112746104596,0.031457890390697865
1782836470920830200,9.160830322265625,-0.02556640293300152,-0.07333166859466582,0.045824689520522946
1782836470930759400,9.170759521484374,-0.036163784793019293,-0.07846464756894857,0.04688271067347377
1782836470940688400,9.1806884765625,-0.12874503785669802,-0.11187226552162319,0.03476580936228856
1782836470950617300,9.190617431640625,-0.09433248064517974,-0.1454459242235869,0.029741021736524997
1782836470960546300,9.20054638671875,-0.06640168666839599,-0.12084993722531943,0.04319317197315395
1782836470970475500,9.2104755859375,-0.05107669176459312,-0.07973225635197013,0.040980208631418644
1782836470980404500,9.220404541015625,-0.0820125127762556,-0.08508362731728702,0.03731047061011195
1782836470990334200,9.230334228515625,-0.08853636158704757,-0.1154483339101076,0.04188426306536421
1782836471000263400,9.240263427734375,-0.09979542222619056,-0.121429600276798,0.06071328403474763
1782836471010192400,9.2501923828125,-0.10849661507606506,-0.13546733184903859,0.05966070624189451
1782836471020121300,9.260121337890626,-0.07201485037505627,-0.08948171614576131,0.09144983788095414
1782836471030050300,9.27005029296875,-0.06129530344009399,-0.03938687502536922,0.07718145762430503
1782836471039979500,9.2799794921875,-0.07124678861200809,-0.07135510782469064,0.07620594538934529
1782836471049909200,9.2899091796875,-0.11620119810402392,-0.09983980935718864,0.07336273958636447
1782836471059838200,9.299838134765626,-0.14390987376272676,-0.07531670493204146,0.07236675081895663
1782836471069767200,9.30976708984375,-0.1146077914327383,-0.042064204475842415,0.07689957194300368
1782836471079696400,9.3196962890625,-0.04145546146035194,-0.03305500512272119,0.06282492416016758
1782836471089622300,9.329622314453125,-0.004656301373243332,-0.07205872604940086,0.0488757841868326
1782836471099551500,9.339551513671875,0.011509820529818535,-0.12211630389932543,0.018870138431061056
1782836471109480400,9.34948046875,-0.01585398721396923,-0.11816405914220958,0.016635492980480192
1782836471119409400,9.359409423828126,0.024103344643115997,-0.07718078177087008,0.03241298089213669
1782836471129338400,9.36933837890625,0.02754208692014217,-0.047407319069467484,0.04986263979971409
1782836471139267300,9.379267333984375,-0.02558276954591274,-0.06355389602184296,0.05324678407898172
1782836471149197300,9.389197265625,-0.07721943328082562,-0.09304693434666841,0.050874721185397355
1782836471159126300,9.399126220703126,-0.10881167237460612,-0.12397365873642265,0.033169808875117446
1782836471169055500,9.409055419921875,-0.17210311806797982,-0.1287597605017945,0.016469360899645836
1782836471178984400,9.418984375,-0.17630232332348822,-0.12604279316067696,0.028687877688091248
1782836471188913400,9.428913330078124,-0.11367898615002632,-0.09794994048997759,0.043589660477451976
1782836471198842400,9.43884228515625,-0.06384907957613468,-0.053329292996972796,0.048931021505407984
1782836471208771300,9.448771240234375,-0.08007774532139302,-0.018200440742261705,0.1252722106469795
1782836471218701300,9.458701416015625,-0.16139584609270094,-0.025632271243445574,0.15109826916316524
1782836471228630300,9.46863037109375,-0.18985270977020263,-0.07864504563715309,0.0921895137997344
1782836471238559200,9.478559326171874,-0.13430208746194838,-0.15746763979829848,0.06493901197100058
1782836471248488400,9.488488525390625,-0.12282324659228325,-0.14110807768236844,0.04381064628437161
1782836471258417400,9.49841748046875,-0.06865092689990997,-0.0678950304986909,0.037553339455276724
1782836471268346400,9.508346435546875,0.0021411036819219587,-0.04112257624417543,0.04599401820544153
1782836471278275300,9.518275390625,0.007357377025485039,-0.03273753667138517,0.03169372670687735
1782836471288205300,9.528205322265626,0.0180599728256464,-0.04504519304800778,0.03537241521961987
1782836471298134300,9.53813427734375,0.03129004127681255,-0.062486485986039036,0.05880922224540263
1782836471308063200,9.548063232421875,-0.018173954594135282,-0.11703669908009469,0.033173443870618935
1782836471317992400,9.557992431640624,-0.022121815437078474,-0.15060721597690135,-0.010121763704903423
1782836471327921400,9.56792138671875,-0.043725159958004946,-0.14957856704890726,0.02480659754164517
1782836471337850400,9.577850341796875,-0.06115910983979702,-0.1020693950401619,0.06109932421026751
1782836471347779300,9.587779296875,-0.11206395216882228,-0.06293353563379496,0.0899518726744689
1782836471357709800,9.597709716796874,-0.16772329554855822,-0.09764050921462476,0.1070360044715926
1782836471367638800,9.607638671875,-0.11175532461106777,-0.11895765720531344,0.07542272258978337
1782836471377567700,9.617567626953125,-0.09886427885591983,-0.09957998937722295,0.04572594185378402
1782836471387497000,9.6274970703125,-0.09197101221084594,-0.11866802660897373,0.010243563453666865
1782836471397426000,9.637426025390624,-0.07508534386157989,-0.11419223290178925,-0.0032765922515653073
1782836471407355000,9.64735498046875,-0.0871709184527397,-0.055299131765216586,0.004915335901919752
1782836471417283800,9.657283935546875,-0.05470832626521587,0.019233035193011165,0.04939153342293575
1782836471427213800,9.6672138671875,-0.11741875720024109,0.005491765816695988,0.06620209070937708
1782836471437142800,9.677142822265624,-0.16794015316963196,-0.04122625581435859,0.0657961585232988
1782836471447071700,9.68707177734375,-0.2082365077227354,-0.07964443193804473,0.057883120376430446
1782836471457000700,9.697000732421875,-0.07407529003620147,-0.0686424147998914,0.013327080818545072
1782836471466930000,9.706929931640625,0.0271487036883831,-0.0374769132182002,0.01677946802843362
1782836471476859000,9.71685888671875,0.008831541231274604,-0.053099612426944075,0.012570380699727683
1782836471486787800,9.726787841796876,-0.03683540044426918,-0.10096662143003195,-0.005970653641130775
1782836471496717800,9.7367177734375,-0.05300035330355167,-0.12155523595046251,0.018934198376908896
1782836471506646800,9.746646728515625,-0.05661795927882194,-0.10736848782896995,0.047417803930863735
1782836471516575700,9.75657568359375,-0.0383113182157278,-0.0762019268013537,0.06610929785938933
1782836471526504700,9.766504638671876,-0.02796118911504745,-0.07701766363102942,0.07462309664469212
1782836471536434000,9.776433837890625,-0.11110066009461879,-0.12182619837895035,0.0578547527984716
1782836471546363000,9.78636279296875,-0.16755553776621818,-0.16642185756117103,0.03468024997068569
1782836471556291800,9.796291748046874,-0.13333645730018615,-0.13294544868860392,0.03134690429689362
1782836471566220800,9.806220703125,-0.026857027265429496,-0.0693512206563726,0.012503745204303413
1782836471576150800,9.81615087890625,-0.03202595433592796,-0.08433021513409912,-0.013521397814247757
1782836471586079700,9.826079833984375,-0.00672901599407196,-0.10569573231115936,0.02342120759785175
1782836471596008700,9.8360087890625,-0.003328267639875412,-0.03284044905658811,0.04274966598935425
1782836471605938000,9.84593798828125,0.00887654941678047,0.02725629224870354,0.0830143102299422
1782836471615867000,9.855866943359375,0.0027250410497188567,0.022045754526183008,0.09107599959988147
1782836471625795800,9.8657958984375,-0.036814942178130146,-0.06688906832654029,0.07227551060523837
1782836471635725800,9.875725830078125,0.21573300095796583,-0.2058264509063214,-0.007558744816482067
1782836471645655000,9.885655029296874,-0.26634032164514065,-0.0849046174885705,0.16872143974043427
1782836471655583700,9.895583740234375,-0.41423955730497836,-0.07898330114819109,0.09818568547461182
1782836471665512700,9.9055126953125,-0.15644202307760716,-0.1477783492265269,0.021573771366570144
1782836471675441700,9.915441650390624,-0.010432546687126159,-0.08337207415904849,0.08735966422418132
1782836471685371000,9.925370849609376,0.13633271650671958,-0.013667656150832772,0.060417534224875266
1782836471695304000,9.935303955078124,0.09159750272333621,-0.07314871324319391,-0.00979647727329284
1782836471705233000,9.94523291015625,-0.17475041770637034,-0.17712207874115554,0.013300923463981597
