time,seconds_elapsed,z,y,x
1782836461845582800,0.085582763671875,0.012393622659146786,0.008298746310174465,-0.003294218797236681
1782836461855511800,0.09551171875,0.01563391648232937,-0.0015758704394102097,0.023488150909543037
1782836461865440800,0.105440673828125,0.006463588215410709,0.002454823814332485,0.024017585441470146
1782836461875370000,0.115369873046875,0.0034538963809609413,0.025293856859207153,0.012844512239098549
1782836461885299000,0.125298828125,0.012096120975911617,0.02756739780306816,0.00665639154613018
1782836461895228000,0.135227783203125,0.014503507874906063,0.02139078639447689,0.022042177617549896
1782836461905158100,0.145158203125,0.015889417380094528,0.013829538598656654,0.03030436858534813
1782836461915087000,0.155087158203125,0.020333096385002136,0.004294967278838158,0.02262232080101967
1782836461925015800,0.165015869140625,0.022813566029071808,0.0002458970993757248,0.0002826591953635216
1782836461934944800,0.17494482421875,0.020891519263386726,-0.002626657485961914,-0.018379848450422287
1782836461944873700,0.184873779296875,0.019785242155194283,-0.012275289744138718,-0.01538325846195221
1782836461954803000,0.194802978515625,0.018629290163517,-0.016146518290042877,-0.005974429659545422
1782836461964732000,0.20473193359375,0.017651643604040146,-0.018707945942878723,0.01969365030527115
1782836461974662000,0.214661865234375,0.009305421262979507,-0.023199792951345444,0.03216603398323059
1782836461984591000,0.224591064453125,-0.0048833684995770454,-0.010946055874228477,0.015005959197878838
1782836461994520000,0.23452001953125,-0.005829504691064358,0.003314509056508541,-0.008285771124064922
1782836462004448800,0.24444873046875,-0.010645297355949879,0.01028586644679308,-0.028567872941493988
1782836462014377700,0.254377685546875,-0.014796203933656216,0.013772925361990929,-0.03863714262843132
1782836462024307000,0.264306884765625,-0.007823514752089977,0.02159622684121132,-0.02563292719423771
1782836462034237000,0.27423681640625,0.0008710091933608055,0.019875645637512207,0.0036752838641405106
1782836462044166000,0.284165771484375,0.004148295149207115,0.0177304670214653,0.03552722558379173
1782836462054095000,0.29409521484375,0.007649176754057407,0.0284646637737751,0.04465484619140625
1782836462064024000,0.304024169921875,0.003326866775751114,0.03027215227484703,0.037823304533958435
1782836462073953000,0.313953125,-0.0019111242145299911,0.028326839208602905,0.012235908769071102
1782836462083881700,0.3238818359375,-0.001519906334578991,0.01946038007736206,-0.0031789997592568398
1782836462093811000,0.33381103515625,0.0001609688624739647,0.006161627359688282,-0.005941263400018215
1782836462103741000,0.343740966796875,0.004707251209765673,-0.002297370694577694,-0.002687679138034582
1782836462113670000,0.353669921875,0.00971081294119358,-0.001444944180548191,0.005494731478393078
1782836462123598800,0.363598876953125,0.022203169763088226,-0.002057471312582493,0.0047884611412882805
1782836462133528000,0.373528076171875,0.014535661786794662,0.008971745148301125,-0.0031493566930294037
1782836462143457000,0.38345703125,0.01313270814716816,0.018004387617111206,-0.003888117615133524
1782836462153386000,0.393385986328125,0.013360169716179371,0.018940608948469162,0.013262663967907429
1782836462163318000,0.403318115234375,0.004210346844047308,0.010600917972624302,0.022371474653482437
1782836462173247000,0.4132470703125,0.00657813623547554,-0.0001634303480386734,0.01895860955119133
1782836462183176000,0.423176025390625,0.013184640556573868,0.001744191162288189,0.004970887675881386
1782836462193105000,0.43310498046875,0.01524228323251009,0.0025890860706567764,0.0037146834656596184
1782836462203033900,0.443033935546875,0.012569268234074116,0.009920235723257065,0.01807284913957119
1782836462212963800,0.4529638671875,0.00887905154377222,0.018337048590183258,0.04176986590027809
1782836462222893000,0.46289306640625,0.0038350247777998447,0.020707793533802032,0.06893623620271683
1782836462232822000,0.472822021484375,0.005464065354317427,0.007463942281901836,0.08721766620874405
1782836462242751000,0.4827509765625,0.0025737369433045387,0.005984288640320301,0.0728997141122818
1782836462252680000,0.492679931640625,-0.0027170563116669655,-0.006471904926002026,0.03882092982530594
1782836462262609000,0.50260888671875,0.0028428249061107635,-0.006255922373384237,0.004728473722934723
1782836462272539000,0.512538818359375,0.005180824548006058,-0.009091482497751713,-0.006732264067977667
1782836462282467800,0.5224677734375,0.005622909404337406,-0.0018327711150050163,0.0016377847641706467
1782836462292397000,0.53239697265625,0.009291376918554306,-0.006544995587319136,0.025255829095840454
1782836462302326000,0.542325927734375,0.012637373059988022,-0.006367895286530256,0.04565005004405975
1782836462312255000,0.5522548828125,0.011942388489842415,-0.008720974437892437,0.05873508006334305
1782836462322184000,0.562183837890625,0.011123199947178364,-0.01415595319122076,0.08032053709030151
1782836462332113200,0.572113037109375,0.016541779041290283,-0.018332649022340775,0.09752465039491653
1782836462342043000,0.58204296875,0.011883110739290714,-0.025215324014425278,0.09640026092529297
1782836462351971300,0.591971435546875,0.012878443114459515,-0.02752700448036194,0.06257901340723038
1782836462361900500,0.601900634765625,0.00419999985024333,-0.022155940532684326,0.018930070102214813
1782836462371829500,0.61182958984375,0.005513922311365604,-0.01649787835776806,-0.02435329370200634
1782836462381758500,0.621758544921875,0.005447876174002886,-0.016034221276640892,-0.03157126158475876
1782836462391687400,0.6316875,0.005659275222569704,-0.008082527667284012,-0.019261909648776054
1782836462401617400,0.641617431640625,0.008941620588302612,0.002443350851535797,-0.0005036680959165096
1782836462411546400,0.65154638671875,0.00853743590414524,0.011701918207108974,0.01542503573000431
1782836462421475300,0.661475341796875,0.006711040623486042,0.013448153622448444,0.02119450829923153
1782836462431404300,0.671404296875,0.005097333341836929,0.007472248747944832,0.009877486154437065
1782836462441333500,0.68133349609375,0.011462287977337837,0.004621334373950958,0.005865433253347874
1782836462451262500,0.691262451171875,0.0158754400908947,-0.006749179679900408,0.0025357073172926903
1782836462461191400,0.70119140625,0.012512399815022945,-0.01068852748721838,-0.010145466774702072
1782836462471121700,0.71112158203125,0.010564426891505718,-0.007188128773123026,-0.008170054294168949
1782836462481050400,0.72105029296875,0.010103433392941952,-0.0005624508485198021,-0.006287465803325176
1782836462490979300,0.730979248046875,0.010449530556797981,0.006309846416115761,-0.00694849481806159
1782836462500908300,0.740908203125,0.010988288559019566,0.011068115010857582,-0.007040640339255333
1782836462510837500,0.75083740234375,0.011186020448803902,0.009638423100113869,0.00016874633729457855
1782836462520766500,0.760766357421875,0.008787844330072403,-0.007079571019858122,0.009689812548458576
1782836462530695400,0.7706953125,0.01401068177074194,-0.026451414451003075,0.016003668308258057
1782836462540625700,0.780625732421875,0.015420559793710709,-0.044992342591285706,0.012636900879442692
1782836462550554600,0.7905546875,0.01655719242990017,-0.04291485249996185,-0.0032309493981301785
1782836462560483300,0.8004833984375,0.009721656329929829,-0.021924350410699844,-0.008707207627594471
1782836462570412300,0.810412353515625,0.0026509426534175873,-0.0015788832679390907,0.0037101656198501587
1782836462580341500,0.820341552734375,-0.0029470212757587433,0.0055474694818258286,0.023776283487677574
1782836462590270500,0.8302705078125,-0.0009200079366564751,0.021580267697572708,0.03728184103965759
1782836462600200400,0.840200439453125,0.0015221107751131058,0.028903424739837646,0.028320036828517914
1782836462610129400,0.85012939453125,-0.006629577837884426,0.02332601696252823,-0.0005964124575257301
1782836462620058600,0.86005859375,-0.00012480560690164566,0.020121969282627106,-0.015623033046722412
1782836462629987600,0.869987548828125,0.003243185579776764,0.005235221236944199,-0.017582416534423828
1782836462639916500,0.87991650390625,0.00045352429151535034,-0.012248964048922062,-0.0034551452845335007
1782836462649845200,0.88984521484375,0.0029005343094468117,-0.021403275430202484,0.008826740086078644
1782836462659775500,0.899775390625,0.007563197053968906,-0.016129417344927788,0.01337648369371891
1782836462669704400,0.909704345703125,0.007277216296643019,-0.003250034525990486,0.015668272972106934
1782836462679633400,0.91963330078125,0.01099978294223547,0.00985032133758068,0.01902039349079132
1782836462689562600,0.929562744140625,0.014790639281272888,0.020366601645946503,0.014297043904662132
1782836462699491600,0.93949169921875,0.012707248330116272,0.019112519919872284,0.018842794001102448
1782836462709420500,0.949420654296875,0.01062789186835289,0.004186319187283516,0.02278527244925499
1782836462719349500,0.959349609375,0.016720937564969063,-0.0005402592942118645,0.027495604008436203
1782836462729279500,0.969279541015625,0.017442192882299423,-0.014587978832423687,0.016543515026569366
1782836462739208400,0.97920849609375,0.01633857935667038,-0.012014034204185009,0.00982276163995266
1782836462749137400,0.989137451171875,0.014884688891470432,-0.0009583756327629089,-0.0021586944349110126
1782836462759066600,0.999066650390625,0.01162551250308752,0.002436090260744095,-0.005691643804311752
1782836462768995600,1.00899560546875,0.007223024033010006,-0.0011921478435397148,-0.012413577176630497
1782836462778924500,1.018924560546875,0.011097390204668045,0.005172806791961193,-0.009096610359847546
1782836462788854300,1.028854248046875,0.009928393177688122,0.009309433400630951,-0.0011053807102143764
1782836462798783500,1.038783447265625,0.012245609425008297,0.010043665766716003,0.00484731700271368
1782836462808712400,1.04871240234375,0.009900305420160294,0.005101216025650501,0.0038079414516687393
1782836462818641400,1.058641357421875,0.00912772212177515,0.003833816386759281,-0.0066833156161010265
1782836462828570400,1.0685703125,0.006004366558045149,0.0005472097545862198,-0.012084739282727242
1782836462838499600,1.07849951171875,0.003865581937134266,0.0013541476801037788,-0.010469797998666763
1782836462848428500,1.088428466796875,0.008828013204038143,-0.0007833931595087051,0.0002746032550930977
1782836462858358300,1.098358154296875,0.008922022767364979,-0.0029871584847569466,0.027358684688806534
1782836462868287500,1.10828759765625,0.00535662891343236,-0.0064906952902674675,0.040428221225738525
1782836462878216400,1.118216552734375,0.004346225876361132,0.0017299503087997437,0.021589819341897964
1782836462888145400,1.1281455078125,0.007435380946844816,0.0057489341124892235,-0.007218159269541502
1782836462898074400,1.138074462890625,0.013076222501695156,0.011946910060942173,-0.03254561871290207
1782836462908003600,1.148003662109375,0.012615368701517582,0.012127849273383617,-0.03958190232515335
1782836462917933600,1.15793359375,0.014582912437617779,0.01070225890725851,-0.026249583810567856
1782836462927862500,1.167862548828125,0.010459903627634048,0.006473996676504612,-0.00890209898352623
1782836462937791500,1.17779150390625,0.016378512606024742,-0.007117179688066244,0.011786400340497494
1782836462947720400,1.187720458984375,0.010619398206472397,-0.014953432604670525,0.01832476630806923
1782836462957649400,1.1976494140625,0.014253813773393631,-0.01798597350716591,0.0068800970911979675
1782836462967578400,1.207578369140625,0.017135750502347946,-0.01674686372280121,-0.007276586722582579
1782836462977507300,1.21750732421875,0.004770958796143532,-0.012194457463920116,-0.016700981184840202
1782836462987437600,1.2274375,-0.003093218430876732,-0.007896587252616882,-0.0189078226685524
1782836462997366500,1.237366455078125,0.00483314786106348,-0.0063074794597923756,-0.010091961361467838
1782836463007295500,1.24729541015625,0.012926461175084114,-0.0007445644587278366,0.008780036121606827
1782836463017224400,1.257224365234375,0.008653951808810234,0.006556757725775242,0.02433076687157154
1782836463027153400,1.2671533203125,0.0003829607740044594,0.014533019624650478,0.02285333350300789
1782836463037082400,1.277082275390625,-0.0015595490112900734,0.026511117815971375,0.012909622862935066
1782836463047012600,1.2870126953125,-0.004435240291059017,0.03478619083762169,0.004378276877105236
1782836463056941600,1.296941650390625,-0.00028337258845567703,0.022546567022800446,-0.00030143000185489655
1782836463066870500,1.30687060546875,0.009828215464949608,0.01664876937866211,0.0015906644985079765
1782836463076799500,1.316799560546875,0.015711404383182526,0.006526893004775047,0.017570430412888527
1782836463086728400,1.326728515625,0.010795209556818008,0.006491472944617271,0.03785786032676697
1782836463096657400,1.336657470703125,0.004482718650251627,0.006350059062242508,0.04303184896707535
1782836463106586400,1.34658642578125,-0.0011942163109779358,0.0043413955718278885,0.038887910544872284
1782836463116516400,1.356516357421875,0.0051406449638307095,-0.0007106214761734009,0.028741534799337387
1782836463126445600,1.366445556640625,0.009112042374908924,-0.013060764409601688,0.002308310940861702
1782836463136374500,1.37637451171875,0.011450031772255898,-0.02368757501244545,-0.011985140852630138
1782836463146303500,1.386303466796875,0.013502046465873718,-0.023646455258131027,-0.032150786370038986
1782836463156232400,1.396232421875,0.010255652479827404,-0.01992388814687729,-0.042558684945106506
1782836463166161700,1.40616162109375,0.00846791546791792,-0.0074282679706811905,-0.04404725506901741
1782836463176091400,1.41609130859375,0.004097402095794678,0.005481671541929245,-0.028722628951072693
1782836463186020400,1.426020263671875,-0.0001874985173344612,0.01818510890007019,0.0003129616379737854
1782836463195949600,1.435949462890625,0.00044446997344493866,0.018403753638267517,0.03206370025873184
1782836463205878500,1.44587841796875,-0.002720024436712265,0.01441631093621254,0.03518391773104668
1782836463215807500,1.455807373046875,-0.0021921852603554726,0.01068069413304329,0.016689863055944443
1782836463225736400,1.465736328125,-0.0011992668733000755,0.00344914011657238,0.001049097627401352
1782836463235665700,1.475665771484375,-0.0014453427866101265,-0.007109759841114283,-0.0011914195492863655
1782836463245595400,1.485595458984375,0.002143147401511669,-0.009256912395358086,-0.007048249710351229
1782836463255524400,1.4955244140625,-0.0020260317251086235,-0.004501039162278175,-0.009454416111111641
1782836463265453600,1.50545361328125,-0.0006479043513536453,0.0002974262461066246,-0.004032204858958721
1782836463275382500,1.515382568359375,0.0013768970966339111,0.0008609509095549583,0.009267088025808334
1782836463285311500,1.5253115234375,0.0010689254850149155,0.00020533893257379532,0.01246038917452097
1782836463295240400,1.535240478515625,0.006315885577350855,0.005009148269891739,0.004864787682890892
1782836463305170400,1.54517041015625,-0.000026153400540351868,-0.004375929944217205,-0.005036135669797659
1782836463315099400,1.555099365234375,-0.004210245795547962,-0.0016989205032587051,-0.021651331335306168
1782836463325028400,1.5650283203125,-0.0013096136972308159,-0.0008806204423308372,-0.023981668055057526
1782836463334957300,1.574957275390625,0.0022518308833241463,-0.008729754947125912,-0.011103952303528786
1782836463344886500,1.584886474609375,0.004086329136043787,-0.013749821111559868,0.007430882193148136
1782836463354815700,1.594815673828125,0.004879152402281761,-0.012380690313875675,0.01717219315469265
1782836463364744700,1.60474462890625,-0.0013192873448133469,-0.010257214307785034,0.004872607067227364
1782836463374674700,1.6146748046875,0.003886660560965538,-0.000849064439535141,-0.025438427925109863
1782836463384603600,1.624603759765625,0.008649582043290138,-0.004528862424194813,-0.036544397473335266
1782836463394532600,1.63453271484375,0.013606789521872997,-0.02048652246594429,-0.03463783860206604
1782836463404461600,1.644461669921875,0.021173639222979546,-0.02227093279361725,-0.0243445485830307
1782836463414390800,1.654390869140625,0.023655172437429428,-0.024169769138097763,-0.013000279664993286
1782836463424319700,1.66431982421875,0.019045822322368622,-0.01977757178246975,0.006240068003535271
1782836463434249700,1.674249755859375,0.0013733524829149246,-0.009589383378624916,0.019432835280895233
1782836463444179000,1.684178955078125,-0.00686806533485651,0.0010590003803372383,0.02283848449587822
1782836463454107600,1.694107666015625,-0.002735905349254608,-0.0032774247229099274,0.01850738748908043
1782836463464036600,1.70403662109375,0.011982778087258339,0.0026918184012174606,-0.01212252490222454
1782836463473965600,1.713965576171875,0.027006469666957855,0.00599493645131588,-0.03288453072309494
1782836463483894800,1.723894775390625,0.032393600791692734,-0.0037555107846856117,-0.028752688318490982
1782836463493823700,1.73382373046875,0.01997927576303482,-0.02157658524811268,-0.002144779544323683
1782836463503753700,1.743753662109375,-0.00786596816033125,-0.014308189041912556,0.008673817850649357
1782836463513682700,1.7536826171875,-0.013579779304564,-0.019857151433825493,0.006812267936766148
1782836463523612000,1.76361181640625,-0.012094779871404171,-0.030615441501140594,0.010464082472026348
1782836463533540600,1.77354052734375,-0.005909056402742863,-0.013349104672670364,0.011427880264818668
1782836463543469600,1.783469482421875,0.0066366675309836864,-0.008742023259401321,-0.000893911812454462
1782836463553398500,1.7933984375,0.013391243293881416,-0.0005035344511270523,0.0005468586459755898
1782836463563328800,1.803328857421875,0.011476237326860428,0.0005635637789964676,0.006614704616367817
1782836463573257700,1.8132578125,0.00738082779571414,-0.00600805226713419,0.006517232395708561
1782836463583186700,1.823186767578125,0.0006286837160587311,-0.0033347932621836662,0.01245953980833292
1782836463593116000,1.833115966796875,-0.0073823705315589905,-0.0006079832091927528,0.023477036505937576
1782836463603044900,1.843044921875,-0.01777445524930954,0.002621445804834366,0.027504660189151764
1782836463612973600,1.8529736328125,-0.020798474550247192,0.01299339346587658,0.014767558313906193
1782836463622903800,1.86290380859375,-0.016173992305994034,0.01154699269682169,-0.0030824649147689342
1782836463632832800,1.872832763671875,-0.004581785760819912,0.011924096383154392,-0.014914357103407383
1782836463642761700,1.88276171875,-0.0027658184990286827,0.004115105606615543,-0.01207449845969677
1782836463652690700,1.892690673828125,0.00669692549854517,0.003765699453651905,-0.006558293476700783
1782836463662620000,1.902619873046875,0.006382975727319717,0.0036701196804642677,0.0016977060586214066
1782836463672548900,1.912548828125,0.0034819943830370903,0.00434443075209856,0.015115243382751942
1782836463682477800,1.922477783203125,-0.008008239790797234,0.006315581500530243,0.018284115940332413
1782836463692407600,1.932407470703125,-0.011829610913991928,0.004670547321438789,0.012990551069378853
1782836463702336800,1.942336669921875,-0.010827277787029743,0.004684836603701115,-0.0060561830177903175
1782836463712265700,1.952265625,-0.009110870771110058,-0.007508446928113699,-0.02896895632147789
1782836463722194700,1.962194580078125,-0.00579875148832798,-0.020067354664206505,-0.03583250194787979
1782836463732123600,1.97212353515625,-0.004032809287309647,-0.025918586179614067,-0.03197358176112175
1782836463742052900,1.982052978515625,-0.00680715125054121,-0.013887380249798298,-0.026450127363204956
1782836463751982600,1.991982666015625,-0.012651990167796612,0.004680977202951908,-0.02641391009092331
1782836463761911600,2.00191162109375,-0.005130227655172348,0.009043047204613686,-0.013414116576313972
1782836463771840800,2.0118408203125,0.0011774692684412003,0.003517521545290947,0.0015451246872544289
1782836463781769700,2.021769775390625,-0.0013797404244542122,0.006559582427144051,-0.0003863372839987278
1782836463791698700,2.03169873046875,-0.0008702781051397324,-0.0010256320238113403,-0.015441186726093292
1782836463801627600,2.041627685546875,-0.0055569810792803764,0.0014178957790136337,-0.02636616677045822
1782836463811556900,2.051556884765625,-0.00563607644289732,0.007788710296154022,-0.024303283542394638
1782836463821486600,2.061486572265625,-0.004856497049331665,-0.00005171447992324829,-0.021227169781923294
1782836463831415600,2.07141552734375,-0.0035667289048433304,-0.009336292743682861,-0.010928460396826267
1782836463841344800,2.0813447265625,-0.0023030582815408707,-0.0023577455431222916,-0.005502802319824696
1782836463851273700,2.091273681640625,-0.0014891969040036201,-0.005461127031594515,-0.019852448254823685
1782836463861202700,2.10120263671875,0.0032634688541293144,-0.013525880873203278,-0.02699708566069603
1782836463871131600,2.111131591796875,0.008014814928174019,-0.015536833554506302,-0.022651072591543198
1782836463881062000,2.121061767578125,0.004361757077276707,-0.014987423084676266,-0.018858464434742928
1782836463890990800,2.130990966796875,-0.001796177588403225,-0.013203111477196217,-0.017493613064289093
1782836463900919600,2.14091943359375,-0.005095960572361946,-0.011656240560114384,-0.011537929996848106
1782836463910848500,2.1508486328125,-0.005577992647886276,-0.01768030971288681,-0.00330183794721961
1782836463920777700,2.16077783203125,0.006627475842833519,-0.02187998965382576,-0.00035234494134783745
1782836463930706700,2.170706787109375,0.015688881278038025,-0.013707281090319157,0.00024446938186883926
1782836463940635600,2.1806357421875,0.008635036647319794,0.0022910479456186295,-0.001966058276593685
1782836463950566000,2.19056591796875,0.0027979211881756783,0.013886450789868832,-0.009868189692497253
1782836463960494800,2.200494873046875,0.0001888275146484375,0.022419076412916183,-0.013323668390512466
1782836463970423800,2.210423828125,-0.0017491541802883148,0.024063844233751297,-0.017229195684194565
1782836463980352800,2.220352783203125,-0.0017997929826378822,0.01373075507581234,-0.01625627651810646
1782836463990281700,2.23028173828125,0.0018522003665566444,0.005653919652104378,-0.0057016354985535145
1782836464000210700,2.240210693359375,-0.0014466745778918266,-0.011343919672071934,0.005917889066040516
1782836464010140700,2.250140625,-0.008154644630849361,-0.01484411209821701,0.009750177152454853
1782836464020069600,2.260069580078125,-0.004992863163352013,-0.003996024839580059,0.006629051640629768
1782836464029998800,2.269998779296875,-0.0011680303141474724,-0.00523759052157402,-0.002078685909509659
1782836464039927800,2.279927734375,0.00395382521674037,-0.0030483324080705643,-0.0032936623319983482
1782836464049856800,2.289856689453125,0.006971719209104776,-0.002744731493294239,-0.0063328612595796585
1782836464059785700,2.29978564453125,0.00788633618503809,-0.0013030264526605606,-0.014070134609937668
1782836464069715700,2.3097158203125,-0.0004656035453081131,-0.002864438109099865,-0.003137592226266861
1782836464079644700,2.319644775390625,-0.007056606002151966,0.005639273673295975,0.012406262569129467
1782836464089573600,2.32957373046875,-0.0031846370548009872,0.005038198083639145,0.022953443229198456
1782836464099502800,2.3395029296875,0.0038139987736940384,-0.00206020288169384,0.027013998478651047
1782836464109431800,2.349431884765625,0.0021812142804265022,-0.006122322753071785,0.013122152537107468
1782836464119360800,2.35936083984375,0.002774610184133053,-0.0011895466595888138,-0.011167602613568306
1782836464129290800,2.369290771484375,0.007215164601802826,0.003051537089049816,-0.028119955211877823
1782836464139219700,2.3792197265625,0.008877439424395561,-0.0039282627403736115,-0.0169963575899601
1782836464149148700,2.389148681640625,0.0030991779640316963,-0.010861270129680634,-0.00175508763641119
1782836464159077600,2.39907763671875,-0.004020852968096733,-0.004997975192964077,0.008561835624277592
1782836464169006800,2.4090068359375,-0.009041444398462772,0.0023992210626602173,-0.004792318679392338
1782836464178935800,2.418935791015625,-0.006773972883820534,0.002040199004113674,-0.007342514116317034
1782836464188864800,2.42886474609375,-0.00464317761361599,-0.00427442230284214,-0.0010268278419971466
1782836464198794500,2.43879443359375,-0.0020853374153375626,-0.01785111054778099,0.0049762604758143425
1782836464208723700,2.4487236328125,-0.00011486466974020004,-0.011178027838468552,0.0007823146879673004
1782836464218652700,2.458652587890625,0.0067144581116735935,-0.00003922637552022934,-0.006769087165594101
1782836464228581600,2.46858154296875,0.009916109964251518,0.0036559095606207848,-0.009494033642113209
1782836464238510600,2.478510498046875,0.010698452591896057,0.004565746523439884,0.0035943910479545593
1782836464248439800,2.488439697265625,0.011343736201524734,0.006032614968717098,0.009927388280630112
1782836464258369800,2.498369873046875,0.006009634584188461,0.010166794061660767,0.009026686660945415
1782836464268298800,2.508298828125,-0.0009894194081425667,0.019128864631056786,-0.00684815039858222
1782836464278227700,2.518227783203125,-0.005177061073482037,0.020180409774184227,-0.007937924936413765
1782836464288156700,2.52815673828125,-0.00044808536767959595,0.006114659830927849,0.006241277791559696
1782836464298085600,2.538085693359375,0.002127021551132202,-0.003481735475361347,0.011581101454794407
1782836464308014600,2.5480146484375,0.0009019672870635986,-0.010099956765770912,0.0028280895203351974
1782836464317944800,2.55794482421875,0.008695611730217934,-0.021538008004426956,-0.013670645654201508
1782836464327873800,2.567873779296875,0.012718848884105682,-0.019681517034769058,-0.019544512033462524
1782836464337802800,2.577802734375,0.017381444573402405,-0.01234092190861702,-0.02182307094335556
1782836464347731500,2.5877314453125,0.005904285702854395,-0.013410979881882668,-0.012143813073635101
1782836464357660400,2.597660400390625,0.00001773238182067871,-0.002785993739962578,0.00010904483497142792
1782836464367589000,2.607589111328125,-0.0006938641890883446,0.0014172736555337906,-0.003973847255110741
1782836464377518300,2.617518310546875,0.00777280330657959,0.015721406787633896,-0.007065293844789267
1782836464387448300,2.6274482421875,0.01313161663711071,0.020049311220645905,-0.007703653536736965
1782836464397377300,2.637377197265625,0.015263712033629417,0.020296018570661545,-0.007134230807423592
1782836464407306200,2.64730615234375,0.0068558454513549805,0.02007444202899933,-0.0047815944999456406
1782836464417235500,2.6572353515625,-0.002916906960308552,0.007410367950797081,-0.007962054572999477
1782836464427164400,2.667164306640625,-0.004483378492295742,0.012971313670277596,-0.013768278993666172
1782836464437093400,2.67709326171875,0.0055304341949522495,-0.005681183189153671,-0.015452209860086441
1782836464447023400,2.6870234375,0.010261006653308868,-0.009269259870052338,-0.004304750822484493
1782836464456952300,2.696952392578125,0.01386936567723751,-0.009363468736410141,0.003901919350028038
1782836464466881300,2.70688134765625,0.0064705717377364635,-0.005561539903283119,0.0053546736016869545
1782836464476810200,2.716810302734375,0.0008451985195279121,-0.0010498017072677612,0.0007355054840445518
1782836464486739500,2.726739501953125,0.002505413256585598,-0.0026887105777859688,0.007731097750365734
1782836464496668400,2.73666845703125,0.009258032776415348,-0.020619239658117294,0.014772780239582062
1782836464506597400,2.746597412109375,0.014352126978337765,-0.013060390017926693,0.01824048161506653
1782836464516527400,2.75652734375,0.008131628856062889,-0.014325134456157684,0.011698459275066853
1782836464526456300,2.766456298828125,-0.0006429543718695641,-0.00936819240450859,0.010095502249896526
1782836464536385300,2.77638525390625,-0.0021423464640975,-0.0007525002583861351,0.012421013787388802
1782836464546314200,2.786314208984375,0.0008198879659175873,0.0014621848240494728,0.007448360323905945
1782836464556243500,2.796243408203125,0.009752636775374413,0.001857011578977108,0.0019310647621750832
1782836464566172400,2.80617236328125,0.01515432633459568,-0.00028150714933872223,0.005385184660553932
1782836464576102100,2.81610205078125,0.015148804523050785,0.001539483666419983,0.006899353116750717
1782836464586031000,2.826031005859375,0.009445378556847572,0.005043137818574905,0.003624997101724148
1782836464595960300,2.835960205078125,0.008413853123784065,0.007265724241733551,-0.008236793801188469
1782836464605889300,2.84588916015625,0.007635944057255983,-0.002647360786795616,-0.008429872803390026
1782836464615818200,2.855818359375,0.010350237600505352,-0.010829390957951546,0.007270260713994503
1782836464625747200,2.865747314453125,0.004220440052449703,-0.00790710374712944,0.019712816923856735
1782836464635677400,2.875677490234375,0.002415974624454975,-0.013975922018289566,0.016713012009859085
1782836464645606400,2.8856064453125,0.0030990755185484886,-0.006206948310136795,0.009165613912045956
1782836464655535000,2.89553515625,0.013693570159375668,-0.003804238513112068,0.013695935718715191
1782836464665464300,2.90546435546875,0.02493690326809883,-0.0012055253610014915,0.02533954381942749
1782836464675393300,2.915393310546875,0.02766968309879303,0.006102129817008972,0.033059872686862946
1782836464685322200,2.925322265625,0.025425437837839127,0.0036309827119112015,0.030291784554719925
1782836464695251200,2.935251220703125,0.018340373411774635,0.003003183752298355,0.007667342200875282
1782836464705181400,2.945181396484375,0.011179933324456215,-0.004416915588080883,0.006550412625074387
1782836464715110400,2.9551103515625,0.0010960744693875313,-0.011890956200659275,0.008298288099467754
1782836464725039400,2.965039306640625,0.0005216309800744057,-0.012309605255723,-0.00129734817892313
1782836464734968000,2.974968017578125,0.003569548949599266,-0.006868154276162386,-0.009240653365850449
1782836464744897300,2.984897216796875,0.005486758425831795,-0.010282326489686966,-0.010507785715162754
1782836464754826200,2.994826171875,0.01083659753203392,-0.0014690374955534935,-0.01328619010746479
1782836464764756200,3.004756103515625,0.007559311110526323,0.0023262333124876022,-0.006134803406894207
1782836464774685400,3.014685546875,0.0006462819874286652,0.003704998642206192,0.003043718636035919
1782836464784614400,3.024614501953125,-0.008811667561531067,0.0069402065128088,0.003533206880092621
1782836464794543400,3.03454345703125,-0.004950986243784428,0.004905997775495052,0.006998656317591667
1782836464804472300,3.044472412109375,-0.002184760756790638,0.012360717169940472,0.002785269170999527
1782836464814401300,3.0544013671875,0.0035053808242082596,0.019750887528061867,0.007318730466067791
1782836464824330200,3.064330322265625,0.00016417913138866425,0.023371988907456398,0.012688196264207363
1782836464834260200,3.07426025390625,-0.000626702792942524,0.012826718389987946,0.02331380918622017
1782836464844189400,3.084189453125,0.002117418684065342,0.009090304374694824,0.029849473387002945
1782836464854118400,3.094118408203125,0.005889302585273981,-0.0001624738797545433,0.032515108585357666
1782836464864047400,3.10404736328125,0.0062823849730193615,-0.006124758627265692,0.02429073303937912
1782836464873976300,3.113976318359375,0.009224471636116505,-0.009861176833510399,0.004746573977172375
1782836464883905500,3.123905517578125,0.016235776245594025,0.000020215287804603577,-0.016778424382209778
1782836464893835300,3.133835205078125,0.016123522073030472,0.00795716978609562,-0.02401142567396164
1782836464903764200,3.14376416015625,0.0029797563329339027,0.0034447088837623596,-0.029897011816501617
1782836464913693200,3.153693115234375,-0.006224226206541061,0.0004443535581231117,-0.03861372172832489
1782836464923622400,3.163622314453125,-0.005845258012413979,0.0031429342925548553,-0.030237281695008278
1782836464933551400,3.17355126953125,-0.0003631655126810074,-0.007383196614682674,-0.01328258402645588
1782836464943480300,3.183480224609375,0.0013790745288133621,-0.0018973508849740028,0.01698237657546997
1782836464953410300,3.193410400390625,0.003262178972363472,0.008104915730655193,0.038788460195064545
1782836464963339300,3.20333935546875,0.0012285886332392693,0.008034874685108662,0.031136132776737213
1782836464973268200,3.213268310546875,0.0013085519894957542,0.018247168511152267,0.007809992879629135
1782836464983197200,3.223197265625,-0.003151710145175457,0.01941549777984619,-0.004737489856779575
1782836464993126400,3.23312646484375,-0.007687956094741821,0.002409794367849827,-0.003416101448237896
1782836465003055400,3.243055419921875,-0.005883930251002312,-0.010195213370025158,0.008935640566051006
1782836465012984300,3.252984375,0.004723804537206888,-0.0068600974045693874,0.021764539182186127
1782836465022914300,3.262914306640625,0.006287878844887018,-0.003747660666704178,0.02737928181886673
1782836465032843300,3.27284326171875,0.003092559054493904,0.005786438472568989,0.026859713718295097
1782836465042772200,3.282772216796875,-0.002144280821084976,0.015773292630910873,0.021977871656417847
1782836465052701200,3.292701171875,0.0010438766330480576,0.01842833310365677,0.012013929896056652
1782836465062630400,3.30263037109375,0.005345414392650127,0.00396763626486063,0.007108121179044247
1782836465072559400,3.312559326171875,0.010327334515750408,-0.005923315417021513,0.01218379382044077
1782836465082489300,3.3224892578125,0.004854538477957249,-0.016016695648431778,0.0079751992598176
1782836465092418300,3.332418212890625,0.001448003575205803,-0.015156364999711514,-0.00740882707759738
1782836465102347300,3.34234716796875,0.0003755483776330948,-0.010045493021607399,-0.009428301826119423
1782836465112276200,3.352276123046875,0.0020553283393383026,-0.004362680949270725,-0.0044834003783762455
1782836465122205200,3.362205078125,-0.002491486258804798,0.003872878849506378,-0.007997707463800907
1782836465132134100,3.372134033203125,0.0010576928034424782,0.017261972650885582,-0.013651179149746895
1782836465142063400,3.3820634765625,0.010677563026547432,0.01797703094780445,-0.00646384060382843
1782836465151993300,3.391993408203125,0.009645435027778149,0.013300507329404354,0.008454952389001846
1782836465161922300,3.40192236328125,0.003624027594923973,0.011404338292777538,0.01762821152806282
1782836465171851500,3.4118515625,0.011668768711388111,0.015334302559494972,0.0104990778490901
1782836465181780200,3.4217802734375,0.011099917814135551,0.01122531108558178,-0.0029080742970108986
1782836465191709200,3.431709228515625,0.0015349630266427994,0.002648039720952511,-0.007990670390427113
1782836465201638100,3.44163818359375,-0.007584764622151852,-0.0017176810652017593,-0.012394473887979984
1782836465211568400,3.451568359375,0.0008647982031106949,-0.0037909401580691338,-0.007553412578999996
1782836465221497300,3.461497314453125,0.006115753203630447,-0.0024050315842032433,0.0039194850251078606
1782836465231426300,3.47142626953125,-0.00111347995698452,-0.00892800185829401,0.004563632421195507
1782836465241355500,3.48135546875,0.0004742974415421486,-0.005101039540022612,0.005680561996996403
1782836465251284500,3.491284423828125,0.0032118624076247215,-0.0025029536336660385,0.010431799106299877
1782836465261213200,3.501213134765625,0.008972812443971634,-0.0038941893726587296,0.005820536054670811
1782836465271142100,3.51114208984375,0.008608530275523663,-0.0030851848423480988,-0.007047958206385374
1782836465281072400,3.521072265625,0.008243943564593792,0.0016206204891204834,-0.016651850193738937
1782836465291001300,3.53100146484375,-0.001083260402083397,0.004534169100224972,-0.016074590384960175
1782836465300930300,3.540930419921875,0.0010906783863902092,0.013514081947505474,-0.006399859674274921
1782836465310859300,3.550859375,-0.0010694824159145355,0.01034819521009922,0.01929628662765026
1782836465320788500,3.56078857421875,0.002573189325630665,0.001852978952229023,0.032607562839984894
1782836465330717400,3.570717529296875,-0.002742791548371315,-0.003070741891860962,0.01985754258930683
1782836465340647200,3.580647216796875,-0.003272494301199913,0.007551542483270168,0.00613001361489296
1782836465350577200,3.5905771484375,-0.008552237413823605,0.006164981052279472,-0.0012059533037245274
1782836465360506400,3.60050634765625,0.001017564907670021,-0.0022703157737851143,-0.0025178263895213604
1782836465370435300,3.610435302734375,0.004932260140776634,0.003971856087446213,0.008454428985714912
1782836465380364300,3.6203642578125,0.0027061235159635544,0.010056380182504654,0.010032884776592255
1782836465390293200,3.630293212890625,-0.0019506514072418213,0.016435571014881134,0.017499348148703575
1782836465400222200,3.64022216796875,-0.004452425986528397,0.02189025655388832,0.0262499637901783
1782836465410152200,3.650152099609375,-0.003984410315752029,0.01584465242922306,0.02826802432537079
1782836465420081200,3.6600810546875,-0.012658591382205486,0.0064530149102211,0.01779913902282715
1782836465430010400,3.67001025390625,-0.008844652213156223,-0.007833126932382584,-0.005011610686779022
1782836465439939300,3.679939208984375,-0.0011419923976063728,-0.021394476294517517,-0.024890508502721786
1782836465449868300,3.689868408203125,-0.0025545870885252953,-0.040567874908447266,-0.027912180870771408
1782836465459797200,3.69979736328125,-0.0003905016928911209,-0.049352310597896576,-0.024869784712791443
1782836465469727200,3.709727294921875,0.0020244354382157326,-0.04300887882709503,-0.022207271307706833
1782836465479656200,3.71965625,-0.0016280896961688995,-0.033695269376039505,-0.010278971865773201
1782836465489585200,3.729585205078125,-0.00580613873898983,-0.014570934697985649,-0.00672079436480999
1782836465499514000,3.73951416015625,-0.011658167466521263,0.014895344153046608,-0.013590684160590172
1782836465509443300,3.749443359375,-0.019095730036497116,0.025029728189110756,-0.011175964027643204
1782836465519372300,3.759372314453125,-0.01834844797849655,0.025431865826249123,0.0011496776714920998
1782836465529302000,3.769302001953125,-0.017381077632308006,0.004727594554424286,0.002546868287026882
1782836465539231200,3.779231201171875,-0.014178359881043434,-0.007995391264557838,-0.008194992318749428
1782836465549160200,3.78916015625,-0.012526711449027061,-0.017428908497095108,-0.0258265882730484
1782836465559089200,3.799089111328125,-0.01077568344771862,-0.018777266144752502,-0.033430710434913635
1782836465569018000,3.80901806640625,-0.008335989899933338,-0.015391443856060505,-0.025595981627702713
1782836465578947300,3.818947265625,-0.002934832125902176,-0.011880066245794296,-0.002082133200019598
1782836465588876300,3.828876220703125,0.005140514113008976,0.0014607198536396027,0.011443890631198883
1782836465598806000,3.838805908203125,0.0066119106486439705,0.011227861978113651,0.026557598263025284
1782836465608735200,3.8487353515625,-0.003714463673532009,0.0031575821340084076,0.03900890052318573
1782836465618664200,3.858664306640625,-0.01078701950609684,-0.002576736733317375,0.029884111136198044
1782836465628593200,3.86859326171875,-0.006556393578648567,-0.00827182736247778,0.0021431325003504753
1782836465638522000,3.878522216796875,-0.006097264587879181,-0.014684719033539295,-0.018583983182907104
1782836465648451300,3.888451416015625,-0.0032346174120903015,-0.01242933887988329,-0.02085021883249283
1782836465658381300,3.89838134765625,-0.001492910087108612,-0.012114020995795727,-0.022410299628973007
1782836465668310300,3.908310302734375,-0.000967537984251976,-0.014362715184688568,-0.023092761635780334
1782836465678239200,3.9182392578125,-0.002002974972128868,-0.002988354302942753,-0.020703107118606567
1782836465688168200,3.928168212890625,-0.004912295378744602,0.0034036776050925255,-0.018881842494010925
1782836465698097200,3.93809716796875,-0.00802766066044569,0.004777601920068264,-0.0076337167993187904
1782836465708026000,3.948026123046875,-0.0074243564158678055,0.0011006146669387817,-0.010991510935127735
1782836465717955000,3.957955078125,-0.007556449621915817,-0.0009106043726205826,-0.032394006848335266
1782836465727885300,3.96788525390625,-0.007961812429130077,0.004994305782020092,-0.03451736643910408
1782836465737814300,3.977814208984375,-0.013652187772095203,0.00006559304893016815,-0.02247455343604088
1782836465747743200,3.9877431640625,-0.009491967968642712,-0.0021464386954903603,-0.0049965111538767815
1782836465757672200,3.997672119140625,-0.002580799162387848,-0.000936564989387989,0.004893403500318527
1782836465767601200,4.00760107421875,0.0009024078026413918,-0.0028598811477422714,-0.0036399108357727528
1782836465777530000,4.017530029296875,-0.0028201593086123466,0.0018507177010178566,-0.020314760506153107
1782836465787459000,4.027458984375,-0.0033187028020620346,0.017231272533535957,-0.019755231216549873
1782836465797389300,4.037389404296875,-0.0030356086790561676,0.017340727150440216,-0.007051420398056507
1782836465807318300,4.047318359375,0.0023490749299526215,0.008682014420628548,0.004186253994703293
1782836465817247200,4.057247314453125,0.006879378110170364,-0.0030255084857344627,0.00281685683876276
1782836465827176400,4.067176513671875,0.011120615527033806,-0.007634628098458052,-0.015068167820572853
1782836465837105200,4.077105224609375,0.00541346101090312,-0.005306492559611797,-0.031042074784636497
1782836465847034000,4.0870341796875,0.004567379131913185,-0.0004059653729200363,-0.03864679113030434
1782836465856964000,4.096964111328125,0.006170868407934904,0.0008145608007907867,-0.03175266832113266
1782836465866893300,4.106893310546875,0.0014908257871866226,-0.004506356082856655,-0.009501320309937
1782836465876822300,4.116822265625,0.006543108262121677,0.0035228077322244644,0.009982899762690067
1782836465886751200,4.126751220703125,0.007268904242664576,0.017641697078943253,0.019456572830677032
1782836465896680200,4.13668017578125,0.0022544385865330696,0.018151160329580307,0.016211774200201035
1782836465906609400,4.146609375,-0.004329230636358261,0.019344866275787354,0.004348030313849449
1782836465916539100,4.1565390625,-0.004484493285417557,0.015925101935863495,-0.0061296443454921246
1782836465926468000,4.166468017578125,0.0031102942302823067,0.008177215233445168,-0.013135735876858234
1782836465936397300,4.176397216796875,-0.00213533453643322,0.006123386323451996,-0.017560578882694244
1782836465946326300,4.186326171875,0.005829312838613987,0.008390932343900204,-0.014578860253095627
1782836465956255200,4.196255126953125,0.00009526126086711884,0.007562956772744656,-0.009491424076259136
1782836465966184200,4.20618408203125,-0.0033247359097003937,0.010150985792279243,-0.013026241213083267
1782836465976113400,4.216113525390625,-0.0017108600586652756,0.01771729253232479,-0.009561468847095966
1782836465986043100,4.226043212890625,-0.0039552953094244,0.013255933299660683,-0.004131450317800045
1782836465995972000,4.23597216796875,-0.0009003831073641777,0.008941877633333206,-0.00073219183832407
1782836466005901300,4.2459013671875,0.0035769063979387283,0.01299365982413292,0.007314702495932579
1782836466015830300,4.255830322265625,0.001957172527909279,0.004236919805407524,0.01306446734815836
1782836466025759200,4.26575927734375,0.009872185066342354,0.0022720806300640106,0.01926635578274727
1782836466035688200,4.275688232421875,0.011575010605156422,-0.006579201202839613,0.007374010048806667
1782836466045618200,4.2856181640625,0.009597095660865307,-0.017922719940543175,-0.012951653450727463
1782836466055547100,4.295547119140625,0.012128696776926517,-0.006796033587306738,-0.03273547813296318
1782836466065476000,4.30547607421875,0.004640111234039068,0.0000743204727768898,-0.039604708552360535
1782836466075405000,4.315405029296875,-0.0003913985565304756,0.007415857166051865,-0.02176232822239399
1782836466085334300,4.325334228515625,0.002552933059632778,0.016292156651616096,-0.007818534970283508
1782836466095263200,4.33526318359375,0.0019409386441111565,0.015388546511530876,0.006936176680028439
1782836466105192200,4.345192138671875,-0.0006855372339487076,0.00979123916476965,0.006412374787032604
1782836466115122400,4.355122314453125,-0.005074427463114262,0.0028638243675231934,-0.007616358809173107
1782836466125051100,4.365051025390625,0.000726848840713501,-0.0053925164975225925,-0.01365983672440052
1782836466134980000,4.37497998046875,0.008411666378378868,-0.01369971502572298,-0.01242785807698965
1782836466144909000,4.384908935546875,0.01258155982941389,-0.01482503954321146,-0.016074268147349358
1782836466154838300,4.39483837890625,0.004455456510186195,-0.012711022049188614,-0.014183157123625278
1782836466164767200,4.404767333984375,0.0011574821546673775,-0.010414439253509045,-0.0012369891628623009
1782836466174696200,4.4146962890625,-0.0014279140159487724,-0.0036766417324543,0.009692356921732426
1782836466184626200,4.424626220703125,-0.0018856553360819817,0.0033183861523866653,0.028145715594291687
1782836466194555400,4.434555419921875,-0.0044012777507305145,0.005700318142771721,0.029515113681554794
1782836466204484400,4.444484375,0.0024751992896199226,0.0030058100819587708,0.01909080520272255
1782836466214413000,4.4544130859375,0.008813789114356041,0.0028058066964149475,0.003953930921852589
1782836466224342000,4.464342041015625,0.002490488812327385,0.000270686112344265,-0.0022788355126976967
1782836466234271200,4.474271240234375,-0.0015998603776097298,0.005840154364705086,-0.009564178995788097
1782836466244201200,4.484201171875,0.0035051582381129265,-0.00561165576800704,0.004772086627781391
1782836466254130200,4.494130126953125,0.001775967888534069,-0.01266956515610218,0.017215173691511154
1782836466264059400,4.504059326171875,0.005691527388989925,-0.0054301670752465725,0.020982205867767334
1782836466273988400,4.51398828125,0.004824135918170214,0.0045969001948833466,0.024537526071071625
1782836466283917300,4.523917236328125,-0.003592166118323803,0.009278611280024052,0.02008765935897827
1782836466293846000,4.533845947265625,-0.002227029763162136,0.0032175229862332344,0.014334965497255325
1782836466303776300,4.5437763671875,-0.002236323431134224,0.0034892819821834564,0.001103338785469532
1782836466313705200,4.553705322265625,-0.007552258670330048,-0.000052454881370067596,-0.016490302979946136
1782836466323634200,4.56363427734375,-0.0014204289764165878,-0.0012746192514896393,-0.023380618542432785
1782836466333563400,4.5735634765625,0.0027588699012994766,-0.0003065606579184532,-0.012508528307080269
1782836466343492400,4.583492431640625,-0.0020021330565214157,-0.00529777817428112,0.008087399415671825
1782836466353421600,4.593421630859375,-0.006699683144688606,-0.002816511318087578,0.017082225531339645
1782836466363350300,4.603350341796875,-0.0036946702748537064,-0.0030029714107513428,0.014772280119359493
1782836466373280500,4.613280517578125,0.000675576739013195,-0.0011326335370540619,0.012443345971405506
1782836466383209500,4.62320947265625,0.0025269510224461555,0.001221897080540657,0.015662260353565216
1782836466393138400,4.633138427734375,0.0024513164535164833,-0.009128477424383163,0.009865892119705677
1782836466403067400,4.6430673828125,-0.004788137041032314,-0.011107385158538818,-0.015866830945014954
1782836466412996600,4.65299658203125,-0.0030504250898957253,-0.01240567583590746,-0.017014387995004654
1782836466422925600,4.662925537109375,-0.00045890267938375473,-0.020230840891599655,0.005081326700747013
1782836466432854500,4.6728544921875,0.001796838827431202,-0.011778165586292744,0.025205109268426895
1782836466442784300,4.6827841796875,0.006191291846334934,0.00046693161129951477,0.023819440975785255
1782836466452713500,4.69271337890625,0.002651151269674301,0.004277915693819523,0.021459350362420082
1782836466462642400,4.702642333984375,-0.006446981802582741,0.004896371625363827,0.012682454660534859
1782836466472571400,4.7125712890625,-0.0019441088661551476,0.009752378799021244,-0.004123422782868147
1782836466482500400,4.722500244140625,-0.007658986374735832,0.005385859869420528,-0.006316269747912884
1782836466492429600,4.7324296875,-0.012371450662612915,-0.010538778267800808,-0.0004914039745926857
1782836466502359300,4.742359375,-0.004536956548690796,-0.009819410741329193,-0.007601040881127119
1782836466512288300,4.752288330078125,0.0017350530251860619,-0.008720590732991695,-0.02416643500328064
1782836466522217500,4.762217529296875,-0.00040472764521837234,-0.01080512534826994,-0.020003220066428185
1782836466532146400,4.772146484375,-0.0006691794842481613,-0.003128829412162304,-0.0095061045140028
1782836466542075400,4.782075439453125,-0.0002993214875459671,0.008244231343269348,0.006999053992331028
1782836466552004400,4.79200439453125,0.0020314771682024,0.018464643508195877,0.01866370067000389
1782836466561933600,4.80193359375,-0.009916095994412899,0.020580168813467026,0.023747019469738007
1782836466571863300,4.81186328125,-0.00877679605036974,0.01533507276326418,0.02611217275261879
1782836466581792300,4.821792236328125,-0.004090571776032448,0.006147591397166252,0.027646096423268318
1782836466591721500,4.831721435546875,0.003645910881459713,-0.008414838463068008,0.024151230230927467
1782836466601650400,4.841650390625,0.003888358362019062,-0.015198354609310627,0.01343266386538744
1782836466611579400,4.851579345703125,0.005346439313143492,-0.01614670641720295,-0.0021569491364061832
1782836466621508400,4.86150830078125,0.005339233670383692,-0.0065672677010297775,-0.012165755033493042
1782836466631438600,4.8714384765625,0.001595894806087017,0.0035066716372966766,-0.0171410720795393
1782836466641367600,4.881367431640625,0.006808989681303501,0.007727712392807007,-0.015365947969257832
1782836466651296300,4.891296142578125,0.002085607498884201,0.01809726282954216,-0.020392131060361862
1782836466661225200,4.90122509765625,-0.0002333046868443489,0.017304135486483574,-0.023504488170146942
1782836466671154400,4.911154541015625,0.0025174738839268684,0.015523279085755348,-0.02378518506884575
1782836466681083400,4.92108349609375,-0.005917990580201149,0.006556188687682152,-0.01767117902636528
1782836466691012400,4.931012451171875,-0.0017775744199752808,-0.00016243476420640945,-0.016505781561136246
1782836466700942600,4.940942626953125,0.004932217299938202,-0.007925616577267647,-0.00797075405716896
1782836466710871600,4.95087158203125,0.009800209663808346,-0.012215436436235905,-0.004401319194585085
1782836466720800500,4.960800537109375,0.010326213203370571,-0.00581462774425745,-0.003024502657353878
1782836466730729200,4.970729248046875,0.007677699439227581,0.0072574978694319725,0.004315169528126717
1782836466740658400,4.980658447265625,0.00835268385708332,0.00958196446299553,0.014372450299561024
1782836466750587400,4.99058740234375,0.0016503063961863518,0.005321172997355461,0.010368919931352139
1782836466760517400,5.000517333984375,-0.000690205954015255,0.014500664547085762,0.0009400546550750732
1782836466770446600,5.010446533203125,0.0045365141704678535,0.011888902634382248,-0.00040084682404994965
1782836466780375600,5.02037548828125,0.00452156038954854,0.0009574070572853088,0.00893413182348013
1782836466790304500,5.030304443359375,0.008500322699546814,-0.00705045135691762,0.01110008079558611
1782836466800233500,5.0402333984375,0.007194169331341982,-0.014870135113596916,0.001575494185090065
1782836466810162400,5.050162353515625,0.005886290688067675,-0.005995150655508041,-0.011128582991659641
1782836466820091400,5.06009130859375,-0.00042059551924467087,0.0012690545991063118,-0.008080685511231422
1782836466830021400,5.070021484375,-0.0007132776081562042,0.007886744104325771,0.005247903056442738
1782836466839950300,5.079950439453125,0.0010133208706974983,0.012053979560732841,0.016971565783023834
1782836466849879600,5.089879638671875,0.008837421424686909,0.0058125946670770645,0.020475219935178757
1782836466859808500,5.09980859375,0.015452995896339417,-0.002227005548775196,0.014503995887935162
1782836466869737500,5.109737548828125,0.020368393510580063,-0.01750795729458332,-0.0009804223664104939
1782836466879666400,5.11966650390625,0.015737561509013176,-0.01639651134610176,-0.022152762860059738
1782836466889595400,5.129595458984375,0.004501151852309704,-0.011561275459825993,-0.041682254523038864
1782836466899525400,5.139525390625,0.00007155630737543106,-0.00954124890267849,-0.04217766970396042
1782836466909454300,5.149454345703125,-0.005802311934530735,-0.012067257426679134,-0.0408807098865509
1782836466919383600,5.159383544921875,-0.0021441224962472916,-0.005128203891217709,-0.0269831083714962
1782836466929312500,5.1693125,0.0003235619515180588,0.001983768306672573,-0.01397622935473919
1782836466939241500,5.179241455078125,-0.00003635697066783905,0.004940783604979515,-0.014700551517307758
1782836466949170400,5.18917041015625,0.007132073864340782,0.011074842885136604,-0.012303173542022705
1782836466959100400,5.199100341796875,0.009341811761260033,0.012032774277031422,-0.011364643462002277
1782836466969029400,5.209029296875,0.007911959663033485,0.008143492974340916,0.01055530272424221
1782836466978958300,5.218958251953125,0.004422600846737623,0.0025339368730783463,0.029578521847724915
1782836466988887300,5.22888720703125,0.004465743899345398,-0.0012821061536669731,0.047335680574178696
1782836466998816500,5.23881640625,-0.0018794871866703033,-0.00869160145521164,0.05130203813314438
1782836467008745500,5.248745361328125,-0.002021167427301407,-0.009863392449915409,0.03772177919745445
1782836467018674400,5.25867431640625,0.002642516978085041,-0.00994788482785225,0.028608575463294983
1782836467028604400,5.2686044921875,0.004163714591413736,-0.0003738207742571831,0.016268283128738403
1782836467038533400,5.278533447265625,-0.00503136869519949,0.009394821710884571,0.011881433427333832
1782836467048462300,5.28846240234375,-0.012808066792786121,0.01597283035516739,-0.003968102857470512
1782836467058391300,5.298391357421875,-0.008842338807880878,0.01197777222841978,-0.0074322279542684555
1782836467068320500,5.308320556640625,-0.008319293148815632,0.0030583133921027184,-0.005812759976834059
1782836467078249500,5.31824951171875,-0.01013393234461546,-0.008052105084061623,-0.0032796282321214676
1782836467088176400,5.32817626953125,-0.006777017377316952,-0.010514197871088982,0.0013526743277907372
1782836467098105300,5.338105224609375,-0.006070742383599281,-0.005842433776706457,-0.0027308138087391853
1782836467108035300,5.348035400390625,-0.009303286671638489,0.0033915452659130096,0.0034953905269503593
1782836467117964500,5.357964599609375,-0.005012744106352329,0.016373688355088234,0.016305362805724144
1782836467127893500,5.3678935546875,-0.002742133103311062,0.018022185191512108,0.03222493827342987
1782836467137822500,5.377822509765625,-0.0020908042788505554,0.013566359877586365,0.0346965491771698
1782836467147751400,5.38775146484375,0.0004043113440275192,0.003952881321310997,0.012772342190146446
1782836467157680400,5.397680419921875,0.000735776498913765,-0.00661458307877183,-0.02153841406106949
1782836467167609300,5.407609375,0.0004857061430811882,-0.01934901997447014,-0.04616066813468933
1782836467177539300,5.417539306640625,0.00274652149528265,-0.0304328091442585,-0.04491645470261574
1782836467187468500,5.427468505859375,0.0006458200514316559,-0.02864929288625717,-0.039245519787073135
1782836467197397500,5.4373974609375,0.007140471134334803,-0.017343906685709953,-0.027638666331768036
1782836467207326500,5.447326416015625,0.009961823932826519,-0.0031436653807759285,-0.01465575397014618
1782836467217255400,5.45725537109375,0.00346299447119236,0.01846158318221569,-0.014498023316264153
1782836467227184600,5.4671845703125,0.0005779918283224106,0.02910703793168068,-0.012629816308617592
1782836467237114400,5.4771142578125,-0.004666178487241268,0.02505684643983841,0.0018608570098876953
1782836467247043300,5.487043212890625,0.0013352558016777039,0.018212787806987762,0.01338302344083786
1782836467256972300,5.49697216796875,-0.0000850968062877655,0.012583743780851364,0.023066330701112747
1782836467266901500,5.506901611328125,-0.00161641463637352,-0.0003144768998026848,0.027873070910573006
1782836467276830500,5.51683056640625,-0.0002771494910120964,-0.007276536896824837,0.01843888685107231
1782836467286759400,5.526759521484375,0.0027125151827931404,-0.01214106660336256,0.004330525174736977
1782836467296688400,5.5366884765625,-0.00046619120985269547,-0.010232043452560902,-0.00526310782879591
1782836467306618400,5.546618408203125,0.00034234486520290375,-0.0052343555726110935,-0.0034116781316697598
1782836467316547300,5.55654736328125,-0.00193091481924057,0.007119467481970787,0.009310089983046055
1782836467326476300,5.566476318359375,-0.011645594611763954,0.013647940009832382,0.007886630482971668
1782836467336405500,5.576405517578125,-0.017073284834623337,0.016483712941408157,0.002604435198009014
1782836467346334500,5.58633447265625,-0.014926244504749775,0.013455967418849468,-0.0033224294893443584
1782836467356264000,5.596263916015625,-0.0012330003082752228,-0.000837346538901329,-0.005676174536347389
1782836467366193000,5.60619287109375,0.008383141830563545,-0.0025606779381632805,-0.008974765427410603
1782836467376122600,5.61612255859375,0.010293682105839252,-0.0007807901129126549,-0.008123262785375118
1782836467386051800,5.6260517578125,0.0026216479018330574,0.003400372341275215,-0.011363796889781952
1782836467395980800,5.635980712890625,0.00036467239260673523,0.01412675529718399,-0.014200015924870968
1782836467405909800,5.64590966796875,-0.0024239234626293182,0.022266708314418793,-0.016491932794451714
1782836467415838700,5.655838623046875,0.0012572379782795906,0.02047504484653473,-0.010659819468855858
1782836467425768000,5.665767822265625,0.010573508217930794,0.00961946602910757,-0.006972140166908503
1782836467435698000,5.675697998046875,0.014075285755097866,-0.0029233908280730247,-0.00045928917825222015
1782836467445626600,5.685626708984375,0.014783952385187149,-0.012459371238946915,-0.013378815725445747
1782836467455555800,5.695555908203125,0.015335017815232277,0.0034172991290688515,-0.02423141524195671
1782836467465484800,5.70548486328125,0.01369397807866335,-0.005696038715541363,-0.024504657834768295
1782836467475413800,5.715413818359375,0.005879899486899376,-0.007968286983668804,-0.019441640004515648
1782836467485342700,5.7253427734375,0.004302509129047394,0.006480959244072437,-0.012835935689508915
1782836467495271700,5.735271728515625,0.005351036321371794,-0.0006136316806077957,-0.00034317560493946075
1782836467505202000,5.745201904296875,0.008325787261128426,-0.005113041959702969,0.008554445579648018
1782836467515131000,5.755130859375,0.009164653718471527,-0.004861009772866964,0.006116892211139202
1782836467525059600,5.7650595703125,0.013002002611756325,0.0044917454943060875,0.00357756856828928
1782836467534988800,5.77498876953125,0.007994772866368294,0.011964700184762478,0.010997211560606956
1782836467544917800,5.784917724609375,0.008272807113826275,0.012029680423438549,0.026080556213855743
1782836467554846700,5.7948466796875,0.00998950656503439,0.0059828246012330055,0.03568846732378006
1782836467564777000,5.80477685546875,0.005922327283769846,0.00907502043992281,0.014033772051334381
1782836467574706000,5.814705810546875,0.0052465288899838924,0.004098041914403439,-0.009948965162038803
1782836467584635000,5.824634765625,0.0010930625721812248,-0.00007246900349855423,-0.02887578494846821
1782836467594563800,5.834563720703125,0.0005195299163460732,-0.0008202921599149704,-0.023657819256186485
1782836467604492800,5.844492919921875,-0.0011955462396144867,-0.0005585039034485817,-0.005415165796875954
1782836467614421800,5.854421875,-0.003557266667485237,0.00002136360853910446,0.006839407607913017
1782836467624350700,5.864350830078125,0.005694554653018713,0.003262964077293873,0.013676009140908718
1782836467634281000,5.874281005859375,0.009020073339343071,0.002231956459581852,0.013482091948390007
1782836467644210000,5.8842099609375,0.016193032264709473,-0.0006221532821655273,0.006815668195486069
1782836467654139000,5.894138916015625,0.009900877252221107,0.0024689678102731705,0.003996160812675953
1782836467664067800,5.90406787109375,0.004178276285529137,0.01456078328192234,0.007303539663553238
1782836467673996800,5.913996826171875,0.00025177001953125,0.02459532767534256,0.02411925606429577
1782836467683925800,5.92392578125,-0.0046361954882740974,0.019374463707208633,0.04547834396362305
1782836467693854700,5.933854736328125,-0.0073857177048921585,0.004972657188773155,0.04341961815953255
1782836467703784700,5.94378466796875,-0.0041084326803684235,0.0014951014891266823,0.014532843604683876
1782836467713714000,5.9537138671875,-0.0033812718465924263,-0.0076043508015573025,-0.00964389368891716
1782836467723645700,5.963645751953125,0.0014100205153226852,-0.01987726241350174,-0.014548903331160545
1782836467733575000,5.973574951171875,0.0022382065653800964,-0.02528323419392109,-0.015487654134631157
1782836467743504600,5.983504638671875,0.0029756352305412292,-0.018025320023298264,-0.007508557755500078
1782836467753433600,5.99343359375,0.006112361792474985,0.004430689848959446,0.0015022959560155869
1782836467763362800,6.00336279296875,-0.00013035442680120468,0.023703988641500473,0.008917601779103279
1782836467773291800,6.013291748046875,-0.0010347487404942513,0.02838124707341194,0.019515234977006912
1782836467783220700,6.023220703125,-0.003174598328769207,0.0223555788397789,0.026817090809345245
1782836467793149700,6.033149658203125,-0.0037090955302119255,0.01474586222320795,0.021100614219903946
1782836467803080000,6.043079833984375,-0.0022720536217093468,0.005267937667667866,0.005834308452904224
1782836467813009000,6.0530087890625,-0.004594230093061924,-0.0016370117664337158,-0.0033084675669670105
1782836467822937600,6.0629375,-0.010085933841764927,-0.008675213903188705,-0.013607710599899292
1782836467832866800,6.07286669921875,-0.003133612684905529,-0.006922001019120216,-0.009316172450780869
1782836467842795800,6.082795654296875,-0.0031362762674689293,-0.009295675903558731,0.005472361110150814
1782836467852724700,6.092724853515625,-0.0023011090233922005,-0.001936030574142933,0.01962519809603691
1782836467862653700,6.10265380859375,0.0018702000379562378,0.009562432765960693,0.022432968020439148
1782836467872584000,6.112583984375,0.0021215062588453293,0.0102482158690691,0.026561154052615166
1782836467882513000,6.122512939453125,-0.0030689947307109833,0.013960395008325577,0.02695317007601261
1782836467892441900,6.13244189453125,-0.007692186161875725,0.008438562974333763,0.019678525626659393
1782836467902370800,6.142370849609375,-0.010051481425762177,-0.002116343006491661,0.011311407200992107
1782836467912299800,6.1522998046875,-0.0063057467341423035,-0.011330666951835155,0.010015042498707771
1782836467922228700,6.162228759765625,-0.0009317537769675255,-0.0120222894474864,0.008524205535650253
1782836467932158700,6.17215869140625,-0.0002562897279858589,-0.009505463764071465,-0.0003704773262143135
1782836467942088000,6.182087890625,-0.010095071978867054,0.002203124575316906,0.0022396864369511604
1782836467952017000,6.192016845703125,-0.009952002204954624,0.01059556845575571,0.012311214581131935
1782836467961945900,6.20194580078125,-0.011629262007772923,0.013881110586225986,0.018577100709080696
1782836467971874800,6.211874755859375,-0.007875947281718254,0.018616313114762306,0.023348689079284668
1782836467981803800,6.2218037109375,-0.004558447748422623,0.012013804167509079,0.027679521590471268
1782836467991732700,6.231732666015625,-0.011637196876108646,0.0026436029002070427,0.020254138857126236
1782836468001662700,6.241662841796875,-0.012034540064632893,-0.0031935134902596474,-0.005827528424561024
1782836468011592000,6.251592041015625,-0.00527166947722435,-0.008723284117877483,-0.01995566301047802
1782836468021521000,6.26152099609375,-0.0030074501410126686,-0.00837680697441101,-0.015002716332674026
1782836468031449900,6.271449951171875,-0.00964701920747757,-0.008836538530886173,-0.009802233427762985
1782836468041378800,6.28137890625,-0.006094096228480339,-0.004856443963944912,-0.004790429957211018
1782836468051308000,6.29130810546875,0.0037972209975123405,0.002248525619506836,0.007464532740414143
1782836468061236700,6.30123681640625,0.002246994525194168,0.0009949756786227226,0.01493816263973713
1782836468071166700,6.311166748046875,-0.004653997719287872,0.0010165674611926079,0.015827644616365433
1782836468081095700,6.321095703125,-0.00921013206243515,-0.0009054355323314667,0.007597410120069981
1782836468091025000,6.33102490234375,-0.0013608606532216072,-0.005919844377785921,0.004930640570819378
1782836468100953900,6.340953857421875,0.0007172040641307831,-0.01239265687763691,0.0017564184963703156
1782836468110882800,6.3508828125,-0.004654123447835445,-0.013213656842708588,-0.011620968580245972
1782836468120811800,6.360811767578125,-0.002429317682981491,-0.008883357048034668,-0.019460516050457954
1782836468130741800,6.37074169921875,-0.0004928195849061012,-0.00394453015178442,-0.012977015227079391
1782836468140670700,6.380670654296875,-0.005169863812625408,-0.002404957078397274,-0.00032433774322271347
1782836468150599700,6.390599609375,-0.013089926913380623,0.008141500875353813,0.00614453200250864
1782836468160529000,6.40052880859375,-0.011425184085965157,0.0066690389066934586,0.018657129257917404
1782836468170457900,6.410457763671875,-0.011341658420860767,-0.0010075634345412254,0.025235481560230255
1782836468180386800,6.42038671875,-0.009280371479690075,-0.003514130599796772,0.024623487144708633
1782836468190315800,6.430315673828125,0.0015192534774541855,-0.0058886706829071045,0.01524348370730877
1782836468200245800,6.440245849609375,0.004411445930600166,-0.0028976742178201675,0.009734202176332474
1782836468210174700,6.4501748046875,0.006103814113885164,0.005264992825686932,0.004485483281314373
1782836468220103700,6.460103759765625,0.005615656729787588,0.018062278628349304,-0.006658248137682676
1782836468230032600,6.47003271484375,-0.0023262817412614822,0.025306452065706253,-0.009879284538328648
1782836468239961900,6.4799619140625,0.0023110806941986084,0.02198921889066696,-0.007709074765443802
1782836468249890800,6.489890869140625,0.011206528171896935,0.005868501961231232,-0.0027152528055012226
1782836468259819800,6.49981982421875,0.021121477708220482,-0.0012914054095745087,-0.001333605032414198
1782836468269749800,6.509749755859375,0.01985377073287964,-0.008170686662197113,-0.0048765460960567
1782836468279678700,6.5196787109375,0.015210017561912537,-0.01258034911006689,-0.00919672567397356
1782836468289607700,6.529607666015625,0.012982604093849659,-0.008754482492804527,-0.01289421133697033
1782836468299536600,6.53953662109375,0.011285903863608837,-0.006041786167770624,-0.012866513803601265
1782836468309465900,6.5494658203125,0.009259365499019623,-0.0023901155218482018,-0.010781644843518734
1782836468319394800,6.559394775390625,0.017016088590025902,0.0012618768960237503,0.0002616848796606064
1782836468329323800,6.56932373046875,0.017456743866205215,0.014457802288234234,0.006640835665166378
1782836468339254000,6.57925390625,0.010517877526581287,0.021902669221162796,0.009225700050592422
1782836468349182700,6.5891826171875,0.012620147317647934,0.02487325295805931,0.00755833275616169
1782836468359114500,6.599114501953125,0.014378899708390236,0.019655853509902954,0.005495714955031872
1782836468369043500,6.60904345703125,0.01781465858221054,0.00757091399282217,0.002704836428165436
1782836468378972400,6.618972412109375,0.017528900876641273,0.007581033743917942,-0.011391540989279747
1782836468388901400,6.6289013671875,0.014852494932711124,0.007437677122652531,-0.01671796850860119
1782836468398831400,6.638831298828125,0.008640671148896217,0.007886153645813465,-0.0013507301919162273
1782836468408760300,6.64876025390625,0.0075334953144192696,0.00802507996559143,0.01224165502935648
1782836468418689500,6.658689453125,0.008196622133255005,0.004063893109560013,0.012404640205204487
1782836468428618500,6.668618408203125,0.016367090865969658,0.0031816475093364716,-0.006621611304581165
1782836468438547500,6.67854736328125,0.01927739381790161,-0.005428351927548647,-0.016401804983615875
1782836468448476400,6.688476318359375,0.024676069617271423,-0.00542098144069314,-0.01659921556711197
1782836468458405400,6.6984052734375,0.023297883570194244,-0.008978698402643204,-0.009907225146889687
1782836468468335400,6.70833544921875,0.02487822249531746,-0.009347785264253616,-0.002776462584733963
1782836468478264300,6.718264404296875,0.018282104283571243,-0.0003260606899857521,0.004749896936118603
1782836468488193500,6.728193603515625,0.014960451051592827,0.00313644390553236,-0.0018094065599143505
1782836468498122500,6.73812255859375,0.016871269792318344,0.007664350792765617,-0.0015465528704226017
1782836468508051500,6.748051513671875,0.01879924163222313,0.014535779133439064,0.0014986004680395126
1782836468517980400,6.75798046875,0.019205374643206596,0.014535512775182724,-0.00025056349113583565
1782836468527909600,6.76790966796875,0.019626392051577568,0.006326465867459774,0.004019524902105331
1782836468537839400,6.77783935546875,0.022378502413630486,0.0010243793949484825,0.015817593783140182
1782836468547768300,6.787768310546875,0.026256991550326347,-0.010152697563171387,0.015395631082355976
1782836468557697500,6.797697509765625,0.02380049228668213,-0.006748645566403866,0.014726645313203335
1782836468567626500,6.80762646484375,0.022008981555700302,0.0012288009747862816,0.009937543421983719
1782836468577555500,6.817555419921875,0.019455010071396828,0.003554273396730423,0.003671925514936447
1782836468587484400,6.827484375,0.024019628763198853,-0.006566022522747517,0.0018948642536997795
1782836468597413600,6.83741357421875,0.022891778498888016,-0.0096206683665514,-0.003083915449678898
1782836468607343400,6.84734326171875,0.019092246890068054,-0.011772502213716507,-0.017773911356925964
1782836468617272300,6.857272216796875,0.021443020552396774,-0.007668571081012487,-0.020361971110105515
1782836468627201300,6.867201171875,0.01898462511599064,-0.015302959829568863,-0.01205793023109436
1782836468637130500,6.877130615234375,0.0255434587597847,-0.019834062084555626,-0.00913511123508215
1782836468647059500,6.8870595703125,0.021422596648335457,-0.019133392721414566,-0.0021551987156271935
1782836468656988400,6.896988525390625,0.015197724103927612,-0.005377633962780237,-0.0009743529371917248
1782836468666918400,6.90691845703125,0.011588060297071934,0.0026515815407037735,-0.003599013201892376
1782836468676847400,6.916847412109375,0.008913980796933174,0.0041123246774077415,0.0016135917976498604
1782836468686776300,6.9267763671875,0.0069582401774823666,0.005150029435753822,0.014190911315381527
1782836468696705300,6.936705322265625,0.012268849648535252,-0.00202346034348011,0.0226064994931221
1782836468706634500,6.946634521484375,0.011723348870873451,-0.0033184271305799484,0.018633322790265083
1782836468716563500,6.9565634765625,0.010434378869831562,-0.004375968128442764,0.009011320769786835
1782836468726492400,6.966492431640625,0.006930642761290073,0.006394354626536369,-0.005147241987287998
1782836468736422700,6.976422607421875,0.0034099435433745384,0.01656629890203476,-0.009364624507725239
1782836468746351400,6.986351318359375,0.0007151169702410698,0.02027188241481781,-0.005339702591300011
1782836468756280300,6.9962802734375,-0.007166774943470955,0.006768857128918171,0.008129767142236233
1782836468766209300,7.006209228515625,-0.0058048199862241745,0.0005266256630420685,0.013261525891721249
1782836468776138500,7.016138427734375,-0.003646060824394226,-0.005319279618561268,0.010700897313654423
1782836468786067500,7.0260673828125,0.001454734243452549,-0.01478248555213213,-0.00793550070375204
1782836468795996400,7.035996337890625,0.011725747026503086,-0.023569852113723755,-0.013830939307808876
1782836468805926400,7.045926513671875,0.0124179283156991,-0.025887267664074898,-0.013833783566951752
1782836468815855600,7.055855712890625,0.010874892584979534,-0.02529258280992508,-0.00476438831537962
1782836468825784300,7.065784423828125,0.004959734622389078,-0.02083529531955719,0.0017161136493086815
1782836468835713300,7.07571337890625,-0.0009330417960882187,-0.013640234246850014,0.0002580322325229645
1782836468845642200,7.085642333984375,-0.0031517203897237778,-0.0028475746512413025,-0.006785965524613857
1782836468855571500,7.095571533203125,-0.0067975884303450584,0.006973365321755409,-0.016618622466921806
1782836468865500400,7.10550048828125,-0.004519970156252384,0.011837711557745934,-0.01795812137424946
1782836468875430400,7.115430419921875,-0.001161990687251091,0.009427284821867943,-0.0065046651288867
1782836468885359600,7.125359619140625,0.00026404764503240585,-0.00043480657041072845,0.0018216995522379875
1782836468895288600,7.13528857421875,0.003227880224585533,0.0023852139711380005,-0.0031075449660420418
1782836468905217500,7.145217529296875,0.001047101803123951,0.006212849169969559,-0.006871382240206003
1782836468915146200,7.155146240234375,0.0008995626121759415,0.005661575123667717,-0.001538668293505907
1782836468925075500,7.165075439453125,-0.0009409049525856972,0.0022445451468229294,-0.0007742033340036869
1782836468935005400,7.17500537109375,-0.002828819677233696,0.010275307111442089,-0.0013920566998422146
1782836468944934400,7.184934326171875,0.003453534096479416,0.0072552114725112915,0.00706307590007782
1782836468954863400,7.19486328125,0.0008159391582012177,-0.002032563090324402,0.023580534383654594
1782836468964792600,7.20479248046875,-0.0020586764439940453,-0.003021661192178726,0.029457328841090202
1782836468974721500,7.214721435546875,0.005927105899900198,-0.004711851477622986,0.030993198975920677
1782836468984650500,7.224650390625,0.005763700697571039,-0.016706204041838646,0.02766454592347145
1782836468994579200,7.2345791015625,0.005058229435235262,-0.01600259728729725,0.010814993642270565
1782836469004509400,7.244509521484375,0.005683708004653454,-0.004267149604856968,-0.007390027865767479
1782836469014438400,7.2544384765625,0.0038408003747463226,-0.0012473920360207558,-0.013485470786690712
1782836469024367400,7.264367431640625,0.0065297940745949745,0.0022405507043004036,-0.00946782622486353
1782836469034296600,7.274296630859375,0.0031353291124105453,0.0027529429644346237,-0.005311697255820036
1782836469044225500,7.2842255859375,0.008853417821228504,0.009321584366261959,-0.001792216207832098
1782836469054154500,7.294154541015625,0.006086127366870642,0.007345785386860371,0.0042321207001805305
1782836469064083500,7.30408349609375,0.007820699363946915,0.006110046058893204,-0.0003665774129331112
1782836469074013400,7.314013427734375,0.00811950583010912,0.0071747787296772,-0.01680813543498516
1782836469083942400,7.3239423828125,0.0026973653584718704,0.011827020905911922,-0.023577310144901276
1782836469093871400,7.333871337890625,-0.005901450291275978,0.006987524218857288,-0.023340821266174316
1782836469103800600,7.343800537109375,-0.008408339694142342,-0.00621751556172967,-0.008273973129689693
1782836469113729500,7.3537294921875,-0.005145436152815819,-0.008417020551860332,0.00040340423583984375
1782836469123658500,7.363658447265625,0.003398912027478218,-0.005902518983930349,-0.008456786163151264
1782836469133587500,7.37358740234375,0.007893795147538185,-0.00045981723815202713,-0.008260244503617287
1782836469143517400,7.383517333984375,0.010649760253727436,0.007122891955077648,0.0015840735286474228
1782836469153446400,7.3934462890625,0.004195855930447578,0.00640996266156435,0.012764821760356426
1782836469163375400,7.403375244140625,0.0019585061818361282,0.0056886617094278336,0.00761424470692873
1782836469173304300,7.41330419921875,-0.00043620821088552475,0.0000645974650979042,-0.0020237350836396217
1782836469183233500,7.423233642578125,-0.00027374085038900375,-0.0063278889283537865,-0.001799853052943945
1782836469193162500,7.43316259765625,-0.004950784146785736,-0.015433503314852715,-0.003043549135327339
1782836469203092200,7.44309228515625,-0.0009847916662693024,-0.01713903807103634,0.003875456750392914
1782836469213021400,7.453021484375,0.00811309926211834,-0.010414822958409786,0.01459068525582552
1782836469222950400,7.462950439453125,0.008768181316554546,-0.005475426092743874,0.013026030734181404
1782836469232879400,7.47287939453125,0.0034019118174910545,0.007849433459341526,0.006059201434254646
1782836469242808300,7.482808349609375,-0.0002022990956902504,0.012279539369046688,0.002357502467930317
1782836469252737500,7.492737548828125,-0.002376769669353962,0.009382818825542927,0.003656325861811638
1782836469262666500,7.50266650390625,-0.0011623529717326164,0.005726580508053303,0.0006680460646748543
1782836469272596500,7.512596435546875,-0.0008768616244196892,-0.0020799441263079643,-0.007344873156398535
1782836469282525400,7.522525390625,-0.00035629887133836746,-0.0015463931486010551,-0.0059049115516245365
1782836469292454400,7.532454345703125,0.0015481282025575638,0.0015652449801564217,-0.0005674040876328945
1782836469302383400,7.54238330078125,0.0024537015706300735,0.004112863913178444,0.008302707225084305
1782836469312312300,7.552312255859375,0.004756004083901644,0.006238065659999847,0.01038316823542118
1782836469322241500,7.562241455078125,0.006806244608014822,-0.002479739487171173,0.014293338172137737
1782836469332170500,7.57217041015625,0.006544988602399826,-0.012738768011331558,0.006884424947202206
1782836469342100500,7.5821005859375,0.003916379064321518,-0.01890571415424347,-0.0075003313831985
1782836469352025300,7.592025390625,0.0015914393588900566,-0.020037025213241577,-0.012253275141119957
1782836469361954600,7.60195458984375,0.0013677328824996948,-0.029774930328130722,-0.006663770414888859
1782836469371883500,7.611883544921875,0.00419547688215971,-0.026713360100984573,-0.007713588420301676
1782836469381812200,7.621812255859375,0.005760981701314449,-0.002630355767905712,-0.013859178870916367
1782836469391741200,7.6317412109375,0.0015681013464927673,0.008698465302586555,-0.011517727747559547
1782836469401670400,7.64167041015625,-0.0027467524632811546,0.020551128312945366,-0.008341109380126
1782836469411600400,7.651600341796875,-0.005605123937129974,0.021067781373858452,-0.00121369119733572
1782836469421529300,7.661529296875,-0.008511626161634922,0.010420977137982845,-0.004589148797094822
1782836469431458300,7.671458251953125,-0.00561064388602972,0.00042773131281137466,-0.014874543063342571
1782836469441387500,7.681387451171875,0.0013142600655555725,-0.005953398533165455,-0.017915701493620872
1782836469451316500,7.69131640625,0.004748672712594271,-0.013267770409584045,-0.012567275203764439
1782836469461245200,7.7012451171875,0.008278075605630875,-0.015218476764857769,-0.006826778873801231
1782836469471174100,7.711174072265625,0.007238910533487797,-0.010850359685719013,-0.001851727720350027
1782836469481104400,7.7211044921875,0.013526913709938526,0.0021982844918966293,0.00748383067548275
1782836469491033300,7.731033447265625,0.010847507044672966,0.010447691194713116,0.01519021950662136
1782836469500962300,7.74096240234375,0.007177490741014481,0.014541647396981716,0.02453765831887722
1782836469510891500,7.7508916015625,0.003607523627579212,0.008151392452418804,0.024044176563620567
1782836469520820500,7.760820556640625,0.008842313662171364,-0.005137219559401274,0.009537536650896072
1782836469530749400,7.77074951171875,0.012366208247840405,-0.013818858191370964,-0.0015531969256699085
1782836469540679400,7.780679443359375,0.008746540173888206,-0.014301596209406853,-0.005564859602600336
1782836469550608400,7.7906083984375,0.010228056460618973,-0.009193653240799904,-0.010469869710505009
1782836469560537300,7.800537353515625,0.007809360045939684,-0.004886684939265251,-0.01069987565279007
1782836469570466300,7.81046630859375,0.007317207753658295,-0.0012376215308904648,0.001976771280169487
1782836469580395500,7.8203955078125,0.002995905466377735,0.00332621019333601,0.0061419690027832985
1782836469590324500,7.830324462890625,0.0045440006069839,0.011202509514987469,-0.0017796033062040806
1782836469600253400,7.84025341796875,0.005309126805514097,0.012686156667768955,-0.0038920226506888866
1782836469610183200,7.85018310546875,0.005650277715176344,0.012497338466346264,-0.0010512289591133595
1782836469620112400,7.8601123046875,0.007910138927400112,0.00867140106856823,0.007573498412966728
1782836469630041300,7.870041259765625,0.0053692166693508625,0.006232213228940964,0.009303486905992031
1782836469639970300,7.87997021484375,0.008478429168462753,0.006408398039638996,-0.0040850453078746796
1782836469649899300,7.889899169921875,-0.0005323765799403191,0.005454986356198788,-0.0025167097337543964
1782836469659828500,7.899828369140625,-0.00431564636528492,0.003058895468711853,-0.003612753003835678
1782836469669757400,7.90975732421875,0.0008474234491586685,0.0019041486084461212,0.002945546992123127
1782836469679687200,7.919687255859375,0.0034513622522354126,-0.005849209614098072,0.013022292405366898
1782836469689616400,7.929616455078125,0.007279656827449799,-0.004500318318605423,0.01833476684987545
1782836469699545300,7.93954541015625,0.0013308143243193626,-0.0018776897341012955,0.012346530333161354
1782836469709474300,7.949474365234375,0.0009963205084204674,0.007100358605384827,-0.0006576851010322571
1782836469719403300,7.9594033203125,0.004245488438755274,0.011260416358709335,-0.004030749201774597
1782836469729332500,7.96933251953125,-0.0005223685875535011,0.002950289286673069,-0.003910907078534365
1782836469739261400,7.979261474609375,-0.0011178366839885712,-0.005903435405343771,0.00986387487500906
1782836469749191200,7.989191162109375,0.00014663208276033401,-0.012191425077617168,0.013202945701777935
1782836469759120100,7.9991201171875,-0.0007683876901865005,-0.009095161221921444,0.0025336602702736855
1782836469769049300,8.00904931640625,-0.002471478655934334,-0.004358995705842972,-0.007859325036406517
1782836469778978300,8.018978271484375,-0.0022084442898631096,0.002932329662144184,-0.0060483841225504875
1782836469788907300,8.0289072265625,0.0004296833649277687,0.01031061727553606,0.01295326929539442
1782836469798836200,8.038836181640624,0.002721223048865795,0.011111761443316936,0.021600991487503052
1782836469808765400,8.048765380859376,-0.0062821246683597565,0.01754329726099968,0.009215693920850754
1782836469818695400,8.0586953125,-0.007401018403470516,0.024298839271068573,-0.0023284335620701313
1782836469828624100,8.0686240234375,-0.01043222937732935,0.02494998276233673,0.004572882317006588
1782836469838553300,8.07855322265625,-0.008474713191390038,0.017490457743406296,0.02044743299484253
1782836469848482300,8.088482421875,0.0006740447133779526,0.01595328375697136,0.026519708335399628
1782836469858411300,8.098411376953125,0.00813854020088911,0.01765820011496544,0.02223268337547779
1782836469868340200,8.10834033203125,0.00991114042699337,0.013335091061890125,0.018475228920578957
1782836469878269400,8.11826953125,0.007285024039447308,0.002417312003672123,0.015165742486715317
1782836469888199400,8.128199462890626,0.006576090585440397,-0.0031201988458633423,0.01158219389617443
1782836469898128400,8.13812841796875,0.006011258345097303,-0.016501715406775475,0.004335286095738411
1782836469908057300,8.148057373046875,0.005835489835590124,-0.027442246675491333,-0.004161529242992401
1782836469917986300,8.157986328125,0.0037435805425047874,-0.026016341522336006,-0.012208599597215652
1782836469927915300,8.167915283203126,0.005866918712854385,-0.01481455285102129,-0.020177841186523438
1782836469937844200,8.17784423828125,0.0062767514027655125,-0.005785489920526743,-0.0142976064234972
1782836469947774500,8.1877744140625,-0.002647501416504383,0.004020534455776215,-0.0073459576815366745
1782836469957703400,8.197703369140624,-0.00842039380222559,0.02023659273982048,-0.006367640569806099
1782836469967632400,8.20763232421875,-0.010669167153537273,0.0218624547123909,-0.0002386416308581829
1782836469977561300,8.217561279296875,-0.009604029357433319,0.012821609154343605,0.004977812059223652
1782836469987490300,8.227490234375,-0.0006787115707993507,0.008067866787314415,-0.0018100528977811337
1782836469997419300,8.237419189453124,0.001896861009299755,0.005664804019033909,-0.008738571777939796
1782836470007348200,8.24734814453125,0.0026092566549777985,0.0039121778681874275,-0.008548954501748085
1782836470017277200,8.257277099609375,0.0002107284963130951,-0.0022715581580996513,0.0010730363428592682
1782836470027207400,8.26720751953125,0.0020435163751244545,0.0024936357513070107,0.011690261773765087
1782836470037136400,8.277136474609375,0.00829802080988884,0.00689682736992836,0.024998504668474197
1782836470047065300,8.2870654296875,0.008095087483525276,0.008268887177109718,0.02741345763206482
1782836470056994600,8.29699462890625,0.011710175313055515,0.013629558496177197,0.02070179395377636
1782836470066923300,8.30692333984375,0.011937608942389488,0.015108411200344563,0.008515434339642525
1782836470076852200,8.316852294921874,0.01654520072042942,0.01258296612650156,-0.0022187167778611183
1782836470086782500,8.326782470703124,0.012422893196344376,0.01053472887724638,-0.012740598991513252
1782836470096711400,8.33671142578125,0.010377893224358559,0.0014203349128365517,-0.01367090828716755
1782836470106640400,8.346640380859375,0.011450614780187607,-0.006582464091479778,-0.01796099543571472
1782836470116569300,8.3565693359375,0.011065004393458366,-0.007858694531023502,-0.020096469670534134
1782836470126498600,8.36649853515625,0.010968332178890705,-0.004021079279482365,-0.024914126843214035
1782836470136427500,8.376427490234375,0.007309275213629007,0.004911583848297596,-0.02503642439842224
1782836470146356200,8.386356201171875,0.003412005491554737,0.01378097478300333,-0.02924421802163124
1782836470156286200,8.3962861328125,0.00025463011115789413,0.01783849112689495,-0.02215791679918766
1782836470166215400,8.40621533203125,-0.0002923831343650818,0.01650051772594452,-0.00801413506269455
1782836470176144400,8.416144287109375,0.0010964423418045044,0.008340966887772083,0.0031235599890351295
1782836470186073300,8.4260732421875,0.001960105262696743,0.004976595751941204,0.006821359507739544
1782836470196002300,8.436002197265625,0.002544836141169071,0.0008861450478434563,0.010365903377532959
1782836470205931500,8.445931640625,-0.005687527358531952,-0.001794593408703804,0.005122405476868153
1782836470215860500,8.455860595703125,-0.00333964079618454,-0.00009302888065576553,0.004764081910252571
1782836470225790200,8.465790283203125,0.0016593793407082558,-0.0018832050263881683,0.0025757625699043274
1782836470235719400,8.475719482421875,-0.003267105668783188,-0.010708348825573921,-0.007332341745495796
1782836470245648400,8.4856484375,0.0009153885766863823,-0.00740842567756772,-0.017069656401872635
1782836470255577300,8.495577392578125,0.006277495063841343,-0.008608141914010048,-0.012263265438377857
1782836470265506300,8.50550634765625,0.00225692056119442,-0.013923810794949532,0.0011513428762555122
1782836470275435500,8.515435546875,-0.00026922672986984253,-0.009410067461431026,0.003920111805200577
1782836470285364500,8.525364501953124,-0.0007842816412448883,0.007010185159742832,-0.009709147736430168
1782836470295294200,8.535294189453126,-0.002271784469485283,0.011226815171539783,-0.004237829707562923
1782836470305223200,8.54522314453125,0.001125875860452652,0.00819533970206976,0.011178943328559399
1782836470315152400,8.55515234375,-0.0028264233842492104,0.0009129643440246582,0.0183012206107378
1782836470325081300,8.565081298828124,-0.0033492017537355423,-0.009113837033510208,0.011952243745326996
1782836470335010300,8.57501025390625,0.0022154729813337326,-0.016081731766462326,0.00574841070920229
1782836470344939300,8.584939208984375,0.0019286507740616798,-0.009884289465844631,0.005682630464434624
1782836470354868500,8.594868408203125,-0.004995681345462799,0.001523367129266262,0.010715438984334469
1782836470364798200,8.604798095703124,-0.012446938082575798,0.0016868850216269493,0.0007413690909743309
1782836470374727200,8.61472705078125,-0.010684275068342686,0.002075091004371643,-0.014399039559066296
1782836470384656400,8.624656494140625,-0.008695426397025585,0.0024202363565564156,-0.007172285579144955
1782836470394585300,8.63458544921875,-0.008628975600004196,-0.004599802196025848,-0.004638169892132282
1782836470404514300,8.644514404296874,-0.00804494321346283,-0.01574752852320671,-0.004414464347064495
1782836470414443300,8.654443359375,-0.006952781230211258,-0.005368391051888466,-0.008391895331442356
1782836470424372500,8.66437255859375,-0.002574012614786625,-0.00019733142107725143,-0.013358690775930882
1782836470434302200,8.67430224609375,-0.004979071207344532,0.013389387167990208,-0.011747339740395546
1782836470444231200,8.684231201171874,-0.004081319086253643,0.011145141907036304,0.0027826009318232536
1782836470454160400,8.694160400390626,0.0048615471459925175,0.004457825794816017,0.015091974288225174
1782836470464089300,8.70408935546875,0.003629568964242935,-0.0038773352280259132,0.014735376462340355
1782836470474018300,8.714018310546875,-0.003254152834415436,-0.013744126074016094,-0.006897367537021637
1782836470483947300,8.723947265625,-0.002316986210644245,-0.013079401105642319,-0.028407718986272812
1782836470493876500,8.73387646484375,0.0010867007076740265,-0.018144771456718445,-0.020345449447631836
1782836470503806500,8.743806396484375,-0.00018522515892982483,-0.02340691164135933,-0.010782305151224136
1782836470513735200,8.753735107421875,0.0057020424865186214,-0.017965927720069885,0.0012658452615141869
1782836470523664100,8.7636640625,0.008144427090883255,-0.007028058636933565,0.0033756010234355927
1782836470533593300,8.77359326171875,0.0035007307305932045,0.005335099063813686,0.004475001245737076
1782836470543522300,8.783522216796875,0.0018977737054228783,0.023893605917692184,0.006169304251670837
1782836470553451300,8.793451171875,0.0014327550306916237,0.026808258146047592,0.01764623634517193
1782836470563380200,8.803380126953124,0.0027816463261842728,0.015497012995183468,0.012067712843418121
1782836470573310500,8.813310546875,0.0008135857060551643,0.007029777392745018,-0.005416154861450195
1782836470583239400,8.823239501953125,0.004848541226238012,-0.0007501142099499702,-0.014977702870965004
1782836470593168400,8.83316845703125,-0.003368433564901352,-0.0020090797916054726,-0.010286468081176281
1782836470603097300,8.843097412109374,-0.0015231287106871605,0.004200879484415054,-0.0048416354693472385
1782836470613026300,8.8530263671875,-0.003460547886788845,0.021890565752983093,0.010607857257127762
1782836470622955300,8.862955322265625,-0.005444071255624294,0.016533616930246353,0.02605579048395157
1782836470632884200,8.87288427734375,-0.004035512916743755,0.014905526302754879,0.022782940417528152
1782836470642814500,8.882814453125,0.0027869725599884987,0.00913472194224596,0.008176300674676895
1782836470652743400,8.892743408203126,0.007814797572791576,-0.0009268969297409058,-0.00884355790913105
1782836470662672400,8.90267236328125,0.004948969930410385,-0.002497362904250622,-0.019820310175418854
1782836470672601300,8.912601318359375,0.002022423781454563,-0.005784439854323864,-0.020768189802765846
1782836470682530300,8.9225302734375,0.004305551759898663,-0.007014820352196693,-0.017934853211045265
1782836470692459300,8.932459228515626,0.005813838914036751,0.0005270335823297501,-0.023522045463323593
1782836470702388200,8.94238818359375,0.006028756033629179,0.01259621325880289,-0.019454866647720337
1782836470712318500,8.952318359375,0.007407515309751034,0.01572171412408352,-0.019320443272590637
1782836470722247400,8.962247314453125,0.0027272766456007957,0.014741137623786926,-0.016288433223962784
1782836470732176400,8.97217626953125,0.003509785048663616,0.00980468187481165,-0.020278548821806908
1782836470742105300,8.982105224609375,0.004380106460303068,0.01516402792185545,-0.01788436621427536
1782836470752034300,8.992034423828125,0.0030962787568569183,0.015113776549696922,-0.015434186905622482
1782836470761963300,9.00196337890625,-0.0023261839523911476,0.01304955966770649,-0.007171995937824249
1782836470771892200,9.011892333984376,-0.003465777263045311,0.013572489842772484,-0.003127476666122675
1782836470781822500,9.021822509765625,0.002171335741877556,0.011596690863370895,0.004293154925107956
1782836470791751400,9.03175146484375,-0.0021920427680015564,0.0067782653495669365,-0.002301146276295185
1782836470801680400,9.041680419921875,-0.0004471391439437866,0.003483136184513569,-0.01065894402563572
1782836470811609300,9.051609375,0.0064107938669621944,0.002130899578332901,-0.01842522993683815
1782836470821538600,9.06153857421875,0.01022337470203638,-0.0014156317338347435,-0.014326626434922218
1782836470831467300,9.07146728515625,0.007142321206629276,-0.0016013253480196,-0.002120165154337883
1782836470841397200,9.081397216796875,0.00198937114328146,0.0043939827010035515,0.008846465498209
1782836470851326200,9.091326171875,-0.005008029751479626,0.0065606990829110146,0.010306457988917828
1782836470861255400,9.10125537109375,-0.000029781833291053772,0.0012889709323644638,0.008957301266491413
1782836470871184400,9.111184326171875,0.0026910165324807167,0.0034807445481419563,0.0014189910143613815
1782836470881113300,9.12111328125,0.007203742396086454,0.00028575118631124496,-0.00551268458366394
1782836470891042300,9.131042236328126,0.004045554902404547,0.001882016658782959,-0.0025546643882989883
1782836470900971500,9.140971435546875,0.0014745388180017471,-0.007170333992689848,0.0039058979600667953
1782836470910901200,9.1509013671875,-0.006112048402428627,-0.010500894859433174,0.00873640738427639
1782836470920830200,9.160830322265625,-0.015079710632562637,-0.005506668705493212,0.0015610521659255028
1782836470930759400,9.170759521484374,-0.014758085831999779,0.0017867861315608025,-0.010916134342551231
1782836470940688400,9.1806884765625,-0.01307976245880127,0.008558139204978943,-0.01087645348161459
1782836470950617300,9.190617431640625,-0.01160828024148941,0.009842193685472012,0.0007317438721656799
1782836470960546300,9.20054638671875,-0.008875610306859016,0.004561145789921284,0.00873560830950737
1782836470970475500,9.2104755859375,-0.006673836149275303,0.0020580915734171867,0.02056841552257538
1782836470980404500,9.220404541015625,-0.005406971089541912,0.002759302034974098,0.02106163278222084
1782836470990334200,9.230334228515625,-0.0009322008118033409,0.0012102974578738213,0.011631058529019356
1782836471000263400,9.240263427734375,-0.0025609899312257767,0.006045532412827015,-0.0010091033764183521
1782836471010192400,9.2501923828125,-0.007468844763934612,0.008383930660784245,-0.0019843438640236855
1782836471020121300,9.260121337890626,-0.012351752258837223,0.0117235342040658,0.00002581067383289337
1782836471030050300,9.27005029296875,-0.012036728672683239,0.0112425172701478,0.006719846278429031
1782836471039979500,9.2799794921875,-0.007176724262535572,0.009099205024540424,0.008717482909560204
1782836471049909200,9.2899091796875,-0.0074628740549087524,0.000684528611600399,0.005465819500386715
1782836471059838200,9.299838134765626,-0.007820537313818932,-0.0009117703884840012,0.0035576652735471725
1782836471069767200,9.30976708984375,-0.0010557714849710464,-0.0057432157918810844,0.0075287241488695145
1782836471079696400,9.3196962890625,0.0033853165805339813,-0.014020586386322975,0.008607571944594383
1782836471089622300,9.329622314453125,0.0064310189336538315,-0.012429622001945972,0.004706338979303837
1782836471099551500,9.339551513671875,0.005530870519578457,-0.006712348200380802,-0.0010199900716543198
1782836471109480400,9.34948046875,0.0007810685783624649,0.00029046647250652313,-0.003627538215368986
1782836471119409400,9.359409423828126,-0.012296383269131184,0.0030436422675848007,-0.004623560234904289
1782836471129338400,9.36933837890625,-0.012475588358938694,0.013392536900937557,-0.006708791479468346
1782836471139267300,9.379267333984375,-0.009347706101834774,0.004342316649854183,-0.004579061642289162
1782836471149197300,9.389197265625,-0.0013098781928420067,0.001842518337070942,0.0028424272313714027
1782836471159126300,9.399126220703126,0.0035314830020070076,0.002733612433075905,-0.0016386075876653194
1782836471169055500,9.409055419921875,0.0012644175440073013,0.0034914277493953705,-0.008646972477436066
1782836471178984400,9.418984375,0.0035896236076951027,0.011517129838466644,-0.00032858923077583313
1782836471188913400,9.428913330078124,-0.004008684307336807,0.01910567283630371,0.011252889409661293
1782836471198842400,9.43884228515625,-0.011239166371524334,0.01873176544904709,0.029496606439352036
1782836471208771300,9.448771240234375,-0.01492296252399683,0.023449888452887535,0.037143781781196594
1782836471218701300,9.458701416015625,-0.007809394039213657,0.012414546683430672,0.035203397274017334
1782836471228630300,9.46863037109375,0.003436729311943054,0.004280609078705311,0.03052283637225628
1782836471238559200,9.478559326171874,0.011402510106563568,-0.0028324266895651817,0.01488954946398735
1782836471248488400,9.488488525390625,0.016603117808699608,-0.008804194629192352,0.008224546909332275
1782836471258417400,9.49841748046875,0.015076860785484314,-0.008665977045893669,-0.0019452660344541073
1782836471268346400,9.508346435546875,0.010460409335792065,0.0033457307144999504,-0.0036964425817131996
1782836471278275300,9.518275390625,0.008272622711956501,0.0027571721002459526,0.008586055599153042
1782836471288205300,9.528205322265626,0.0016512880101799965,0.006277158856391907,0.014079165644943714
1782836471298134300,9.53813427734375,-0.002976486459374428,0.022078758105635643,0.004418548196554184
1782836471308063200,9.548063232421875,0.000053338706493377686,0.03040415421128273,-0.0037564015947282314
1782836471317992400,9.557992431640624,0.001179322600364685,0.024840012192726135,-0.008451022207736969
1782836471327921400,9.56792138671875,0.005079043097794056,0.01471698097884655,0.0075264573097229
1782836471337850400,9.577850341796875,0.006679602898657322,0.004020661115646362,0.013072756119072437
1782836471347779300,9.587779296875,0.0007541142404079437,-0.007792992517352104,0.004539798013865948
1782836471357709800,9.597709716796874,0.0011045858263969421,-0.007636398542672396,0.004891068674623966
1782836471367638800,9.607638671875,0.0021324390545487404,-0.0001887548714876175,-0.0011435984633862972
1782836471377567700,9.617567626953125,0.004596129525452852,0.004151931963860989,-0.009626831859350204
1782836471387497000,9.6274970703125,0.006464926525950432,0.007791903801262379,-0.005183300003409386
1782836471397426000,9.637426025390624,0.01165942195802927,0.008952244184911251,0.007566316984593868
1782836471407355000,9.64735498046875,0.008268138393759727,0.010545453056693077,0.023046031594276428
1782836471417283800,9.657283935546875,-0.0009067179635167122,0.007454589009284973,0.03173805773258209
1782836471427213800,9.6672138671875,-0.005898504517972469,0.004368526861071587,0.02541458234190941
1782836471437142800,9.677142822265624,-0.006333132274448872,-0.004490211606025696,0.012753913179039955
1782836471447071700,9.68707177734375,-0.00048575643450021744,-0.005426260642707348,0.011947094462811947
1782836471457000700,9.697000732421875,0.001780061051249504,-0.0065674250945448875,0.0185040645301342
1782836471466930000,9.706929931640625,0.0030689463019371033,-0.00976244080811739,0.017458640038967133
1782836471476859000,9.71685888671875,0.002255616709589958,-0.00335567444562912,0.011345885694026947
1782836471486787800,9.726787841796876,-0.0023249220103025436,0.003612726926803589,0.0005669882521033287
1782836471496717800,9.7367177734375,-0.00534334871917963,0.008548097684979439,-0.003938015550374985
1782836471506646800,9.746646728515625,-0.009103997610509396,0.013700248673558235,0.003016563132405281
1782836471516575700,9.75657568359375,-0.007458695210516453,0.011828641407191753,0.019013311713933945
1782836471526504700,9.766504638671876,-0.004151822067797184,0.010007361881434917,0.01593984290957451
1782836471536434000,9.776433837890625,0.0001257471740245819,0.0017166743054986,0.011701422743499279
1782836471546363000,9.78636279296875,0.0027085086330771446,0.0028698043897747993,0.0065153492614626884
1782836471556291800,9.796291748046874,0.004297616891562939,0.014273726381361485,0.0037179654464125633
1782836471566220800,9.806220703125,-0.0017043352127075195,0.02048596739768982,-0.0020774314180016518
1782836471576150800,9.81615087890625,-0.006876193918287754,0.02741444855928421,0.0026901597157120705
1782836471586079700,9.826079833984375,-0.012941823340952396,0.028394266963005066,0.014742979779839516
1782836471596008700,9.8360087890625,-0.011442995630204678,0.023208294063806534,0.02638738602399826
1782836471605938000,9.84593798828125,-0.0038375547155737877,0.012730930000543594,0.034005507826805115
1782836471615867000,9.855866943359375,0.002856033854186535,0.009000906720757484,0.01472715474665165
1782836471625795800,9.8657958984375,0.018231680616736412,0.02359796315431595,0.033734098076820374
1782836471635725800,9.875725830078125,0.0036263735964894295,-0.021437421441078186,-0.023916145786643028
1782836471645655000,9.885655029296874,0.01342820841819048,-0.03607955574989319,-0.07862850278615952
1782836471655583700,9.895583740234375,0.013717427849769592,-0.033777788281440735,-0.09270783513784409
1782836471665512700,9.9055126953125,0.0054613337852060795,-0.04265741631388664,-0.08698578923940659
1782836471675441700,9.915441650390624,0.0029323967173695564,-0.02265041694045067,-0.03850826621055603
1782836471685371000,9.925370849609376,0.0055629839189350605,-0.01294594258069992,0.005131818354129791
1782836471695304000,9.935303955078124,0.013926108367741108,-0.01882966421544552,0.010687971487641335
1782836471705233000,9.94523291015625,0.02194785699248314,-0.013050531037151814,0.0050717685371637344
