time,seconds_elapsed,z,y,x
1782831456889386500,0.081386474609375,0.38569150821268555,-0.4102675849340856,0.21435659803822635
1782831456899315500,0.0913154296875,0.38866438654363156,-0.41543790024407207,0.24678835669606922
1782831456909244400,0.101244384765625,0.4828291094064712,-0.37650567365102466,0.26078897112831473
1782831456919173400,0.11117333984375,0.517431051710248,-0.3572972614426166,0.23764738418944178
1782831456929103400,0.121103271484375,0.5224450804799795,-0.3960754665177315,0.19510851140655577
1782831456939032300,0.1310322265625,0.45447687514722346,-0.4382722478646785,0.2541994366701692
1782831456948961500,0.14096142578125,0.31195816348195077,-0.5111763752296566,0.29407551998458803
1782831456958890500,0.150890380859375,0.24300796137452124,-0.544376634041965,0.2714244930416345
1782831456968819500,0.1608193359375,0.1788175210148096,-0.47838988485001027,0.28323125069141386
1782831456978748400,0.17074853515625,0.09997954662144183,-0.4567914356999099,0.24419212965779005
1782831456988677400,0.180677490234375,-0.033416531911492346,-0.5213706561814994,0.24633279494829474
1782831456998606300,0.1906064453125,-0.06365034213364124,-0.598811915519461,0.3129352648857981
1782831457008535300,0.200535400390625,-0.16625673012733458,-0.6326675695005803,0.325106471933797
1782831457018464300,0.21046435546875,-0.322472543233633,-0.6969796634785831,0.3782677879527211
1782831457028393500,0.2203935546875,-0.45017537856101986,-0.7935688370093703,0.480247422350198
1782831457038322400,0.230322509765625,-0.6042863283425569,-0.8438586161799728,0.47698600940145547
1782831457048251400,0.24025146484375,-0.6762462336599826,-0.8429322220500558,0.42966136364676055
1782831457058180400,0.250180419921875,-0.6172989546507597,-0.7781487842332572,0.3722871791731566
1782831457068110600,0.260110595703125,-0.5426175154149532,-0.7349667912412434,0.3426367217969149
1782831457078039300,0.270039306640625,-0.4112053041756153,-0.7551615110732615,0.3170292562011629
1782831457087968300,0.27996826171875,-0.32658582377135753,-0.811763030673936,0.25769400078766047
1782831457097897200,0.289897216796875,-0.2281570137232542,-0.8529383600186556,0.280738410962373
1782831457107826400,0.299826416015625,-0.07041501396298408,-0.81846019022502,0.27723566353842616
1782831457117755400,0.30975537109375,-0.08566051388978958,-0.712350397220254,0.22465967312678695
1782831457127684400,0.319684326171875,-0.024769699597358703,-0.6713157915204763,0.16475662776269018
1782831457137613300,0.32961328125,0.009627660045027733,-0.648107861347124,0.17384857349582014
1782831457147542500,0.33954248046875,0.10932137546241283,-0.6522017795972526,0.19753266981355844
1782831457157471500,0.349471435546875,0.19907412710189817,-0.6826306740000844,0.29174736929796635
1782831457167400400,0.359400390625,0.22491642436683176,-0.699772289871797,0.340454043995589
1782831457177329400,0.369329345703125,0.38934710811078543,-0.6557810263235122,0.3078062314342707
1782831457187258400,0.37925830078125,0.450932334408164,-0.6556291967626661,0.23966888007968662
1782831457197187300,0.389187255859375,0.5631430015712976,-0.678935399678722,0.15991459455899892
1782831457207116300,0.3991162109375,0.7093956390678883,-0.6583763765789568,0.23676212578751146
1782831457217045200,0.409045166015625,0.7803694559574127,-0.6926284825317561,0.31987302825972436
1782831457226975500,0.4189755859375,0.8881535388499497,-0.7513141149301081,0.2919785477053374
1782831457236904400,0.428904541015625,0.8554355105966329,-0.7295772071573883,0.25213052144162357
1782831457246833400,0.43883349609375,0.7484428703427314,-0.7352982151526958,0.2724747327469289
1782831457256762600,0.4487626953125,0.7373387080043554,-0.7238958735853434,0.2267569376669824
1782831457266691300,0.45869140625,0.6551333030045032,-0.6327179845135659,0.07038958726078272
1782831457276620300,0.468620361328125,0.6129004274308681,-0.6498766245853156,0.0251369254745543
1782831457286549200,0.47854931640625,0.6158329737514258,-0.6876690334934741,0.10049619090668857
1782831457296478500,0.488478515625,0.59096448995471,-0.6798476191528141,0.16642887182384727
1782831457306407400,0.498407470703125,0.5929430965512991,-0.6812021025016903,0.26008243029415606
1782831457316336400,0.50833642578125,0.5555342801332473,-0.7247785747040063,0.2910780917342752
1782831457326265300,0.518265380859375,0.4451812235355377,-0.7276428050287067,0.19072795823477207
1782831457336194600,0.528194580078125,0.40054011777639387,-0.7410160082776099,0.15559402794614433
1782831457346123500,0.53812353515625,0.35487317610085006,-0.7737702038228511,0.19502682447247205
1782831457356052200,0.54805224609375,0.23549276343882083,-0.7357262313064188,0.26870960805974897
1782831457365982200,0.557982177734375,0.05962298631370067,-0.7732140312448144,0.3274856221552938
1782831457375911200,0.5679111328125,-0.08709609965085983,-0.847492807963863,0.2853659246325493
1782831457385840000,0.577840087890625,-0.2474579265207052,-0.8294090158712119,0.18618797671757636
1782831457395769000,0.58776904296875,-0.255227976000309,-0.7597890247434377,0.07129201599322259
1782831457405698300,0.5976982421875,-0.26509879715144635,-0.7087261423084884,0.05354140137769282
1782831457415627300,0.607627197265625,-0.41551907572150226,-0.7229137306801975,0.1592588340640068
1782831457425556200,0.61755615234375,-0.45686464706659313,-0.775503018964827,0.28609022031910714
1782831457435485200,0.627485107421875,-0.35505203979909417,-0.7579568408802151,0.30242198111265894
1782831457445414400,0.637414306640625,-0.2695616217792034,-0.6878472396045923,0.25058928334899244
1782831457455343400,0.64734326171875,-0.23208441630005835,-0.7001533250786364,0.24989267938695847
1782831457465272000,0.65727197265625,-0.1819061346799135,-0.7449490368776023,0.20559819510839877
1782831457475201000,0.667200927734375,-0.10204758506715297,-0.7152670153193176,0.18895992564894257
1782831457485130200,0.677130126953125,-0.04428980810344219,-0.7325915134772658,0.19521920523941516
1782831457495059200,0.68705908203125,-0.02831599390208721,-0.7647142792511731,0.23229257915802298
1782831457504989200,0.6969892578125,-0.013557400709390639,-0.8201962202373891,0.30773908448219295
1782831457514918400,0.70691845703125,-0.036246786901354786,-0.8634015941049903,0.35382520141787827
1782831457524847400,0.716847412109375,-0.07157587443590163,-0.8938429826632142,0.3513804386142641
1782831457534776300,0.7267763671875,-0.08678513400554656,-0.8800929819911718,0.28178777388483284
1782831457544705300,0.736705322265625,-0.05271043044626712,-0.8393257219906896,0.20569522574208676
1782831457554634200,0.74663427734375,0.014521861827373504,-0.788034656823054,0.14933935146555305
1782831457564563200,0.756563232421875,-0.0073345806717872615,-0.7855755001679062,0.0928753406394273
1782831457574492200,0.7664921875,-0.024038462713360784,-0.8241957382023334,0.08216112746670842
1782831457584421000,0.776421142578125,-0.09242284763157367,-0.8921959461085498,0.13963248870447278
1782831457594350300,0.786350341796875,-0.021755320212244987,-0.9364506098333746,0.1767498478952795
1782831457604279300,0.796279296875,-0.036249124988913535,-0.8357653991606085,0.23190664858035742
1782831457614208300,0.806208251953125,-0.1876134064108133,-0.8145992039479315,0.2717092282671481
1782831457624137200,0.81613720703125,-0.34686055003702637,-0.8637193548172711,0.29254692217782136
1782831457634066400,0.82606640625,-0.5312649312734603,-0.8251384989451617,0.3239548907458782
1782831457643995400,0.835995361328125,-0.7059440373092889,-0.8008350286200642,0.323781872266531
1782831457653925000,0.845925048828125,-0.8192313937932253,-0.7482854147586971,0.25004772381819784
1782831457663854000,0.85585400390625,-0.813579067119956,-0.6821409177217632,0.2800538627643138
1782831457673783300,0.865783203125,-0.8473550799936056,-0.621162644341588,0.43263110017254947
1782831457683712300,0.875712158203125,-0.8433131111264228,-0.5015162011545151,0.536706318609789
1782831457693641200,0.88564111328125,-0.859896581658721,-0.3298324775423854,0.6079330142818391
1782831457703570200,0.895570068359375,-0.9220371037513017,-0.17562281662672757,0.578010681161657
1782831457713499400,0.90549951171875,-0.9388175581604242,-0.054343657671287654,0.5511236240841448
1782831457723428400,0.915428466796875,-0.9208622147530316,-0.010712678802758455,0.49967992563806474
1782831457733357300,0.925357421875,-0.7021183415412903,0.02972315728627145,0.5009516991395503
1782831457743286000,0.9352861328125,-0.4164876284927129,0.1202717354785651,0.5492336456190794
1782831457753215200,0.94521533203125,-0.12046528528928756,0.23510675979591905,0.584052810870111
1782831457763144200,0.955144287109375,0.11686989114582538,0.306868512192741,0.5846657551366835
1782831457773073200,0.9650732421875,0.18011223700046539,0.2628281488057226,0.45746356280781325
1782831457783003400,0.97500341796875,0.27592121993899343,0.200726862744987,0.3422876160982996
1782831457792932400,0.984932373046875,0.37341128783226013,0.21776984054781495,0.277945053916797
1782831457802861300,0.994861328125,0.4692763848721981,0.2744181949649006,0.27340543772578235
1782831457812790300,1.004790283203125,0.490668132469058,0.34708303368128834,0.21991934673190117
1782831457822719200,1.01471923828125,0.41346857293248174,0.38880437953621144,0.2124983298856765
1782831457832648200,1.024648193359375,0.315262465724349,0.42701654822640117,0.18750906925350427
1782831457842577200,1.0345771484375,0.27751638017594815,0.5019034469064325,0.07813501375578344
1782831457852506000,1.044506103515625,0.2364613162100315,0.600234934059903,-0.008302402790635825
1782831457862435300,1.054435302734375,0.09154664931893348,0.6480287316963076,-0.042613253193348646
1782831457872364300,1.0643642578125,-0.10959434718489647,0.561033535136655,-0.05183218630701303
1782831457882293200,1.074293212890625,-0.23723405414819715,0.513908868933469,-0.06512341036088765
1782831457892222200,1.08422216796875,-0.2627741535961628,0.5259892558928578,-0.07969006117805838
1782831457902151400,1.0941513671875,-0.4500526289641857,0.5150928910862654,-0.12209580910056829
1782831457912080400,1.104080322265625,-0.6854413475066423,0.47439270497262476,-0.17150493297912178
1782831457922010000,1.114010009765625,-0.820007638862729,0.44268436521850524,-0.2874245376627892
1782831457931939000,1.12393896484375,-0.8220622333049774,0.4529718043465167,-0.4467785757295787
1782831457941868300,1.133868408203125,-0.7914139970630407,0.4022295321680605,-0.5389969868302344
1782831457951797200,1.14379736328125,-0.738415397325158,0.23296339109167455,-0.6363968191567808
1782831457961726200,1.153726318359375,-0.609942746669054,0.150628587558493,-0.8106218247495591
1782831457971655200,1.1636552734375,-0.32799627509117124,0.12841916690319777,-0.9032263125583528
1782831457981584400,1.17358447265625,-0.1086339777201414,0.015824834184721113,-0.8362255640182643
1782831457991513300,1.183513427734375,0.15716390761137009,-0.1710195606149733,-0.7369245011802762
1782831458001442300,1.1934423828125,0.4754056814074516,-0.2932007099114358,-0.7316825819388032
1782831458011371000,1.20337109375,0.7062140864223242,-0.36685901664458215,-0.7459172973878682
1782831458021300200,1.21330029296875,0.8760136037230492,-0.4776549947042018,-0.7574593396868556
1782831458031229200,1.223229248046875,0.9309189138650894,-0.5738397521525621,-0.6854502614654601
1782831458041158100,1.233158203125,0.956986836579442,-0.6109324152935296,-0.6261409442108125
1782831458051087000,1.243087158203125,0.9972826066106557,-0.6123186820201575,-0.6793428114358335
1782831458061016300,1.253016357421875,1.0701239709377288,-0.5632123404804616,-0.7293347767036408
1782831458070946300,1.2629462890625,1.0350678551256656,-0.5292593636047095,-0.7085276971269399
1782831458080875300,1.272875244140625,0.9136468765467405,-0.5704152575965971,-0.7376156252495945
1782831458090804200,1.28280419921875,0.7978443223714828,-0.5853040530402213,-0.7517723070263862
1782831458100733200,1.292733154296875,0.6859843683421611,-0.5669541573572904,-0.731182085070759
1782831458110662100,1.302662109375,0.6791331872731446,-0.5624387257594615,-0.6640637745656073
1782831458120591000,1.312591064453125,0.620666385257244,-0.5614948690380901,-0.5909408168181777
1782831458130520300,1.322520263671875,0.5884241578221321,-0.5722856545783579,-0.5373231353338808
1782831458140449300,1.33244921875,0.5160848977982998,-0.5963690524119883,-0.47051761710494755
1782831458150378200,1.342378173828125,0.44400808810293674,-0.6020064737770706,-0.3857680075149983
1782831458160307200,1.35230712890625,0.31609774750471115,-0.6155027188837527,-0.38742980324737725
1782831458170236400,1.362236328125,0.2364385198563337,-0.6142626556947827,-0.4894401250440627
1782831458180165400,1.372165283203125,0.10896657067537308,-0.6223302998814731,-0.5137025327064096
1782831458190094300,1.38209423828125,0.02848024455308914,-0.7136124530453235,-0.46935880245864386
1782831458200024000,1.392024169921875,0.022293080350756642,-0.7650549824476242,-0.4089266917191446
1782831458209953300,1.401953369140625,0.020769231784343718,-0.8334368831478058,-0.3931135479722172
1782831458219882200,1.41188232421875,0.10049275684058666,-0.8384994272343814,-0.36919111285395917
1782831458229811200,1.421811279296875,0.05196984121203422,-0.8457206106595695,-0.3478188006099313
1782831458239740200,1.431740234375,-0.05092120894193649,-0.9297095380753279,-0.34851832718141373
1782831458249669400,1.44166943359375,-0.18036241236925124,-0.9469888819172978,-0.3517861698709428
1782831458259598300,1.451598388671875,-0.23145371718108654,-0.9116496383149176,-0.3972473598413169
1782831458269527300,1.46152734375,-0.24668811119198797,-0.8507754098311067,-0.474071875520423
1782831458279456300,1.471456298828125,-0.3413403253108263,-0.8638582518313079,-0.5285124176949262
1782831458289385200,1.48138525390625,-0.44385026719272136,-0.9281007877044379,-0.4937169986456632
1782831458299314200,1.491314208984375,-0.5702016879111528,-1.0069015718925745,-0.4928862469099462
1782831458309243100,1.5012431640625,-0.7161988893419504,-1.0158035480115561,-0.47939277828224003
1782831458319172000,1.511172119140625,-0.8309551493346691,-1.0152818622250108,-0.42843934757113455
1782831458329102300,1.521102294921875,-0.9036363546639681,-0.982543741031736,-0.46889746855720876
1782831458339031300,1.53103125,-0.923455738377571,-0.834020893580839,-0.5113791312601417
1782831458348960300,1.540960205078125,-0.9924059404850005,-0.6984728246457874,-0.5198179468467832
1782831458358888700,1.550888671875,-1.0130202739685774,-0.6200104055665433,-0.447886317775771
1782831458368817700,1.560817626953125,-1.1543290253221987,-0.591078544788435,-0.31489553210809823
1782831458378746600,1.57074658203125,-1.3374772690176964,-0.5937742866784333,-0.2740975847084075
1782831458388675600,1.580675537109375,-1.4329337852567434,-0.5182176720432937,-0.3635395898982882
1782831458398604500,1.5906044921875,-1.506854176992178,-0.44317068743072446,-0.44403482997938987
1782831458408533500,1.600533447265625,-1.620227458193898,-0.4801198504477739,-0.39536490709558125
1782831458418462500,1.61046240234375,-1.6763333762973547,-0.4761963933937251,-0.28437216435484586
1782831458428391700,1.6203916015625,-1.684904220765829,-0.42184491774216293,-0.19601919651068747
1782831458438320600,1.630320556640625,-1.6919389417082071,-0.3338961467847228,-0.11065525441467762
1782831458448249600,1.64024951171875,-1.6520476608246564,-0.1746501722022891,-0.029127602545917033
1782831458458178600,1.650178466796875,-1.638946771711111,-0.01012450365126133,0.07391666540838777
1782831458468108500,1.660108642578125,-1.509882584902644,0.17474238053038715,0.18748817259594797
1782831458478037500,1.67003759765625,-1.234645255574584,0.4447770266488194,0.2721744346261024
1782831458487966500,1.679966552734375,-0.9621236149460076,0.7077845506094396,0.372582947249338
1782831458497895700,1.689895751953125,-0.7554343366652727,0.8361630932413041,0.3922651875145733
1782831458507824600,1.69982470703125,-0.4977046069771051,0.8390876023858785,0.2872333259396255
1782831458517753600,1.709753662109375,-0.23657822058796882,0.851960820223391,0.25490904624424876
1782831458527682600,1.7196826171875,0.003299626067280769,0.7635033690914511,0.30458712325729426
1782831458537611800,1.72961181640625,0.3669634268671274,0.6969384546853602,0.38864962736591696
1782831458547540700,1.739540771484375,0.7344839030951261,0.7236214405581355,0.4959579825054854
1782831458557469700,1.7494697265625,1.1072136384040117,0.7478620017148554,0.5246564729191363
1782831458567398700,1.759398681640625,1.3852695322841404,0.8200868415787815,0.518390032935515
1782831458577327600,1.76932763671875,1.5033493837416172,0.8564744982555508,0.47861938275694843
1782831458587256600,1.779256591796875,1.6073913574963807,0.7942889679774642,0.37614020133949816
1782831458597185500,1.789185546875,1.6288842273801565,0.7393493171744048,0.35202874645516274
1782831458607115500,1.799115478515625,1.6920149295538662,0.6857439837150275,0.4252504884019494
1782831458617044700,1.809044677734375,1.7902420795500278,0.6313673736222088,0.4920750035922974
1782831458626973700,1.8189736328125,1.695032816070318,0.5494719113543629,0.5600068955026567
1782831458636902700,1.828902587890625,1.5163310303896664,0.41991175772249695,0.6224808873333036
1782831458646831600,1.83883154296875,1.3140613221168518,0.2859476700432598,0.6394008232783526
1782831458656760600,1.848760498046875,1.1206348455131052,0.23430998339504003,0.6784555072072893
1782831458666689500,1.858689453125,0.8204442767143248,0.19556348863244055,0.772576537058875
1782831458676618500,1.868618408203125,0.4629273081064224,0.0965410966053605,0.7941621267274022
1782831458686547500,1.87854736328125,0.16983049696087837,0.08919087997302412,0.7148813039373606
1782831458696476700,1.8884765625,-0.07022913600206375,0.17736907577216623,0.6497407963111996
1782831458706405600,1.898405517578125,-0.3648153089225292,0.2004195503614843,0.5761145652167499
1782831458716334600,1.90833447265625,-0.62781684153378,0.20965032004341483,0.592305383169651
1782831458726263600,1.918263671875,-0.8138239817917347,0.2124592399843037,0.6714662328418344
1782831458736193500,1.928193603515625,-0.8244073351264,0.22648308916166424,0.7626054704036563
1782831458746122500,1.93812255859375,-0.7980588419049978,0.30568843556270003,0.7784319120235741
1782831458756051500,1.948051513671875,-0.6939075625568628,0.2992705313444137,0.692239921605587
1782831458765980700,1.957980712890625,-0.5070674786061048,0.2379594458132982,0.6210558229662477
1782831458775909600,1.96790966796875,-0.20167291142344473,0.21147870451435447,0.6024946956854313
1782831458785838600,1.977838623046875,0.12171557761132716,0.18007409694716334,0.5678421191729605
1782831458795767600,1.987767578125,0.44051264720261096,0.10462605725303292,0.5702212693944573
1782831458805696800,1.99769677734375,0.6398620841145515,0.00905132146179676,0.6186898244872688
1782831458815625700,2.007625732421875,0.8482873924076557,-0.13357231188267468,0.6464147206284105
1782831458825554700,2.0175546875,1.0576210477173327,-0.20592823078036307,0.5994480214659125
1782831458835483600,2.027483642578125,1.0308774176985025,-0.23073643575720487,0.6208293937992304
1782831458845412600,2.03741259765625,0.9772498724073171,-0.31305531106889245,0.692279084572196
1782831458855341600,2.047341552734375,0.9867997910410166,-0.3031743338499218,0.6240856921814382
1782831458865271600,2.057271484375,0.9305039033234119,-0.2281665852691978,0.5339460601162165
1782831458875200500,2.067200439453125,0.8068482975602149,-0.2649669144000858,0.5213876073163003
1782831458885129700,2.077129638671875,0.6462281120151281,-0.30882921780645844,0.5319687686938792
1782831458895058700,2.08705859375,0.4600076212674379,-0.3568891920983791,0.5746961497861892
1782831458904987600,2.096987548828125,0.30934418159127236,-0.3998950978711247,0.5278919477090239
1782831458914916600,2.10691650390625,0.16985329331457613,-0.40275209473744034,0.39945371077917513
1782831458924845600,2.116845458984375,0.09676292266249656,-0.4257672057524323,0.3734633102804422
1782831458934774500,2.1267744140625,0.09667173724770545,-0.4641241166755557,0.42082105458714064
1782831458944703500,2.136703369140625,0.050661681222915644,-0.4480761412594467,0.4573799031123519
1782831458954632400,2.146632568359375,-0.08385960194766522,-0.5011421071451158,0.45926016390100116
1782831458964561700,2.156561767578125,-0.33832769949138164,-0.5879155507128685,0.3990601083517074
1782831458974490600,2.16649072265625,-0.44521337223947044,-0.6221955675859004,0.33053317315764724
1782831458984419600,2.176419677734375,-0.40988370018303394,-0.5519191583760082,0.26696422569714484
1782831458994349800,2.186349853515625,-0.39707682558000085,-0.4699919857956469,0.22756416239663957
1782831459004278800,2.19627880859375,-0.38407296710014344,-0.4551676338903606,0.2773034680776298
1782831459014207500,2.20620751953125,-0.39480420447289943,-0.418517161558941,0.2948300646789372
1782831459024136400,2.216136474609375,-0.42607378748357294,-0.24619353260807691,0.19888233085684476
1782831459034065700,2.226065673828125,-0.53924774672091,-0.14941015167944133,0.1635599653240293
1782831459043994600,2.23599462890625,-0.640764001390338,-0.1911103086158633,0.23916662964597343
1782831459053923600,2.245923583984375,-0.6629670653700828,-0.2557264270417392,0.29673816332258285
1782831459063852500,2.2558525390625,-0.6411708286255597,-0.3190465873729437,0.2929435202799737
1782831459073781500,2.265781494140625,-0.5496721101015806,-0.37660869563408195,0.30161314894780517
1782831459083710700,2.275710693359375,-0.4837836336523294,-0.4223990444935858,0.3837405202753842
1782831459093639700,2.2856396484375,-0.495608511480689,-0.46365876418612895,0.4608269748263061
1782831459103568600,2.295568603515625,-0.5559902072072028,-0.4965178083453327,0.4519733678936958
1782831459113498600,2.30549853515625,-0.5578057321965694,-0.4486769566968083,0.3350390332095325
1782831459123427600,2.315427490234375,-0.6054039341956376,-0.41321459817141293,0.24598171648830175
1782831459133356500,2.3253564453125,-0.6782739400953054,-0.3969744611840695,0.20117548329532145
1782831459143285500,2.335285400390625,-0.7593570630669594,-0.43124636781588194,0.16434812002703547
1782831459153214700,2.345214599609375,-1.0584826329827308,-0.6249751883670688,0.06334083779305219
1782831459163143700,2.355143798828125,-1.4897276856243609,-0.8874290970329195,-0.12392784683331846
1782831459173072600,2.36507275390625,-1.8074509885042904,-1.0582961704999208,-0.34050928131416436
1782831459183001600,2.375001708984375,-2.0805057130962608,-1.1397739188123495,-0.6196653184559195
1782831459192930800,2.384930908203125,-2.213459893080592,-1.2123505677886306,-0.7718891393166035
1782831459202859500,2.394859619140625,-2.1196271786510943,-1.2673524701729415,-0.7323171535152941
1782831459212788500,2.40478857421875,-1.823838059681654,-1.1813424121931195,-0.47524661838822063
1782831459222717400,2.414717529296875,-1.412199040263891,-0.8887025510348379,-0.05993519406802952
1782831459232646700,2.424646728515625,-1.158547519800067,-0.5232044474799186,0.23158150827921925
1782831459242576600,2.43457666015625,-0.898871332219243,-0.26083850935846564,0.3593288403354585
1782831459252505600,2.444505615234375,-0.5303220974653959,-0.13494140827879308,0.4060563969798386
1782831459262434800,2.454434814453125,-0.11066577580869197,0.07664645569846033,0.4220817221727222
1782831459272363800,2.46436376953125,0.3263426626652479,0.35383009678870436,0.4356439451877028
1782831459282292500,2.47429248046875,0.7465987037807703,0.44602351957857606,0.47268327070623634
1782831459292221400,2.484221435546875,1.061895071774721,0.3972112656146288,0.5583823630407452
1782831459302150400,2.494150390625,1.4094769218236207,0.3744118431769311,0.5814456971116364
1782831459312079600,2.50407958984375,1.7575842570513487,0.45160511910319323,0.5998313216950744
1782831459322008600,2.514008544921875,2.061443285229802,0.5043061241339892,0.6199239693921059
1782831459331937500,2.5239375,2.1757541395425797,0.469513408498466,0.5560700675103813
1782831459341866500,2.533866455078125,2.167272726923227,0.40617278990112243,0.5521542823061346
1782831459351795700,2.543795654296875,2.0715923388004303,0.3669228025957942,0.6285309080872684
1782831459361726000,2.553725830078125,1.7882810086101293,0.34458675988614557,0.6817272954195738
1782831459371655200,2.5636552734375,1.4984692104846238,0.32988026220686734,0.5649172447022051
1782831459381584100,2.573584228515625,1.1982955928206442,0.40072102730125186,0.3584880786623806
1782831459391513000,2.58351318359375,0.7303647773385048,0.49325785670131445,0.15960143695659934
1782831459401442000,2.593442138671875,0.27372926285266874,0.4757973841387778,-0.008794935547932982
1782831459411371000,2.60337109375,-0.03458089951574802,0.4783213496584445,-0.15384411553889513
1782831459421300200,2.61330029296875,-0.3437976553350687,0.5316860792949796,-0.3292941328819841
1782831459431229200,2.623229248046875,-0.5857856260120868,0.49534357693418857,-0.43121882222183044
1782831459441158100,2.633158203125,-0.7022124495655298,0.46087899727448817,-0.43209502053447063
1782831459451087000,2.643087158203125,-0.7789742022067307,0.4861968322739005,-0.4154397268749773
1782831459461016000,2.65301611328125,-0.849058961302042,0.46932139305770393,-0.41697175874784587
1782831459470945000,2.662945068359375,-0.9314584275692701,0.415176911220327,-0.4438577198468148
1782831459480875000,2.672875,-0.8993512246906756,0.36178646262064573,-0.4778736058909446
1782831459490804200,2.68280419921875,-0.8275602461993694,0.25419709858261047,-0.5334817305400967
1782831459500733200,2.692733154296875,-0.7163643090367317,0.040671252280101176,-0.5271363801013678
1782831459510662100,2.702662109375,-0.45875908251106734,-0.10803228549994527,-0.48640974437221884
1782831459520591000,2.712591064453125,-0.09208382493555545,-0.12408479096069931,-0.46920068928748365
1782831459530520300,2.722520263671875,0.230792622923851,-0.1637198320608586,-0.39970403227843343
1782831459540449000,2.732448974609375,0.5323433741599322,-0.2693400879830122,-0.341176659181714
1782831459550378000,2.7423779296875,0.7663315782546997,-0.31069800735302266,-0.3206683433558792
1782831459560307000,2.752306884765625,0.8892933565348387,-0.3376902053054422,-0.28184206135533746
1782831459570236200,2.762236083984375,0.900262494316697,-0.4607597548089921,-0.21714754393100738
1782831459580165000,2.7721650390625,0.865006472018361,-0.5006874221801757,-0.21321444226577876
1782831459590094000,2.782093994140625,0.890752907693386,-0.43472251949384805,-0.2488761227555573
1782831459600024300,2.7920244140625,0.8262544242978096,-0.38591311507411297,-0.315756678982079
1782831459609953300,2.801953369140625,0.6424713898301124,-0.37180348730944096,-0.40722624447681005
1782831459619882000,2.811882080078125,0.4922749831438064,-0.3788746678046882,-0.4762713583260774
1782831459629811000,2.82181103515625,0.3637508945614099,-0.4315430857401341,-0.461934936068207
1782831459639740000,2.831739990234375,0.21631986093521116,-0.5269762941688299,-0.4429587982457131
1782831459649669000,2.841669189453125,0.10737082591652869,-0.5930098781771957,-0.4336393273670226
1782831459659598000,2.85159814453125,0.07476502586603165,-0.6107778823189437,-0.45513994216583664
1782831459669527000,2.861527099609375,0.03741173902750015,-0.6073556527853011,-0.5281025217197836
1782831459679456000,2.8714560546875,-0.017682371684908865,-0.6199015383645892,-0.545683917248249
1782831459689385200,2.88138525390625,-0.06212649356722831,-0.6723526602875441,-0.5696033566918224
1782831459699314200,2.891314208984375,-0.13780746523439882,-0.7178263444133103,-0.622376330980286
1782831459709243100,2.9012431640625,-0.1533849735945463,-0.7273734865680337,-0.6127681793533265
1782831459719173000,2.911173095703125,-0.16579788044393062,-0.6812931417860091,-0.5727518838506191
1782831459729102000,2.92110205078125,-0.21212825446426867,-0.660537280939892,-0.5513893623482435
1782831459739031000,2.931031005859375,-0.1939665748298168,-0.6570133445974439,-0.5844913484178483
1782831459748960000,2.9409599609375,-0.18878420375585556,-0.6566170387562364,-0.5711294702805578
1782831459758889200,2.95088916015625,-0.19737375292479992,-0.7104378415971994,-0.45009960991106923
1782831459768818200,2.960818115234375,-0.150440736836195,-0.7328079327069222,-0.3641122752197087
1782831459778747100,2.9707470703125,-0.10292086077034472,-0.725760644543916,-0.36516185733787715
1782831459788676000,2.980676025390625,-0.16911211955845354,-0.7220432314559817,-0.381274276292324
1782831459798605300,2.990605224609375,-0.3027361616283655,-0.7451588071707635,-0.37419754283912476
1782831459808534300,3.0005341796875,-0.45132747120559213,-0.7382062115538864,-0.33734424141198394
1782831459818463000,3.010462890625,-0.6440566131949425,-0.7019665850456803,-0.2654185306251049
1782831459828392000,3.020391845703125,-0.7953338008552789,-0.6308388197034597,-0.2730800782289356
1782831459838322200,3.030322265625,-0.8795505456775427,-0.5131814314417541,-0.3201432965684682
1782831459848251100,3.040251220703125,-0.9485317274451255,-0.4151425705593079,-0.36198775734640654
1782831459858180000,3.05018017578125,-0.9756044432878493,-0.3029603988382965,-0.3007690262738615
1782831459868109000,3.060109130859375,-1.046803885626793,-0.2557240158889443,-0.16026735351942478
1782831459878038300,3.070038330078125,-1.0575450598716736,-0.25976371973380447,0.004621083929389715
1782831459887967200,3.07996728515625,-1.1625690304011105,-0.2295423306018114,0.06543539891950785
1782831459897896000,3.08989599609375,-1.1871774019569157,-0.20287549214623868,0.11946882159784436
1782831459907825000,3.099824951171875,-1.3231927230775355,-0.19282734166681764,0.22842793961912392
1782831459917754000,3.109754150390625,-1.5276462051302193,-0.19715923339128494,0.332688086169213
1782831459927683000,3.11968310546875,-1.7014146260619163,-0.18956037576012313,0.40014563856609164
1782831459937612000,3.129612060546875,-1.738295619213581,-0.06619308541901409,0.5051114491675048
1782831459947541000,3.139541015625,-1.7415999214559792,0.09608378129191696,0.5782333840016275
1782831459957471200,3.14947119140625,-1.6673936985164879,0.20738434787280857,0.5686168298725038
1782831459967400200,3.159400146484375,-1.418240073993802,0.30561171706467866,0.5680074658025056
1782831459977329000,3.169328857421875,-0.9649912793368101,0.381285016882047,0.5135146089188755
1782831459987258000,3.179258056640625,-0.2593406720161438,0.5668226399321109,0.38314920331873
1782831459997187000,3.18918701171875,0.23670623088181017,0.6962340327430516,0.3519493976086378
1782831460007116000,3.199115966796875,0.4086959517031908,0.4605509343639016,0.4122396156594157
1782831460017045000,3.209044921875,0.6140601188600063,0.23212387152761219,0.42762123612128194
1782831460026974200,3.21897412109375,0.8340291499525309,0.18207579215839503,0.5271889870714396
1782831460036903200,3.228903076171875,1.0384668499141931,0.13336495274230836,0.7576044472459703
1782831460046832000,3.23883203125,1.16853816793859,0.21814386149197815,0.8143796429131179
1782831460056761000,3.248760986328125,1.1873416526079177,0.3961011124156415,0.6547955224175006
1782831460066691000,3.258691162109375,1.2249421922057866,0.5160416431784629,0.4426766933687031
1782831460076620000,3.2686201171875,1.2327397142142056,0.610843494901061,0.3530337587792426
1782831460086549000,3.278549072265625,1.229409693008661,0.6343998731859029,0.42168300517871976
1782831460096478200,3.288478271484375,1.2634475716888904,0.5847155125625432,0.5383564969696104
1782831460106407200,3.2984072265625,1.1581716722249984,0.4912386258333921,0.617340674900636
1782831460116336000,3.308336181640625,1.1360048486024141,0.41290626287460325,0.6727211282737553
1782831460126265000,3.31826513671875,1.075752332213521,0.3499894957125187,0.6889660875666886
1782831460136194000,3.328194091796875,0.9006307431071996,0.2874016682438552,0.77441098594442
1782831460146123300,3.338123291015625,0.7037403897851705,0.19332944597005844,0.9308828196384012
1782831460156052200,3.34805224609375,0.472307130870223,0.19122516716718674,0.9815869517635554
1782831460165981000,3.35798095703125,0.18227029181718826,0.22421178322881458,0.9630554889686405
1782831460175910000,3.367909912109375,-0.040208676269650453,0.23754560431540012,0.8820467464074492
1782831460185840000,3.377840087890625,-0.33052842391729353,0.31757644175514577,0.8685784122209995
1782831460195769000,3.38776904296875,-0.5817383964478969,0.34957200095281005,0.9072869130607694
1782831460205698000,3.397697998046875,-0.8055237709581852,0.3240313900481909,0.922116233402118
1782831460215627300,3.407627197265625,-0.9103349755197763,0.3054817340094596,0.8370395838148892
1782831460225556200,3.41755615234375,-0.856983324560523,0.29971644848100837,0.730819243107736
1782831460235485200,3.427485107421875,-0.7875286800622939,0.2449586570508778,0.6704170891150831
1782831460245414100,3.4374140625,-0.597840805464983,0.13849303634576499,0.7135774547971785
1782831460255343000,3.447343017578125,-0.33510698387920856,0.06638838879540562,0.7863948537267744
1782831460265272000,3.45727197265625,-0.0426946478664875,-0.01676496457904577,0.7662645043678581
1782831460275201000,3.467200927734375,0.20532734227776525,-0.07217742052562534,0.747231083400175
1782831460285130000,3.4771298828125,0.4736170444250107,-0.10696180672422051,0.8066768865160644
1782831460295060200,3.487060302734375,0.7345686587691307,-0.13976495597772298,0.8779447909813374
1782831460304989200,3.4969892578125,0.8719885859906673,-0.1284701664380729,0.9231577052790672
1782831460314918100,3.506918212890625,0.9661281744122504,-0.1069314115859568,0.9306029067184776
1782831460324847000,3.51684716796875,0.9642764090657233,-0.0873382378436625,0.8827728687249123
1782831460334776000,3.526776123046875,0.9167255533397197,-0.07000197618268429,0.8032589678313583
1782831460344705000,3.536705078125,0.927543884474039,-0.05224047484695911,0.7293815384548157
1782831460354634000,3.546634033203125,0.84432550303936,-0.07108597202710806,0.7633505166172981
1782831460364562700,3.556562744140625,0.737169781178236,-0.1964480163820088,0.8536891053207218
1782831460374491600,3.56649169921875,0.6805728646874427,-0.2539717653941363,0.8943686139725148
1782831460384420600,3.576420654296875,0.5999661270558834,-0.23119842724576592,0.8560152101807296
1782831460394349600,3.586349609375,0.5539209997177124,-0.264526842482388,0.7876348438505083
1782831460404278800,3.59627880859375,0.4704080192506313,-0.25350159059911964,0.7072022206768394
1782831460414208800,3.606208740234375,0.35889994739890096,-0.3533703703224659,0.6838582430336624
1782831460424137500,3.616137451171875,0.21968846058547495,-0.44226935467682776,0.7284566056296229
1782831460434066400,3.62606640625,0.18496610677242278,-0.47401020846106107,0.7293266664624214
1782831460443995600,3.63599560546875,0.20174480761587618,-0.5116146205164492,0.6985942590683698
1782831460453924600,3.645924560546875,0.08049509395062923,-0.5143579278752207,0.6811839092578739
1782831460463853600,3.655853515625,-0.07629939582645892,-0.5621640004713088,0.6952982862628996
1782831460473782500,3.665782470703125,-0.26965046910643575,-0.5461983695764094,0.6235392372798174
1782831460483711700,3.675711669921875,-0.43828094262778755,-0.47754152439236636,0.5646366011299192
1782831460493640700,3.685640625,-0.6768313400715589,-0.4923411802478134,0.5495639004867524
1782831460503569700,3.695569580078125,-0.823273362660408,-0.5262531675260513,0.5585598384995013
1782831460513498600,3.70549853515625,-0.9282143310815095,-0.46463352750241754,0.549718360396102
1782831460523428600,3.7154287109375,-0.9727601597726344,-0.43295229495093224,0.4634848689239472
1782831460533357600,3.725357666015625,-0.9798919113487005,-0.3878316620465368,0.3835312614388764
1782831460543286500,3.73528662109375,-1.0210334845542908,-0.3783311355125159,0.3486262445352971
1782831460553215700,3.7452158203125,-1.000702644187212,-0.45823666607215996,0.3757849581610411
1782831460563144700,3.755144775390625,-0.9093173229098319,-0.5516334002371878,0.4026222578126937
1782831460573073700,3.76507373046875,-0.7565659710437059,-0.6374643022578209,0.4280854195669293
1782831460583002600,3.775002685546875,-0.5757949778735637,-0.6711747025493532,0.3684545422077179
1782831460592931800,3.784931884765625,-0.5412579174995422,-0.6545236466735601,0.3182931386571377
1782831460602860800,3.79486083984375,-0.6466302630752324,-0.6729498224630951,0.3186920017816126
1782831460612789500,3.80478955078125,-0.8236930493772029,-0.7396643014077097,0.29986893562898037
1782831460622718500,3.814718505859375,-1.11676589512527,-0.7721900950245558,0.308377820777148
1782831460632648700,3.824648681640625,-1.445816063183546,-0.8367446194563061,0.3631519057549536
1782831460642577700,3.83457763671875,-1.8324813848644494,-0.8358963320638984,0.3253489754527807
1782831460652506600,3.844506591796875,-2.092283244651556,-0.7523305984962732,0.2872539303362369
1782831460662435600,3.854435546875,-2.1777198866575955,-0.6513407788537442,0.24458551288954913
1782831460672364800,3.86436474609375,-2.0656717165797946,-0.4919076476687565,0.1645481726437807
1782831460682293800,3.874293701171875,-1.7593910142123699,-0.3059380994748324,0.1607500955350697
1782831460692222700,3.88422265625,-1.3455220437854527,-0.1330850398223847,0.16741890577450394
1782831460702151400,3.8941513671875,-0.6668523823708296,-0.008463365506008267,0.02037248755171895
1782831460712080600,3.90408056640625,-0.0737643243908882,0.10702789423037319,-0.04365618637502193
1782831460722009600,3.914009521484375,0.4778454757750034,0.0985670494750142,0.03988412049040198
1782831460731938600,3.9239384765625,0.9148211810231208,0.06518127802796661,0.15049436671957372
1782831460741867500,3.933867431640625,1.207259235998988,0.029384353785961864,0.2512031043983996
1782831460751797800,3.9437978515625,1.3420599206328392,0.0030287001714110373,0.35574513662979007
1782831460761726700,3.953726806640625,1.3465326821327208,-0.02630173147022724,0.2908786967046559
1782831460771655700,3.96365576171875,1.3753162935465573,0.0026433541156351565,0.08861410299837588
1782831460781584600,3.973584716796875,1.4016963509500027,0.07770115238316357,-0.09213833160176872
1782831460791513600,3.983513671875,1.4661463190287352,0.12402173566184937,-0.23135376393795012
1782831460801442600,3.993442626953125,1.649800758680701,0.12894092575497926,-0.2689940510243177
1782831460811371500,4.00337158203125,1.7049217574000357,0.12004406420253216,-0.2531494161605835
1782831460821300700,4.01330078125,1.570249083060026,0.10283793172724544,-0.18399083199948071
1782831460831229700,4.023229736328125,1.2808178086847066,0.0861163678985089,-0.08911094660460948
1782831460841158700,4.03315869140625,0.8373194236695766,0.10210676790848373,-0.03798340143561363
1782831460851088600,4.043088623046875,0.36751521553099153,0.17379611265622077,-0.06887143778279424
1782831460861017600,4.053017578125,-0.018853753551840782,0.3129652216326445,-0.18589198944568633
1782831460870946600,4.062946533203125,-0.4199275398135185,0.4589625691939145,-0.27714871590733525
1782831460880875500,4.07287548828125,-0.7714139960855245,0.50861500030905,-0.2373692248351872
1782831460890804700,4.0828046875,-0.996558383989334,0.49825909905470905,-0.14609846984818578
1782831460900733700,4.092733642578125,-1.1567688196897505,0.4715840772926807,-0.10188932576552033
1782831460910662700,4.10266259765625,-1.1681459537506103,0.46629956101849673,-0.1613914621785283
1782831460920591600,4.112591552734375,-1.0074228923529387,0.4863393094845116,-0.23283348110169172
1782831460930520600,4.1225205078125,-0.8058797447890043,0.4657523023992777,-0.255718389865756
1782831460940449800,4.13244970703125,-0.38889877982139587,0.4363166568174958,-0.2613178173080087
1782831460950378800,4.142378662109375,0.15310089595615864,0.4683477987851947,-0.2433916999951005
1782831460960308500,4.15230859375,0.5628045633971691,0.3799476307984441,-0.35529607768803834
1782831460970237700,4.16223779296875,0.7988631440252065,0.2122216318361461,-0.40646541617214677
1782831460980166700,4.172166748046875,1.0289192693680524,-0.007917860452458262,-0.3198071234166622
1782831460990095600,4.182095703125,1.2305489261716605,-0.1665073438875377,-0.234186941537261
1782831461000024600,4.192024658203125,1.3313684307485818,-0.237735135538131,-0.18046791857033967
1782831461009953800,4.201953857421875,1.418851483890414,-0.2599585847187787,-0.19291297412365674
1782831461019882800,4.2118828125,1.3637871837943791,-0.20840068530850112,-0.23627996829375622
1782831461029811700,4.221811767578125,1.2147966457664965,-0.2573136962331831,-0.27220497589483855
1782831461039740700,4.23174072265625,1.1606038678079842,-0.32046010743267833,-0.31313714413344856
1782831461049669600,4.241669677734375,1.040063179194927,-0.31001711241677404,-0.3260150381460786
1782831461059598600,4.2515986328125,0.8506155430942773,-0.36143545722588893,-0.28712592004239557
1782831461069528600,4.261528564453125,0.6638888563901185,-0.3708784814190119,-0.24209479205235837
1782831461079457800,4.271457763671875,0.427796958014369,-0.3625316549647599,-0.20597791514098643
1782831461089386800,4.28138671875,0.2082230637192726,-0.37203714993484316,-0.2148058031104505
1782831461099315700,4.291315673828125,0.10847557228803634,-0.3457219013959169,-0.31743717941492794
1782831461109244700,4.30124462890625,-0.11115502063035965,-0.3679211659833789,-0.38704438412636516
1782831461119174000,4.311173828125,-0.26052140623331066,-0.5126131300345063,-0.36117242237553
1782831461129102600,4.3211025390625,-0.2566033560067415,-0.5161758640173822,-0.3810835760258138
1782831461139031600,4.331031494140625,-0.38507133048772807,-0.5006355458624661,-0.38423940970823167
1782831461148960500,4.34096044921875,-0.4886059392422437,-0.6152826463922858,-0.30659400610029697
1782831461158889500,4.350889404296875,-0.4218360037833452,-0.6113672995794565,-0.3744629888422787
1782831461168818700,4.360818603515625,-0.42413902002871035,-0.537373148488067,-0.4951316877491772
1782831461178748700,4.370748779296875,-0.4808820669919252,-0.6058890873640775,-0.4296443394467234
1782831461188677600,4.380677734375,-0.5262339513689279,-0.6640970923133194,-0.38786373768523336
1782831461198606800,4.39060693359375,-0.5472913524448871,-0.6503332092463969,-0.4643450659498572
1782831461208535600,4.40053564453125,-0.4967354696840047,-0.6391014750055969,-0.4620259753525257
1782831461218464500,4.410464599609375,-0.605110504207015,-0.6567866231694817,-0.3958918535791337
1782831461228393500,4.4203935546875,-0.726087830671668,-0.6902160876277834,-0.3262554227732122
1782831461238322700,4.43032275390625,-0.8044003198862075,-0.6871982741765678,-0.34028409425616263
1782831461248251600,4.440251708984375,-0.8462193539619445,-0.6164156690102071,-0.31852526691257954
1782831461258180600,4.4501806640625,-0.9044061699926853,-0.5755605115305632,-0.2788452906921506
1782831461268109600,4.460109619140625,-0.947341056355834,-0.5554491591330617,-0.2658031460285187
1782831461278038800,4.470038818359375,-1.0091115760922431,-0.5133346492420882,-0.2294378473140299
1782831461287968500,4.479968505859375,-1.0544184522837399,-0.4593683004505932,-0.1576454075179994
1782831461297897500,4.4898974609375,-0.9525772034436464,-0.3199146754443645,-0.12891045755147934
1782831461307826700,4.49982666015625,-0.9083405868321657,-0.22674860823005435,-0.0939892201654613
1782831461317755600,4.509755615234375,-0.9729594817370176,-0.2534693688299507,-0.02347717556878924
1782831461327684600,4.5196845703125,-1.1297978106558322,-0.33952078173346817,0.061816989226639266
1782831461337613600,4.529613525390625,-1.4444570497900246,-0.3794756293725222,0.0210782977335155
1782831461347542800,4.539542724609375,-1.730973313501477,-0.37198118196390567,0.02083236014842987
1782831461357472500,4.549472412109375,-2.041407628417015,-0.34078451805897053,0.07568637849465013
1782831461367401500,4.5594013671875,-2.1786954536914824,-0.26706213311366733,0.1599642058543861
1782831461377330400,4.569330322265625,-2.128852103114128,-0.11360007569491863,0.2547192958258092
1782831461387260400,4.579260498046875,-1.9544296021878718,0.024245310397073627,0.331931860974431
1782831461397189400,4.589189453125,-1.6722569206386804,0.09653466686457395,0.3924311917312443
1782831461407118600,4.59911865234375,-1.2603437604546546,0.1759146757127717,0.36648850283175705
1782831461417047600,4.609047607421875,-0.7732055556774139,0.31962175691239536,0.37892961286231874
1782831461426976500,4.6189765625,-0.4024824840158224,0.38611762467026706,0.39085517458617686
1782831461436905500,4.628905517578125,-0.18960837962031363,0.3285536167129874,0.37525384695902464
1782831461446834700,4.638834716796875,0.11392623890936374,0.2751627297218889,0.4858278528310358
1782831461456763400,4.648763427734375,0.3885053965896368,0.34202070879042146,0.5749430372193456
1782831461466692400,4.6586923828125,0.6471639315605163,0.4527217020429671,0.5224012413382529
1782831461476621300,4.668621337890625,0.9397147992610931,0.5769169676408171,0.43056539981439707
1782831461486550500,4.678550537109375,1.111985675111413,0.7143645135216414,0.33998131191730496
1782831461496480500,4.68848046875,1.2872089710265397,0.7420495891090482,0.2049273831747472
1782831461506409500,4.698409423828125,1.6082646331995725,0.7162447743102908,0.15602219023033975
1782831461516338700,4.708338623046875,1.8968647174477575,0.6479539859596639,0.21871698520481586
1782831461526267600,4.718267578125,2.1746236742079255,0.5117104090411215,0.30602234369218345
1782831461536196400,4.7281962890625,2.3510423173874617,0.40806079560481007,0.4864798869989812
1782831461546125300,4.738125244140625,2.22092365309,0.2944473489716649,0.704621556533873
1782831461556054500,4.748054443359375,1.9465952553004024,0.1176774812016636,0.9204612327367067
1782831461565983500,4.7579833984375,1.6080904456764458,0.08127375017292797,1.1226932393476365
1782831461575912400,4.767912353515625,1.2182944247543812,0.23580533651933072,1.2391523577354848
1782831461585841400,4.77784130859375,0.6177309163272381,0.3837887433312833,1.1776704456821083
1782831461595771600,4.787771728515625,0.09890753347575663,0.4809549130324274,1.0862459614381192
1782831461605700600,4.79770068359375,-0.3684218089818954,0.6243994343057274,1.0532933937765658
1782831461615629300,4.80762939453125,-0.6797662244796753,0.7163705926470458,0.928298356103152
1782831461625558300,4.817558349609375,-0.8236474566698074,0.7350492088276892,0.8269574580006301
1782831461635487500,4.827487548828125,-0.8713824367910623,0.6320210152253508,0.8209814523309469
1782831461645416400,4.83741650390625,-0.7326157711356878,0.3960523048378527,0.8681472542621195
1782831461655345400,4.847345458984375,-0.4735317042291164,0.23608780672252178,0.9229874632786959
1782831461665274400,4.8572744140625,-0.2249152553230524,0.2304922517377883,0.929095132504031
1782831461675203600,4.86720361328125,0.07016191598474979,0.2505418640106916,0.8167350469328463
1782831461685132500,4.877132568359375,0.33129882376790043,0.285543984613195,0.7151477728538215
1782831461695061500,4.8870615234375,0.5513643009722232,0.21604111705906687,0.686160382496193
1782831461704991500,4.896991455078125,0.740771020540595,0.17048172741122541,0.697536932035163
1782831461714920400,4.90692041015625,0.8986135580658912,0.08247121632918715,0.6501562452442944
1782831461724849400,4.916849365234375,1.0408902776688336,-0.050756739095225926,0.5792145770587027
1782831461734778400,4.9267783203125,1.1991337972104548,-0.1283146836154163,0.5453619918175041
1782831461744707600,4.93670751953125,1.274254212385416,-0.14347710836865007,0.5689401435427367
1782831461754636500,4.946636474609375,1.0877081429451703,-0.1661022702179849,0.6204907364293932
1782831461764565500,4.9565654296875,0.954554640996456,-0.19138620294779538,0.5942331363618374
1782831461774494500,4.966494384765625,0.8740671458303928,-0.12196392634920775,0.4631725881043821
1782831461784423700,4.976423583984375,0.6286871946275234,-0.13511924906373024,0.4338998779993504
1782831461794352600,4.9863525390625,0.4331050012946129,-0.28704686345681546,0.48384413166791196
1782831461804282400,4.996282470703125,0.2451876435011625,-0.3302222805775702,0.44820780481509864
1782831461814211300,5.00621142578125,0.14596388368308544,-0.38050270739793773,0.39785635858513413
1782831461824140500,5.016140625,0.14006664233803748,-0.39816564373001456,0.3621131372917443
1782831461834069500,5.026069580078125,0.08194587728083133,-0.4491805223047733,0.31581914975903924
1782831461843998500,5.03599853515625,0.04155073852837086,-0.6312663244005292,0.3094699268627912
1782831461853927400,5.045927490234375,0.04061667254865169,-0.7523285526696593,0.3201278798036277
1782831461863856600,5.055856689453125,-0.09075403763651847,-0.8104317090049385,0.3072917060408741
1782831461873785600,5.06578564453125,-0.1465320389598608,-0.8983495733674615,0.22315160665139555
1782831461883714600,5.075714599609375,-0.19147709610164165,-0.891674406452477,0.19121610707789657
1782831461893643300,5.085643310546875,-0.369563964754343,-0.8414422757532447,0.18036993808858096
1782831461903572500,5.095572509765625,-0.5138280587822198,-0.8251672866482287,0.11078852540552615
1782831461913502500,5.10550244140625,-0.6624906800299882,-0.8047593624569476,0.07750709111578762
1782831461923431400,5.115431396484375,-0.9101467594712972,-0.8410751229412853,0.12776231042966246
1782831461933360600,5.125360595703125,-1.0377239225924015,-0.8637480694551021,0.12843516818992792
1782831461943289600,5.13528955078125,-1.1794710653632878,-0.7776727642193436,0.04367094555273652
1782831461953218600,5.145218505859375,-1.226084932500124,-0.737263743072003,0.001456336288154125
1782831461963147500,5.1551474609375,-1.1736124024629593,-0.7092873563878238,0.03983640889115631
1782831461973076500,5.165076416015625,-1.1399860271930693,-0.7339896898373961,0.1519833631683141
1782831461983005400,5.17500537109375,-1.0387065038889647,-0.7864469492401928,0.2660457956779748
1782831461992934400,5.184934326171875,-0.9660276366472244,-0.7687026913002133,0.30641251205354925
1782831462002863400,5.19486328125,-0.902422302699089,-0.728330495031923,0.2697204656027257
1782831462012793600,5.204793701171875,-0.8410352293223142,-0.6712908032096923,0.2694770122356713
1782831462022722600,5.21472265625,-0.77645783547163,-0.6064174951523542,0.24858488472402093
1782831462032651500,5.224651611328125,-0.7037088256031274,-0.5941455311436206,0.29486089820861816
1782831462042580500,5.23458056640625,-0.6254162101328372,-0.49677317134588955,0.33715003401413557
1782831462052509400,5.244509521484375,-0.599349456462264,-0.42984227317161855,0.365548591633141
1782831462062438400,5.2544384765625,-0.7324141110837459,-0.49696686728708445,0.370072717994079
1782831462072367400,5.264367431640625,-0.9869131882876158,-0.526052384256944,0.4562319021210074
1782831462082296300,5.27429638671875,-1.1962906827390194,-0.548918807516247,0.6789810654513537
1782831462092225500,5.2842255859375,-1.397424664980173,-0.5208038891442119,0.8444820087753235
1782831462102154500,5.294154541015625,-1.5087760849654674,-0.35243922695219515,0.8155755016341805
1782831462112083500,5.30408349609375,-1.4939298134893177,-0.13665460540484636,0.7126178159847855
1782831462122013700,5.314013671875,-1.4803455247730015,0.014773681163974105,0.6147057963524013
1782831462131942400,5.3239423828125,-1.3269167120367287,0.14252689497172832,0.6028420478183776
1782831462141871400,5.333871337890625,-0.9517612108856439,0.36650647687986493,0.6669165336482227
1782831462151800300,5.34380029296875,-0.5698065511137247,0.4556207844853401,0.6806640501022339
1782831462161729500,5.3537294921875,-0.15594167234003542,0.3526099073439836,0.5702347133979201
1782831462171658500,5.363658447265625,0.28245091396868227,0.35285292231962084,0.5483224490582943
1782831462181587500,5.37358740234375,0.7528881593137979,0.34585020395070315,0.6357972458284348
1782831462191516400,5.383516357421875,1.0486018749594688,0.2643399416081607,0.7382570649582892
1782831462201445600,5.393445556640625,1.2349077059030533,0.21756606160402298,0.6897658596422522
1782831462211374600,5.40337451171875,1.4923060116797684,0.24309805081076918,0.4650511683925986
1782831462221304300,5.41330419921875,1.741740206709504,0.2960628213442862,0.3142614719882607
1782831462231233500,5.423233642578125,1.854278206130862,0.31868498751893637,0.33268231401555237
1782831462241162500,5.43316259765625,1.8152526021659374,0.33003355307243765,0.3609071225028485
1782831462251091500,5.443091552734375,1.6696084519565104,0.41962168873474,0.32087285295203327
1782831462261020400,5.4530205078125,1.3965321000546216,0.5409885990388691,0.25901626236736774
1782831462270949400,5.462949462890625,0.9788631528228521,0.6395698962349444,0.2192775416970253
1782831462280878600,5.472878662109375,0.6393120490163564,0.6635354398425668,0.1362571670524776
1782831462290807600,5.4828076171875,0.24356033456027507,0.7256593761265278,0.08610190098173916
1782831462300736500,5.492736572265625,-0.24937282023131846,0.718110787377879,0.04829729017913341
1782831462310665500,5.50266552734375,-0.5745856020838022,0.6922043388355523,-0.023697540321201086
1782831462320595500,5.512595458984375,-0.8214677745431661,0.7663225181654095,-0.0395892291970551
1782831462330524400,5.5225244140625,-1.0158581277430057,0.7220030455760658,-0.0787801067262888
1782831462340453400,5.532453369140625,-1.03735333571434,0.5948227728180587,-0.05604176682606339
1782831462350382600,5.542382568359375,-0.9230822288900613,0.44069684466309844,-0.03169036570601165
1782831462360311000,5.55231103515625,-0.7074217086464166,0.2952401067845523,-0.11421616176664828
1782831462370240300,5.562240234375,-0.3071358578920364,0.1896229926675558,-0.17666772256977856
1782831462380169200,5.572169189453125,0.061007718670368194,0.05295139959529042,-0.07425181564688682
1782831462390098200,5.58209814453125,0.32627953430116174,-0.09895122648701071,-0.0028621844980865714
1782831462400027100,5.592027099609375,0.5431453386813402,-0.21960355878099797,0.03782075821980834
1782831462409956000,5.6019560546875,0.7974550307929515,-0.24814948898144065,0.12930033365190027
1782831462419886000,5.611885986328125,0.8551935185343027,-0.22931780113093553,0.17333536327667534
1782831462429815000,5.62181494140625,0.7450912218272685,-0.2968723841615021,0.12218107623122632
1782831462439744300,5.631744140625,0.766565971532464,-0.3380572119869292,0.029205051696300506
1782831462449673200,5.641673095703125,0.7793658318728208,-0.30384675321877,0.05878814292475581
1782831462459602200,5.651602294921875,0.7599667193979024,-0.2998476005800068,0.13910232735052705
1782831462469531100,5.66153125,0.6625374417811631,-0.29577026813849805,0.11660218012034892
1782831462479460400,5.67146044921875,0.5167471610993146,-0.31569493885748084,0.025206848905608058
1782831462489389000,5.68138916015625,0.3653372869700193,-0.3230482972949743,-0.06912343978248536
1782831462499318000,5.691318115234375,0.22932255037128924,-0.2989428337600082,-0.13063216677755116
1782831462509247000,5.7012470703125,0.07025134783387184,-0.3028238399118185,-0.19978337134979665
1782831462519177200,5.71117724609375,-0.02466273209154606,-0.3040026013676077,-0.24486294159144162
1782831462529106200,5.721106201171875,-0.07818623248636722,-0.3056538757059723,-0.3097179102744907
1782831462539035100,5.73103515625,-0.055207507959008216,-0.2678266146801412,-0.3450266126081347
1782831462548964400,5.74096435546875,-0.026879239097237585,-0.26483210903927684,-0.4211993863802403
1782831462558893300,5.750893310546875,0.06317804844677448,-0.23253332911133764,-0.47623636007793246
1782831462568822300,5.760822265625,0.17920038285255432,-0.25723215542957184,-0.48361638732664286
1782831462578751000,5.7707509765625,0.22707740179300306,-0.31792554745376106,-0.48040144386813044
1782831462588680200,5.78068017578125,0.29172318470478054,-0.42679706025682385,-0.4666706593532115
1782831462598609200,5.790609130859375,0.42827334335446354,-0.5384728898908943,-0.4154935759540647
1782831462608538000,5.8005380859375,0.5493593908905983,-0.5550791567768901,-0.4018095531903207
1782831462618468000,5.810468017578125,0.5774608652591705,-0.5729422187909483,-0.31988515708893533
1782831462628397300,5.820397216796875,0.41786943823993206,-0.6584409662477672,-0.16756211363747714
1782831462638326300,5.830326171875,0.1468587866961956,-0.6844999750033021,-0.06816891553662717
1782831462648255200,5.840255126953125,-0.2060451351583004,-0.6925196883950382,-0.08098653072938322
1782831462658184000,5.850183837890625,-0.5648854613244533,-0.6423563851483166,-0.0690055855564773
1782831462668113200,5.860113037109375,-0.8569453306376934,-0.54411776391007,-0.0540739738844335
1782831462678042000,5.8700419921875,-1.1784873150229453,-0.44053639340437944,-0.034759763213992115
1782831462687971000,5.87997119140625,-1.383084589460492,-0.35766324521079657,0.01107530157007277
1782831462697900000,5.889900146484375,-1.4148901790440083,-0.29511012372933326,0.02289922955036163
1782831462707829200,5.899829345703125,-1.3306728496998548,-0.25862821289785204,0.019983342103660106
1782831462717758200,5.90975830078125,-1.216439152276516,-0.24782814807258544,-0.08466660748161375
1782831462727688200,5.919688232421875,-1.293887133616209,-0.3395850060760975,-0.1467473622109741
1782831462737617200,5.9296171875,-1.3063292665600776,-0.6261025849618017,-0.177815723561123
1782831462747546000,5.939546142578125,-1.2954805402874945,-0.8171526878230273,-0.17758366837091744
1782831462757475000,5.94947509765625,-1.3272346919447182,-0.8993027093738317,-0.1747265984393656
1782831462767404000,5.959404052734375,-1.538465705308318,-0.9386915936931968,-0.18363946127854286
1782831462777333200,5.969333251953125,-1.8652140261650085,-0.8573535461124032,-0.2574120420411229
1782831462787262200,5.97926220703125,-2.0855571512669324,-0.7037100677121431,-0.24736791014969348
1782831462797191200,5.989191162109375,-2.3219220213651655,-0.5680241246763617,-0.3150724961102009
1782831462807120100,5.9991201171875,-2.237311308789253,-0.3234204916082322,-0.3323299203813076
1782831462817049300,6.00904931640625,-1.8699959997445343,-0.029702114498242733,-0.2718281054064631
1782831462826979000,6.01897900390625,-1.3708476236999034,0.2383927957292646,-0.1518186741258949
1782831462836908000,6.028907958984375,-0.7272399233162403,0.480863289226219,-0.03315503143109381
1782831462846837000,6.0388369140625,-0.13708032000362871,0.6980080566782504,0.09976502708792685
1782831462856766200,6.04876611328125,0.3498310902804136,0.7568499756168574,0.26212233862392603
1782831462866695200,6.058695068359375,0.7008423302561044,0.743811484215036,0.42090566413067276
1782831462876624100,6.0686240234375,0.9774725752472877,0.7384126939114183,0.5515371002558619
1782831462886553000,6.078552978515625,1.3168009762138126,0.8377485358018427,0.5764367098432034
1782831462896482300,6.088482421875,1.5942945600360632,1.0484688962295652,0.4906290425676852
1782831462906411300,6.098411376953125,1.7248112837404013,1.1473565559610723,0.4565169296074658
1782831462916340200,6.10834033203125,1.5924533160835503,1.0322292706988752,0.5320533051721751
1782831462926270200,6.118270263671875,1.5155647221922874,0.8644045606024563,0.6075395579848438
1782831462936199200,6.12819921875,1.522449221009016,0.8660875452533364,0.7131660975173115
1782831462946128100,6.138128173828125,1.5208488000750542,0.8303073529504239,0.7186721475876867
1782831462956057000,6.14805712890625,1.444790227267146,0.7502252237148582,0.7506182416204362
1782831462965986300,6.157986328125,1.306684655869007,0.6965075159221887,0.7945373167153448
1782831462975915300,6.167915283203125,1.1470412064015865,0.6340669879697263,0.8437376932140439
1782831462985844200,6.17784423828125,0.8974071048855781,0.5649062118515372,0.8368684650316834
1782831462995773200,6.187773193359375,0.5544581753343344,0.5245169183179735,0.8318128621425479
1782831463005702100,6.1977021484375,0.16700900979936123,0.46420741104483604,0.9051534081634134
1782831463015631000,6.207631103515625,-0.14368483283519745,0.4516127909529954,0.9649099577289074
1782831463025561000,6.21756103515625,-0.38995033470094204,0.4832953386787325,0.9172909321375191
1782831463035490000,6.227489990234375,-0.6385843192636966,0.48102352128922937,0.8230599391054362
1782831463045419300,6.237419189453125,-0.7026496719390154,0.5884932044703512,0.7511667423486709
1782831463055348200,6.24734814453125,-0.634683804693818,0.6800872731275857,0.7097491286806762
1782831463065277200,6.257277099609375,-0.6500275042980909,0.6374634254749864,0.5695153861474246
1782831463075206100,6.2672060546875,-0.499452327427268,0.5747316594909876,0.43697829906400293
1782831463085135000,6.277135009765625,-0.12926935399174688,0.5370523555684834,0.35514187350701537
1782831463095064000,6.28706396484375,0.14996610506176947,0.4451966403003782,0.46025363191775975
1782831463104993000,6.296992919921875,0.3787310215502977,0.28564591061770916,0.5510457730749622
1782831463114922000,6.306921875,0.7152817744970321,0.17974698388464747,0.6155800219036638
1782831463124852200,6.316852294921875,0.9604916298300027,0.11290551755949854,0.693036332680285
1782831463134781200,6.32678125,1.096560142442584,0.008655819338187576,0.671692077486962
1782831463144710100,6.336710205078125,1.2309814723700285,-0.0923264745850116,0.6035961906539276
1782831463154639400,6.346639404296875,1.292529289266467,-0.15952157665342093,0.529716642385535
1782831463164568000,6.356568115234375,1.195616144478321,-0.23460034464374183,0.6550489126566797
1782831463174497000,6.3664970703125,1.072417634832859,-0.3266006560143083,0.7280427641317248
1782831463184426000,6.376426025390625,0.9869967749178409,-0.2586393918789923,0.7204620266791433
1782831463194355200,6.386355224609375,0.7775789484560489,-0.2161757032241672,0.7216950756054371
1782831463204284200,6.3962841796875,0.5651134248614311,-0.32445933313667774,0.6652966773614287
1782831463214213000,6.406213134765625,0.3155412826657295,-0.370598130107671,0.6624784050703049
1782831463224143400,6.416143310546875,0.033868367332220074,-0.47560025413148105,0.6879153364047408
1782831463234072300,6.426072265625,-0.038359249010682106,-0.5933961010158062,0.6303852307170629
1782831463244001000,6.4360009765625,-0.06514087295234203,-0.5668751007717102,0.5116354075761511
1782831463253930000,6.445929931640625,-0.06815232972800732,-0.5752384399693459,0.49753754331450906
1782831463263859000,6.45585888671875,-0.08796177656948566,-0.7062137210961431,0.5833210259968414
1782831463273788200,6.4657880859375,-0.13480126915574073,-0.7435656196951865,0.6006595161475241
1782831463283717000,6.475717041015625,-0.1933393828421831,-0.660970192464441,0.6011985183950513
1782831463293646000,6.48564599609375,-0.27074410956203937,-0.6108467828366905,0.5015393993670121
1782831463303575000,6.495574951171875,-0.3246124778717756,-0.5633564251262694,0.4213978315617889
1782831463313504300,6.505504150390625,-0.47018180927932257,-0.5079048062130809,0.3863939573936164
1782831463323434200,6.515434326171875,-0.6712322048902511,-0.5489436496965587,0.40194213006142526
1782831463333363000,6.525363037109375,-0.832674812734127,-0.6176059747733176,0.4729369166737422
1782831463343292200,6.535292236328125,-0.9638345105171203,-0.5708730113014578,0.43420693465452637
1782831463353221000,6.54522119140625,-1.0665268232285976,-0.4560420055720955,0.32359022215195
1782831463363149800,6.55514990234375,-1.163482053592801,-0.348629313275218,0.30146077139768745
1782831463373078800,6.565078857421875,-1.2121283033400774,-0.30981947095282375,0.3101503103423863
1782831463383007700,6.5750078125,-1.2960907811403273,-0.3200122905999422,0.3228052092541009
1782831463392937000,6.58493701171875,-1.3863304395139218,-0.3807313285220414,0.2680461574486457
1782831463402866000,6.594865966796875,-1.2790747644096612,-0.40905952431857584,0.2214376606066711
1782831463412795000,6.604794921875,-1.2166174314528704,-0.2706829539593309,0.28314709780560804
1782831463422724900,6.614724853515625,-1.219600246655941,-0.24167130594328046,0.38902299072295426
1782831463432653800,6.62465380859375,-1.3336813838660717,-0.2956269872102886,0.436623457744345
1782831463442582800,6.634582763671875,-1.4803776734769343,-0.29982275839969513,0.37245205087866634
1782831463452511700,6.64451171875,-1.5454361288428307,-0.2265369382407516,0.3134882225934416
1782831463462441000,6.65444091796875,-1.5756979961156845,-0.17897906825207172,0.3402380631573498
1782831463472370000,6.664369873046875,-1.467466753977537,-0.06554653114378452,0.2910619625833817
1782831463482299000,6.674298828125,-1.2396253820747136,0.05098967106826603,0.27835876755053174
1782831463492227800,6.684227783203125,-0.9535451716929674,0.06461202677264809,0.27083763306438924
1782831463502157000,6.694156982421875,-0.695458883652091,0.09278371683321893,0.32169001455381513
1782831463512086000,6.7040859375,-0.3487333581715822,0.13469956234693525,0.2883896929005161
1782831463522015700,6.714015625,0.02120002441704273,0.17412264119684695,0.21046481476407497
1782831463531944700,6.72394482421875,0.24864684404432771,0.16121135637126863,0.15000875689340754
1782831463541874000,6.7338740234375,0.43787645348012444,-0.010554784827306866,0.24433420500960198
1782831463551803000,6.743802978515625,0.7198205869704485,-0.11779292427487671,0.3231984463553875
1782831463561731800,6.75373193359375,0.9102823685497045,0.03823036193400621,0.4027738681778312
1782831463571660800,6.763660888671875,0.8709434608519077,0.14056852744556964,0.4537256549211219
1782831463581590000,6.773590087890625,0.9123679426521062,0.21268157749809324,0.3971816741939634
1782831463591519000,6.78351904296875,1.1085194603055715,0.33369266010187565,0.30480518645476545
1782831463601448000,6.793447998046875,1.1904793661117552,0.3444564845699817,0.2936556140720844
1782831463611376600,6.803376708984375,1.2143892340093851,0.2691564019791782,0.2958578733567148
1782831463621307000,6.813306884765625,1.3368038998007774,0.33039098820798096,0.27803163622170685
1782831463631235800,6.82323583984375,1.4210720825493335,0.4159740529473871,0.23594445272907613
1782831463641164800,6.833164794921875,1.3528916957706212,0.44511948341093954,0.18831706116814165
1782831463651094000,6.843093994140625,1.1496177788913249,0.43021125261448323,0.05377831540610641
1782831463661023000,6.85302294921875,0.8083399974226951,0.46305926392301916,0.05924297402016818
1782831463670952000,6.862951904296875,0.39597149468660353,0.412078579878807,0.11848470593132078
1782831463680881000,6.872880859375,0.04877192195355892,0.3859983091395348,0.021487791849859057
1782831463690809900,6.882809814453125,-0.40682489713430403,0.48156033157967026,-0.1414953234342858
1782831463700738800,6.89273876953125,-0.9340548738032579,0.5048065479367971,-0.2601042767997831
1782831463710668800,6.902668701171875,-1.362968853148818,0.4246647244032472,-0.3470943953255191
1782831463720597800,6.91259765625,-1.6784131051808595,0.40541999877244234,-0.3501241184102371
1782831463730527000,6.92252685546875,-1.9182599721759557,0.4120457735877484,-0.290814289698936
1782831463740456000,6.9324560546875,-1.997389622992277,0.3620879297852516,-0.15259601517394183
1782831463750385000,6.942385009765625,-1.8731734607368706,0.35205833787582813,-0.1969024090860039
1782831463760313900,6.95231396484375,-1.4481711018770933,0.45430086099319156,-0.2972387332558632
1782831463770242800,6.962242919921875,-0.9413660735994577,0.4560241776544601,-0.416712559822388
1782831463780171800,6.972171875,-0.42220775970518587,0.31030228603370485,-0.4448404472738504
1782831463790100700,6.982100830078125,0.10156126285493373,0.09004859278090298,-0.3620165815820917
1782831463800029700,6.99202978515625,0.6242372294813394,-0.09645312606096267,-0.21962525915615258
1782831463809960000,7.0019599609375,1.0460112739443779,-0.24430866870954632,-0.16718122456111012
1782831463819889000,7.011888916015625,1.478045431137085,-0.3287986044500023,-0.22426555924266575
1782831463829817900,7.02181787109375,1.7543115189909935,-0.33908363242521883,-0.2672514451406896
1782831463839747000,7.0317470703125,1.766360268703103,-0.3980206092361361,-0.30865576093569397
1782831463849675800,7.04167578125,1.7576438782840966,-0.4951957659613341,-0.34551812245212493
1782831463859604700,7.051604736328125,1.7538661133110522,-0.46183527508601546,-0.39399478778615593
1782831463869533700,7.06153369140625,1.4763018023401497,-0.41754817039631303,-0.3357389981724322
1782831463879463000,7.071462890625,1.1592553758084774,-0.4830225861519575,-0.33960363771133123
1782831463889391900,7.081391845703125,0.961526233574748,-0.4609147992402315,-0.3920920959699899
1782831463899320800,7.09132080078125,0.787841983795166,-0.37425226870104666,-0.4178416734501719
1782831463909251000,7.1012509765625,0.562506457233429,-0.4257265814810991,-0.39870683793462813
1782831463919180000,7.111179931640625,0.3744230952233076,-0.4796089052509516,-0.43357634513340887
1782831463929108700,7.121108642578125,0.23245967935323714,-0.511203555497527,-0.47498884423486887
1782831463939037700,7.13103759765625,0.07577917134463787,-0.5859262035265564,-0.45105216139554977
1782831463948966700,7.140966552734375,-0.04868249010443687,-0.6663439944572747,-0.385077541032806
1782831463958895900,7.150895751953125,0.02651566648185253,-0.7311239251427352,-0.42688722275830804
1782831463968824800,7.160824951171875,0.04636018463671207,-0.6813458218213171,-0.43166444709748025
1782831463978753800,7.17075390625,-0.07055646826028823,-0.7038043218668549,-0.37122254561632867
1782831463988682800,7.180682861328125,-0.16715923192501067,-0.8020864899858832,-0.32053784884400666
1782831463998612000,7.190612060546875,-0.20417349606752394,-0.7699006689131259,-0.29358240270540115
1782831464008541700,7.200541748046875,-0.27978432510793205,-0.7604191393405199,-0.28381321529783304
1782831464018470700,7.210470703125,-0.3381014895200729,-0.7998418528642505,-0.281674157442525
1782831464028399900,7.22039990234375,-0.31058862869441506,-0.7810761429220437,-0.29188955424763263
1782831464038328800,7.230328857421875,-0.4121984068661928,-0.7956229930602013,-0.289872296141088
1782831464048257800,7.2402578125,-0.5025362649172544,-0.8604153448358177,-0.2653369167562574
1782831464058186800,7.250186767578125,-0.613053572165966,-0.8161545436311513,-0.27319369467124344
1782831464068116000,7.260115966796875,-0.8060895881474017,-0.8215528224781156,-0.3184844965107739
1782831464078045000,7.270044921875,-0.9745563955396414,-0.8395163491919636,-0.3419558999259025
1782831464087974000,7.279973876953125,-1.1442512834221124,-0.7374244865916669,-0.35999490302875636
1782831464097902800,7.28990283203125,-1.2565513824343681,-0.6711948685545474,-0.39928434556163844
1782831464107832800,7.299832763671875,-1.3149088788568972,-0.6528227610398084,-0.3805879745285958
1782831464117761800,7.30976171875,-1.2836924873381852,-0.6725977941550314,-0.3065666066367179
1782831464127690800,7.319690673828125,-1.2545114010393619,-0.5775690748739988,-0.26851474307477474
1782831464137620000,7.329619873046875,-1.3094143730938435,-0.4297852092221379,-0.2850651150550693
1782831464147549000,7.339548828125,-1.3623410766392945,-0.40895832896642387,-0.23649485315345226
1782831464157478000,7.349477783203125,-1.5068915863931178,-0.4022774629630148,-0.22051314790658652
1782831464167406800,7.35940673828125,-1.60222652207911,-0.3677066464498639,-0.18564042583741247
1782831464177335800,7.369335693359375,-1.7068886735588311,-0.3093088180169463,-0.1770569410830736
1782831464187265000,7.37926513671875,-1.7779022379368543,-0.2487081457775086,-0.1685784510731697
1782831464197194000,7.389194091796875,-1.8744231685370205,-0.22773805765882132,-0.046438072178512806
1782831464207123700,7.399123779296875,-1.9403759423941374,-0.23150778545588255,-0.006067373747564852
1782831464217053000,7.409052978515625,-1.8255232362896203,-0.15784801741801202,-0.03779054574463516
1782831464226982000,7.41898193359375,-1.618648080047965,-0.01483048938512802,0.0019996859172359107
1782831464236910800,7.428910888671875,-1.3420353707134722,0.04826163434386253,0.08382949907034636
1782831464246839800,7.43883984375,-0.8238836035132407,0.16962109199389813,0.10808401568718254
1782831464256769000,7.44876904296875,-0.3005453735858202,0.3437086618773639,0.16735767710655927
1782831464266698000,7.458697998046875,0.25198446403443814,0.432759183531627,0.19403715584799647
1782831464276627000,7.468626953125,0.7599123588621616,0.563347291971743,0.23078553559593856
1782831464286555600,7.4785556640625,1.027771268376708,0.660278410807997,0.3164641696643084
1782831464296486000,7.48848583984375,1.274968498134613,0.6621549452695995,0.37338045430257916
1782831464306414800,7.498414794921875,1.4613631764054298,0.7541521879002452,0.41872276713363826
1782831464316343800,7.50834375,1.638528838559985,0.8914676318340004,0.36409371664971113
1782831464326273000,7.51827294921875,1.7409920186907053,0.9914126916639506,0.33146154004894196
1782831464336202000,7.528201904296875,1.8437053741902112,1.0709944701619445,0.38650370137840506
1782831464346131000,7.538130859375,1.9395219559133052,1.1764100703574716,0.4149884759761393
1782831464356060000,7.548059814453125,1.8970529334962367,1.2312475759603083,0.4179544131096452
1782831464365992200,7.5579921875,1.789978460177779,1.216159166291356,0.43825127814188597
1782831464375921200,7.567921142578125,1.6460983970314262,1.1816625840581954,0.5021225695498287
1782831464385850000,7.57785009765625,1.5742723472267388,1.2084322253011166,0.5290833494506776
1782831464395780400,7.5877802734375,1.5146487763911485,1.2265211319603024,0.6325729500196874
1782831464405709300,7.597709228515625,1.3239157766550778,1.1430177961044012,0.747327456446737
1782831464415638300,7.60763818359375,1.1093179172068834,1.0708587149530648,0.8528068425934762
1782831464425567500,7.6175673828125,0.6764706900656223,0.9796240541927516,0.8695073636341839
1782831464435496400,7.627496337890625,0.32080256419479847,0.8791736751891672,0.9173550834149121
1782831464445425200,7.637425048828125,-0.07004501160681248,0.8443721186600625,0.8763479502439498
1782831464455354000,7.64735400390625,-0.5252548772037029,0.8066584740765392,0.8090169468361884
1782831464465283000,7.657282958984375,-0.9116326141148805,0.7596041696958243,0.7809361499294638
1782831464475212300,7.66721240234375,-1.240868660134077,0.7212118951983749,0.7197424071677029
1782831464485141200,7.677141357421875,-1.326871703851223,0.7168515080317854,0.6514049301311373
1782831464495071200,7.6870712890625,-1.2000427287489175,0.7046869499202817,0.6592967062942683
1782831464505000400,7.69700048828125,-1.0094313095659018,0.6310065044205635,0.739231536013633
1782831464514929400,7.706929443359375,-0.8281529513955116,0.4280359544020146,0.7883410193584859
1782831464524858000,7.716858154296875,-0.5987497370034456,0.22932247730605304,0.8130628612261265
1782831464534787000,7.726787109375,-0.2974193505197763,0.0913678586859256,0.7732218492250889
1782831464544716300,7.73671630859375,-0.051366614621877665,0.002346709256619215,0.7904795657571405
1782831464554645200,7.746645263671875,0.2383908229678869,-0.09053652242831885,0.7937105105023831
1782831464564574200,7.75657421875,0.44930444094538685,-0.06046827803142368,0.7724203966490923
1782831464574503200,7.766503173828125,0.5579571233659982,-0.08434351300708949,0.7304973907422274
1782831464584432400,7.776432373046875,0.7018845327854156,-0.13419058991149066,0.6489341561034322
1782831464594362400,7.7863623046875,0.7631985409259796,-0.13663980969451367,0.5664481075312942
1782831464604291300,7.796291259765625,0.7910282126158475,-0.21877726402468978,0.5597452488917857
1782831464614220300,7.80622021484375,0.8662205239832401,-0.2983741670265794,0.6156862587571144
1782831464624149200,7.816149169921875,0.8957283580183982,-0.3066634180746972,0.6684006347261369
1782831464634078200,7.826078125,0.8245821071714162,-0.344114539264515,0.6869318783253431
1782831464644007200,7.836007080078125,0.7125836214542388,-0.39330987426191566,0.6102001554962247
1782831464653936400,7.845936279296875,0.5937883152037858,-0.41424043408781286,0.5759058178368955
1782831464663865300,7.855865234375,0.46061610855460167,-0.46598523437231776,0.5386899667076767
1782831464673794300,7.865794189453125,0.31248131057322026,-0.47541868701949713,0.4729840802837163
1782831464683723300,7.87572314453125,0.0992617537409067,-0.4665196335099637,0.41610480318758636
1782831464693653200,7.8856533203125,-0.02286006658375263,-0.4835991439308971,0.3963294412788003
1782831464703582200,7.895582275390625,-0.20592121651768683,-0.5197722810741514,0.3314451003707945
1782831464713511200,7.90551123046875,-0.36211072613894935,-0.4803321780242026,0.31729265637770293
1782831464723440000,7.915440185546875,-0.5272381599754095,-0.49149530400820074,0.33264574486482884
1782831464733369300,7.925369384765625,-0.5932160682737827,-0.42864056923165916,0.3108532709799707
1782831464743298300,7.93529833984375,-0.7172960369288921,-0.3340814402237534,0.2876459983937442
1782831464753227300,7.945227294921875,-0.7505331206202507,-0.3243585031107068,0.2538223835187033
1782831464763156200,7.95515625,-0.8363643149018287,-0.3265852392494678,0.25633224744778127
1782831464773085400,7.96508544921875,-0.8867389958769083,-0.343967239748314,0.1795331219382584
1782831464783014400,7.975014404296875,-0.8510615332961082,-0.3080921357035637,0.12382299821935594
1782831464792944000,7.984944091796875,-0.8399123627722263,-0.3338641442112624,0.09114639795497059
1782831464802873300,7.994873291015625,-0.8088613909482956,-0.34158867404870685,0.0921618586078286
1782831464812802300,8.00480224609375,-0.8018371913999318,-0.3307957696165889,0.06784646038291975
1782831464822731300,8.014731201171875,-0.7126508414715528,-0.3491253531638533,0.08773962171878665
1782831464832660200,8.02466015625,-0.574660420885682,-0.3921284824576229,0.126136736788135
1782831464842589400,8.03458935546875,-0.5573685098230838,-0.4167987402684986,0.2102538023618981
1782831464852518400,8.044518310546875,-0.7032797865360975,-0.3845432149603963,0.2914307958957739
1782831464862447400,8.054447265625,-0.9254659091562032,-0.4206695172872394,0.27785443475758653
1782831464872376300,8.064376220703124,-1.19063835606575,-0.5103345175780356,0.3232797679632902
1782831464882305300,8.07430517578125,-1.2936626772105693,-0.5876804267827421,0.42188722251392896
1782831464892235300,8.0842353515625,-1.1627484786212443,-0.4659807043276727,0.49561238393820817
1782831464902164200,8.094164306640625,-1.0242150371998548,-0.2888775860153138,0.4546750280678272
1782831464912093200,8.10409326171875,-0.9622913727283477,-0.21035956429131328,0.2920682352827862
1782831464922022400,8.1140224609375,-1.0699269870609045,-0.20475114982500672,0.15048179949894547
1782831464931951400,8.123951416015625,-1.049351232022047,-0.1931590578392148,0.04680381848467514
1782831464941880300,8.13388037109375,-0.7715449289888143,-0.17329093961305916,0.022712255610898135
1782831464951809300,8.143809326171874,-0.5428355420798063,-0.22631934996731579,0.1447478954894468
1782831464961738200,8.15373828125,-0.2927659717559814,-0.23696049790382384,0.29079191347034644
1782831464971667200,8.163667236328125,-0.08138824339807033,-0.12507898962981998,0.518989606263861
1782831464981597200,8.17359716796875,0.182390118804574,0.11003851075582205,0.6857421570841222
1782831464991526400,8.1835263671875,0.3023082916051149,0.2989016249667853,0.7039302863340824
1782831465001455400,8.193455322265624,0.5174754753738642,0.34898864810690283,0.7166373538244515
1782831465011384300,8.20338427734375,0.743098586705327,0.3131086486913264,0.7472865399144589
1782831465021313300,8.213313232421875,0.9114993431240319,0.24240261589251458,0.7793699235260486
1782831465031242500,8.223242431640625,1.1484656862467526,0.1719808068625629,0.7178521364416927
1782831465041171200,8.233171142578126,1.3539730612665415,0.21464038341566918,0.6979916170001029
1782831465051100200,8.24310009765625,1.5227952579677104,0.26533443253822625,0.6618985593557357
1782831465061029000,8.253029052734375,1.5290677623659372,0.283604906309396,0.605951959999837
1782831465070958300,8.262958251953124,1.3831880498349667,0.32033195100836453,0.5365505069935694
1782831465080888300,8.272888427734374,1.0331453626304865,0.3011106793183833,0.47063938032109287
1782831465090817300,8.2828173828125,0.6068903733611106,0.3168604024402797,0.39966037579979746
1782831465100746200,8.292746337890625,0.11058920344114304,0.35132600501328703,0.4342502258069813
1782831465110675500,8.302675537109375,-0.4454395822107792,0.32049992798641325,0.28863426051242275
1782831465120604200,8.312604248046876,-0.8319897530794144,0.45980406151935455,0.12373586792517453
1782831465130533000,8.322533203125,-1.2498521770566702,0.5700155907545238,0.023241056124819442
1782831465140462000,8.332462158203125,-1.5679881523907184,0.5420156770642847,-0.11645670723505318
1782831465150391300,8.342391357421874,-1.7168991954416035,0.5472778353761881,-0.17487598031479865
1782831465160320300,8.3523203125,-1.7582704857498406,0.5918192801531403,-0.11146125530162826
1782831465170249200,8.362249267578125,-1.6087977171629666,0.5669447319418192,-0.19563710185792296
1782831465180179500,8.372179443359375,-1.3605015862524508,0.49891193694025276,-0.258446938046813
1782831465190108400,8.3821083984375,-1.1188654977530241,0.3283103094764054,-0.3431278663147241
1782831465200037000,8.392037109375,-0.8623819687336682,0.13276874041482806,-0.2517043136524968
1782831465209966000,8.401966064453125,-0.5373498041450977,-0.07293335345946252,-0.10538484886423684
1782831465219895300,8.411895263671875,-0.22561434350311754,-0.1972731420945376,-0.021146832925081252
1782831465229824300,8.42182421875,0.12800678671002388,-0.2714368410665542,-0.03442979147410952
1782831465239753200,8.431753173828126,0.3901549173623323,-0.3348920990195125,-0.18883147696368396
1782831465249682200,8.44168212890625,0.41653146763443943,-0.4440195593450218,-0.3433278458662331
1782831465259611400,8.451611328125,0.44753567770719527,-0.549218228854239,-0.30292302596997467
1782831465269540400,8.461540283203124,0.5791577323049306,-0.5707568375758827,-0.19058513396428897
1782831465279470000,8.471469970703126,0.7583557770699262,-0.5445185267306863,-0.18234410597207024
1782831465289399300,8.4813994140625,0.8555021460920572,-0.4861165335793048,-0.1524054245052859
1782831465299328300,8.491328369140625,0.9788923789173364,-0.38754999556094405,-0.10616731361197307
1782831465309257200,8.50125732421875,0.9868944835871457,-0.3514123681224882,-0.09097926122713834
1782831465319186200,8.511186279296876,1.09419867400825,-0.28679902617558833,-0.18150518919620662
1782831465329115400,8.521115478515625,1.155167814233899,-0.09647373045757413,-0.18144509303942322
1782831465339044400,8.53104443359375,1.073074052914977,-0.06557035041078925,-0.11563508865386248
1782831465348973300,8.540973388671874,1.0221247869223355,-0.09408040558025241,-0.11289726118780671
1782831465358902300,8.55090234375,0.9149433460980653,-0.05621617354489863,-0.13198752690926194
1782831465368828400,8.560828369140625,0.8553034086495638,-0.0901115750145167,-0.1305559049372561
1782831465378758100,8.570758056640624,0.756783997708559,-0.1053678155310452,-0.2051629089636728
1782831465388687400,8.580687255859376,0.6420645625948905,-0.12901603681780396,-0.2444455198969692
1782831465398616300,8.5906162109375,0.5641676684439182,-0.17226999906748533,-0.24520828443039208
1782831465408545300,8.600545166015625,0.44599838513731954,-0.19371128489449618,-0.23462876702062785
1782831465418474200,8.61047412109375,0.4280757749557495,-0.2673305747915059,-0.2961394302444532
1782831465428403500,8.620403564453126,0.47249476239681243,-0.2487958240609616,-0.2923581581400707
1782831465438332400,8.63033251953125,0.47028760774135586,-0.2746625981800258,-0.28226927379146216
1782831465448261400,8.640261474609375,0.4657949724972248,-0.36970256950743496,-0.28019038515817374
1782831465458190000,8.650190185546874,0.4132873711466789,-0.3850187965828925,-0.29123624143805354
1782831465468119300,8.660119384765625,0.3027759091168642,-0.45096769798249003,-0.30747097159791736
1782831465478049300,8.67004931640625,0.06886252382397651,-0.4987359958514571,-0.2950340628184378
1782831465487978200,8.679978271484375,0.016400515180826185,-0.49897389626055955,-0.3895842413349077
1782831465497907200,8.6899072265625,-0.09275894771814346,-0.4563231606010347,-0.45888117452077565
1782831465507836400,8.69983642578125,-0.2298088725835085,-0.521559091425687,-0.45075679517816747
1782831465517765400,8.709765380859375,-0.4309305798649788,-0.6280952200837433,-0.3793854668710381
1782831465527694300,8.7196943359375,-0.656916679289937,-0.6879155556004494,-0.36218609293010084
1782831465537623000,8.729623046875,-0.8175023780435323,-0.7086444553744048,-0.47010717314053324
1782831465547552300,8.73955224609375,-0.9675888946145772,-0.6557694820161909,-0.5367548704592511
1782831465557481200,8.749481201171875,-0.9600503158032894,-0.646515039197728,-0.5662746506605297
1782831465567411200,8.7594111328125,-0.9894774858176708,-0.6787608468294143,-0.5507949401190504
1782831465577340400,8.76934033203125,-0.9789122526615858,-0.7353869163494556,-0.5208423214584589
1782831465587269400,8.779269287109376,-0.9682920744478702,-0.7744003914851695,-0.519513264811784
1782831465597198300,8.7891982421875,-0.8640811738669871,-0.7990905961055308,-0.49057256314009423
1782831465607127300,8.799127197265625,-0.7916682640850543,-0.8134894891403615,-0.4134104130044579
1782831465617056300,8.80905615234375,-0.7926479227721691,-0.7726558859053999,-0.3368618647225201
1782831465626985200,8.818985107421875,-0.6931137818306684,-0.6855521874699742,-0.2531439362678677
1782831465636914200,8.8289140625,-0.7157002921700477,-0.7063836708355694,-0.18477876750677824
1782831465646843100,8.838843017578125,-0.8485176940321921,-0.8545908764660358,-0.1358649528644979
1782831465656772400,8.8487724609375,-0.932200770369172,-0.9440066512361168,-0.04184387625604868
1782831465666702300,8.858702392578126,-1.0333072751939296,-0.9128991269193589,-0.01108238889798522
1782831465676631300,8.86863134765625,-1.127552662077546,-0.7969305685274303,-0.005750087959319352
1782831465686560500,8.878560546875,-1.2935539561390876,-0.7065723252754658,-0.008787190632894635
1782831465696489200,8.8884892578125,-1.4130074340373278,-0.5974777443062513,-0.004613229416497051
1782831465706418200,8.898418212890626,-1.5070277799934149,-0.41024624988511205,0.06277363236434758
1782831465716347100,8.90834716796875,-1.6679115849107502,-0.22670513441450893,0.10951182000059634
1782831465726276000,8.918276123046875,-1.701413457018137,-0.013912716953083873,0.1354228351201862
1782831465736205300,8.928205322265624,-1.5282611221581697,0.2512229050774127,0.3909732480078935
1782831465746134300,8.93813427734375,-1.2681202396750448,0.41339390026107425,0.46614780452288684
1782831465756063200,8.948063232421875,-0.8660930982112884,0.7273342505361884,0.10233308747764676
1782831465765993500,8.957993408203125,-0.42713527923524375,0.9271437792405486,-0.03648698886539787
1782831465775922200,8.967922119140624,0.011121113473176956,0.8590181913889944,-0.03329213834684342
1782831465785851100,8.97785107421875,0.3377864322215319,0.711490930846706,0.15967574430182574
1782831465795780000,8.987780029296875,0.7324006670802832,0.5742598041955381,0.255364534926787
1782831465805709300,8.997709228515625,1.0969061794012784,0.5907116111721843,0.2113567586351186
1782831465815638300,9.00763818359375,1.3428899417161941,0.6498797663904726,0.22918847566284237
1782831465825567200,9.017567138671875,1.5291566096931695,0.7227186464995146,0.29859745438843965
1782831465835496200,9.02749609375,1.6404408096611498,0.8740649538733065,0.2972727085907012
1782831465845425400,9.03742529296875,1.7288725418299435,1.096690052432567,0.31896183169893916
1782831465855354400,9.047354248046876,1.7749936570137739,1.242914779008925,0.3304838541232049
1782831465865284000,9.0572841796875,1.8322838164657353,1.2512379323266445,0.37170287647917866
1782831465875213300,9.06721337890625,1.8348294092953203,1.2197713654391467,0.45781814839914436
1782831465885142300,9.077142333984375,1.9394202491044996,1.1843706739731132,0.46941433203816413
1782831465895071200,9.0870712890625,1.9797370619237422,1.1830201361469923,0.48723165521435435
1782831465905000200,9.097000244140625,1.7941653904736041,1.113738948519528,0.6219171890359372
1782831465914929400,9.106929443359375,1.3356161513209341,0.8739793214164674,0.6811130359787494
1782831465924858400,9.1168583984375,0.9210545224547385,0.7779360913306475,0.6836233382992446
1782831465934787300,9.126787353515626,0.6253969209104776,0.8706341026417911,0.6479173072110861
1782831465944716300,9.13671630859375,0.15036241090297697,0.9192610631667077,0.6080114863455295
1782831465954645200,9.146645263671875,-0.39668461139202116,0.9041462038822472,0.5873382622815668
1782831465964575200,9.1565751953125,-0.8154150503754616,0.8877239883262663,0.6224146902292966
1782831465974504200,9.166504150390624,-1.0658388409644364,0.8580419667679816,0.6639573915816843
1782831465984433200,9.17643310546875,-1.2440180640757084,0.7983395585425198,0.5462916738830507
1782831465994362400,9.1863623046875,-1.2498808186292647,0.7538832347657531,0.3731875255463645
1782831466004291300,9.196291259765625,-1.0341817199409007,0.6851773628082126,0.16858064303025602
1782831466014220300,9.20622021484375,-0.6864566620290279,0.5875448907695711,0.08257222901824861
1782831466024149200,9.216149169921875,-0.38840719691216946,0.3601437369149178,0.16560816655810923
1782831466034078500,9.226078369140625,-0.016059738919138908,0.16410240163765846,0.32444746003579344
1782831466044007400,9.23600732421875,0.30585809304118156,0.05313208992443978,0.32128705977611244
1782831466053937200,9.245937255859374,0.41703240289390087,-0.042187282866239545,0.2846139006888494
1782831466063866400,9.255866455078126,0.42789398864805694,-0.13256328097060321,0.2751965954588726
1782831466073795300,9.26579541015625,0.4830827919065952,-0.2267102489810437,0.3280694133926183
1782831466083724300,9.275724365234375,0.5138935252338648,-0.2052715935025364,0.28790749887414274
1782831466093653200,9.2856533203125,0.4349064977586269,-0.15323153659850358,0.22195070642903447
1782831466103582500,9.29558251953125,0.3344540729284286,-0.1961220723632723,0.14169449926819652
1782831466113511400,9.305511474609375,0.3936538653939962,-0.22232604254744945,0.09081658147871494
1782831466123440400,9.3154404296875,0.3853969091802835,-0.29653781844489274,0.14373272709753362
1782831466133369000,9.325369140625,0.28666356322765346,-0.43874410316012796,0.16880349200069902
1782831466143298300,9.33529833984375,0.14887480269372463,-0.5541445062752812,0.1740535214833915
1782831466153228300,9.345228271484375,-0.03315174349546432,-0.6235249895587563,0.16554098307341336
1782831466163157200,9.3551572265625,-0.18887246656119822,-0.6666979224614799,0.105008699895069
1782831466173086200,9.365086181640624,-0.2968506107211113,-0.6319776144750416,0.04567318875323981
1782831466183015400,9.375015380859375,-0.3289917158693075,-0.6014693712256849,0.03422773869652301
1782831466192944400,9.3849443359375,-0.38152620522677894,-0.6183420339629053,0.06847436475660651
1782831466202873300,9.394873291015625,-0.39922085187137124,-0.6762497407913207,-0.031832148796878755
1782831466212802000,9.404802001953126,-0.3313707199603319,-0.6893672887787222,-0.13274864747487009
1782831466222731300,9.414731201171875,-0.23332068009674548,-0.6977225177351385,-0.04648947357218712
1782831466232660200,9.42466015625,-0.12158815183937549,-0.7651175262898207,0.031537330568768084
1782831466242589200,9.434589111328124,-0.12006371875107287,-0.7434587983198464,0.07214947307277471
1782831466252519400,9.44451953125,-0.2756038245528936,-0.6865648716438562,0.0782185273207724
1782831466262448400,9.454448486328126,-0.47330900138914583,-0.652212666317448,-0.022617270803824065
1782831466272377300,9.46437744140625,-0.6240700562208891,-0.5116062910795212,-0.1437979743534699
1782831466282306300,9.474306396484375,-0.8262702063888311,-0.4437135621357709,-0.09263155847880988
1782831466292235300,9.4842353515625,-0.9986457116574048,-0.4640450600899756,0.04310015992745757
1782831466302164200,9.494164306640625,-1.075315694361925,-0.36968021154515446,0.043673027911968525
1782831466312093200,9.50409326171875,-1.0977432147473096,-0.21878223246075212,-0.08262041554152966
1782831466322022100,9.514022216796874,-1.0512748935610055,-0.09418342756330966,-0.1008002153545618
1782831466331951400,9.523951416015626,-0.8916378738343715,-0.01655088343694806,-0.014698277840204535
1782831466341880300,9.53388037109375,-0.7748989155918359,-0.002973097526654601,0.1323706810079515
1782831466351810300,9.543810302734375,-0.7587275329917669,0.041045638550445435,0.29549631003532556
1782831466361739300,9.5537392578125,-0.7510363939672708,0.04139408666193485,0.248697185992077
1782831466371671600,9.563671630859375,-0.7738380083620547,-0.015458777351304888,0.200310975420475
1782831466381600300,9.573600341796874,-0.8923258560985327,-0.06910334684252739,0.19762663170732556
1782831466391529200,9.583529296875,-1.1463152302145958,-0.14602131295874715,0.1916110977448523
1782831466401458200,9.593458251953125,-1.5269336729466914,-0.1290310151912272,0.23635752704199403
1782831466411387400,9.603387451171875,-1.8855635712325571,-0.010005334251001476,0.31510818847808986
1782831466421316400,9.61331640625,-2.0691315016448497,0.1564350818801671,0.2561408165289089
1782831466431245300,9.623245361328125,-2.072517052429914,0.44563298589102923,0.13679638849571346
1782831466441174300,9.63317431640625,-1.9177216275155544,0.7164022298943251,0.036737273832038043
1782831466451104500,9.6431044921875,-1.603612423479557,0.759182948609069,-0.05402538550235331
1782831466461033500,9.653033447265624,-1.0547697499394417,0.75767020595856,-0.07626162109933793
1782831466470962200,9.662962158203126,-0.49275312204957006,0.6938529828254133,0.0016335560185834765
1782831466480891400,9.672891357421875,0.06519172635674476,0.5615781634073704,0.025978490865230557
1782831466490820400,9.6828203125,0.5086427650988101,0.5078867590997368,0.15611958619020877
1782831466500749300,9.692749267578124,0.868594851899147,0.4050208433870226,0.3712651061164215
1782831466510678300,9.70267822265625,1.1333347526103257,0.42533612085878847,0.3813704301431775
1782831466520607500,9.712607421875,1.2772235835850239,0.47384661539718503,0.17479776397943494
1782831466530536400,9.722536376953125,1.336748370221257,0.5136525560848415,0.012221768191456794
1782831466540465400,9.73246533203125,1.4022633371829987,0.5630370569787919,-0.04423376706726849
1782831466550395100,9.74239501953125,1.3618699519962072,0.5778774101708084,-0.0706433428261429
1782831466560324400,9.752324462890625,1.1570996590793132,0.5197274190191179,-0.07504172391556203
1782831466570253300,9.76225341796875,0.9637602762371301,0.4527971784319728,-0.10142886864691972
1782831466580182300,9.772182373046874,0.855724264410138,0.4795980915959924,-0.09047894702218473
1782831466590111200,9.782111328125,0.768035459563136,0.5538207542136311,-0.18828268397450446
1782831466600040400,9.79204052734375,0.6373422102481127,0.6059244509384035,-0.36530119274333117
1782831466609969400,9.801969482421875,0.4155576541662216,0.5842902728877961,-0.47189811167791484
1782831466619898400,9.8118984375,0.16978139712214468,0.584829494331032,-0.38410022043325004
1782831466629827300,9.821827392578125,-0.010960954475402832,0.6066287998154759,-0.345439138931781
1782831466639757300,9.83175732421875,-0.1874742902010679,0.6623194151163101,-0.4389571613889187
1782831466649686300,9.841686279296875,-0.382094945025444,0.6864309430658817,-0.5865377595536411
1782831466659615200,9.851615234375,-0.5911351703464984,0.6540228575445711,-0.7292796124503016
1782831466669544400,9.86154443359375,-0.8046370512515306,0.5347855066150426,-0.8031956202715634
1782831466679473400,9.871473388671875,-0.6914753669738769,0.3911050576940179,-0.9389758174620568
1782831466689402400,9.88140234375,-0.26826164509654044,0.40888825940489765,-0.8669726575247942
1782831466699331300,9.891331298828124,-0.007995674929022789,0.37253187464922666,-0.5739841290593147
1782831466709260500,9.901260498046875,0.18096797704696654,0.21380700133144853,-0.4363384302578866
1782831466719189500,9.911189453125,0.40128129153251646,0.1936554630540311,-0.5193292865470052
1782831466729118500,9.921118408203125,0.7517717225044965,0.20259864796623586,-0.6591868161790072
1782831466739048200,9.931048095703124,0.8799410062998533,0.19706863249838352,-0.6131975837465375
1782831466748977400,9.940977294921876,0.9797218154788017,0.060837476669996976,-0.5994509440753608
1782831466758906400,9.95090625,0.9974643929183482,0.0018324761241674422,-0.5280421698346733
1782831466768835300,9.96083544921875,0.3521650861859321,-0.1288473291873932,-0.3923932708736509
1782831466778764300,9.970764404296874,-0.5956546935975551,-0.4136567889809608,-0.40588242865242063
1782831466788693500,9.980693603515626,-0.8929992253154516,-0.48281259666308757,-0.4978635969310999
1782831466798622500,9.99062255859375,-0.9946902520298957,-0.2445204117640853,-0.6460252829194069
1782831466808551400,10.000551513671875,-1.181367254373431,-0.3216412069760263,-0.813252246318385
1782831466818480000,10.010480224609376,-1.0138555557489395,-0.35711744789630173,-0.8023774357564747
1782831466828409300,10.020409423828125,-0.3211877641201019,-0.28720073884427544,-0.7725161121085286
1782831466838339300,10.03033935546875,0.147585347405076,-0.16803528410717844,-0.5298121751818805
1782831466848268300,10.040268310546875,-0.23509879568517206,-0.2991452975295484,-0.39271921489238737
