time,seconds_elapsed,z,y,x
1782831456889386500,0.081386474609375,0.07607626169919968,0.16981437802314758,0.15457701683044434
1782831456899315500,0.0913154296875,0.10432107001543045,0.14228302240371704,0.1465872973203659
1782831456909244400,0.101244384765625,0.12860536575317383,0.12237775325775146,0.13116492331027985
1782831456919173400,0.11117333984375,0.15729577839374542,0.10480405390262604,0.10740797966718674
1782831456929103400,0.121103271484375,0.1696467250585556,0.10916951298713684,0.0932932198047638
1782831456939032300,0.1310322265625,0.1561606228351593,0.10793723911046982,0.0895576998591423
1782831456948961500,0.14096142578125,0.15202100574970245,0.09377667307853699,0.11422629654407501
1782831456958890500,0.150890380859375,0.15459540486335754,0.09515668451786041,0.1437581330537796
1782831456968819500,0.1608193359375,0.16699615120887756,0.09829495847225189,0.1819249540567398
1782831456978748400,0.17074853515625,0.1948022097349167,0.07325804233551025,0.21688321232795715
1782831456988677400,0.180677490234375,0.2146531492471695,0.043003473430871964,0.2514832615852356
1782831456998606300,0.1906064453125,0.21885648369789124,0.025822019204497337,0.2637248635292053
1782831457008535300,0.200535400390625,0.2046988606452942,0.028382381424307823,0.24235431849956512
1782831457018464300,0.21046435546875,0.17930933833122253,0.03255715221166611,0.19102828204631805
1782831457028393500,0.2203935546875,0.1674737185239792,0.00678867194801569,0.14175714552402496
1782831457038322400,0.230322509765625,0.16857406497001648,-0.041420597583055496,0.1010519489645958
1782831457048251400,0.24025146484375,0.18047413229942322,-0.05761368200182915,0.07503899186849594
1782831457058180400,0.250180419921875,0.1767277717590332,-0.06300928443670273,0.06053972616791725
1782831457068110600,0.260110595703125,0.16350224614143372,-0.06480611860752106,0.04529578983783722
1782831457078039300,0.270039306640625,0.13640561699867249,-0.09257286787033081,0.026072237640619278
1782831457087968300,0.27996826171875,0.09151563048362732,-0.12336380034685135,0.03040653094649315
1782831457097897200,0.289897216796875,0.04437863454222679,-0.1199934333562851,0.06838102638721466
1782831457107826400,0.299826416015625,0.006493839435279369,-0.11637819558382034,0.1182178258895874
1782831457117755400,0.30975537109375,-0.015739670023322105,-0.07248613983392715,0.16645894944667816
1782831457127684400,0.319684326171875,-0.02173258177936077,-0.001014089211821556,0.19003884494304657
1782831457137613300,0.32961328125,-0.021657973527908325,0.054048992693424225,0.17860782146453857
1782831457147542500,0.33954248046875,-0.025555778294801712,0.10248923301696777,0.1466674655675888
1782831457157471500,0.349471435546875,-0.038484349846839905,0.13403955101966858,0.10579152405261993
1782831457167400400,0.359400390625,-0.05953530594706535,0.18999895453453064,0.08122465759515762
1782831457177329400,0.369329345703125,-0.06328824907541275,0.24661336839199066,0.05024906247854233
1782831457187258400,0.37925830078125,-0.04131557419896126,0.27932101488113403,0.01645381562411785
1782831457197187300,0.389187255859375,-0.010199302807450294,0.2658810317516327,-0.01007333118468523
1782831457207116300,0.3991162109375,0.005410283803939819,0.2103770524263382,-0.03471556305885315
1782831457217045200,0.409045166015625,0.011352639645338058,0.1370193213224411,-0.055760886520147324
1782831457226975500,0.4189755859375,0.009182696230709553,0.06401088833808899,-0.0719398558139801
1782831457236904400,0.428904541015625,-0.005845171399414539,0.011476070620119572,-0.07309356331825256
1782831457246833400,0.43883349609375,-0.019152186810970306,0.010823597200214863,-0.04304565116763115
1782831457256762600,0.4487626953125,-0.022922120988368988,0.022916313260793686,-0.006994913797825575
1782831457266691300,0.45869140625,-0.010920319706201553,0.04245299473404884,0.042027756571769714
1782831457276620300,0.468620361328125,-0.006826748140156269,0.04471039026975632,0.09067952632904053
1782831457286549200,0.47854931640625,-0.012026037089526653,0.0007772874087095261,0.13969074189662933
1782831457296478500,0.488478515625,-0.029341213405132294,-0.04389354586601257,0.15854279696941376
1782831457306407400,0.498407470703125,-0.0370691753923893,-0.07552657276391983,0.1387091726064682
1782831457316336400,0.50833642578125,-0.024776749312877655,-0.10972481966018677,0.09219425171613693
1782831457326265300,0.518265380859375,0.0038801971822977066,-0.14921924471855164,0.055632513016462326
1782831457336194600,0.528194580078125,0.027703549712896347,-0.19312934577465057,0.02771064266562462
1782831457346123500,0.53812353515625,0.03386370837688446,-0.2412947416305542,-0.006151184439659119
1782831457356052200,0.54805224609375,0.010615000501275063,-0.28623878955841064,-0.06927680224180222
1782831457365982200,0.557982177734375,-0.021384745836257935,-0.3009871244430542,-0.13328135013580322
1782831457375911200,0.5679111328125,-0.05243628844618797,-0.2816966474056244,-0.1822267323732376
1782831457385840000,0.577840087890625,-0.08852452039718628,-0.1938410848379135,-0.18879036605358124
1782831457395769000,0.58776904296875,-0.12826621532440186,-0.07264646887779236,-0.16944262385368347
1782831457405698300,0.5976982421875,-0.16346894204616547,0.006374317221343517,-0.13276371359825134
1782831457415627300,0.607627197265625,-0.1939372718334198,0.0417773500084877,-0.08858539909124374
1782831457425556200,0.61755615234375,-0.20866987109184265,0.05784979090094566,-0.03475865349173546
1782831457435485200,0.627485107421875,-0.20793849229812622,0.05496189743280411,0.014174772426486015
1782831457445414400,0.637414306640625,-0.19625280797481537,0.031241651624441147,0.0432216040790081
1782831457455343400,0.64734326171875,-0.16961432993412018,0.014760212041437626,0.042003314942121506
1782831457465272000,0.65727197265625,-0.13874003291130066,0.015398305840790272,0.03450678288936615
1782831457475201000,0.667200927734375,-0.11151622980833054,0.018079277127981186,0.02835654653608799
1782831457485130200,0.677130126953125,-0.08811450004577637,0.010814704932272434,0.028869206085801125
1782831457495059200,0.68705908203125,-0.06986679136753082,-0.019473426043987274,0.037538859993219376
1782831457504989200,0.6969892578125,-0.05972733721137047,-0.06737863272428513,0.04074263945221901
1782831457514918400,0.70691845703125,-0.05332570523023605,-0.12126736342906952,0.04541317746043205
1782831457524847400,0.716847412109375,-0.053150475025177,-0.14945665001869202,0.056802716106176376
1782831457534776300,0.7267763671875,-0.0629396066069603,-0.14134757220745087,0.10779790580272675
1782831457544705300,0.736705322265625,-0.08169891685247421,-0.08062376827001572,0.16787615418434143
1782831457554634200,0.74663427734375,-0.09582672268152237,-0.015321986749768257,0.2003403753042221
1782831457564563200,0.756563232421875,-0.09530607610940933,0.03657343611121178,0.19065578281879425
1782831457574492200,0.7664921875,-0.09142556041479111,0.09059229493141174,0.14030401408672333
1782831457584421000,0.776421142578125,-0.08635170757770538,0.1746043860912323,0.07755541056394577
1782831457594350300,0.786350341796875,-0.09420278668403625,0.25887924432754517,0.005750225391238928
1782831457604279300,0.796279296875,-0.11030745506286621,0.28708478808403015,-0.08396155387163162
1782831457614208300,0.806208251953125,-0.11947500705718994,0.2555316984653473,-0.1603674590587616
1782831457624137200,0.81613720703125,-0.1384524255990982,0.17519612610340118,-0.22379463911056519
1782831457634066400,0.82606640625,-0.1732117235660553,0.07916077226400375,-0.2582976520061493
1782831457643995400,0.835995361328125,-0.21513813734054565,-0.010636224411427975,-0.2646317183971405
1782831457653925000,0.845925048828125,-0.26900964975357056,-0.08632566034793854,-0.24521619081497192
1782831457663854000,0.85585400390625,-0.33234894275665283,-0.19564521312713623,-0.2005922645330429
1782831457673783300,0.865783203125,-0.3796427249908447,-0.30523422360420227,-0.12695306539535522
1782831457683712300,0.875712158203125,-0.4032825529575348,-0.35610538721084595,-0.04185548424720764
1782831457693641200,0.88564111328125,-0.3952489197254181,-0.35518842935562134,0.03340129554271698
1782831457703570200,0.895570068359375,-0.3678428530693054,-0.30772262811660767,0.08232355862855911
1782831457713499400,0.90549951171875,-0.3192955553531647,-0.2512798607349396,0.07022375613451004
1782831457723428400,0.915428466796875,-0.24998971819877625,-0.1984584480524063,0.04404168948531151
1782831457733357300,0.925357421875,-0.1757277399301529,-0.1680411547422409,0.03600185364484787
1782831457743286000,0.9352861328125,-0.1209598258137703,-0.1456461101770401,0.06522978097200394
1782831457753215200,0.94521533203125,-0.11441557109355927,-0.0804288238286972,0.11965428292751312
1782831457763144200,0.955144287109375,-0.13074368238449097,0.008297855034470558,0.15007343888282776
1782831457773073200,0.9650732421875,-0.1567535102367401,0.0838392823934555,0.15481878817081451
1782831457783003400,0.97500341796875,-0.19438397884368896,0.14181630313396454,0.14446760714054108
1782831457792932400,0.984932373046875,-0.23608700931072235,0.18282292783260345,0.12942221760749817
1782831457802861300,0.994861328125,-0.2660371959209442,0.2026677429676056,0.11717193573713303
1782831457812790300,1.004790283203125,-0.2820885181427002,0.1720101535320282,0.08876145631074905
1782831457822719200,1.01471923828125,-0.2827063798904419,0.13058549165725708,0.054819464683532715
1782831457832648200,1.024648193359375,-0.2608897089958191,0.12046113610267639,0.030898593366146088
1782831457842577200,1.0345771484375,-0.23132488131523132,0.12384867668151855,0.027265775948762894
1782831457852506000,1.044506103515625,-0.21540546417236328,0.10006748884916306,0.014912880957126617
1782831457862435300,1.054435302734375,-0.207768052816391,0.03903982415795326,-0.012973876670002937
1782831457872364300,1.0643642578125,-0.21202756464481354,-0.02514166198670864,-0.044648200273513794
1782831457882293200,1.074293212890625,-0.2402469664812088,-0.06433647125959396,-0.06745631247758865
1782831457892222200,1.08422216796875,-0.2717128396034241,-0.11127392202615738,-0.09744667261838913
1782831457902151400,1.0941513671875,-0.2916993200778961,-0.14144007861614227,-0.14746083319187164
1782831457912080400,1.104080322265625,-0.28426772356033325,-0.12408335506916046,-0.2083587497472763
1782831457922010000,1.114010009765625,-0.24646787345409393,-0.0696459412574768,-0.24587389826774597
1782831457931939000,1.12393896484375,-0.20090559124946594,0.007746445015072823,-0.25715503096580505
1782831457941868300,1.133868408203125,-0.1431030035018921,0.06852404028177261,-0.24624541401863098
1782831457951797200,1.14379736328125,-0.07292652875185013,0.13102863729000092,-0.20384055376052856
1782831457961726200,1.153726318359375,0.0027876757085323334,0.20304876565933228,-0.12278511375188828
1782831457971655200,1.1636552734375,0.06342827528715134,0.2577226459980011,-0.0203555878251791
1782831457981584400,1.17358447265625,0.10776165127754211,0.26714783906936646,0.06189534068107605
1782831457991513300,1.183513427734375,0.12997092306613922,0.25819188356399536,0.11678406596183777
1782831458001442300,1.1934423828125,0.1272936463356018,0.23595105111598969,0.1208467110991478
1782831458011371000,1.20337109375,0.1147686243057251,0.2039518803358078,0.0858202651143074
1782831458021300200,1.21330029296875,0.10262247920036316,0.16760745644569397,0.019295034930109978
1782831458031229200,1.223229248046875,0.09115201234817505,0.13215342164039612,-0.054582856595516205
1782831458041158100,1.233158203125,0.09056558459997177,0.0970018208026886,-0.10335306078195572
1782831458051087000,1.243087158203125,0.08998353034257889,0.07016571611166,-0.1104065328836441
1782831458061016300,1.253016357421875,0.07556703686714172,0.07121580094099045,-0.09753095358610153
1782831458070946300,1.2629462890625,0.05581899359822273,0.09627245366573334,-0.08408922702074051
1782831458080875300,1.272875244140625,0.044758353382349014,0.123951755464077,-0.06579197198152542
1782831458090804200,1.28280419921875,0.03294503688812256,0.09671380370855331,-0.034948982298374176
1782831458100733200,1.292733154296875,0.03071517124772072,0.044430624693632126,0.010125018656253815
1782831458110662100,1.302662109375,0.038374681025743484,-0.026876842603087425,0.05197395384311676
1782831458120591000,1.312591064453125,0.039031680673360825,-0.09200417995452881,0.0709066316485405
1782831458130520300,1.322520263671875,0.03990814834833145,-0.1439795047044754,0.054258108139038086
1782831458140449300,1.33244921875,0.022229550406336784,-0.13588562607765198,-0.0029314132407307625
1782831458150378200,1.342378173828125,-0.0012948960065841675,-0.06974484026432037,-0.08864469081163406
1782831458160307200,1.35230712890625,-0.011196795850992203,0.04703504219651222,-0.16476157307624817
1782831458170236400,1.362236328125,-0.01132737286388874,0.14980408549308777,-0.21662326157093048
1782831458180165400,1.372165283203125,0.01280273124575615,0.19496864080429077,-0.22876301407814026
1782831458190094300,1.38209423828125,0.036415860056877136,0.20433451235294342,-0.19622360169887543
1782831458200024000,1.392024169921875,0.06494204699993134,0.17830264568328857,-0.13544946908950806
1782831458209953300,1.401953369140625,0.0876353457570076,0.15427187085151672,-0.05001041665673256
1782831458219882200,1.41188232421875,0.10141027718782425,0.12491371482610703,0.02778557687997818
1782831458229811200,1.421811279296875,0.12078221887350082,0.08525901287794113,0.07602731138467789
1782831458239740200,1.431740234375,0.1410382241010666,0.03175291419029236,0.08828690648078918
1782831458249669400,1.44166943359375,0.1761634349822998,-0.014495103619992733,0.0967402309179306
1782831458259598300,1.451598388671875,0.21960091590881348,-0.023933079093694687,0.09977996349334717
1782831458269527300,1.46152734375,0.2614225745201111,-0.026144875213503838,0.09283345192670822
1782831458279456300,1.471456298828125,0.285115122795105,-0.023539237678050995,0.08134670555591583
1782831458289385200,1.48138525390625,0.3005012273788452,-0.038048066198825836,0.06145487353205681
1782831458299314200,1.491314208984375,0.31351208686828613,-0.0601525716483593,0.043133653700351715
1782831458309243100,1.5012431640625,0.3069254755973816,-0.08455610275268555,0.06061635911464691
1782831458319172000,1.511172119140625,0.30366072058677673,-0.1022578626871109,0.10372734069824219
1782831458329102300,1.521102294921875,0.31349003314971924,-0.09823557734489441,0.18218223750591278
1782831458339031300,1.53103125,0.3404087424278259,-0.10083908587694168,0.26039713621139526
1782831458348960300,1.540960205078125,0.3701142966747284,-0.09533969312906265,0.3192240595817566
1782831458358888700,1.550888671875,0.3994005620479584,-0.0885574221611023,0.3381546139717102
1782831458368817700,1.560817626953125,0.418734610080719,-0.08602172136306763,0.3294152021408081
1782831458378746600,1.57074658203125,0.44217628240585327,-0.08287280797958374,0.2993995249271393
1782831458388675600,1.580675537109375,0.46920764446258545,-0.08506378531455994,0.25408077239990234
1782831458398604500,1.5906044921875,0.492819219827652,-0.12444181740283966,0.19893445074558258
1782831458408533500,1.600533447265625,0.49024370312690735,-0.18768957257270813,0.1475345492362976
1782831458418462500,1.61046240234375,0.4690755605697632,-0.2609824240207672,0.11138186603784561
1782831458428391700,1.6203916015625,0.4316308796405792,-0.3202188313007355,0.10139571130275726
1782831458438320600,1.630320556640625,0.38953590393066406,-0.35793396830558777,0.1077343001961708
1782831458448249600,1.64024951171875,0.3651498556137085,-0.3842092454433441,0.1282837986946106
1782831458458178600,1.650178466796875,0.3615711033344269,-0.3988020420074463,0.15904223918914795
1782831458468108500,1.660108642578125,0.3842906355857849,-0.3718312680721283,0.2082635760307312
1782831458478037500,1.67003759765625,0.4173596501350403,-0.27778705954551697,0.2641396224498749
1782831458487966500,1.679966552734375,0.4406611919403076,-0.11733847111463547,0.2879899740219116
1782831458497895700,1.689895751953125,0.4650490880012512,0.07808881998062134,0.25944727659225464
1782831458507824600,1.69982470703125,0.4723917245864868,0.24855706095695496,0.19442547857761383
1782831458517753600,1.709753662109375,0.47312647104263306,0.3182509243488312,0.11762949824333191
1782831458527682600,1.7196826171875,0.4682876169681549,0.318514883518219,0.07153066247701645
1782831458537611800,1.72961181640625,0.4502740204334259,0.26981472969055176,0.0711788535118103
1782831458547540700,1.739540771484375,0.4354984760284424,0.22573865950107574,0.11970147490501404
1782831458557469700,1.7494697265625,0.42410919070243835,0.21838194131851196,0.18995752930641174
1782831458567398700,1.759398681640625,0.4105767607688904,0.23751381039619446,0.23298949003219604
1782831458577327600,1.76932763671875,0.4191329777240753,0.27560684084892273,0.22320130467414856
1782831458587256600,1.779256591796875,0.44588959217071533,0.29233765602111816,0.18088147044181824
1782831458597185500,1.789185546875,0.46604040265083313,0.2719239890575409,0.14235378801822662
1782831458607115500,1.799115478515625,0.46650731563568115,0.22547174990177155,0.12726818025112152
1782831458617044700,1.809044677734375,0.44292980432510376,0.14688825607299805,0.11658331751823425
1782831458626973700,1.8189736328125,0.38993242383003235,0.05557974800467491,0.08973924815654755
1782831458636902700,1.828902587890625,0.3270759582519531,-0.01909155771136284,0.04024173319339752
1782831458646831600,1.83883154296875,0.2691807150840759,-0.0734497681260109,-0.032244373112916946
1782831458656760600,1.848760498046875,0.20598150789737701,-0.13117751479148865,-0.14034606516361237
1782831458666689500,1.858689453125,0.1487569510936737,-0.1823543906211853,-0.2746073007583618
1782831458676618500,1.868618408203125,0.10293593257665634,-0.21037429571151733,-0.399187296628952
1782831458686547500,1.87854736328125,0.052801765501499176,-0.21295166015625,-0.48090434074401855
1782831458696476700,1.8884765625,0.023063044995069504,-0.22140081226825714,-0.5164421200752258
1782831458706405600,1.898405517578125,0.004043832886964083,-0.25555551052093506,-0.504501223564148
1782831458716334600,1.90833447265625,0.005063024815171957,-0.29668375849723816,-0.45992228388786316
1782831458726263600,1.918263671875,0.0034377817064523697,-0.29797056317329407,-0.37900882959365845
1782831458736193500,1.928193603515625,0.01093085203319788,-0.21896176040172577,-0.30148792266845703
1782831458746122500,1.93812255859375,0.020917244255542755,-0.06583966314792633,-0.23029007017612457
1782831458756051500,1.948051513671875,0.03737158328294754,0.1292770951986313,-0.17130212485790253
1782831458765980700,1.957980712890625,0.05461272969841957,0.33775094151496887,-0.12339763343334198
1782831458775909600,1.96790966796875,0.07680670917034149,0.49227312207221985,-0.09835086762905121
1782831458785838600,1.977838623046875,0.1055513322353363,0.5643980503082275,-0.08789008855819702
1782831458795767600,1.987767578125,0.10872315615415573,0.5622156262397766,-0.09779944270849228
1782831458805696800,1.99769677734375,0.09130389243364334,0.5202499032020569,-0.11657875031232834
1782831458815625700,2.007625732421875,0.0648491159081459,0.46727222204208374,-0.14011524617671967
1782831458825554700,2.0175546875,0.04148782044649124,0.35088205337524414,-0.16937395930290222
1782831458835483600,2.027483642578125,0.03638920187950134,0.205213263630867,-0.2000328004360199
1782831458845412600,2.03741259765625,0.04406006261706352,0.0832124799489975,-0.20689116418361664
1782831458855341600,2.047341552734375,0.05788692831993103,0.0074671171605587006,-0.19270050525665283
1782831458865271600,2.057271484375,0.06560958921909332,-0.021674159914255142,-0.17406097054481506
1782831458875200500,2.067200439453125,0.06833826750516891,-0.03361896798014641,-0.15806734561920166
1782831458885129700,2.077129638671875,0.05918338894844055,-0.04689881578087807,-0.15700609982013702
1782831458895058700,2.08705859375,0.04749104753136635,-0.0437762588262558,-0.15232452750205994
1782831458904987600,2.096987548828125,0.03933970630168915,-0.037245191633701324,-0.1321386992931366
1782831458914916600,2.10691650390625,0.03605949133634567,-0.03247493878006935,-0.10081405937671661
1782831458924845600,2.116845458984375,0.031892094761133194,-0.031512487679719925,-0.05062701180577278
1782831458934774500,2.1267744140625,0.02019336074590683,-0.026264727115631104,-0.020919451490044594
1782831458944703500,2.136703369140625,-0.0007498376071453094,-0.03401687741279602,-0.02679579332470894
1782831458954632400,2.146632568359375,-0.02512175589799881,-0.05225314199924469,-0.0635940209031105
1782831458964561700,2.156561767578125,-0.05178126320242882,-0.03473999723792076,-0.0834251120686531
1782831458974490600,2.16649072265625,-0.07512200623750687,0.031790029257535934,-0.06740432977676392
1782831458984419600,2.176419677734375,-0.08659271895885468,0.09260901063680649,-0.020776618272066116
1782831458994349800,2.186349853515625,-0.09501763433218002,0.130572110414505,0.040480080991983414
1782831459004278800,2.19627880859375,-0.08459308743476868,0.15410898625850677,0.08866384625434875
1782831459014207500,2.20620751953125,-0.055974751710891724,0.20917651057243347,0.12124122679233551
1782831459024136400,2.216136474609375,-0.01555726584047079,0.26483529806137085,0.13811339437961578
1782831459034065700,2.226065673828125,0.021799959242343903,0.32000401616096497,0.143813356757164
1782831459043994600,2.23599462890625,0.04000959172844887,0.3552837073802948,0.14301201701164246
1782831459053923600,2.245923583984375,0.038296233862638474,0.3713325560092926,0.14235635101795197
1782831459063852500,2.2558525390625,0.01380772516131401,0.35162535309791565,0.1473243683576584
1782831459073781500,2.265781494140625,-0.03440827131271362,0.28963229060173035,0.15286028385162354
1782831459083710700,2.275710693359375,-0.10861972719430923,0.22148177027702332,0.13801676034927368
1782831459093639700,2.2856396484375,-0.1837237924337387,0.14334329962730408,0.11150152236223221
1782831459103568600,2.295568603515625,-0.2525304853916168,0.09084833413362503,0.08251447975635529
1782831459113498600,2.30549853515625,-0.30163198709487915,0.07215400785207748,0.04959114268422127
1782831459123427600,2.315427490234375,-0.34396490454673767,0.053501199930906296,0.01656508445739746
1782831459133356500,2.3253564453125,-0.3675088584423065,0.023844502866268158,-0.033765461295843124
1782831459143285500,2.335285400390625,-0.3547079265117645,-0.08421647548675537,-0.10617835074663162
1782831459153214700,2.345214599609375,-0.2892892360687256,-0.2796541452407837,-0.19505096971988678
1782831459163143700,2.355143798828125,-0.19375336170196533,-0.4882272481918335,-0.2602488100528717
1782831459173072600,2.36507275390625,-0.09645317494869232,-0.6832060217857361,-0.28641942143440247
1782831459183001600,2.375001708984375,-0.007341474294662476,-0.8481752276420593,-0.26134881377220154
1782831459192930800,2.384930908203125,0.036292821168899536,-0.9422383308410645,-0.17980574071407318
1782831459202859500,2.394859619140625,0.00903216004371643,-0.9254853129386902,-0.0728096216917038
1782831459212788500,2.40478857421875,-0.1168285608291626,-0.7756633162498474,0.04168899357318878
1782831459222717400,2.414717529296875,-0.31172358989715576,-0.5378085970878601,0.1132938340306282
1782831459232646700,2.424646728515625,-0.5220728516578674,-0.2557002305984497,0.11659348756074905
1782831459242576600,2.43457666015625,-0.6764182448387146,0.04248598590493202,0.05285060778260231
1782831459252505600,2.444505615234375,-0.7454202175140381,0.29999208450317383,-0.035743437707424164
1782831459262434800,2.454434814453125,-0.7452135682106018,0.4875675141811371,-0.12635865807533264
1782831459272363800,2.46436376953125,-0.681624710559845,0.5886996984481812,-0.1842658966779709
1782831459282292500,2.47429248046875,-0.565897524356842,0.5741971135139465,-0.18387161195278168
1782831459292221400,2.484221435546875,-0.43166306614875793,0.47734272480010986,-0.10633713006973267
1782831459302150400,2.494150390625,-0.3181080222129822,0.3624022901058197,0.03759819641709328
1782831459312079600,2.50407958984375,-0.23503094911575317,0.26608961820602417,0.217402845621109
1782831459322008600,2.514008544921875,-0.17355495691299438,0.15009360015392303,0.38915082812309265
1782831459331937500,2.5239375,-0.12949427962303162,0.02169780433177948,0.5159303545951843
1782831459341866500,2.533866455078125,-0.12193586677312851,-0.09488864243030548,0.5693981051445007
1782831459351795700,2.543795654296875,-0.15366502106189728,-0.1780754178762436,0.53029865026474
1782831459361726000,2.553725830078125,-0.20362600684165955,-0.19799472391605377,0.4212111830711365
1782831459371655200,2.5636552734375,-0.25371313095092773,-0.1564113348722458,0.253806471824646
1782831459381584100,2.573584228515625,-0.2997121810913086,-0.10236029326915741,0.04956696555018425
1782831459391513000,2.58351318359375,-0.3259885311126709,-0.0581454299390316,-0.15127399563789368
1782831459401442000,2.593442138671875,-0.3406178653240204,-0.02996423840522766,-0.2789648771286011
1782831459411371000,2.60337109375,-0.3378324806690216,-0.05710744112730026,-0.32104283571243286
1782831459421300200,2.61330029296875,-0.3177673816680908,-0.14875513315200806,-0.28812175989151
1782831459431229200,2.623229248046875,-0.28625255823135376,-0.2745317220687866,-0.18835683166980743
1782831459441158100,2.633158203125,-0.2595171630382538,-0.3835795521736145,-0.054136600345373154
1782831459451087000,2.643087158203125,-0.23622992634773254,-0.42963331937789917,0.06807240098714828
1782831459461016000,2.65301611328125,-0.2129707634449005,-0.40545549988746643,0.14093396067619324
1782831459470945000,2.662945068359375,-0.20665879547595978,-0.3027663826942444,0.1558457911014557
1782831459480875000,2.672875,-0.22279180586338043,-0.12860262393951416,0.09851282089948654
1782831459490804200,2.68280419921875,-0.24620471894741058,0.08012927323579788,-0.000053169671446084976
1782831459500733200,2.692733154296875,-0.26196420192718506,0.2822449207305908,-0.11268430203199387
1782831459510662100,2.702662109375,-0.2762643098831177,0.4447949528694153,-0.1989792436361313
1782831459520591000,2.712591064453125,-0.279758095741272,0.5356337428092957,-0.24722321331501007
1782831459530520300,2.722520263671875,-0.25388363003730774,0.5658215284347534,-0.27172616124153137
1782831459540449000,2.732448974609375,-0.2031354010105133,0.5252789258956909,-0.26530349254608154
1782831459550378000,2.7423779296875,-0.150936096906662,0.4192931056022644,-0.2502332031726837
1782831459560307000,2.752306884765625,-0.1015588790178299,0.2689954936504364,-0.2165786176919937
1782831459570236200,2.762236083984375,-0.045409590005874634,0.1111651286482811,-0.1527857929468155
1782831459580165000,2.7721650390625,0.008422929793596268,-0.02518393099308014,-0.06588094681501389
1782831459590094000,2.782093994140625,0.06760049611330032,-0.1162339523434639,0.020848624408245087
1782831459600024300,2.7920244140625,0.1426399052143097,-0.16339515149593353,0.054201941937208176
1782831459609953300,2.801953369140625,0.2112855464220047,-0.1592550128698349,0.04647105187177658
1782831459619882000,2.811882080078125,0.26042449474334717,-0.11620324850082397,0.012824652716517448
1782831459629811000,2.82181103515625,0.28008580207824707,-0.08312252908945084,-0.026795728132128716
1782831459639740000,2.831739990234375,0.2779155671596527,-0.0711631029844284,-0.0655156746506691
1782831459649669000,2.841669189453125,0.2689524292945862,-0.06518083810806274,-0.0831063836812973
1782831459659598000,2.85159814453125,0.2634138762950897,-0.055767349898815155,-0.0865783616900444
1782831459669527000,2.861527099609375,0.25897490978240967,-0.05279659479856491,-0.08733043819665909
1782831459679456000,2.8714560546875,0.2447948008775711,-0.04005846753716469,-0.08947820961475372
1782831459689385200,2.88138525390625,0.2333914190530777,-0.019462376832962036,-0.10147282481193542
1782831459699314200,2.891314208984375,0.22729076445102692,0.021831907331943512,-0.10308879613876343
1782831459709243100,2.9012431640625,0.23169563710689545,0.06193644925951958,-0.09469850361347198
1782831459719173000,2.911173095703125,0.253741055727005,0.09207635372877121,-0.06481725722551346
1782831459729102000,2.92110205078125,0.2887251377105713,0.12175009399652481,-0.015530137345194817
1782831459739031000,2.931031005859375,0.3256160318851471,0.14339564740657806,0.03623897582292557
1782831459748960000,2.9409599609375,0.36489763855934143,0.12864598631858826,0.0871969684958458
1782831459758889200,2.95088916015625,0.39455607533454895,0.09552731364965439,0.12626448273658752
1782831459768818200,2.960818115234375,0.4189205467700958,0.06013470143079758,0.14089669287204742
1782831459778747100,2.9707470703125,0.4398948550224304,0.014748519286513329,0.12712186574935913
1782831459788676000,2.980676025390625,0.4612129330635071,-0.03620254248380661,0.09754666686058044
1782831459798605300,2.990605224609375,0.47018149495124817,-0.07718376815319061,0.0670161247253418
1782831459808534300,3.0005341796875,0.47162064909935,-0.10809987038373947,0.05825965479016304
1782831459818463000,3.010462890625,0.4783070683479309,-0.11346932500600815,0.07335551083087921
1782831459828392000,3.020391845703125,0.4972080588340759,-0.07278420776128769,0.10326281189918518
1782831459838322200,3.030322265625,0.5244570374488831,0.0008369311690330505,0.13908007740974426
1782831459848251100,3.040251220703125,0.5437319278717041,0.0740743950009346,0.17719124257564545
1782831459858180000,3.05018017578125,0.5531549453735352,0.09498080611228943,0.19801941514015198
1782831459868109000,3.060109130859375,0.5510877966880798,0.07393171638250351,0.1899431198835373
1782831459878038300,3.070038330078125,0.5538873672485352,-0.004878907464444637,0.15644393861293793
1782831459887967200,3.07996728515625,0.5639333724975586,-0.10937975347042084,0.09891140460968018
1782831459897896000,3.08989599609375,0.5641916990280151,-0.2476862370967865,0.030400270596146584
1782831459907825000,3.099824951171875,0.5467270016670227,-0.40564897656440735,-0.047708116471767426
1782831459917754000,3.109754150390625,0.5246548652648926,-0.5702905654907227,-0.10909145325422287
1782831459927683000,3.11968310546875,0.4976440370082855,-0.6624082326889038,-0.14141930639743805
1782831459937612000,3.129612060546875,0.4740769565105438,-0.6585439443588257,-0.13880454003810883
1782831459947541000,3.139541015625,0.48070529103279114,-0.5632057189941406,-0.12249772250652313
1782831459957471200,3.14947119140625,0.5174176692962646,-0.40316930413246155,-0.086354099214077
1782831459967400200,3.159400146484375,0.5808680057525635,-0.2108861207962036,-0.008046776987612247
1782831459977329000,3.169328857421875,0.649920642375946,0.0073899636045098305,0.10745596885681152
1782831459987258000,3.179258056640625,0.6912520527839661,0.20437361299991608,0.20840415358543396
1782831459997187000,3.18918701171875,0.7122621536254883,0.2986588478088379,0.22879326343536377
1782831460007116000,3.199115966796875,0.7142909169197083,0.2977629601955414,0.18161270022392273
1782831460017045000,3.209044921875,0.6844956874847412,0.21261192858219147,0.12286082655191422
1782831460026974200,3.21897412109375,0.6278369426727295,0.09263385832309723,0.08917210251092911
1782831460036903200,3.228903076171875,0.5666595697402954,-0.0011465754359960556,0.0989215150475502
1782831460046832000,3.23883203125,0.524777352809906,-0.01933836191892624,0.12707272171974182
1782831460056761000,3.248760986328125,0.5248022675514221,0.07008349150419235,0.15919815003871918
1782831460066691000,3.258691162109375,0.5509949922561646,0.21691475808620453,0.17917291820049286
1782831460076620000,3.2686201171875,0.5859581828117371,0.36898523569107056,0.16955819725990295
1782831460086549000,3.278549072265625,0.6266112923622131,0.4678359031677246,0.14271433651447296
1782831460096478200,3.288478271484375,0.6558775901794434,0.4571758508682251,0.09453064948320389
1782831460106407200,3.2984072265625,0.6704187393188477,0.38929614424705505,0.04473752900958061
1782831460116336000,3.308336181640625,0.6696754693984985,0.2873017191886902,-0.006397500168532133
1782831460126265000,3.31826513671875,0.6473315358161926,0.158689945936203,-0.06828589737415314
1782831460136194000,3.328194091796875,0.5969870686531067,0.015045849606394768,-0.14454206824302673
1782831460146123300,3.338123291015625,0.5431361198425293,-0.11734015494585037,-0.23391802608966827
1782831460156052200,3.34805224609375,0.49452662467956543,-0.23290172219276428,-0.3225705623626709
1782831460165981000,3.35798095703125,0.4754517078399658,-0.317730575799942,-0.3835263252258301
1782831460175910000,3.367909912109375,0.48890000581741333,-0.3922893702983856,-0.4123843014240265
1782831460185840000,3.377840087890625,0.5098444223403931,-0.4355018138885498,-0.39755022525787354
1782831460195769000,3.38776904296875,0.5231147408485413,-0.4128929674625397,-0.3387456238269806
1782831460205698000,3.397697998046875,0.5255211591720581,-0.3031616806983948,-0.2503736913204193
1782831460215627300,3.407627197265625,0.5268862843513489,-0.1297195851802826,-0.1480925977230072
1782831460225556200,3.41755615234375,0.5243080854415894,0.030661826953291893,-0.05033807456493378
1782831460235485200,3.427485107421875,0.5166513919830322,0.16649149358272552,0.01587325893342495
1782831460245414100,3.4374140625,0.498818576335907,0.2637477517127991,0.04306865856051445
1782831460255343000,3.447343017578125,0.4734705090522766,0.31099334359169006,0.03224517032504082
1782831460265272000,3.45727197265625,0.4487246870994568,0.3256053030490875,-0.007541123777627945
1782831460275201000,3.467200927734375,0.4057817757129669,0.3083084523677826,-0.05454209819436073
1782831460285130000,3.4771298828125,0.3520810008049011,0.29960018396377563,-0.09517154842615128
1782831460295060200,3.487060302734375,0.30704301595687866,0.28223279118537903,-0.1280762106180191
1782831460304989200,3.4969892578125,0.2740480601787567,0.27616822719573975,-0.15397438406944275
1782831460314918100,3.506918212890625,0.27124401926994324,0.26151683926582336,-0.17304420471191406
1782831460324847000,3.51684716796875,0.29342707991600037,0.22764168679714203,-0.17298536002635956
1782831460334776000,3.526776123046875,0.32856622338294983,0.19031691551208496,-0.15657936036586761
1782831460344705000,3.536705078125,0.3585797846317291,0.13330397009849548,-0.11822371929883957
1782831460354634000,3.546634033203125,0.373693585395813,0.06518387049436569,-0.0807570219039917
1782831460364562700,3.556562744140625,0.3693009912967682,0.007579163648188114,-0.05201113224029541
1782831460374491600,3.56649169921875,0.35328415036201477,-0.021770130842924118,-0.03939720243215561
1782831460384420600,3.576420654296875,0.3333471715450287,-0.0057341731153428555,-0.02471546083688736
1782831460394349600,3.586349609375,0.30321410298347473,0.029026739299297333,-0.028159761801362038
1782831460404278800,3.59627880859375,0.27490150928497314,0.07623472809791565,-0.051064010709524155
1782831460414208800,3.606208740234375,0.23727786540985107,0.10082650929689407,-0.07959794253110886
1782831460424137500,3.616137451171875,0.19368697702884674,0.0987393856048584,-0.08720286190509796
1782831460434066400,3.62606640625,0.15084734559059143,0.09101957827806473,-0.08295943588018417
1782831460443995600,3.63599560546875,0.09789437055587769,0.07710082828998566,-0.07790342718362808
1782831460453924600,3.645924560546875,0.04641000181436539,0.060341376811265945,-0.07877970486879349
1782831460463853600,3.655853515625,0.004352296236902475,0.049731072038412094,-0.07064241915941238
1782831460473782500,3.665782470703125,-0.037530381232500076,0.05051315948367119,-0.0647210031747818
1782831460483711700,3.675711669921875,-0.063991017639637,0.020325694233179092,-0.06338143348693848
1782831460493640700,3.685640625,-0.07687066495418549,-0.03363068029284477,-0.0634329691529274
1782831460503569700,3.695569580078125,-0.09241633862257004,-0.08556392043828964,-0.04768063873052597
1782831460513498600,3.70549853515625,-0.11102399975061417,-0.11485379934310913,-0.003072381019592285
1782831460523428600,3.7154287109375,-0.12447775900363922,-0.08740779757499695,0.046510085463523865
1782831460533357600,3.725357666015625,-0.13792173564434052,-0.04159051179885864,0.07705364376306534
1782831460543286500,3.73528662109375,-0.16077858209609985,0.02510649338364601,0.0725606232881546
1782831460553215700,3.7452158203125,-0.18885111808776855,0.08721837401390076,0.0358014777302742
1782831460563144700,3.755144775390625,-0.23286385834217072,0.1343805491924286,-0.010384125635027885
1782831460573073700,3.76507373046875,-0.2861761450767517,0.1828135997056961,-0.04572661593556404
1782831460583002600,3.775002685546875,-0.34627678990364075,0.199724942445755,-0.08640160411596298
1782831460592931800,3.784931884765625,-0.4112727642059326,0.19730457663536072,-0.14474385976791382
1782831460602860800,3.79486083984375,-0.4663008749485016,0.17709757387638092,-0.22966808080673218
1782831460612789500,3.80478955078125,-0.5223923921585083,0.17348028719425201,-0.34928521513938904
1782831460622718500,3.814718505859375,-0.6027242541313171,0.19635044038295746,-0.48966842889785767
1782831460632648700,3.824648681640625,-0.6807549595832825,0.2280227690935135,-0.6245405077934265
1782831460642577700,3.83457763671875,-0.7427392601966858,0.29276981949806213,-0.7393813133239746
1782831460652506600,3.844506591796875,-0.7688976526260376,0.3730998635292053,-0.7834035158157349
1782831460662435600,3.854435546875,-0.7413576245307922,0.44120222330093384,-0.7336428761482239
1782831460672364800,3.86436474609375,-0.6708672642707825,0.5068405270576477,-0.5844883322715759
1782831460682293800,3.874293701171875,-0.5715936422348022,0.5455445051193237,-0.37140989303588867
1782831460692222700,3.88422265625,-0.42108821868896484,0.5442025661468506,-0.12109281122684479
1782831460702151400,3.8941513671875,-0.25274795293807983,0.45130273699760437,0.14176331460475922
1782831460712080600,3.90408056640625,-0.10454220324754715,0.2785757780075073,0.3785061538219452
1782831460722009600,3.914009521484375,0.0028148824349045753,0.0534936748445034,0.5639410018920898
1782831460731938600,3.9239384765625,0.0628306195139885,-0.15551844239234924,0.6837176084518433
1782831460741867500,3.933867431640625,0.06655984371900558,-0.2692391574382782,0.7163187265396118
1782831460751797800,3.9437978515625,0.044266074895858765,-0.2557752728462219,0.6616436839103699
1782831460761726700,3.953726806640625,0.01950613409280777,-0.13196811079978943,0.5403710603713989
1782831460771655700,3.96365576171875,0.0005957344546914101,0.05211248993873596,0.38762253522872925
1782831460781584600,3.973584716796875,-0.0017198845744132996,0.24169734120368958,0.24570722877979279
1782831460791513600,3.983513671875,-0.008502605371177197,0.36290526390075684,0.16536067426204681
1782831460801442600,3.993442626953125,-0.03383778780698776,0.34973645210266113,0.1481499969959259
1782831460811371500,4.00337158203125,-0.07205301523208618,0.19376356899738312,0.16034075617790222
1782831460821300700,4.01330078125,-0.12594473361968994,-0.03758842125535011,0.16893531382083893
1782831460831229700,4.023229736328125,-0.17487800121307373,-0.2530847191810608,0.15192574262619019
1782831460841158700,4.03315869140625,-0.20952653884887695,-0.37885355949401855,0.10090383887290955
1782831460851088600,4.043088623046875,-0.2147085964679718,-0.38583847880363464,0.02209198661148548
1782831460861017600,4.053017578125,-0.201582133769989,-0.31554168462753296,-0.07557491213083267
1782831460870946600,4.062946533203125,-0.18296010792255402,-0.22654002904891968,-0.1824052333831787
1782831460880875500,4.07287548828125,-0.1750771403312683,-0.12449435889720917,-0.27659326791763306
1782831460890804700,4.0828046875,-0.179287388920784,-0.024585716426372528,-0.36007967591285706
1782831460900733700,4.092733642578125,-0.16799132525920868,0.06284133344888687,-0.40246763825416565
1782831460910662700,4.10266259765625,-0.13492320477962494,0.1418711543083191,-0.38785800337791443
1782831460920591600,4.112591552734375,-0.07464228570461273,0.18582503497600555,-0.31380799412727356
1782831460930520600,4.1225205078125,-0.0017085429280996323,0.21310505270957947,-0.16927416622638702
1782831460940449800,4.13244970703125,0.0694122388958931,0.26021718978881836,0.012845832854509354
1782831460950378800,4.142378662109375,0.13120783865451813,0.26573407649993896,0.16654591262340546
1782831460960308500,4.15230859375,0.19266587495803833,0.2297382354736328,0.21087369322776794
1782831460970237700,4.16223779296875,0.23638702929019928,0.16359849274158478,0.16585861146450043
1782831460980166700,4.172166748046875,0.2634820342063904,0.10014840215444565,0.07243597507476807
1782831460990095600,4.182095703125,0.27222558856010437,0.06086983159184456,-0.034612707793712616
1782831461000024600,4.192024658203125,0.27780625224113464,0.06172124668955803,-0.12730668485164642
1782831461009953800,4.201953857421875,0.28395697474479675,0.08913317322731018,-0.203825905919075
1782831461019882800,4.2118828125,0.3051490783691406,0.10729299485683441,-0.27408328652381897
1782831461029811700,4.221811767578125,0.34145647287368774,0.11025383323431015,-0.3198038637638092
1782831461039740700,4.23174072265625,0.3816662132740021,0.07066966593265533,-0.32830095291137695
1782831461049669600,4.241669677734375,0.41875243186950684,-0.022213401272892952,-0.310209721326828
1782831461059598600,4.2515986328125,0.45298177003860474,-0.12438424676656723,-0.2502438724040985
1782831461069528600,4.261528564453125,0.4900728762149811,-0.21744590997695923,-0.18248164653778076
1782831461079457800,4.271457763671875,0.5226641297340393,-0.27518430352211,-0.12654460966587067
1782831461089386800,4.28138671875,0.552438497543335,-0.2575811743736267,-0.09351171553134918
1782831461099315700,4.291315673828125,0.5665698051452637,-0.21305231750011444,-0.09841565787792206
1782831461109244700,4.30124462890625,0.5687438249588013,-0.15605145692825317,-0.11917439103126526
1782831461119174000,4.311173828125,0.5615500807762146,-0.07767036557197571,-0.14260461926460266
1782831461129102600,4.3211025390625,0.5538787841796875,-0.03896785154938698,-0.16645722091197968
1782831461139031600,4.331031494140625,0.5530006885528564,-0.031056664884090424,-0.18317335844039917
1782831461148960500,4.34096044921875,0.5685262084007263,-0.004861099645495415,-0.17043744027614594
1782831461158889500,4.350889404296875,0.5897327065467834,0.026623591780662537,-0.1357889026403427
1782831461168818700,4.360818603515625,0.6076571941375732,0.04749636352062225,-0.10087401419878006
1782831461178748700,4.370748779296875,0.62238609790802,0.061168231070041656,-0.07894181460142136
1782831461188677600,4.380677734375,0.6321969628334045,0.0810040757060051,-0.06018909439444542
1782831461198606800,4.39060693359375,0.6405054926872253,0.11429199576377869,-0.02175142616033554
1782831461208535600,4.40053564453125,0.6383500099182129,0.11815689504146576,0.019687948748469353
1782831461218464500,4.410464599609375,0.6291245222091675,0.11007234454154968,0.03809598460793495
1782831461228393500,4.4203935546875,0.6266323924064636,0.09276355803012848,0.037048183381557465
1782831461238322700,4.43032275390625,0.6339219808578491,0.08195272088050842,0.03492990508675575
1782831461248251600,4.440251708984375,0.6372609734535217,0.07675442099571228,0.03665880486369133
1782831461258180600,4.4501806640625,0.6477759480476379,0.1017918586730957,0.04855860769748688
1782831461268109600,4.460109619140625,0.6654053926467896,0.13263651728630066,0.05963956564664841
1782831461278038800,4.470038818359375,0.690768301486969,0.14797605574131012,0.08250094205141068
1782831461287968500,4.479968505859375,0.7261298894882202,0.16720379889011383,0.1134253591299057
1782831461297897500,4.4898974609375,0.7665508389472961,0.1629696488380432,0.13367976248264313
1782831461307826700,4.49982666015625,0.7835953235626221,0.12053589522838593,0.10963328927755356
1782831461317755600,4.509755615234375,0.768058717250824,0.05508365109562874,0.02135295607149601
1782831461327684600,4.5196845703125,0.7182184457778931,-0.03240775689482689,-0.1003238707780838
1782831461337613600,4.529613525390625,0.6432773470878601,-0.10530034452676773,-0.2378963828086853
1782831461347542800,4.539542724609375,0.5632879137992859,-0.16672801971435547,-0.3723822236061096
1782831461357472500,4.549472412109375,0.5187566876411438,-0.20164978504180908,-0.46021246910095215
1782831461367401500,4.5594013671875,0.507149338722229,-0.18505889177322388,-0.4766318202018738
1782831461377330400,4.569330322265625,0.5213549137115479,-0.10002921521663666,-0.432648628950119
1782831461387260400,4.579260498046875,0.5541497468948364,0.02585931308567524,-0.339214026927948
1782831461397189400,4.589189453125,0.6135172247886658,0.1457630842924118,-0.20281276106834412
1782831461407118600,4.59911865234375,0.6820992827415466,0.2227015644311905,-0.03947716951370239
1782831461417047600,4.609047607421875,0.7539314031600952,0.2000335454940796,0.11562400311231613
1782831461426976500,4.6189765625,0.8263738751411438,0.06760861724615097,0.230712428689003
1782831461436905500,4.628905517578125,0.8775380253791809,-0.07837948203086853,0.31254842877388
1782831461446834700,4.638834716796875,0.9028387069702148,-0.1817420870065689,0.3742130398750305
1782831461456763400,4.648763427734375,0.9077320098876953,-0.21218548715114594,0.4420791566371918
1782831461466692400,4.6586923828125,0.8977354764938354,-0.09431293606758118,0.4872610867023468
1782831461476621300,4.668621337890625,0.8775317072868347,0.12938299775123596,0.4790087342262268
1782831461486550500,4.678550537109375,0.853301465511322,0.40232378244400024,0.39925745129585266
1782831461496480500,4.68848046875,0.8317160606384277,0.685433030128479,0.27261775732040405
1782831461506409500,4.698409423828125,0.7970058917999268,0.8703465461730957,0.13911621272563934
1782831461516338700,4.708338623046875,0.7472295165061951,0.9192288517951965,0.040789104998111725
1782831461526267600,4.718267578125,0.6824762225151062,0.8366464972496033,-0.030110614374279976
1782831461536196400,4.7281962890625,0.610477089881897,0.6163095831871033,-0.1101497933268547
1782831461546125300,4.738125244140625,0.5416797995567322,0.31617799401283264,-0.20806558430194855
1782831461556054500,4.748054443359375,0.4802025556564331,-0.02313801646232605,-0.2980636656284332
1782831461565983500,4.7579833984375,0.4461403489112854,-0.30871254205703735,-0.36332619190216064
1782831461575912400,4.767912353515625,0.4538249373435974,-0.5117820501327515,-0.430052787065506
1782831461585841400,4.77784130859375,0.5005727410316467,-0.6005263328552246,-0.468460351228714
1782831461595771600,4.787771728515625,0.5665407776832581,-0.5880100131034851,-0.47264230251312256
1782831461605700600,4.79770068359375,0.6474188566207886,-0.5064442753791809,-0.4428492486476898
1782831461615629300,4.80762939453125,0.7356933355331421,-0.4011860489845276,-0.3807488679885864
1782831461625558300,4.817558349609375,0.786387026309967,-0.3320791721343994,-0.2971292734146118
1782831461635487500,4.827487548828125,0.7849060893058777,-0.2937088906764984,-0.2031537890434265
1782831461645416400,4.83741650390625,0.7390511631965637,-0.24021372199058533,-0.101678766310215
1782831461655345400,4.847345458984375,0.6682259440422058,-0.17360299825668335,-0.0012805219739675522
1782831461665274400,4.8572744140625,0.6151137948036194,-0.08858326822519302,0.07070592790842056
1782831461675203600,4.86720361328125,0.5855430960655212,0.029821407049894333,0.08681619167327881
1782831461685132500,4.877132568359375,0.5732856392860413,0.1496332734823227,0.04807998239994049
1782831461695061500,4.8870615234375,0.559037446975708,0.2419315129518509,-0.027538878843188286
1782831461704991500,4.896991455078125,0.5357895493507385,0.27568957209587097,-0.11118192225694656
1782831461714920400,4.90692041015625,0.5061085820198059,0.23882421851158142,-0.17952795326709747
1782831461724849400,4.916849365234375,0.462311327457428,0.1467389017343521,-0.20934481918811798
1782831461734778400,4.9267783203125,0.41804614663124084,0.03548109158873558,-0.20533517003059387
1782831461744707600,4.93670751953125,0.3763502240180969,-0.09848354756832123,-0.18580976128578186
1782831461754636500,4.946636474609375,0.3497207462787628,-0.1791086345911026,-0.17125505208969116
1782831461764565500,4.9565654296875,0.34329721331596375,-0.18035686016082764,-0.14978145062923431
1782831461774494500,4.966494384765625,0.3292330503463745,-0.15779083967208862,-0.149693563580513
1782831461784423700,4.976423583984375,0.30777326226234436,-0.1350691020488739,-0.152833491563797
1782831461794352600,4.9863525390625,0.27841296792030334,-0.10608617961406708,-0.15151895582675934
1782831461804282400,4.996282470703125,0.2517957091331482,-0.05877494812011719,-0.11461986601352692
1782831461814211300,5.00621142578125,0.22676759958267212,0.007634967565536499,-0.05131306126713753
1782831461824140500,5.016140625,0.1996881514787674,0.05606091395020485,-0.006987127475440502
1782831461834069500,5.026069580078125,0.16425453126430511,0.05732778087258339,-0.006629997864365578
1782831461843998500,5.03599853515625,0.11357242614030838,0.04588436707854271,-0.03904607519507408
1782831461853927400,5.045927490234375,0.05765296518802643,-0.008885936811566353,-0.0955096185207367
1782831461863856600,5.055856689453125,0.005251250229775906,-0.04917085915803909,-0.13773863017559052
1782831461873785600,5.06578564453125,-0.04434346407651901,-0.06920662522315979,-0.14954842627048492
1782831461883714600,5.075714599609375,-0.08244917541742325,-0.0876331776380539,-0.139287531375885
1782831461893643300,5.085643310546875,-0.11461909115314484,-0.09958890080451965,-0.11241623014211655
1782831461903572500,5.095572509765625,-0.15290509164333344,-0.10130035132169724,-0.08691273629665375
1782831461913502500,5.10550244140625,-0.20629587769508362,-0.11047440767288208,-0.07825346291065216
1782831461923431400,5.115431396484375,-0.26437869668006897,-0.09249855577945709,-0.0753752589225769
1782831461933360600,5.125360595703125,-0.31426048278808594,-0.04327135533094406,-0.07843097299337387
1782831461943289600,5.13528955078125,-0.3452305197715759,0.024019766598939896,-0.061187729239463806
1782831461953218600,5.145218505859375,-0.3571132719516754,0.08673986792564392,-0.027052929624915123
1782831461963147500,5.1551474609375,-0.3713381588459015,0.08407461643218994,0.013135701417922974
1782831461973076500,5.165076416015625,-0.3771238625049591,0.042581234127283096,0.05871836468577385
1782831461983005400,5.17500537109375,-0.39061594009399414,-0.012746094726026058,0.08662516623735428
1782831461992934400,5.184934326171875,-0.4006832242012024,-0.05480486527085304,0.10285553336143494
1782831462002863400,5.19486328125,-0.4069618582725525,-0.0790163055062294,0.10010330379009247
1782831462012793600,5.204793701171875,-0.4063541293144226,-0.08790887147188187,0.10208363085985184
1782831462022722600,5.21472265625,-0.39426282048225403,-0.09588022530078888,0.10898999124765396
1782831462032651500,5.224651611328125,-0.39728844165802,-0.09397393465042114,0.12492208927869797
1782831462042580500,5.23458056640625,-0.4245797395706177,-0.08247289061546326,0.122335284948349
1782831462052509400,5.244509521484375,-0.4745081663131714,-0.10948772728443146,0.084339439868927
1782831462062438400,5.2544384765625,-0.556017279624939,-0.19808562099933624,0.01760115660727024
1782831462072367400,5.264367431640625,-0.6581910252571106,-0.30929630994796753,-0.06230432912707329
1782831462082296300,5.27429638671875,-0.7517502903938293,-0.42421990633010864,-0.12306959927082062
1782831462092225500,5.2842255859375,-0.8045141696929932,-0.5129846334457397,-0.15946249663829803
1782831462102154500,5.294154541015625,-0.8012621402740479,-0.5475386381149292,-0.15438143908977509
1782831462112083500,5.30408349609375,-0.7370259165763855,-0.5611367225646973,-0.10875111073255539
1782831462122013700,5.314013671875,-0.6298726201057434,-0.551403820514679,0.0025018411688506603
1782831462131942400,5.3239423828125,-0.5155588388442993,-0.475762277841568,0.18054507672786713
1782831462141871400,5.333871337890625,-0.42114585638046265,-0.379199355840683,0.3716742992401123
1782831462151800300,5.34380029296875,-0.3192056715488434,-0.282105028629303,0.5329409241676331
1782831462161729500,5.3537294921875,-0.22799481451511383,-0.19518515467643738,0.6287457346916199
1782831462171658500,5.363658447265625,-0.18148723244667053,-0.09815367311239243,0.6714676022529602
1782831462181587500,5.37358740234375,-0.17024922370910645,0.027142707258462906,0.6588945388793945
1782831462191516400,5.383516357421875,-0.1865594983100891,0.15161539614200592,0.6016126275062561
1782831462201445600,5.393445556640625,-0.19466394186019897,0.26783841848373413,0.5177195072174072
1782831462211374600,5.40337451171875,-0.1984453648328781,0.34235501289367676,0.4390537142753601
1782831462221304300,5.41330419921875,-0.19914036989212036,0.3346792161464691,0.3759832978248596
1782831462231233500,5.423233642578125,-0.19066938757896423,0.26764798164367676,0.3256079852581024
1782831462241162500,5.43316259765625,-0.17253383994102478,0.1554587185382843,0.27991339564323425
1782831462251091500,5.443091552734375,-0.13341893255710602,0.03358926624059677,0.2226639688014984
1782831462261020400,5.4530205078125,-0.08827482163906097,-0.11713134497404099,0.1482093185186386
1782831462270949400,5.462949462890625,-0.03776690363883972,-0.24835273623466492,0.06537888199090958
1782831462280878600,5.472878662109375,-0.001933664083480835,-0.36034223437309265,-0.0134578887373209
1782831462290807600,5.4828076171875,0.011672958731651306,-0.4701302647590637,-0.07233346253633499
1782831462300736500,5.492736572265625,0.017638230696320534,-0.4955019950866699,-0.10120677202939987
1782831462310665500,5.50266552734375,0.002383643761277199,-0.4436097741127014,-0.10398125648498535
1782831462320595500,5.512595458984375,-0.01429811492562294,-0.33632269501686096,-0.1146131381392479
1782831462330524400,5.5225244140625,-0.0278426855802536,-0.17595353722572327,-0.14311854541301727
1782831462340453400,5.532453369140625,-0.018904225900769234,0.04026799276471138,-0.18681177496910095
1782831462350382600,5.542382568359375,0.013690203428268433,0.2456642985343933,-0.24202735722064972
1782831462360311000,5.55231103515625,0.07775776088237762,0.3991914689540863,-0.2754446268081665
1782831462370240300,5.562240234375,0.14478924870491028,0.461896151304245,-0.2726951837539673
1782831462380169200,5.572169189453125,0.21962031722068787,0.4123883843421936,-0.24516373872756958
1782831462390098200,5.58209814453125,0.29222795367240906,0.2942657470703125,-0.19141341745853424
1782831462400027100,5.592027099609375,0.34312790632247925,0.18132284283638,-0.11988033354282379
1782831462409956000,5.6019560546875,0.35673853754997253,0.12919092178344727,-0.07252293825149536
1782831462419886000,5.611885986328125,0.3689781725406647,0.10887694358825684,-0.07565955072641373
1782831462429815000,5.62181494140625,0.3938893973827362,0.13111673295497894,-0.11579365283250809
1782831462439744300,5.631744140625,0.4155527353286743,0.14554020762443542,-0.16393913328647614
1782831462449673200,5.641673095703125,0.4417340159416199,0.13011625409126282,-0.1877632439136505
1782831462459602200,5.651602294921875,0.4780184328556061,0.09306507557630539,-0.1853303164243698
1782831462469531100,5.66153125,0.5326987504959106,0.044292740523815155,-0.15877912938594818
1782831462479460400,5.67146044921875,0.5995553135871887,-0.005428174510598183,-0.11915749311447144
1782831462489389000,5.68138916015625,0.6685578227043152,-0.060441359877586365,-0.0719819888472557
1782831462499318000,5.691318115234375,0.7306308150291443,-0.14387962222099304,-0.015753405168652534
1782831462509247000,5.7012470703125,0.7759098410606384,-0.23804126679897308,0.061400238424539566
1782831462519177200,5.71117724609375,0.7938967943191528,-0.32741427421569824,0.16264604032039642
1782831462529106200,5.721106201171875,0.7716503143310547,-0.35255932807922363,0.27585330605506897
1782831462539035100,5.73103515625,0.734180748462677,-0.28287363052368164,0.37246444821357727
1782831462548964400,5.74096435546875,0.6848869919776917,-0.12647710740566254,0.4183712303638458
1782831462558893300,5.750893310546875,0.6274913549423218,0.07018323242664337,0.40968745946884155
1782831462568822300,5.760822265625,0.5814423561096191,0.22468118369579315,0.33964046835899353
1782831462578751000,5.7707509765625,0.551376223564148,0.31582584977149963,0.21683891117572784
1782831462588680200,5.78068017578125,0.5219925045967102,0.3349100649356842,0.0837213322520256
1782831462598609200,5.790609130859375,0.4991845190525055,0.29697898030281067,-0.014621824026107788
1782831462608538000,5.8005380859375,0.4771638810634613,0.2413221299648285,-0.0780002623796463
1782831462618468000,5.810468017578125,0.447451114654541,0.1636551320552826,-0.10827214270830154
1782831462628397300,5.820397216796875,0.41399329900741577,0.07778362184762955,-0.12747806310653687
1782831462638326300,5.830326171875,0.4000726044178009,0.0038063591346144676,-0.14717288315296173
1782831462648255200,5.840255126953125,0.4098317623138428,-0.05331232398748398,-0.1642698496580124
1782831462658184000,5.850183837890625,0.4251864552497864,-0.04339881241321564,-0.15290753543376923
1782831462668113200,5.860113037109375,0.45872655510902405,0.007589803077280521,-0.13428591191768646
1782831462678042000,5.8700419921875,0.5018690228462219,0.10601696372032166,-0.09192686527967453
1782831462687971000,5.87997119140625,0.5569357872009277,0.23312298953533173,-0.025948118418455124
1782831462697900000,5.889900146484375,0.6150677800178528,0.3829841613769531,0.04682222381234169
1782831462707829200,5.899829345703125,0.6774001717567444,0.5037441849708557,0.09813947975635529
1782831462717758200,5.90975830078125,0.7452228665351868,0.5102702379226685,0.08057034015655518
1782831462727688200,5.919688232421875,0.8101300001144409,0.39622220396995544,0.021103546023368835
1782831462737617200,5.9296171875,0.8391540050506592,0.19929637014865875,-0.050469305366277695
1782831462747546000,5.939546142578125,0.7983813285827637,-0.028169017285108566,-0.1010589748620987
1782831462757475000,5.94947509765625,0.7187674045562744,-0.19898296892642975,-0.14139342308044434
1782831462767404000,5.959404052734375,0.6391194462776184,-0.3042510747909546,-0.16945168375968933
1782831462777333200,5.969333251953125,0.5464915037155151,-0.31718453764915466,-0.18429221212863922
1782831462787262200,5.97926220703125,0.47063374519348145,-0.2752589285373688,-0.1980796605348587
1782831462797191200,5.989191162109375,0.40704652667045593,-0.17124411463737488,-0.1931406408548355
1782831462807120100,5.9991201171875,0.35687416791915894,-0.017170388251543045,-0.1430037021636963
1782831462817049300,6.00904931640625,0.3366539478302002,0.1524551957845688,-0.0675656720995903
1782831462826979000,6.01897900390625,0.35526466369628906,0.2987961769104004,0.026889465749263763
1782831462836908000,6.028907958984375,0.39281556010246277,0.3907947242259979,0.10197155922651291
1782831462846837000,6.0388369140625,0.43453529477119446,0.4231438636779785,0.13869042694568634
1782831462856766200,6.04876611328125,0.48782581090927124,0.3608150780200958,0.15265518426895142
1782831462866695200,6.058695068359375,0.5449548959732056,0.2201642245054245,0.15213879942893982
1782831462876624100,6.0686240234375,0.606577455997467,0.06331241875886917,0.18095359206199646
1782831462886553000,6.078552978515625,0.6619732975959778,-0.0418773852288723,0.2246086597442627
1782831462896482300,6.088482421875,0.7081758975982666,-0.07560674846172333,0.2622634768486023
1782831462906411300,6.098411376953125,0.7304739952087402,-0.05008754879236221,0.2626906633377075
1782831462916340200,6.10834033203125,0.7358519434928894,-0.004654174670577049,0.24513238668441772
1782831462926270200,6.118270263671875,0.7158143520355225,0.04961545765399933,0.20924070477485657
1782831462936199200,6.12819921875,0.6870129704475403,0.0960167869925499,0.1684832125902176
1782831462946128100,6.138128173828125,0.6690134406089783,0.0725783035159111,0.12992596626281738
1782831462956057000,6.14805712890625,0.6466073989868164,-0.014981853775680065,0.08502574265003204
1782831462965986300,6.157986328125,0.6153112649917603,-0.12359382212162018,0.023986883461475372
1782831462975915300,6.167915283203125,0.5713050365447998,-0.22745896875858307,-0.06316858530044556
1782831462985844200,6.17784423828125,0.5262629985809326,-0.3171294629573822,-0.17481867969036102
1782831462995773200,6.187773193359375,0.46582067012786865,-0.40461811423301697,-0.2892044484615326
1782831463005702100,6.1977021484375,0.40293118357658386,-0.47178250551223755,-0.3717019855976105
1782831463015631000,6.207631103515625,0.34930849075317383,-0.5055634379386902,-0.4314815402030945
1782831463025561000,6.21756103515625,0.32239484786987305,-0.5155361890792847,-0.4543122947216034
1782831463035490000,6.227489990234375,0.3201984465122223,-0.49125805497169495,-0.4384531080722809
1782831463045419300,6.237419189453125,0.3115842044353485,-0.41167399287223816,-0.37664541602134705
1782831463055348200,6.24734814453125,0.30111515522003174,-0.2944619953632355,-0.2923547625541687
1782831463065277200,6.257277099609375,0.28197288513183594,-0.14389219880104065,-0.1918976753950119
1782831463075206100,6.2672060546875,0.2670309245586395,0.04027005285024643,-0.09523164480924606
1782831463085135000,6.277135009765625,0.24724602699279785,0.1853470802307129,-0.03041110560297966
1782831463095064000,6.28706396484375,0.2370559275150299,0.246070995926857,-0.015385156497359276
1782831463104993000,6.296992919921875,0.22910825908184052,0.2520439624786377,-0.027525443583726883
1782831463114922000,6.306921875,0.21264150738716125,0.2256225049495697,-0.04757902771234512
1782831463124852200,6.316852294921875,0.1881476193666458,0.1909010112285614,-0.08265099674463272
1782831463134781200,6.32678125,0.16033807396888733,0.16851283609867096,-0.1023976132273674
1782831463144710100,6.336710205078125,0.13300764560699463,0.13402409851551056,-0.12218517065048218
1782831463154639400,6.346639404296875,0.0940748006105423,0.06097622215747833,-0.14450585842132568
1782831463164568000,6.356568115234375,0.06836889684200287,-0.033002473413944244,-0.15375448763370514
1782831463174497000,6.3664970703125,0.06029617786407471,-0.09372218698263168,-0.13459284603595734
1782831463184426000,6.376426025390625,0.05960828438401222,-0.10572931915521622,-0.13661551475524902
1782831463194355200,6.386355224609375,0.07693345844745636,-0.07963758707046509,-0.1621514856815338
1782831463204284200,6.3962841796875,0.08859996497631073,-0.03733593225479126,-0.2031993269920349
1782831463214213000,6.406213134765625,0.07622402906417847,-0.009549754671752453,-0.23886191844940186
1782831463224143400,6.416143310546875,0.054303281009197235,0.03285123407840729,-0.2332000434398651
1782831463234072300,6.426072265625,0.03926794230937958,0.0664091408252716,-0.17986531555652618
1782831463244001000,6.4360009765625,0.023353958502411842,0.054800424724817276,-0.10573915392160416
1782831463253930000,6.445929931640625,-0.006583685055375099,-0.006072196643799543,-0.03224016726016998
1782831463263859000,6.45585888671875,-0.0318022221326828,-0.09260708838701248,0.033691443502902985
1782831463273788200,6.4657880859375,-0.056958626955747604,-0.1704060435295105,0.08986357599496841
1782831463283717000,6.475717041015625,-0.06644827127456665,-0.2132592350244522,0.1382894366979599
1782831463293646000,6.48564599609375,-0.06715480983257294,-0.20811933279037476,0.16965854167938232
1782831463303575000,6.495574951171875,-0.06686612218618393,-0.17201432585716248,0.1562442034482956
1782831463313504300,6.505504150390625,-0.07622955739498138,-0.16950386762619019,0.09776989370584488
1782831463323434200,6.515434326171875,-0.10143131762742996,-0.18942111730575562,0.022701242938637733
1782831463333363000,6.525363037109375,-0.13269886374473572,-0.22447200119495392,-0.042614180594682693
1782831463343292200,6.535292236328125,-0.14932630956172943,-0.255084753036499,-0.0688503086566925
1782831463353221000,6.54522119140625,-0.16099010407924652,-0.272276371717453,-0.04494456574320793
1782831463363149800,6.55514990234375,-0.17581166326999664,-0.26474496722221375,0.009411349892616272
1782831463373078800,6.565078857421875,-0.20293362438678741,-0.2416534423828125,0.06618573516607285
1782831463383007700,6.5750078125,-0.22247031331062317,-0.1927439570426941,0.11020831763744354
1782831463392937000,6.58493701171875,-0.226827010512352,-0.10608669370412827,0.14799851179122925
1782831463402866000,6.594865966796875,-0.2522365152835846,-0.0632963553071022,0.16398493945598602
1782831463412795000,6.604794921875,-0.2882090210914612,-0.07419652491807938,0.14509433507919312
1782831463422724900,6.614724853515625,-0.329056054353714,-0.09717854112386703,0.08196569979190826
1782831463432653800,6.62465380859375,-0.3581465482711792,-0.1250210404396057,-0.012759404256939888
1782831463442582800,6.634582763671875,-0.37917593121528625,-0.10618530958890915,-0.106417715549469
1782831463452511700,6.64451171875,-0.40201738476753235,-0.08509770035743713,-0.16682341694831848
1782831463462441000,6.65444091796875,-0.40882015228271484,-0.056519053876399994,-0.1797029972076416
1782831463472370000,6.664369873046875,-0.4135790169239044,-0.018693380057811737,-0.14321595430374146
1782831463482299000,6.674298828125,-0.4092111885547638,0.012231246568262577,-0.08136510848999023
1782831463492227800,6.684227783203125,-0.3929041028022766,0.01631602644920349,-0.024090897291898727
1782831463502157000,6.694156982421875,-0.3722209334373474,0.009163572452962399,0.026432199403643608
1782831463512086000,6.7040859375,-0.3451416790485382,0.01904086396098137,0.06395047903060913
1782831463522015700,6.714015625,-0.3350975513458252,0.009337903000414371,0.08532421290874481
1782831463531944700,6.72394482421875,-0.3585047125816345,-0.028430283069610596,0.0853533074259758
1782831463541874000,6.7338740234375,-0.39800846576690674,-0.046305954456329346,0.0868217796087265
1782831463551803000,6.743802978515625,-0.4507047235965729,-0.021060870960354805,0.08974532783031464
1782831463561731800,6.75373193359375,-0.48356229066848755,0.032553620636463165,0.0777461901307106
1782831463571660800,6.763660888671875,-0.4736000895500183,0.1401192545890808,0.06975796818733215
1782831463581590000,6.773590087890625,-0.442728191614151,0.2909340560436249,0.09835711866617203
1782831463591519000,6.78351904296875,-0.412676602602005,0.4358223080635071,0.14422348141670227
1782831463601448000,6.793447998046875,-0.3822542726993561,0.5135482549667358,0.20274485647678375
1782831463611376600,6.803376708984375,-0.3503628373146057,0.5185152292251587,0.2689128816127777
1782831463621307000,6.813306884765625,-0.3208342492580414,0.46773409843444824,0.3291352093219757
1782831463631235800,6.82323583984375,-0.29422175884246826,0.3791937232017517,0.36030757427215576
1782831463641164800,6.833164794921875,-0.25680407881736755,0.2612428367137909,0.34440237283706665
1782831463651094000,6.843093994140625,-0.23169410228729248,0.09168900549411774,0.3040767312049866
1782831463661023000,6.85302294921875,-0.23278173804283142,-0.10206635296344757,0.22964909672737122
1782831463670952000,6.862951904296875,-0.24838799238204956,-0.2483040690422058,0.13177606463432312
1782831463680881000,6.872880859375,-0.2658388912677765,-0.34918567538261414,0.007034399081021547
1782831463690809900,6.882809814453125,-0.28419041633605957,-0.4143403172492981,-0.14011311531066895
1782831463700738800,6.89273876953125,-0.30511727929115295,-0.44429901242256165,-0.29721084237098694
1782831463710668800,6.902668701171875,-0.3315626382827759,-0.4295216202735901,-0.422374963760376
1782831463720597800,6.91259765625,-0.3589881360530853,-0.3677471876144409,-0.5079172849655151
1782831463730527000,6.92252685546875,-0.3870142996311188,-0.24170449376106262,-0.5403975248336792
1782831463740456000,6.9324560546875,-0.38566887378692627,-0.05892137065529823,-0.5060624480247498
1782831463750385000,6.942385009765625,-0.3436111509799957,0.18920700252056122,-0.40793851017951965
1782831463760313900,6.95231396484375,-0.2638907730579376,0.43109339475631714,-0.2639096975326538
1782831463770242800,6.962242919921875,-0.16835324466228485,0.5925377011299133,-0.12153022736310959
1782831463780171800,6.972171875,-0.06912359595298767,0.645245373249054,-0.017053619027137756
1782831463790100700,6.982100830078125,0.016730017960071564,0.611892580986023,0.034633222967386246
1782831463800029700,6.99202978515625,0.08975470066070557,0.49675482511520386,0.05583624914288521
1782831463809960000,7.0019599609375,0.16231553256511688,0.34478309750556946,0.059537291526794434
1782831463819889000,7.011888916015625,0.21921369433403015,0.20263634622097015,0.0625234916806221
1782831463829817900,7.02181787109375,0.24674572050571442,0.08450142294168472,0.05204128846526146
1782831463839747000,7.0317470703125,0.2587413787841797,-0.0021812738850712776,0.04332662373781204
1782831463849675800,7.04167578125,0.26126351952552795,-0.027536045759916306,0.026846984401345253
1782831463859604700,7.051604736328125,0.25780966877937317,-0.07244333624839783,-0.01601339690387249
1782831463869533700,7.06153369140625,0.26508063077926636,-0.12041942775249481,-0.0756375715136528
1782831463879463000,7.071462890625,0.28936412930488586,-0.12638437747955322,-0.11536261439323425
1782831463889391900,7.081391845703125,0.30753400921821594,-0.09987013041973114,-0.115640789270401
1782831463899320800,7.09132080078125,0.32023167610168457,-0.0667518675327301,-0.08542695641517639
1782831463909251000,7.1012509765625,0.33025220036506653,-0.030528105795383453,-0.0647396594285965
1782831463919180000,7.111179931640625,0.3408883213996887,0.001768314279615879,-0.0674305185675621
1782831463929108700,7.121108642578125,0.34894225001335144,-0.0008165221661329269,-0.09346291422843933
1782831463939037700,7.13103759765625,0.3410435914993286,-0.03355449438095093,-0.135051891207695
1782831463948966700,7.140966552734375,0.33156678080558777,-0.037448957562446594,-0.14575262367725372
1782831463958895900,7.150895751953125,0.31500086188316345,-0.01955358125269413,-0.12795338034629822
1782831463968824800,7.160824951171875,0.31062039732933044,-0.004778402857482433,-0.10901802778244019
1782831463978753800,7.17075390625,0.320741206407547,0.02211126871407032,-0.08972129970788956
1782831463988682800,7.180682861328125,0.34375283122062683,0.06509935110807419,-0.0741797611117363
1782831463998612000,7.190612060546875,0.3766559064388275,0.10761857777833939,-0.05242546647787094
1782831464008541700,7.200541748046875,0.4138685166835785,0.12474264204502106,-0.004136218689382076
1782831464018470700,7.210470703125,0.4458831548690796,0.1290913224220276,0.05785951018333435
1782831464028399900,7.22039990234375,0.4615706205368042,0.08718335628509521,0.11161081492900848
1782831464038328800,7.230328857421875,0.4670165181159973,0.02031697705388069,0.14284196496009827
1782831464048257800,7.2402578125,0.4594171345233917,-0.02223200723528862,0.14567144215106964
1782831464058186800,7.250186767578125,0.4514119327068329,-0.05482883378863335,0.12368758022785187
1782831464068116000,7.260115966796875,0.45601165294647217,-0.050212759524583817,0.10350914299488068
1782831464078045000,7.270044921875,0.46418625116348267,-0.02592712640762329,0.09083888679742813
1782831464087974000,7.279973876953125,0.4826507866382599,0.01558503694832325,0.09397382289171219
1782831464097902800,7.28990283203125,0.500999391078949,0.05439049005508423,0.11432836204767227
1782831464107832800,7.299832763671875,0.5115280747413635,0.0987481102347374,0.15630266070365906
1782831464117761800,7.30976171875,0.502903401851654,0.12164623290300369,0.20071858167648315
1782831464127690800,7.319690673828125,0.4789208471775055,0.10813362151384354,0.22374588251113892
1782831464137620000,7.329619873046875,0.46102869510650635,0.08754704147577286,0.20768707990646362
1782831464147549000,7.339548828125,0.45901790261268616,0.04922214522957802,0.15238787233829498
1782831464157478000,7.349477783203125,0.4529469609260559,0.02444755658507347,0.07858048379421234
1782831464167406800,7.35940673828125,0.44947493076324463,0.00786678772419691,-0.003478029742836952
1782831464177335800,7.369335693359375,0.4505077004432678,-0.008634690195322037,-0.07318627089262009
1782831464187265000,7.37926513671875,0.4390600621700287,-0.036131370812654495,-0.12397115677595139
1782831464197194000,7.389194091796875,0.43869680166244507,-0.054779622703790665,-0.1511487066745758
1782831464207123700,7.399123779296875,0.4510663151741028,-0.022447818890213966,-0.14134234189987183
1782831464217053000,7.409052978515625,0.4598238468170166,0.055668558925390244,-0.10358032584190369
1782831464226982000,7.41898193359375,0.4682909846305847,0.13680773973464966,-0.03176232427358627
1782831464236910800,7.428910888671875,0.4887813329696655,0.20161470770835876,0.0854058489203453
1782831464246839800,7.43883984375,0.5023108720779419,0.24208670854568481,0.22122472524642944
1782831464256769000,7.44876904296875,0.5238478779792786,0.2437216341495514,0.35407623648643494
1782831464266698000,7.458697998046875,0.5425028204917908,0.23041555285453796,0.45462101697921753
1782831464276627000,7.468626953125,0.5538707971572876,0.17893211543560028,0.4899957776069641
1782831464286555600,7.4785556640625,0.5755975842475891,0.11235393583774567,0.4692557752132416
1782831464296486000,7.48848583984375,0.594726026058197,0.0521627701818943,0.4260856509208679
1782831464306414800,7.498414794921875,0.6204067468643188,0.022262997925281525,0.37973931431770325
1782831464316343800,7.50834375,0.6443454027175903,0.002964935265481472,0.3516802489757538
1782831464326273000,7.51827294921875,0.6558610796928406,-0.0003824615851044655,0.348080039024353
1782831464336202000,7.528201904296875,0.6639328598976135,0.018251143395900726,0.349091500043869
1782831464346131000,7.538130859375,0.6614964008331299,0.02892976440489292,0.336265504360199
1782831464356060000,7.548059814453125,0.6573000550270081,0.03638927638530731,0.2849162817001343
1782831464365992200,7.5579921875,0.6493349075317383,0.03621150180697441,0.21033179759979248
1782831464375921200,7.567921142578125,0.6427934169769287,0.021429892629384995,0.13727809488773346
1782831464385850000,7.57785009765625,0.6314785480499268,-0.009709542617201805,0.07292141020298004
1782831464395780400,7.5877802734375,0.6156529784202576,-0.07611439377069473,-0.012831317260861397
1782831464405709300,7.597709228515625,0.5865850448608398,-0.16417790949344635,-0.1195850595831871
1782831464415638300,7.60763818359375,0.5450130701065063,-0.2589954733848572,-0.26163676381111145
1782831464425567500,7.6175673828125,0.48238298296928406,-0.3240930438041687,-0.4009283185005188
1782831464435496400,7.627496337890625,0.40404263138771057,-0.3671363890171051,-0.5003893971443176
1782831464445425200,7.637425048828125,0.32132604718208313,-0.3860916197299957,-0.5571264624595642
1782831464455354000,7.64735400390625,0.2525792121887207,-0.3723598122596741,-0.5588644742965698
1782831464465283000,7.657282958984375,0.20826101303100586,-0.32541173696517944,-0.5244396328926086
1782831464475212300,7.66721240234375,0.1922503560781479,-0.2293323278427124,-0.4456568956375122
1782831464485141200,7.677141357421875,0.2045365571975708,-0.08994841575622559,-0.32406288385391235
1782831464495071200,7.6870712890625,0.22354567050933838,0.051754385232925415,-0.20014627277851105
1782831464505000400,7.69700048828125,0.2332981675863266,0.16073386371135712,-0.12932829558849335
1782831464514929400,7.706929443359375,0.24348288774490356,0.2090875506401062,-0.10813512653112411
1782831464524858000,7.716858154296875,0.2567286789417267,0.21010412275791168,-0.11070934683084488
1782831464534787000,7.726787109375,0.2525184750556946,0.16169984638690948,-0.11444815993309021
1782831464544716300,7.73671630859375,0.239356130361557,0.13112103939056396,-0.1012914702296257
1782831464554645200,7.746645263671875,0.21832114458084106,0.12851673364639282,-0.05992565676569939
1782831464564574200,7.75657421875,0.1937541514635086,0.12764282524585724,-0.026222821325063705
1782831464574503200,7.766503173828125,0.1862429827451706,0.13450366258621216,0.0022040256299078465
1782831464584432400,7.776432373046875,0.17537546157836914,0.1330646574497223,0.0029455949552357197
1782831464594362400,7.7863623046875,0.1575501263141632,0.10447614639997482,-0.013564938679337502
1782831464604291300,7.796291259765625,0.14112083613872528,0.06297166645526886,-0.030109042301774025
1782831464614220300,7.80622021484375,0.11935536563396454,0.021967241540551186,-0.047688569873571396
1782831464624149200,7.816149169921875,0.10118856281042099,-0.014195444993674755,-0.07258226722478867
1782831464634078200,7.826078125,0.09720686823129654,-0.06461068242788315,-0.10376761853694916
1782831464644007200,7.836007080078125,0.08879190683364868,-0.11440487205982208,-0.118731789290905
1782831464653936400,7.845936279296875,0.07170186191797256,-0.1475367248058319,-0.11747610569000244
1782831464663865300,7.855865234375,0.052856069058179855,-0.163720041513443,-0.10407281666994095
1782831464673794300,7.865794189453125,0.039853185415267944,-0.16386836767196655,-0.08830717206001282
1782831464683723300,7.87572314453125,0.012916929088532925,-0.13760048151016235,-0.0657501220703125
1782831464693653200,7.8856533203125,-0.004401607438921928,-0.10863327980041504,-0.051517926156520844
1782831464703582200,7.895582275390625,-0.029195627197623253,-0.09019353240728378,-0.04590984061360359
1782831464713511200,7.90551123046875,-0.05212011933326721,-0.09597951173782349,-0.04077073931694031
1782831464723440000,7.915440185546875,-0.067779041826725,-0.09399834275245667,-0.027414854615926743
1782831464733369300,7.925369384765625,-0.07702101022005081,-0.08747866004705429,-0.0036751707084476948
1782831464743298300,7.93529833984375,-0.07889790832996368,-0.07227463275194168,0.0327775776386261
1782831464753227300,7.945227294921875,-0.07477080821990967,-0.04737407714128494,0.06754887849092484
1782831464763156200,7.95515625,-0.06165620684623718,-0.04495314136147499,0.09620501846075058
1782831464773085400,7.96508544921875,-0.048189934343099594,-0.038539983332157135,0.12219081819057465
1782831464783014400,7.975014404296875,-0.03447066992521286,-0.0335250049829483,0.1520983874797821
1782831464792944000,7.984944091796875,-0.032445333898067474,-0.04559312015771866,0.1965920776128769
1782831464802873300,7.994873291015625,-0.02796502411365509,-0.0699043720960617,0.2395292967557907
1782831464812802300,8.00480224609375,-0.029027093201875687,-0.09506671130657196,0.27316850423812866
1782831464822731300,8.014731201171875,-0.030106747522950172,-0.08908765017986298,0.2806130051612854
1782831464832660200,8.02466015625,-0.0434635654091835,-0.05674542486667633,0.24382224678993225
1782831464842589400,8.03458935546875,-0.07452599704265594,-0.045391954481601715,0.1429217904806137
1782831464852518400,8.044518310546875,-0.10616914927959442,-0.0271943099796772,-0.000277708750218153
1782831464862447400,8.054447265625,-0.14629411697387695,-0.03357556089758873,-0.17049938440322876
1782831464872376300,8.064376220703124,-0.19518868625164032,-0.048041585832834244,-0.31962868571281433
1782831464882305300,8.07430517578125,-0.2532573640346527,-0.03976334258913994,-0.4106103777885437
1782831464892235300,8.0842353515625,-0.3079083561897278,-0.023690365254878998,-0.4475572109222412
1782831464902164200,8.094164306640625,-0.33146315813064575,-0.00015921983867883682,-0.45549508929252625
1782831464912093200,8.10409326171875,-0.3082585036754608,-0.0051925936713814735,-0.4646129608154297
1782831464922022400,8.1140224609375,-0.2723281681537628,-0.030845116823911667,-0.4481918215751648
1782831464931951400,8.123951416015625,-0.2512795925140381,-0.06008635833859444,-0.3566587269306183
1782831464941880300,8.13388037109375,-0.2430936098098755,-0.15272876620292664,-0.2062341272830963
1782831464951809300,8.143809326171874,-0.23558908700942993,-0.3002103567123413,-0.02360573597252369
1782831464961738200,8.15373828125,-0.22325095534324646,-0.45559364557266235,0.14513526856899261
1782831464971667200,8.163667236328125,-0.20396646857261658,-0.5027973651885986,0.2773178219795227
1782831464981597200,8.17359716796875,-0.18509212136268616,-0.4055368900299072,0.33695557713508606
1782831464991526400,8.1835263671875,-0.17419925332069397,-0.16685134172439575,0.3278041481971741
1782831465001455400,8.193455322265624,-0.18206830322742462,0.13141702115535736,0.2695058584213257
1782831465011384300,8.20338427734375,-0.19097711145877838,0.3847651481628418,0.19510111212730408
1782831465021313300,8.213313232421875,-0.18962453305721283,0.5237876176834106,0.13951236009597778
1782831465031242500,8.223242431640625,-0.18393574655056,0.5664117336273193,0.10772939026355743
1782831465041171200,8.233171142578126,-0.1752551794052124,0.5234121084213257,0.11674872040748596
1782831465051100200,8.24310009765625,-0.16804786026477814,0.4028071463108063,0.15845301747322083
1782831465061029000,8.253029052734375,-0.16479061543941498,0.2396218180656433,0.20518550276756287
1782831465070958300,8.262958251953124,-0.15298348665237427,0.04306960105895996,0.22395865619182587
1782831465080888300,8.272888427734374,-0.12110158801078796,-0.16899169981479645,0.20868489146232605
1782831465090817300,8.2828173828125,-0.10211272537708282,-0.36832767724990845,0.16943763196468353
1782831465100746200,8.292746337890625,-0.0660763531923294,-0.5471145510673523,0.1088031753897667
1782831465110675500,8.302675537109375,-0.029315680265426636,-0.6161841750144958,0.033522531390190125
1782831465120604200,8.312604248046876,-0.021037358790636063,-0.6034353971481323,-0.060778938233852386
1782831465130533000,8.322533203125,-0.021112460643053055,-0.5319934487342834,-0.1399640440940857
1782831465140462000,8.332462158203125,-0.0352102555334568,-0.4129936099052429,-0.19502155482769012
1782831465150391300,8.342391357421874,-0.06490370631217957,-0.28049468994140625,-0.21659421920776367
1782831465160320300,8.3523203125,-0.09319480508565903,-0.13037621974945068,-0.19742625951766968
1782831465170249200,8.362249267578125,-0.0999848023056984,0.051100101321935654,-0.16452530026435852
1782831465180179500,8.372179443359375,-0.07416507601737976,0.18265658617019653,-0.14049486815929413
1782831465190108400,8.3821083984375,-0.020948726683855057,0.2371070384979248,-0.13764210045337677
1782831465200037000,8.392037109375,0.04194851592183113,0.2259777933359146,-0.13257695734500885
1782831465209966000,8.401966064453125,0.09709033370018005,0.16095352172851562,-0.08022213727235794
1782831465219895300,8.411895263671875,0.12725773453712463,0.11182967573404312,0.01819450780749321
1782831465229824300,8.42182421875,0.13553084433078766,0.15164846181869507,0.12368738651275635
1782831465239753200,8.431753173828126,0.1478917896747589,0.22739292681217194,0.17661191523075104
1782831465249682200,8.44168212890625,0.16825245320796967,0.2974300980567932,0.16733798384666443
1782831465259611400,8.451611328125,0.18093141913414001,0.3433661460876465,0.1176312193274498
1782831465269540400,8.461540283203124,0.19816552102565765,0.347520649433136,0.06577388197183609
1782831465279470000,8.471469970703126,0.21855293214321136,0.3107994794845581,0.021392568945884705
1782831465289399300,8.4813994140625,0.2314618080854416,0.2606162130832672,0.0010156570933759212
1782831465299328300,8.491328369140625,0.24321524798870087,0.20833148062229156,-0.003067567478865385
1782831465309257200,8.50125732421875,0.26928281784057617,0.1659025251865387,0.029354553669691086
1782831465319186200,8.511186279296876,0.2959442734718323,0.1254957616329193,0.0747246965765953
1782831465329115400,8.521115478515625,0.3242001235485077,0.06013460457324982,0.10497341305017471
1782831465339044400,8.53104443359375,0.36242368817329407,-0.01195554155856371,0.1148899644613266
1782831465348973300,8.540973388671874,0.3927440345287323,-0.08185259997844696,0.11419034749269485
1782831465358902300,8.55090234375,0.39369451999664307,-0.09887528419494629,0.10433878004550934
1782831465368828400,8.560828369140625,0.37856775522232056,-0.06198837608098984,0.08173386752605438
1782831465378758100,8.570758056640624,0.34716087579727173,0.01438688114285469,0.045934662222862244
1782831465388687400,8.580687255859376,0.3077082633972168,0.12256128340959549,-0.012862609699368477
1782831465398616300,8.5906162109375,0.2682589590549469,0.22775226831436157,-0.09748774766921997
1782831465408545300,8.600545166015625,0.2521686851978302,0.3233134150505066,-0.19752593338489532
1782831465418474200,8.61047412109375,0.2462734878063202,0.40773820877075195,-0.2791644036769867
1782831465428403500,8.620403564453126,0.24537600576877594,0.4478965699672699,-0.3193853199481964
1782831465438332400,8.63033251953125,0.2537541091442108,0.43529120087623596,-0.3251325786113739
1782831465448261400,8.640261474609375,0.26663392782211304,0.3861774504184723,-0.3042832016944885
1782831465458190000,8.650190185546874,0.2827607989311218,0.3282909691333771,-0.2627606689929962
1782831465468119300,8.660119384765625,0.3063361942768097,0.2397749423980713,-0.2155153900384903
1782831465478049300,8.67004931640625,0.3452024757862091,0.18047957122325897,-0.13935557007789612
1782831465487978200,8.679978271484375,0.3860625624656677,0.1262083351612091,-0.05703512951731682
1782831465497907200,8.6899072265625,0.42390570044517517,0.05692446604371071,0.02280377969145775
1782831465507836400,8.69983642578125,0.44468793272972107,-0.008790364488959312,0.0657682940363884
1782831465517765400,8.709765380859375,0.4412271976470947,-0.031214050948619843,0.0526466891169548
1782831465527694300,8.7196943359375,0.43844154477119446,0.010980539955198765,-0.0027334769256412983
1782831465537623000,8.729623046875,0.4484129846096039,0.07884657382965088,-0.07386797666549683
1782831465547552300,8.73955224609375,0.4625714123249054,0.1647564321756363,-0.12810803949832916
1782831465557481200,8.749481201171875,0.4686112105846405,0.2257942408323288,-0.14738613367080688
1782831465567411200,8.7594111328125,0.4730682671070099,0.2564546763896942,-0.12898075580596924
1782831465577340400,8.76934033203125,0.47658276557922363,0.23805832862854004,-0.07629751414060593
1782831465587269400,8.779269287109376,0.46981966495513916,0.22397392988204956,-0.00608353316783905
1782831465597198300,8.7891982421875,0.46536722779273987,0.21585050225257874,0.07550420612096786
1782831465607127300,8.799127197265625,0.4652375280857086,0.19940122961997986,0.14474986493587494
1782831465617056300,8.80905615234375,0.4821346402168274,0.17343103885650635,0.20235669612884521
1782831465626985200,8.818985107421875,0.5252274870872498,0.13265565037727356,0.2083224356174469
1782831465636914200,8.8289140625,0.5914637446403503,0.06021367385983467,0.15391193330287933
1782831465646843100,8.838843017578125,0.6454492211341858,-0.003921904601156712,0.05854865536093712
1782831465656772400,8.8487724609375,0.6635273694992065,-0.05099199339747429,-0.041568756103515625
1782831465666702300,8.858702392578126,0.6493297815322876,-0.08016398549079895,-0.10826762765645981
1782831465676631300,8.86863134765625,0.6040866374969482,-0.12303036451339722,-0.14526699483394623
1782831465686560500,8.878560546875,0.5318455100059509,-0.17860841751098633,-0.14979010820388794
1782831465696489200,8.8884892578125,0.43556931614875793,-0.2164701670408249,-0.13338522613048553
1782831465706418200,8.898418212890626,0.3503316640853882,-0.23986203968524933,-0.12395790964365005
1782831465716347100,8.90834716796875,0.305570513010025,-0.22544366121292114,-0.11701437085866928
1782831465726276000,8.918276123046875,0.27776631712913513,-0.15253083407878876,-0.09726889431476593
1782831465736205300,8.928205322265624,0.27095189690589905,-0.09104453772306442,-0.01795603707432747
1782831465746134300,8.93813427734375,0.3413195312023163,0.04387972131371498,0.067144475877285
1782831465756063200,8.948063232421875,0.4274546504020691,0.21341025829315186,0.1470429003238678
1782831465765993500,8.957993408203125,0.5100011825561523,0.3692089319229126,0.21208767592906952
1782831465775922200,8.967922119140624,0.5433900356292725,0.428533136844635,0.25164827704429626
1782831465785851100,8.97785107421875,0.5277024507522583,0.3835403621196747,0.28592342138290405
1782831465795780000,8.987780029296875,0.48651185631752014,0.278684139251709,0.32691073417663574
1782831465805709300,8.997709228515625,0.4292336702346802,0.16668598353862762,0.3675313889980316
1782831465815638300,9.00763818359375,0.37931254506111145,0.08689406514167786,0.41204267740249634
1782831465825567200,9.017567138671875,0.332795649766922,0.06873397529125214,0.4472365975379944
1782831465835496200,9.02749609375,0.2955767810344696,0.13141879439353943,0.446326345205307
1782831465845425400,9.03742529296875,0.27598869800567627,0.2533399164676666,0.40060916543006897
1782831465855354400,9.047354248046876,0.2702888548374176,0.3660511076450348,0.30495181679725647
1782831465865284000,9.0572841796875,0.2769811153411865,0.38893404603004456,0.1896098107099533
1782831465875213300,9.06721337890625,0.2852702736854553,0.31548821926116943,0.096965491771698
1782831465885142300,9.077142333984375,0.2857522964477539,0.17888934910297394,0.0299941748380661
1782831465895071200,9.0870712890625,0.24877235293388367,0.002209166996181011,-0.04206017404794693
1782831465905000200,9.097000244140625,0.1929442435503006,-0.22350944578647614,-0.13456881046295166
1782831465914929400,9.106929443359375,0.13047517836093903,-0.4263334274291992,-0.22890083491802216
1782831465924858400,9.1168583984375,0.06474730372428894,-0.5442551970481873,-0.29429182410240173
1782831465934787300,9.126787353515626,0.008371604606509209,-0.605192244052887,-0.3222399055957794
1782831465944716300,9.13671630859375,-0.030630657449364662,-0.6400410532951355,-0.33725693821907043
1782831465954645200,9.146645263671875,-0.06268788129091263,-0.6124547719955444,-0.34246522188186646
1782831465964575200,9.1565751953125,-0.08572102338075638,-0.5034862160682678,-0.33250367641448975
1782831465974504200,9.166504150390624,-0.08650851994752884,-0.35859084129333496,-0.29853424429893494
1782831465984433200,9.17643310546875,-0.07543057203292847,-0.19356994330883026,-0.2518855035305023
1782831465994362400,9.1863623046875,-0.0416032075881958,-0.008770319633185863,-0.1957092583179474
1782831466004291300,9.196291259765625,-0.013728702440857887,0.1673668920993805,-0.14253339171409607
1782831466014220300,9.20622021484375,0.005402791779488325,0.2750895321369171,-0.10827048867940903
1782831466024149200,9.216149169921875,0.0023825010284781456,0.31523534655570984,-0.08073259890079498
1782831466034078500,9.226078369140625,-0.008858298882842064,0.29753372073173523,-0.06597390025854111
1782831466044007400,9.23600732421875,-0.02315654419362545,0.21253840625286102,-0.07721084356307983
1782831466053937200,9.245937255859374,-0.05157829821109772,0.09653601795434952,-0.10344690829515457
1782831466063866400,9.255866455078126,-0.0879695937037468,0.006332889199256897,-0.1279682219028473
1782831466073795300,9.26579541015625,-0.1195780336856842,-0.008425582200288773,-0.14586660265922546
1782831466083724300,9.275724365234375,-0.11949494481086731,0.031575631350278854,-0.1760343611240387
1782831466093653200,9.2856533203125,-0.07631433755159378,0.08038639277219772,-0.21015377342700958
1782831466103582500,9.29558251953125,-0.019192464649677277,0.10092762112617493,-0.21223503351211548
1782831466113511400,9.305511474609375,0.014722875319421291,0.08322101831436157,-0.1874159574508667
1782831466123440400,9.3154404296875,0.011473285965621471,0.01658366620540619,-0.15131761133670807
1782831466133369000,9.325369140625,-0.0180770605802536,-0.07182583212852478,-0.10803712904453278
1782831466143298300,9.33529833984375,-0.0704750195145607,-0.16294828057289124,-0.07125727832317352
1782831466153228300,9.345228271484375,-0.12315069139003754,-0.21614208817481995,-0.04046860709786415
1782831466163157200,9.3551572265625,-0.1637553721666336,-0.2169295847415924,-0.011683030053973198
1782831466173086200,9.365086181640624,-0.2138674110174179,-0.15404477715492249,0.015136335045099258
1782831466183015400,9.375015380859375,-0.2665596604347229,-0.07057012617588043,0.030708905309438705
1782831466192944400,9.3849443359375,-0.298915296792984,0.014864047057926655,0.029713213443756104
1782831466202873300,9.394873291015625,-0.30416518449783325,0.07118857651948929,0.027024753391742706
1782831466212802000,9.404802001953126,-0.31079772114753723,0.07012441009283066,0.03869299963116646
1782831466222731300,9.414731201171875,-0.33358505368232727,0.01017079409211874,0.06932760775089264
1782831466232660200,9.42466015625,-0.3658270537853241,-0.0910334587097168,0.1097145676612854
1782831466242589200,9.434589111328124,-0.40850314497947693,-0.19887283444404602,0.13619464635849
1782831466252519400,9.44451953125,-0.44919461011886597,-0.24956382811069489,0.14802907407283783
1782831466262448400,9.454448486328126,-0.4880610406398773,-0.23606213927268982,0.1649465411901474
1782831466272377300,9.46437744140625,-0.5488579869270325,-0.2109905183315277,0.18146206438541412
1782831466282306300,9.474306396484375,-0.6239442229270935,-0.20231100916862488,0.1908574253320694
1782831466292235300,9.4842353515625,-0.701224148273468,-0.179886594414711,0.181696817278862
1782831466302164200,9.494164306640625,-0.7566608190536499,-0.13548770546913147,0.16665181517601013
1782831466312093200,9.50409326171875,-0.782878577709198,-0.06489107757806778,0.14473535120487213
1782831466322022100,9.514022216796874,-0.7921959161758423,0.028213031589984894,0.1437835395336151
1782831466331951400,9.523951416015626,-0.7919045686721802,0.13330362737178802,0.16022653877735138
1782831466341880300,9.53388037109375,-0.8213239908218384,0.19706715643405914,0.1696823686361313
1782831466351810300,9.543810302734375,-0.8436129093170166,0.21234926581382751,0.16089767217636108
1782831466361739300,9.5537392578125,-0.8675270080566406,0.15382950007915497,0.11167872697114944
1782831466371671600,9.563671630859375,-0.9301262497901917,0.020671386271715164,0.022202299907803535
1782831466381600300,9.573600341796874,-1.0216631889343262,-0.17293298244476318,-0.09212720394134521
1782831466391529200,9.583529296875,-1.1358201503753662,-0.3896990418434143,-0.22648940980434418
1782831466401458200,9.593458251953125,-1.241497278213501,-0.5789850950241089,-0.32815638184547424
1782831466411387400,9.603387451171875,-1.2859458923339844,-0.6579633951187134,-0.3598346710205078
1782831466421316400,9.61331640625,-1.2750530242919922,-0.5785732865333557,-0.31888458132743835
1782831466431245300,9.623245361328125,-1.2333166599273682,-0.3681432902812958,-0.22103345394134521
1782831466441174300,9.63317431640625,-1.1652296781539917,-0.11004756391048431,-0.08988901227712631
1782831466451104500,9.6431044921875,-1.0950989723205566,0.148980975151062,0.06758555769920349
1782831466461033500,9.653033447265624,-1.0586732625961304,0.32760050892829895,0.19107288122177124
1782831466470962200,9.662962158203126,-1.0440975427627563,0.4151478707790375,0.2731423079967499
1782831466480891400,9.672891357421875,-1.0503032207489014,0.4006000757217407,0.3103083074092865
1782831466490820400,9.6828203125,-1.0721544027328491,0.35028037428855896,0.3239702582359314
1782831466500749300,9.692749267578124,-1.0869746208190918,0.2976973354816437,0.32026979327201843
1782831466510678300,9.70267822265625,-1.0704634189605713,0.27844926714897156,0.3059859871864319
1782831466520607500,9.712607421875,-1.02445650100708,0.28114625811576843,0.2852732539176941
1782831466530536400,9.722536376953125,-0.9808159470558167,0.30620789527893066,0.28116223216056824
1782831466540465400,9.73246533203125,-0.9581740498542786,0.3346291482448578,0.29880914092063904
1782831466550395100,9.74239501953125,-0.943856418132782,0.34194591641426086,0.3208870589733124
1782831466560324400,9.752324462890625,-0.9415746331214905,0.3051956295967102,0.34445497393608093
1782831466570253300,9.76225341796875,-0.9588915705680847,0.24100475013256073,0.37402623891830444
1782831466580182300,9.772182373046874,-0.9738894104957581,0.17917892336845398,0.39765700697898865
1782831466590111200,9.782111328125,-0.9639866948127747,0.1300612986087799,0.3815825283527374
1782831466600040400,9.79204052734375,-0.925565779209137,0.06528575718402863,0.32073700428009033
1782831466609969400,9.801969482421875,-0.8744725584983826,-0.04194764047861099,0.233552485704422
1782831466619898400,9.8118984375,-0.8244509100914001,-0.1609286218881607,0.16978949308395386
1782831466629827300,9.821827392578125,-0.7595016956329346,-0.24199582636356354,0.13548144698143005
1782831466639757300,9.83175732421875,-0.6960553526878357,-0.24902284145355225,0.12398193031549454
1782831466649686300,9.841686279296875,-0.6335930228233337,-0.17264685034751892,0.10665034502744675
1782831466659615200,9.851615234375,-0.5970715284347534,-0.0451836958527565,0.09501206129789352
1782831466669544400,9.86154443359375,-0.5704723596572876,0.13319164514541626,0.09996767342090607
1782831466679473400,9.871473388671875,-0.5664509534835815,0.32211655378341675,0.14191505312919617
1782831466689402400,9.88140234375,-0.5766952037811279,0.4384037256240845,0.20871631801128387
1782831466699331300,9.891331298828124,-0.5631085634231567,0.45404207706451416,0.25610700249671936
1782831466709260500,9.901260498046875,-0.5086092352867126,0.4006481170654297,0.27900320291519165
1782831466719189500,9.911189453125,-0.42847713828086853,0.3205905854701996,0.30274370312690735
1782831466729118500,9.921118408203125,-0.37278395891189575,0.20928722620010376,0.3808698356151581
1782831466739048200,9.931048095703124,-0.3112950325012207,0.055493149906396866,0.5140180587768555
1782831466748977400,9.940977294921876,-0.2712288498878479,-0.11670959740877151,0.6503462195396423
1782831466758906400,9.95090625,-0.23558937013149261,-0.3642008900642395,0.6825894117355347
1782831466768835300,9.96083544921875,-0.18486729264259338,-0.658456027507782,0.539600133895874
1782831466778764300,9.970764404296874,-0.13968463242053986,-0.7417868971824646,0.2720917761325836
1782831466788693500,9.980693603515626,-0.16568595170974731,-0.551259458065033,-0.017078660428524017
1782831466798622500,9.99062255859375,-0.22587203979492188,-0.21033942699432373,-0.2867295742034912
1782831466808551400,10.000551513671875,-0.3265487253665924,0.19496528804302216,-0.492255836725235
1782831466818480000,10.010480224609376,-0.43178248405456543,0.5550068616867065,-0.5512152910232544
1782831466828409300,10.020409423828125,-0.5273522734642029,0.7008102536201477,-0.44404464960098267
1782831466838339300,10.03033935546875,-0.5684749484062195,0.527520477771759,-0.31673887372016907
1782831466848268300,10.040268310546875,-0.502572238445282,0.2285364717245102,-0.20401398837566376
