time,seconds_elapsed,z,y,x
1782836906603422000,0.082421875,0.1442705237686634,0.12742869456112385,0.5087981017909944
1782836906613351000,0.092350830078125,0.14135902023613453,0.09264671951532363,0.7092744969062507
1782836906623279900,0.10227978515625,-0.06320084480047225,0.11505056676417588,0.6947950129158794
1782836906633208800,0.112208740234375,-0.28402444689571854,0.09924056482240558,0.6718724755551666
1782836906643138000,0.122137939453125,-0.36114509597718714,0.059399552821367975,0.4772473637513816
1782836906653066800,0.132066650390625,-0.24021043961048125,0.1067578085847199,0.28943792331181467
1782836906662995700,0.14199560546875,-0.19912498050630092,0.16946867791116238,0.2561611651971936
1782836906672924700,0.151924560546875,-0.19294190795719623,0.17646584332212806,0.463675423059985
1782836906682854000,0.16185400390625,-0.1288899992853403,0.16058686779737472,0.612767302570492
1782836906692782800,0.171782958984375,-0.04272036682963371,0.22817177290096877,0.6042315294153988
1782836906702711800,0.1817119140625,0.03842939163744449,0.29654928968697786,0.5654961405687033
1782836906712640800,0.191640869140625,0.13273673784136772,0.19338073776587844,0.549054635790363
1782836906722570000,0.201570068359375,0.281923675224185,0.07259308865442872,0.5995836305443197
1782836906732499000,0.2114990234375,0.4934434424012899,0.06288666428476572,0.6946458867687731
1782836906742428000,0.221427978515625,0.5229349098235369,0.10800488603636622,0.7852619041740894
1782836906752356900,0.23135693359375,0.6004366671770811,0.06535495409443974,0.7310960872877389
1782836906762285800,0.241285888671875,0.6192945123821496,0.005233662869781256,0.6389073406729847
1782836906772214800,0.25121484375,0.5478396339774132,-0.045405952651798726,0.5587293498475104
1782836906782144000,0.26114404296875,0.3911714009284973,-0.07549056366160511,0.5596288194378838
1782836906792073000,0.271072998046875,0.32524317699074745,-0.08826017499417066,0.6539211507357656
1782836906802002000,0.281001953125,0.35440672763288017,-0.09732114106714725,0.7109506864901631
1782836906811931000,0.290930908203125,0.2870984475135803,-0.12257774739861488,0.6977442181102931
1782836906821860000,0.300860107421875,0.11626608003377914,-0.11626520325094461,0.7149262390576303
1782836906831789000,0.3107890625,-0.05926584343910217,-0.19034370815753934,0.654187765782699
1782836906841718000,0.320718017578125,-0.11045067175328731,-0.2966302459686994,0.5912584313999861
1782836906851647000,0.33064697265625,-0.15900456704199314,-0.3065728171817958,0.6241401988476515
1782836906861576200,0.340576171875,-0.3601157529294491,-0.28830124743208285,0.7818119829159229
1782836906871505000,0.3505048828125,-0.4190869973361492,-0.3267553351193666,0.7770841506764292
1782836906881433900,0.360433837890625,-0.32717677540183066,-0.2883221440896392,0.5504459440182894
1782836906891362800,0.37036279296875,-0.3863958570897579,-0.11263064614087342,0.3402358346676454
1782836906901293000,0.38029296875,-0.4750234040915966,-0.043961745192855596,0.21285324427057056
1782836906911222000,0.390221923828125,-0.5090741422533989,-0.1159640283472836,0.2536504244852811
1782836906921151000,0.40015087890625,-0.49658641660213465,-0.2389794365108013,0.3949413479212671
1782836906931080000,0.410079833984375,-0.4121732724249363,-0.2963435379818082,0.518942807980068
1782836906941009200,0.420009033203125,-0.30416181051731106,-0.3017057956673205,0.5506288628371432
1782836906950938000,0.429938232421875,-0.15744389359652994,-0.22987433903515336,0.4126397574255243
1782836906960866800,0.43986669921875,0.07310147656798362,-0.1288204411804676,0.25847364339064804
1782836906970795800,0.449795654296875,0.2832961326211691,-0.04450622733309865,0.19427421600688247
1782836906980725000,0.45972509765625,0.4044119907736778,0.0013657353952527046,0.1776158536074683
1782836906990654000,0.469654052734375,0.5446387921094894,-0.08414806350022554,0.26747206562142817
1782836907000583000,0.4795830078125,0.7858493486732244,-0.1794926437973976,0.31548827383685857
1782836907010512000,0.489511962890625,1.089361170849204,-0.18629516341909766,0.29743096789233386
1782836907020441000,0.499441162109375,1.4116466670781374,-0.1234603023868054,0.23406371701639145
1782836907030370000,0.5093701171875,1.65802790427804,-0.02470730188563466,0.19575857281312345
1782836907040299000,0.519299072265625,2.115735431909561,0.002646495920792222,0.06798464501090347
1782836907050228000,0.52922802734375,2.6233324873477217,0.01987637459784746,-0.07413315770328044
1782836907060157200,0.5391572265625,2.9198335539788007,0.13542933792620895,-0.16151486936248838
1782836907070086000,0.5490859375,3.1255905198454856,0.19058475037179887,-0.1964806034773588
1782836907080014800,0.559014892578125,3.268402076977491,0.15224457138776779,-0.23600137054808437
1782836907089943800,0.56894384765625,3.330481224271655,0.12156184835433959,-0.2707084537267685
1782836907099873000,0.578873046875,3.15937588506937,0.09054127166867255,-0.288201148058474
1782836907109802000,0.588802001953125,2.850447298541665,-0.04873904259726405,-0.4191099398203194
1782836907119731000,0.59873095703125,2.5068764376997947,-0.2271929909966886,-0.49238063547536726
1782836907129660000,0.608659912109375,1.9780016164332628,-0.17789032316729425,-0.4978408736426383
1782836907139589000,0.618589111328125,1.1593898158431053,0.000584302693977952,-0.15311331704631448
1782836907149518000,0.62851806640625,0.2528840432226658,-0.19357056124955416,0.19940496649146078
1782836907159447000,0.638447021484375,-1.224967326647043,-0.631839813439548,-0.06297989552617073
1782836907169376000,0.6483759765625,-2.936408841204643,-0.747849069168046,-0.8176978275503963
1782836907179305000,0.658304931640625,-4.635675349321962,-0.25046105385944245,-0.953037295236066
1782836907189234000,0.66823388671875,-6.663334438371658,0.08707118440531193,-0.3657207333296537
1782836907199163000,0.678162841796875,-8.846676256564258,-0.3637681014245376,0.6104738578710704
1782836907209091800,0.688091796875,-10.63185696107149,-0.7030316569939256,0.9848482916470617
1782836907219020800,0.698020751953125,-11.775467023980617,-0.38179826363381,0.904145473229885
1782836907228950000,0.707949951171875,-12.75015026077032,0.14449147304296492,0.9113409376919269
1782836907238879000,0.71787890625,-12.853332402825355,0.451252579338476,0.7277268300503492
1782836907248808000,0.727807861328125,-12.099128484737872,0.7234765521947294,0.8827890892073511
1782836907258737000,0.73773681640625,-11.528894648122787,1.0211625908266753,1.244390550649911
1782836907268666000,0.747666015625,-10.959909350264072,0.9887666341345757,1.2452246633864938
1782836907278595000,0.757594970703125,-10.037607458096742,0.7456503170147538,1.185077214807272
1782836907288524800,0.76752490234375,-9.347630805248022,0.464617051291652,1.2878307561866937
1782836907298454000,0.7774541015625,-8.322648875328898,-0.0378326678533107,1.4364634206876157
1782836907308383000,0.787383056640625,-6.133346102905273,-0.45894781001619994,1.3941438897438347
1782836907318312000,0.79731201171875,-3.676218907758593,-0.3663489482305944,1.1212383643642068
1782836907328241000,0.807240966796875,-1.0097539656490087,-0.24853980347327886,0.6881338014610111
1782836907338170000,0.817170166015625,1.6664473575770853,-0.12977796110101045,0.026020722571760413
1782836907348099000,0.82709912109375,3.74703957991302,-0.03605038754642009,-0.41780090304836626
1782836907358028000,0.837028076171875,4.769637829566002,-0.24929054877534507,-0.304346519434452
1782836907367957000,0.84695703125,4.992879598718881,-0.8532426767274737,0.20934446896463632
1782836907377886000,0.856885986328125,4.32765335624516,-0.13835976535491645,-0.4113296612076461
1782836907387815000,0.86681494140625,4.289804979366064,0.643012218708545,0.6425713430732488
1782836907397743900,0.876743896484375,5.5710418902456755,0.2556177790354937,0.8227567183751613
1782836907407672800,0.8866728515625,5.734021790659427,0.5587513424836099,0.6222608148418367
1782836907417602000,0.89660205078125,5.581787740665674,1.614425786177814,0.6813339121878147
1782836907427531000,0.906531005859375,5.731418914684653,2.2482655412629247,0.25293453130088744
1782836907437460000,0.9164599609375,5.980872983458638,2.0829579285539683,-0.4062704781219363
1782836907447389000,0.926388916015625,6.765953101325035,1.742842322732508,-0.8713309257995336
1782836907457318100,0.936318115234375,7.526640536212921,1.6581525535710155,-1.0058803390860558
1782836907467247000,0.9462470703125,8.441690265294909,1.4851386042684316,-1.1405069823272524
1782836907477176000,0.956176025390625,8.95637114151418,1.1369573270216584,-0.8538358203150331
1782836907487104800,0.966104736328125,8.852172515892981,1.268881725566834,-0.07009206561893225
1782836907497034000,0.976033935546875,8.086271145749091,1.1398318595446646,0.12732801066562532
1782836907506963000,0.985962890625,7.3761360864907495,0.5164940631210804,-0.3063837243504822
1782836907516892000,0.995891845703125,7.055794125545025,0.3380667104676366,-0.5182770010150969
1782836907526820900,1.00582080078125,7.09371907479167,0.603456307259202,-0.6103368605531752
1782836907536750000,1.01575,7.452748786050081,0.8404803719185292,-1.0465227305978535
1782836907546679000,1.025678955078125,7.625013232159614,0.9483516947031021,-1.4874858980469405
1782836907556608000,1.03560791015625,7.9831077083945265,0.9431741459347307,-1.8292184375457465
1782836907566537000,1.045536865234375,7.97812290571928,1.089171931887418,-2.055348037094623
1782836907576466000,1.0554658203125,8.048511031675337,1.1349272824987768,-2.3373495998606084
1782836907586395100,1.06539501953125,7.760566196465492,1.0930176475301385,-2.26173511755839
1782836907596323800,1.07532373046875,7.110940843227505,0.8861025976695119,-1.9381205646827815
1782836907606252800,1.085252685546875,6.787742908328771,0.7076641391001641,-1.62399119464159
1782836907616181800,1.095181640625,6.916041371461748,0.8540377726279199,-1.4035026697196065
1782836907626111000,1.105111083984375,6.5249366060286755,1.2167523098789155,-1.3936843094080686
1782836907636040000,1.1150400390625,5.250761304098368,1.5779975052297115,-1.8087167706564067
1782836907645969000,1.124968994140625,1.8963538453161715,1.6939834531478584,-1.7379155338548122
1782836907655897900,1.13489794921875,-3.9490234569817777,0.8270680787682533,-1.1462018329679966
1782836907665827000,1.1448271484375,-8.121993616515397,-1.1284475650906562,-0.8671423150032758
1782836907675756000,1.154756103515625,-9.136232618623971,-2.2018831447944045,-0.5415275282211601
1782836907685685000,1.16468505859375,-9.49513431958854,-1.342052906370163,0.9005041941180825
1782836907695615000,1.174614990234375,-11.826855850434303,-0.1557368704829365,2.1723896315455438
1782836907705544000,1.1845439453125,-15.037966598916054,-0.7497120134957135,2.2775822366401552
1782836907715473000,1.194472900390625,-17.532684981310368,-2.1801015210971233,1.5027099167942999
1782836907725401900,1.20440185546875,-18.719802177512644,-2.533739017923176,1.4596994809769093
1782836907735331000,1.2143310546875,-17.284796262156963,-1.9513665613554416,1.7200182042449712
1782836907745260000,1.224260009765625,-14.696725057804583,-1.454311942719668,2.175761592196673
1782836907755189500,1.234189453125,-12.261859378826617,-1.4135999931029974,2.7661943133622406
1782836907765118500,1.244118408203125,-10.343832630884647,-1.5650021223172546,2.6616870601832865
1782836907775047400,1.25404736328125,-9.14063582201898,-1.623624114894867,2.454879123958945
1782836907784976100,1.26397607421875,-7.346321962985396,-1.7921264319919048,2.1059983201406896
1782836907794905300,1.2739052734375,-5.115331673911213,-1.2672761900663374,1.080380138144642
1782836907804834300,1.283834228515625,-3.715923726159334,-0.04682772908322513,0.2907688065893948
1782836907814763300,1.29376318359375,-2.6149235554426906,0.7294293961845338,0.027571020753681657
1782836907824692200,1.303692138671875,-2.243083462449908,0.6738979169681668,-0.22247326899841427
1782836907834621400,1.313621337890625,-1.5463468139469623,0.16925010325703768,-0.3823164788216352
1782836907844550400,1.32355029296875,-0.6275602364242077,0.0915616276923567,-0.2663401755146682
1782836907854479400,1.333479248046875,0.3129448364317417,0.26806299898559227,0.021931845822930333
1782836907864408300,1.343408203125,1.4056728533655405,0.16135436330484226,0.15425971060246227
1782836907874337500,1.353337646484375,2.4169758020222187,-0.10352058936231769,0.23396511548012494
1782836907884266500,1.3632666015625,3.3955227285027503,-0.21679041932271792,0.38022666693553325
1782836907894195200,1.3731953125,4.273542411351204,-0.23161009505288674,0.310472162707895
1782836907904124200,1.383124267578125,5.458548314487934,-0.05804881406584754,0.609051350787282
1782836907914053400,1.393053466796875,6.34775282369554,0.4073173933589831,1.0245615125499665
1782836907923982300,1.402982421875,6.31904987630248,0.6993549412425607,1.176367911716178
1782836907933911300,1.412911376953125,5.895533956608176,0.6926327203154563,0.9639180971473454
1782836907943840300,1.42284033203125,5.822151909533143,0.7050828904353081,0.5148213076032698
1782836907953769500,1.43276953125,5.786131332603096,0.728980994829908,0.08026091986857355
1782836907963698400,1.442698486328125,5.688674582457542,0.6000101123280823,-0.27160635241456327
1782836907973627400,1.45262744140625,6.053260758799314,0.326116744954884,-0.42985111406520005
1782836907983556400,1.462556396484375,6.575071048507094,0.1121902819622308,-0.2485608462613076
1782836907993485600,1.472485595703125,7.364204825678467,0.05074029941707849,-0.19292846395373342
1782836908003414300,1.482414306640625,7.501983649340271,0.13779007570818066,0.08721578050777315
1782836908013343200,1.49234326171875,6.751711225482821,0.11452661595530807,0.3498470185019076
1782836908023272200,1.502272216796875,6.127381057021021,-0.06406060343496502,0.23476810242608187
1782836908033201400,1.512201416015625,6.03174626160562,0.051682475638017054,0.03822232475802302
1782836908043130400,1.52213037109375,5.596288559705019,0.4055386567160487,-0.17766192123889923
1782836908053059300,1.532059326171875,4.940799282869697,0.5721444194767624,-0.3727006553448736
1782836908062988300,1.54198828125,5.098291107261181,0.5602968183599412,-0.5777116251498461
1782836908072917200,1.551917236328125,5.707139044430852,0.6294307064712047,-0.931973391354084
1782836908082846500,1.561846435546875,5.607225548782944,0.7391108322434127,-0.9699280050866306
1782836908092775400,1.571775390625,5.311712324145436,0.5805293859843165,-1.010814580617845
1782836908102705200,1.581705078125,5.420300709158182,0.35278541004136205,-0.9893392463907599
1782836908112634400,1.59163427734375,4.6730911800026895,0.3622742461375892,-0.46243601745814084
1782836908122563300,1.601563232421875,3.203401489278674,0.2900332588564604,-0.09830737562552094
1782836908132492300,1.6114921875,1.7383172465234993,0.027665567169338462,-0.17045272051244972
1782836908142421200,1.621421142578125,-0.1760679300457239,-0.18385083900690077,-0.6808345843635499
1782836908152350500,1.6313505859375,-3.038256519785523,-0.5424807372927666,-1.009925230562687
1782836908162279400,1.641279541015625,-5.638280612260103,-1.1768864556975662,-0.38037878875732417
1782836908172208400,1.65120849609375,-6.258395793375373,-1.551683937191218,1.2456348516225815
1782836908182137300,1.661137451171875,-8.69255069373548,-1.6682691661767661,2.3985477265365422
1782836908192066300,1.67106640625,-12.076488782906532,-2.668735225129127,2.5635873359590766
1782836908201995300,1.680995361328125,-12.800477595472335,-3.6537644993662832,1.9575696537792682
1782836908211924200,1.69092431640625,-13.072688270455599,-3.0494141658768057,0.9806662567220628
1782836908221853200,1.700853271484375,-13.063884201753138,-2.049299404580146,0.35563773073256016
1782836908231782400,1.710782470703125,-12.397729153996705,-1.8250981427453457,-0.04104585774615407
1782836908241711400,1.72071142578125,-11.432053399527073,-2.3101319225892425,-0.12063377372398972
1782836908251640300,1.730640380859375,-10.458366188037395,-2.4513408668301997,0.369866162571311
1782836908261569300,1.7405693359375,-9.745260004013776,-2.3527821467921135,0.9439182423003017
1782836908271498500,1.75049853515625,-8.629318284752964,-2.495660047158599,1.0343730047293007
1782836908281427500,1.760427490234375,-6.817094675019383,-2.4860016997143624,0.900730696350336
1782836908291356400,1.7703564453125,-4.45210391177833,-1.8301710620954632,0.7635792108066379
1782836908301285400,1.780285400390625,-2.184112218043208,-0.6183659262951463,0.11424568012207746
1782836908311214300,1.79021435546875,-0.3412690136402845,0.5836494907662272,-0.7417901344552635
1782836908321143300,1.800143310546875,1.2517074495345353,1.3999100520551204,-1.4917143293969333
1782836908331072300,1.810072265625,2.3111235639750958,1.6982868494302032,-1.8794994488880037
1782836908341001200,1.820001220703125,2.5773510728955267,1.5924305197298525,-1.249714229890704
1782836908350930400,1.829930419921875,2.872739209848642,1.093607722377777,-0.5204805024087429
1782836908360859400,1.839859375,2.9074685779243707,0.8140259341046213,0.22238208358362316
1782836908370788400,1.849788330078125,2.681716871777177,0.6689861795291304,0.9209864987198263
1782836908380717300,1.85971728515625,2.497593645569682,0.5666035172887146,1.112536367796734
1782836908390646300,1.869646240234375,2.3656115254878998,0.6374297424010932,0.9515554591804742
1782836908400575500,1.879575439453125,2.5101743102014065,0.7122752861574292,0.5703421923603862
1782836908410504400,1.88950439453125,3.1514842550367117,0.6618384266663342,0.034614509524405
1782836908420433400,1.899433349609375,4.0769729605466125,0.522760978028737,-0.3415943000718951
1782836908430362000,1.909362060546875,4.891197924354672,0.13538792820358647,-0.09826967396363616
1782836908440291300,1.919291259765625,5.536126644209027,-0.5116394626967609,0.3982247535061091
1782836908450220300,1.92922021484375,5.837952120733261,-0.9507392474267631,1.068251528129354
1782836908460149200,1.939149169921875,5.815488944512605,-0.9550846562199294,1.6062452562011778
1782836908470078200,1.949078125,5.820968837228417,-0.7179814619097858,1.4698998263433576
1782836908480007400,1.95900732421875,5.783796752175689,-0.35850546818859874,0.9351990754023194
1782836908489936400,1.968936279296875,5.91135988677144,-0.07647497158907353,0.3222765092048794
1782836908499866400,1.978866455078125,5.908540737697482,0.01742006748691201,-0.3512642648886889
1782836908509795300,1.98879541015625,6.067691435211897,-0.16438805017862468,-0.8689372355960309
1782836908519724300,1.998724365234375,6.3642608909040685,-0.37071580167058854,-0.8681294263444841
1782836908529653200,2.0086533203125,6.603834786176681,-0.597084945596382,-0.5698845117207616
1782836908539582200,2.018582275390625,7.109946571493149,-0.8550900581598281,-0.6236075532756745
1782836908549511400,2.028511474609375,7.410732768097519,-0.8323565405651927,-0.8794158133819698
1782836908559440400,2.0384404296875,7.003987950462102,-0.6056126085102558,-0.7935266053028405
1782836908569369300,2.048369384765625,6.190787069004774,-0.5528803315583616,-0.5497293932467698
1782836908579298300,2.05829833984375,6.016069384524226,-0.7469882145550102,-0.9178630329370498
1782836908589227500,2.0682275390625,6.26276509450078,-0.5250426957577466,-1.7502433927692471
1782836908599156500,2.078156494140625,5.519945324736833,-0.009208703980594873,-2.247996807324141
1782836908609085400,2.08808544921875,4.42353423537612,0.144417677154392,-2.386982960949093
1782836908619014100,2.09801416015625,3.2642443727761505,-0.03064531363248825,-2.2086611144967376
1782836908628943400,2.107943359375,1.3091063300579786,-0.4135613657824695,-1.7611105314813553
1782836908638872300,2.117872314453125,-0.7956248927563428,-0.8826225735340267,-1.204198240993172
1782836908648801300,2.12780126953125,-1.969357122206688,-1.1493421768203378,-0.7153903494380414
1782836908658730200,2.137730224609375,-3.1090725157648325,-0.9644764616824686,-1.1607298322752118
1782836908668659500,2.147659423828125,-5.10094132950902,-0.5016029295898974,-1.5472005081668496
1782836908678588400,2.15758837890625,-7.655273930388689,-0.7448176655828952,-0.4883855744898319
1782836908688517400,2.167517333984375,-11.13727316533923,-2.0024499751217664,1.3757806961879133
1782836908698446300,2.1774462890625,-14.799187068891525,-3.0965225385323163,2.720872239601612
1782836908708375600,2.18737548828125,-16.443435454142094,-2.8909540809750554,2.561242234137654
1782836908718304500,2.197304443359375,-16.786659693503378,-1.3087301902219652,1.218202947078645
1782836908728233200,2.207233154296875,-16.48441043860912,0.1779581277064979,0.01957885295599699
1782836908738162200,2.217162109375,-15.828337224406003,0.6648480568110943,0.02059197552129626
1782836908748091100,2.227091064453125,-14.620980373251438,-0.0180147454444319,0.6980385248817503
1782836908758019600,2.23701953125,-13.10961018013954,-1.1613906342715024,1.3834051997169852
1782836908767948500,2.246948486328125,-10.621803184568881,-1.559068348354101,1.6914460436247287
1782836908777877800,2.256877685546875,-7.743330984026193,-0.966890098695457,1.7289090744480489
1782836908787806700,2.266806640625,-5.101198519140482,0.000017827917635440826,1.6409050661720335
1782836908797735700,2.276735595703125,-2.910642531785369,0.47743002684190866,1.2888576150164008
1782836908807664600,2.28666455078125,-1.2312749023586511,0.48588674341142174,0.9340218483164906
1782836908817593900,2.29659375,0.3300274886578321,0.3715402332633734,0.5220196946747601
1782836908827522800,2.306522705078125,1.2576152122735977,0.09884791224300861,0.22080219398103654
1782836908837451800,2.31645166015625,1.8468652995258568,-0.18088336750343442,0.5590105779416858
1782836908847380700,2.326380615234375,2.6774720738142728,-0.3959923182789236,1.4672006503872572
1782836908857309700,2.336309814453125,3.2302818974196907,-0.5938392416734248,2.1137164933025834
1782836908867239700,2.34623974609375,3.6395313913524148,-0.6158768859583884,2.056452345074713
1782836908877168600,2.356168701171875,4.025446186926961,-0.32343262043744325,1.6378955090925096
1782836908887097600,2.36609765625,4.497194514870643,-0.02013137227222323,1.1255781471341848
1782836908897026800,2.37602685546875,5.345727990993857,0.04131437248922884,0.7172489829167723
1782836908906955800,2.385955810546875,6.230117793396115,-0.02394018997065723,0.5263463257022202
1782836908916884700,2.395884765625,6.664397683688998,-0.1321014356125146,0.6337111602693796
1782836908926813700,2.405813720703125,6.560451571524143,-0.3062857438687235,0.978346727733314
1782836908936742700,2.41574267578125,6.6110495398610825,-0.5415353462014347,1.0593534244678915
1782836908946671600,2.425671630859375,6.624506402805447,-0.6171884069483727,0.9812300280846655
1782836908956600600,2.4356005859375,6.40883126951456,-0.38975758860781784,1.2580091800272464
1782836908966529500,2.445529541015625,6.117445353940129,-0.13639723311029373,1.3455945244997738
1782836908976458800,2.455458740234375,6.70445496878922,0.07638875461034476,1.2484189293831587
1782836908986387700,2.4653876953125,6.987641795817017,0.3629378246128559,1.4106687619566916
1782836908996316700,2.475316650390625,6.780584853267669,0.5371101501703262,1.2252484816759823
1782836909006245600,2.48524560546875,7.061727022725344,0.5523054542798549,0.7072296201404183
1782836909016174800,2.4951748046875,7.4150301730304955,0.5704135770961642,0.2592833888709545
1782836909026103800,2.505103759765625,7.26231564604342,0.5088654679387807,0.039387569145113224
1782836909036032800,2.51503271484375,7.406282218429446,0.4535941009633243,0.017073007614910603
1782836909045961700,2.524961669921875,7.618948817554116,0.5561242088504136,0.4196845248378813
1782836909055890700,2.534890625,7.197440730550885,0.6248185365006327,0.5353934093803167
1782836909065819600,2.544819580078125,6.649820876803994,0.5138754050552845,0.7258032415766269
1782836909075748600,2.55474853515625,6.223088333150744,0.3515324873708188,0.9461443208519369
1782836909085677600,2.564677490234375,6.02767974281907,0.27882760890498753,0.8840475648358463
1782836909095606800,2.574606689453125,5.327151885339617,0.5201854649849236,0.5303918747659773
1782836909105535700,2.58453564453125,2.9158254873812197,0.8200397875666617,-0.11795403312072157
1782836909115464700,2.594464599609375,-0.3158803053617477,0.6590376169666647,-0.49438956414498386
1782836909125393700,2.6043935546875,-2.980514524912834,0.1830227176196873,-0.28752332186214624
1782836909135323000,2.614322998046875,-5.305048190081119,-0.4244194444052875,0.280672213858366
1782836909145251800,2.624251953125,-7.561169413280487,-0.6898012962818145,0.9956189842473715
1782836909155180800,2.634180908203125,-9.33575332044959,-0.5668683057047427,1.2558486409924923
1782836909165109800,2.64410986328125,-12.280288184964656,-0.7983376588463783,1.338300275838375
1782836909175038700,2.654038818359375,-15.133350049918889,-1.8595494245320559,0.995049075404927
1782836909184967700,2.6639677734375,-16.655861230248213,-2.238751278464496,0.4880309888985008
1782836909194896600,2.673896728515625,-16.607569200766086,-1.4956421703651546,-0.006694163876399398
1782836909204826600,2.68382666015625,-15.738569859719275,-1.0629553944826124,-0.027355332176387307
1782836909214755800,2.693755859375,-14.736757792985438,-1.4660229849100113,0.4458867414563894
1782836909224684800,2.703684814453125,-13.534972604483364,-1.878082421696931,1.1418855772040784
1782836909234613800,2.71361376953125,-12.198508896422386,-1.787130961792171,1.6628863040946422
1782836909244542700,2.723542724609375,-10.360693749314546,-1.2846687850244343,1.8921010101772844
1782836909254471700,2.7334716796875,-8.549622232225536,-0.9475912317246198,1.715135254509002
1782836909264400600,2.743400634765625,-6.364591730293631,-0.8002123666770756,1.0279574385985732
1782836909274329600,2.75332958984375,-3.385342110750079,-0.2073994723767042,0.4321804337956011
1782836909284258600,2.763258544921875,-1.1647235780864953,0.5801378293834626,0.1718336534768343
1782836909294187800,2.773187744140625,0.026224574580788612,0.791845228087157,0.24480858105570077
1782836909304116700,2.78311669921875,1.2022428691416978,0.6306371596515178,0.2943823939766735
1782836909314045700,2.793045654296875,2.093761500510573,0.39643633571937675,0.39890177598483856
1782836909323974700,2.802974609375,2.612056475573778,0.043684974078088995,0.7179313391577452
1782836909333904000,2.81290380859375,3.6911113564640283,-0.18529270837828515,0.39095695446021855
1782836909343832800,2.822832763671875,4.820117139959335,-0.07716215013563632,0.08568725576624274
1782836909353761800,2.83276171875,6.286351721793412,0.21851590967476367,-0.42382790825292466
1782836909363690500,2.8426904296875,7.3057754330635065,0.803468884254992,-0.6286616948600858
1782836909373619700,2.85261962890625,7.603117042171955,1.0782076164111494,-0.8012658212527632
1782836909383548700,2.862548583984375,7.987042125234008,1.007753001090139,-0.9716854432132095
1782836909393477600,2.8724775390625,8.174794647854567,1.016319900035858,-0.7663696452427655
1782836909403406600,2.882406494140625,7.763251490026712,1.0374700939618051,-0.2991123451080173
1782836909413335800,2.892335693359375,7.333560681089758,0.9392908747605979,0.010816650633886456
1782836909423264800,2.9022646484375,7.068339718863368,0.8756799878545105,0.11071787132211029
1782836909433193700,2.91219384765625,6.549860619404912,0.8795639896810055,-0.017444105949625373
1782836909443122700,2.922122802734375,6.24256635608077,0.8318231643408537,-0.4216837358310818
1782836909453052000,2.932052001953125,6.463379436782002,0.7728964897282421,-0.5535233056370169
1782836909462980900,2.94198095703125,6.3150838952809565,0.6965700597643851,-0.5108999694410711
1782836909472909600,2.95190966796875,6.233880945321917,0.4813743805535137,-0.46181854314692317
1782836909482838500,2.961838623046875,6.5151961332589385,0.3817578220255673,-0.5227114763312042
1782836909492767700,2.971767822265625,6.731724083986878,0.48886575922220943,-0.8423181087397038
1782836909502696700,2.98169677734375,6.634697541952133,0.5855259521625936,-1.082121282723546
1782836909512626700,2.991626708984375,6.772966194957494,0.6099553138896823,-0.9598135844379663
1782836909522556000,3.001555908203125,6.83286039942801,0.6654789020605385,-0.5740790408011526
1782836909532484900,3.01148486328125,6.7848477714091535,0.6930746188640594,-0.7542673387125134
1782836909542413800,3.021413818359375,6.707181763404607,0.8044524884648621,-1.2139720315106213
1782836909552342500,3.031342529296875,6.759600517427921,0.7645382650971412,-1.9336163851313293
1782836909562271500,3.041271484375,5.663640678966045,0.6555781241625547,-2.072237504836172
1782836909572200700,3.05120068359375,3.152637516725063,0.5392826719038188,-1.7897991580881176
1782836909582129700,3.061129638671875,1.653404336130619,0.22697832533270118,-1.8666477122299372
1782836909592058600,3.07105859375,-0.1763730504721403,0.06919906230196356,-1.8584693742103873
1782836909601987600,3.080987548828125,-3.248400322434306,0.0001232610534876585,-1.457493056973815
1782836909611916800,3.090916748046875,-5.538776281934976,-0.23136150885298848,-0.7477895210005343
1782836909621845800,3.100845703125,-7.0162775231927625,-0.4880110420890152,0.07872033936306834
1782836909631774700,3.110774658203125,-8.377538987901806,-0.8385461159203201,0.5414955256476998
1782836909641703700,3.12070361328125,-9.69411316962242,-1.6032150947250425,1.070873328000307
1782836909651633000,3.1306328125,-11.941627892518042,-2.6850086067989465,1.9807870093680917
1782836909661561600,3.1405615234375,-14.394029228186607,-3.694886491088569,2.7987627040117977
1782836909671490600,3.150490478515625,-15.324798504447935,-3.8301314123585817,3.4324355780974027
1782836909681419500,3.16041943359375,-15.835177299559115,-2.893592612785101,3.586078618106246
1782836909691348700,3.1703486328125,-16.900622757291792,-1.7186799413785336,3.3720041980102655
1782836909701277700,3.180277587890625,-17.530678902184963,-1.058129143369943,2.701457345035672
1782836909711206700,3.19020654296875,-17.027023277848958,-0.7198821078993379,2.05892019649297
1782836909721135600,3.200135498046875,-14.847356348776817,-0.38427579619586466,1.7698383200772105
1782836909731064800,3.21006494140625,-10.974445240616797,-0.2042693028585054,0.798996415016055
1782836909740993800,3.219993896484375,-6.595251082226634,0.08704532844484783,-0.0022097850039601323
1782836909750922800,3.2299228515625,-3.06144450314939,0.020082829555915668,0.269564252127707
1782836909760855600,3.23985546875,-0.5125637379348278,-0.6122341820744798,0.8761658716753125
1782836909770784500,3.249784423828125,0.936179026350379,-1.088666320452839,0.8827630049180238
1782836909780713500,3.25971337890625,1.5005992082506416,-0.941893312343955,0.6208025057923048
1782836909790642700,3.269642578125,1.0246183573037386,-0.54402212151587,0.7982593329131603
1782836909800571600,3.279571533203125,0.7694073324382305,-0.7812374709635973,0.8912458057768642
1782836909810500600,3.28950048828125,1.7016718156933783,-1.1688831819839776,0.5814856637958437
1782836909820429600,3.2994296875,3.000018851327896,-1.129440813911706,0.3596162789747119
1782836909830359800,3.30935986328125,4.8951498768508435,-0.8947090979732573,-0.003774257841706276
1782836909840288500,3.31928857421875,7.086102170047163,-0.7268708708081394,-0.32262926816530524
1782836909850217500,3.329217529296875,8.28612970122695,-0.8778561628498136,-0.2596593825764954
1782836909860146400,3.339146484375,8.447489891484379,-1.2571854425542055,-0.017697934580221772
1782836909870075600,3.34907568359375,8.379031856808066,-1.3692542170286177,0.23830197564065456
1782836909880004600,3.359004638671875,8.245641038972138,-1.0369036191854626,0.47195093784369524
1782836909889933600,3.36893359375,7.956925803911686,-0.3897852072671056,0.5312549944013357
1782836909899862500,3.378862548828125,7.74167737160027,-0.07183397738281637,0.37302798760309813
1782836909909791700,3.388791748046875,7.708529719758033,-0.052956441096588966,0.20467026660852133
1782836909919720700,3.398720703125,7.609908602008223,-0.07337685944326222,0.13282880003899336
1782836909929649700,3.408649658203125,7.553898545494675,-0.24140695591866967,-0.08850304383933544
1782836909939578600,3.41857861328125,7.862724840691685,-0.41022272287905215,-0.521488729603216
1782836909949507800,3.4285078125,8.140612392267585,-0.26076211965400725,-0.52049752660878
1782836909959436500,3.4384365234375,7.817834144085645,-0.09820048118494451,-0.2746917512092739
1782836909969365500,3.448365478515625,8.150535235866904,-0.1832912688953802,-0.331814006748423
1782836909979294500,3.45829443359375,8.820203844702244,-0.023857333992794154,-0.32802820459939536
1782836909989223700,3.4682236328125,8.33202577548325,0.3719388041269034,-0.2874567594319582
1782836909999152600,3.478152587890625,7.616429528209567,0.4148913722772151,-0.7062891974851488
1782836910009081600,3.48808154296875,7.673786907678842,0.2956700226344168,-1.0880569563828408
1782836910019010600,3.498010498046875,8.179816275408864,0.42865942006260155,-1.075600941044092
1782836910028939800,3.507939697265625,8.186271735158563,0.6578102671287953,-0.935529914791882
1782836910038868700,3.51786865234375,7.656884872716665,0.626868600898236,-0.9187494603827595
1782836910048797700,3.527797607421875,6.480705834636092,0.41958062607198954,-0.9695337450720369
1782836910058726700,3.5377265625,5.052973709675669,0.2212264838077128,-1.2622022478029131
1782836910068655600,3.547655517578125,3.3873902754515406,0.4132455778315663,-1.348803403543681
1782836910078584600,3.55758447265625,0.8040098592638969,0.8577874805502593,-1.009018637111783
1782836910088513500,3.567513427734375,-3.246856600123644,1.0035181399993598,-1.0712987138055263
1782836910098442500,3.5774423828125,-7.739955370113253,0.8367726034417748,-1.3473685484349727
1782836910108371700,3.587371826171875,-11.21530800665617,0.6454090507172048,-1.1150003467574714
1782836910118301700,3.5973017578125,-14.08771637711525,0.08271028578206896,-0.09500161207839847
1782836910128230700,3.607230712890625,-16.3292105245471,-1.1816834807157517,1.1953675765447318
1782836910138159600,3.61715966796875,-18.560541005361078,-2.0890793340437113,2.164927771232277
1782836910148088600,3.627088623046875,-19.75902832136154,-2.3767848075397313,2.562078392700851
1782836910158017500,3.637017578125,-19.516963778316974,-2.6161960595965383,2.711284327045083
1782836910167946500,3.646946533203125,-19.226185180985926,-2.862640717421472,2.8750311201781034
1782836910177875500,3.65687548828125,-18.435331740415094,-3.0813901435911655,2.7685759478017684
1782836910187804700,3.6668046875,-17.15741959004402,-2.8979192438125607,2.689689165830612
1782836910197733600,3.676733642578125,-15.605128188478945,-2.558805362379551,2.9312606646612287
1782836910207662600,3.68666259765625,-13.089049038147925,-2.318237049242109,2.7658532448396085
1782836910217591600,3.696591552734375,-9.751386377939582,-1.6080758326292037,1.8037192546300589
1782836910227520800,3.706520751953125,-6.189100138831138,-0.7177244914740324,0.6645468819074333
1782836910237449700,3.71644970703125,-3.538067159131169,-0.44720545937214046,0.590469253783673
1782836910247378700,3.726378662109375,-1.5749404557466506,-0.8358726589273661,1.3529451795235274
1782836910257307600,3.7363076171875,0.9488193122148513,-1.0997089618623257,1.2645236764878034
1782836910267236600,3.746236572265625,2.428276948237419,-0.631598625094816,0.9799223064869642
1782836910277165600,3.75616552734375,3.4314129570513963,-0.21168737882897257,0.6310263050995767
1782836910287094500,3.766094482421875,4.344096541523933,-0.2949398086637258,0.05205021297186613
1782836910297023500,3.7760234375,5.188738270905613,-0.5692113251669332,-0.4113728427622467
1782836910306952700,3.78595263671875,6.250190275087952,-0.7157434737246483,-0.6734702661406249
1782836910316881700,3.795881591796875,7.7440972922235725,-0.6743496062584221,-0.7142107842646539
1782836910326810600,3.805810546875,8.871219161668419,-0.47562816505171357,-0.36076997905448077
1782836910336739600,3.815739501953125,9.562979190802574,-0.3666150883534923,-0.13908303812816739
1782836910346668800,3.825668701171875,9.95801077429056,-0.2857940869167447,-0.31758009501695633
1782836910356597800,3.83559765625,9.776865102589129,-0.17956600129455327,-0.33089455381594596
1782836910366526700,3.845526611328125,9.508169157728553,-0.12185257492922245,-0.35783940549530086
1782836910376455400,3.855455322265625,9.133934863075613,-0.045696058172173794,-0.3151015760742128
1782836910386384600,3.865384521484375,8.47781547164321,0.06007357962541282,-0.003968392174318432
1782836910396314600,3.875314697265625,7.987035695493221,-0.005691014715842903,0.2169404770515859
1782836910406243600,3.88524365234375,7.259034140154719,-0.31387930427026,-0.01242832361422479
1782836910416172800,3.8951728515625,6.995997536230087,-0.6331342371642589,-0.4005171752922237
1782836910426101800,3.905101806640625,7.349628603315353,-0.640288858159259,-0.43600985589064656
1782836910436030700,3.91503076171875,7.3819123318046325,-0.4194929843211546,-0.288153655654937
1782836910445959700,3.924959716796875,7.153071427470445,-0.3656748118286952,-0.3359344476792961
1782836910455888400,3.934888427734375,7.255572017002105,-0.47974254156798124,-0.5146009428508579
1782836910465817600,3.944817626953125,7.660031354048848,-0.4817968802819028,-0.6683811993733048
1782836910475746600,3.95474658203125,7.755349923121929,-0.2591625755028799,-0.7548207348115742
1782836910485675500,3.964675537109375,7.754611087453365,-0.052599115558899935,-0.8601374046772718
1782836910495604500,3.9746044921875,7.304009592434763,0.06018383506685495,-0.9296307737506926
1782836910505533700,3.98453369140625,6.616410190111399,-0.05695325564779341,-0.9071015465565025
1782836910515462700,3.994462646484375,6.131762633106112,-0.36378866928853093,-0.8601789057314395
1782836910525391600,4.0043916015625,5.094447875836491,-0.4525309287112206,-0.7520617914922535
1782836910535320600,4.014320556640625,3.2209336388379333,-0.277175311653316,-0.8503060387536883
1782836910545249800,4.024249755859375,0.2846504698395729,-0.18900179202929138,-0.678630060056597
1782836910555178800,4.0341787109375,-2.859894925844669,-0.5175871921200305,-0.5373522883631289
1782836910565107500,4.044107421875,-5.700881153079867,-0.9246873990643769,-0.8647970670513808
1782836910575036400,4.054036376953125,-8.798531526598333,-0.602469963102974,-0.990668741428852
1782836910584965600,4.063965576171875,-11.571547210413216,0.3360832815654576,-0.5056967747747898
1782836910594894600,4.07389453125,-14.515927761149406,0.5479052830921486,0.4515034122943878
1782836910604823600,4.083823486328125,-17.426625822514296,-0.32424894178900865,1.04914504192546
1782836910614752500,4.09375244140625,-18.62918842512965,-1.2534374881975352,0.9502074055723846
1782836910624681700,4.103681640625,-18.449299475491046,-0.8411226884100585,0.6143848207697272
1782836910634610700,4.113610595703125,-17.097342430222035,0.04174998742751777,0.2079334331229329
1782836910644539600,4.12353955078125,-14.673947408807276,0.07050649163872003,0.027043635878711936
1782836910654468600,4.133468505859375,-13.117136483991146,-0.5044785580914467,0.47164779017865655
1782836910664397800,4.143397705078125,-11.305071864211559,-1.5606766603335738,1.130674885751307
1782836910674327600,4.15332763671875,-9.149703510093689,-2.1937477691337466,1.8345783571437
1782836910684256500,4.163256591796875,-7.485993468526005,-1.9677932338908313,2.368289366395026
1782836910694185700,4.173185791015625,-5.6505397898525,-1.4610925427705048,2.314984477186948
1782836910704114700,4.18311474609375,-3.4292736069351433,-1.018812739764899,1.96012591413334
1782836910714043600,4.193043701171875,-1.0787316402852534,-0.4299775169238448,1.4861121254757046
1782836910723972600,4.20297265625,1.133134846124053,0.4460960368255153,0.9883211553893982
1782836910733901800,4.21290185546875,2.3146061453938485,1.4053103036634622,0.5198511184640229
1782836910743830800,4.222830810546875,1.9566046081393955,1.7843439614221452,0.21558372868038714
1782836910753759700,4.232759765625,1.6684633735746144,1.1508102035462855,0.03280351457968354
1782836910763688400,4.2426884765625,1.8267542393893001,0.3395195761570707,0.4493856164228171
1782836910773617200,4.2526171875,2.387024900394678,-0.3089052787173539,0.8274239795338362
1782836910783546400,4.26254638671875,3.333571006980538,-0.651772521334514,0.9866546834819018
1782836910793475300,4.272475341796875,4.235880496954918,-0.762623736712709,0.9842878082200884
1782836910803404300,4.282404296875,5.642718886968493,-0.8240620288200676,0.728639999372512
1782836910813333200,4.292333251953125,6.660007339775562,-0.6610417963959276,0.5667986014693975
1782836910823262500,4.302262451171875,7.486672098439931,-0.5143865329151973,0.5371216944776475
1782836910833191400,4.31219140625,8.100716435208916,-0.44292942602075636,0.39023901544921097
1782836910843120400,4.322120361328125,8.64579361873567,-0.2585667102352716,0.16853702308423815
1782836910853049300,4.33204931640625,8.75228415468633,-0.02383110357299447,0.1097715303827077
1782836910862978300,4.341978271484375,8.119740869152546,0.05975771860927343,0.10236987582407892
1782836910872907500,4.351907470703125,7.488178995871543,-0.05927895864900201,0.14367672259397804
1782836910882836200,4.361836181640625,7.015996368163823,-0.21508082065954803,0.1411409205060452
1782836910892765200,4.37176513671875,6.813653010132908,-0.2124451018610969,-0.01252330842129886
1782836910902694100,4.381694091796875,6.879121799865365,-0.014958773673605173,-0.03812609784193337
1782836910912623400,4.391623291015625,7.033687507677078,-0.03489581068381667,-0.2556763773549348
1782836910922552300,4.40155224609375,7.59130268573761,-0.04038892820738256,-0.5437092561744153
1782836910932481300,4.411481201171875,7.551307359957694,0.11683304800046607,-0.5817552014522254
1782836910942411500,4.42141162109375,7.137958614012598,0.12396574942460283,-0.6092194008305668
1782836910952340500,4.431340576171875,7.123031678515672,-0.08785097313877195,-0.6460530477091669
1782836910962269200,4.441269287109375,7.185392565360665,-0.39761480491422113,-0.6560910421207546
1782836910972198100,4.4511982421875,7.189173837465048,-0.3823669668998569,-0.5814595795065164
1782836910982127400,4.46112744140625,7.2524927556872365,-0.020947766689024865,-0.5787133495382965
1782836910992056300,4.471056396484375,7.425854933905601,0.3904843685124069,-0.9693402683265506
1782836911001985300,4.4809853515625,7.711179942005872,0.7705424739480018,-1.216884850217402
1782836911011914200,4.490914306640625,6.584348579940199,0.8855203408021479,-1.1986821079201995
1782836911021843500,4.500843505859375,3.311329364556074,0.7176143090978264,-1.2550158434301615
1782836911031772400,4.5107724609375,-1.5365098950654268,0.16462613325081765,-1.4463020931348203
1782836911041701400,4.520701416015625,-4.217003362527489,-0.7290747375279665,-1.1801301137939095
1782836911051630300,4.53063037109375,-6.099829033228755,-0.9046158672206104,-0.8072600932314992
1782836911061559600,4.5405595703125,-9.310409620356559,-0.4150640984956175,-0.5187545553989709
1782836911071488300,4.55048828125,-10.815779111748933,0.18449494559671728,0.536803714569658
1782836911081417200,4.560417236328125,-11.914501400661468,0.7979135151501745,1.2576033757053315
1782836911091346200,4.57034619140625,-13.63787651411891,1.125189001686126,1.3518765273787081
1782836911101275400,4.580275390625,-15.52509545134306,0.9884962196953594,1.4065063815802334
1782836911111204400,4.590204345703125,-16.641909861785173,0.1406276372216642,1.774370556679368
1782836911121133300,4.60013330078125,-16.687742223155496,-1.0610311484217643,2.1737254101939496
1782836911131062300,4.610062255859375,-16.496681891161202,-1.993354814518243,2.553933372429013
1782836911140991500,4.619991455078125,-15.315287164258956,-2.6014196384862065,2.791006098535657
1782836911150920400,4.62992041015625,-13.65518186918497,-2.6095661200627682,2.8041958349764347
1782836911160849400,4.639849365234375,-12.977051136952637,-1.8511589050665496,2.3383976476088164
1782836911170778400,4.6497783203125,-12.05060498458743,-1.2200148918714373,1.7041066416248678
1782836911180707300,4.659707275390625,-10.042227519112824,-0.96393073743321,1.7978636604696512
1782836911190636300,4.66963623046875,-7.574538013419509,-0.5519778297606855,2.1749472070738674
1782836911200566300,4.679566162109375,-4.968503866875172,0.14142068729549645,1.883006872487068
1782836911210495200,4.6894951171875,-2.236231112337112,0.8417108635615557,1.082553828921914
1782836911220424400,4.699424560546875,0.527401241582632,1.3083493742108345,0.3597751227982342
1782836911230353400,4.709353515625,2.6979665803104638,1.5074331459239125,-0.15904782166182993
1782836911240282400,4.719282470703125,3.595840133664012,1.349819594848901,-0.4044122099693864
1782836911250211300,4.72921142578125,4.07957057582438,0.677802450126037,-0.3496401708181947
1782836911260140500,4.739140625,4.529944107306004,-0.12430983188822865,-0.1132805614169687
1782836911270069200,4.7490693359375,5.158562328350544,-0.582995776097849,0.3011510843940079
1782836911279998200,4.758998291015625,6.054698682647943,-0.6730079823911189,0.28800124157220125
1782836911289927200,4.76892724609375,6.967983155623078,-0.43632790886387224,-0.12395356579646467
1782836911299856400,4.7788564453125,7.510467400047182,-0.07165200841203331,-0.32027474092841146
1782836911309785300,4.788785400390625,7.754104891496897,0.047350912707112724,-0.5098085209425538
1782836911319714300,4.79871435546875,7.895981798127293,-0.005853438735939562,-0.5539266988061368
1782836911329643300,4.808643310546875,7.848595193052291,-0.006631437371112406,-0.498307249045372
1782836911339572500,4.818572509765625,7.750534047272801,0.12176745392903685,-0.4044093604251742
1782836911349501400,4.82850146484375,7.710366287535429,0.3450726071743294,-0.3913360899709165
1782836911359430400,4.838430419921875,7.882751145154237,0.5566009595166892,-0.45627077282667156
1782836911369359400,4.848359375,8.009344557934998,0.7786259732909501,-0.5715069252908229
1782836911379288300,4.858288330078125,7.88416335003972,0.9508362049952149,-0.5775062387708574
1782836911389217300,4.86821728515625,7.803136341169476,0.9287998758845031,-0.6325104792427271
1782836911399146200,4.878146240234375,7.8905410683780906,0.6381815836817025,-0.6696147597562522
1782836911409075200,4.8880751953125,7.903066203430295,0.3095418595878407,-0.6279043736867607
1782836911419004400,4.89800439453125,7.951686734214425,0.03503722844850272,-0.5295857460148632
1782836911428933400,4.907933349609375,8.24819481510818,-0.21080635821074245,-0.49358548122048373
1782836911438862300,4.9178623046875,8.633948282641171,-0.4228906274028122,-0.6359871423773468
1782836911448791300,4.927791259765625,8.67567262417078,-0.5310414977811276,-0.6766841866858303
1782836911458721300,4.93772119140625,8.417029871290922,-0.6346212608516216,-0.7884447719939053
1782836911468650200,4.947650146484375,8.248308212354779,-0.6819060860525816,-0.7665997276715933
1782836911478579200,4.9575791015625,8.002987882384657,-0.7173921177145093,-0.6795658065367489
1782836911488508200,4.967508056640625,7.432728911328315,-0.8356987636651844,-0.7374766551703215
1782836911498437400,4.977437255859375,6.518017035898566,-0.9363464918717741,-0.5759863357271999
1782836911508366300,4.987366455078125,5.203219216200709,-0.974057213845849,-0.42871005427129566
1782836911518295300,4.99729541015625,3.3126416161984205,-1.051181443123892,-0.727410019186139
1782836911528224300,5.007224365234375,1.1273089164495467,-1.1401489626698196,-1.2094995622716844
1782836911538153500,5.017153564453125,-1.213524141612649,-1.122417198885232,-0.7774295300479978
1782836911548082400,5.02708251953125,-3.6039071202635764,-0.9333940718069672,0.20018113849572836
1782836911558011400,5.037011474609375,-6.896819369119405,-0.6436445983279496,0.17005670693218708
1782836911567940400,5.0469404296875,-9.667022333601116,-0.29641550723947585,-0.3618324937194586
1782836911577869300,5.056869384765625,-11.346084258079529,-0.09512582297995686,0.35864670329019427
1782836911587798300,5.06679833984375,-14.352525835931301,-0.8458236326426267,2.035657978849113
1782836911597727200,5.076727294921875,-17.071270415854453,-2.4907962405145168,3.41146907017529
1782836911607656200,5.08665625,-19.34203157430291,-3.0354949461176988,3.883380479726195
1782836911617585400,5.09658544921875,-20.36524766359329,-1.710475007613003,2.9449668261915445
1782836911627514400,5.106514404296875,-20.072014074325562,-0.14304353925697505,1.7287769725009798
1782836911637443300,5.116443359375,-19.875991151487828,0.24731311122253535,1.123578132423386
1782836911647372300,5.126372314453125,-18.71263126296997,-0.48979478370063007,0.8805272817552089
1782836911657301500,5.136301513671875,-16.92147732927203,-1.2381430345624684,1.195966200025007
1782836911667230500,5.14623046875,-14.552426476985215,-1.5511850477583706,1.7235107225358486
1782836911677159400,5.156159423828125,-11.613278566205501,-1.5369721057496963,1.6241078067585826
1782836911687088000,5.166088134765625,-8.271252450090646,-1.21172235288769,0.8288376457240432
1782836911697017300,5.176017333984375,-4.561937328416109,-0.65362874366045,0.04935249832049012
1782836911706946300,5.1859462890625,-1.5238672711133956,-0.22485694926455616,-0.36191491130590436
1782836911716876300,5.195876220703125,0.24157412917912005,-0.18261742475442588,-0.5259957586988806
1782836911726805500,5.205805419921875,1.0936194128155707,-0.44150187743566927,-0.5670712078657001
1782836911736734500,5.215734375,1.460913094550371,-0.8323566136304289,-0.7540307534776628
1782836911746663400,5.225663330078125,1.6290005472362041,-1.3353652452997862,-0.8076182590194046
1782836911756592400,5.23559228515625,1.8903075508892535,-2.133330417571962,-0.7825041298985481
1782836911766522400,5.2455224609375,2.4425766917467118,-2.694677475637197,-0.610450476995483
1782836911776451300,5.255451416015625,3.4447453168332576,-2.6988252429664135,-0.6809042885988951
1782836911786380300,5.26538037109375,4.713662844365835,-2.305430320769548,-0.7338277042087167
1782836911796309200,5.275309326171875,6.081382691434025,-1.896388332107663,-0.6047765960775315
1782836911806238500,5.285238525390625,7.694363831761479,-1.4559766610614955,-0.942493908585608
1782836911816167400,5.29516748046875,8.77996243520677,-0.9051942516304552,-1.1723395329829305
1782836911826096400,5.305096435546875,9.231590350663662,-0.5235750343579799,-1.1631013106469064
1782836911836025300,5.315025390625,9.505391509708762,-0.26977621437795457,-0.9902885099396109
1782836911845954300,5.324954345703125,9.354410090124606,-0.07129530392885208,-0.3848324071653187
1782836911855881500,5.334881591796875,8.424519934785366,-0.07147964751981198,0.11816263437010348
1782836911865810400,5.344810546875,7.682382302066683,-0.40612449377998705,0.12383410413525998
1782836911875739400,5.354739501953125,7.768069703963398,-0.5260248386628925,0.07587086821608245
1782836911885668400,5.36466845703125,8.121236076146364,-0.25761136400550605,-0.08684029825888574
1782836911895597300,5.374597412109375,8.031006354644894,0.06234357038401067,-0.678711527794972
1782836911905526300,5.3845263671875,7.724078002023696,0.3450649718571454,-1.0942123372074215
1782836911915455200,5.394455322265625,7.608823144859075,0.5797792252041399,-0.8711404447287321
1782836911925384200,5.40438427734375,5.899735499951243,0.31505941743291915,0.0026293255902826783
1782836911935313200,5.414313232421875,7.073245611083507,-0.3065644877448678,0.18483276271633803
1782836911945242400,5.424242431640625,8.142212228679657,-0.20642558584325013,-0.01708480765055865
1782836911955171300,5.43417138671875,7.380327692961693,0.6140627492085099,-0.23517229931280015
1782836911965100300,5.444100341796875,6.417752827116846,0.9804978413525968,-0.7578282460644841
1782836911975029200,5.454029296875,5.677259454473853,0.7928848733332008,-0.522781765088439
1782836911984958500,5.46395849609375,5.247248327541351,0.2534249451663345,0.18774919815231114
1782836911994887400,5.473887451171875,5.446533467045426,-0.13906535634100436,0.4298816553339362
1782836912004816400,5.48381640625,5.865222404974698,0.1822834435597062,0.4426481248613447
1782836912014745300,5.493745361328125,5.850173888924718,0.973951853775233,0.09565123509354889
1782836912024675300,5.50367529296875,4.969014739006758,1.5502878066577017,-0.3103076928611845
1782836912034604300,5.513604248046875,3.002357523408532,1.486491772443056,-0.4801887509655207
1782836912044533200,5.523533203125,0.11681026991307734,0.9867460150271653,-0.4149010168883949
1782836912054462500,5.53346240234375,-3.212815798833966,0.6007661913923918,-0.41093152873553335
1782836912064391400,5.543391357421875,-5.123090617474913,0.6863400499120355,-0.5547797354388981
1782836912074320400,5.5533203125,-6.0436073797911405,1.3099765370212495,-0.6698835667602717
1782836912084249300,5.563249267578125,-8.030414233970642,2.2374039555087686,-0.37726474839001894
1782836912094178600,5.573178466796875,-11.457042879354953,2.16731393571645,0.4809736177328974
1782836912104107300,5.583107177734375,-14.833023872041702,0.7851299483574926,0.7256839260458946
1782836912114036200,5.5930361328125,-16.99282056399584,-0.4753570199601352,0.7312825497705489
1782836912123965200,5.602965087890625,-18.07461159185171,-1.063104593694955,1.2371455479577183
1782836912133894400,5.612894287109375,-18.272142581164836,-1.272974986229837,2.0176593808218835
1782836912143823400,5.6228232421875,-18.065905722826717,-1.651033807606995,2.029177092397213
1782836912153752300,5.63275244140625,-17.182874349296092,-1.870400342761725,1.4101362625151872
1782836912163681300,5.642681396484375,-15.598230830180643,-1.5862001009076834,1.1205118036553263
1782836912173610500,5.652610595703125,-13.449972600328922,-1.764361642231792,1.5450927222326396
1782836912183539500,5.66253955078125,-9.89697032239437,-1.913602209497988,1.5127967187836766
1782836912193468400,5.672468505859375,-6.292067761352658,-1.1895710921604186,0.9904685426816344
1782836912203397400,5.6823974609375,-2.7870898018747567,-0.6848705618813633,0.2907848809413612
1782836912213326300,5.692326416015625,0.14201193118691444,-0.7533375105164944,-0.042706411369517444
1782836912223255300,5.70225537109375,1.6472341230630874,-1.0196794395968318,0.48849582993127405
1782836912233184300,5.712184326171875,2.802408951559663,-1.3253785426840186,0.9332152081087232
1782836912243113200,5.72211328125,3.7162791154682635,-1.462025585836917,0.845050164052099
1782836912253042200,5.732042236328125,4.3563446132004255,-1.081527335418388,0.631145620630309
1782836912262971400,5.741971435546875,5.2269128109991545,-0.6022109833732247,0.23150128264985978
1782836912272900400,5.751900390625,6.178679867103695,-0.5317256806530058,-0.14941906563825905
1782836912282830300,5.761830322265625,6.939920259699225,-0.7343860687438398,-0.13028050379566847
1782836912292759300,5.77175927734375,7.506759193179011,-0.9080259679250419,-0.12954466380178928
1782836912302688300,5.781688232421875,7.744458526751399,-0.8020219003170728,-0.20474347797520456
1782836912312617200,5.7916171875,7.6865154563486575,-0.5481390553154051,-0.32380846801251173
1782836912322546200,5.801546142578125,7.429156898060441,-0.29082448229938745,-0.37183351712152357
1782836912332475400,5.811475341796875,7.280155254116654,-0.06506809997707605,-0.3061763652101159
1782836912342404400,5.821404296875,7.223602176767587,0.029275194323062893,-0.342728930125013
1782836912352333300,5.831333251953125,7.286609544822573,0.1192152852281928,-0.47282311756834383
1782836912362262300,5.84126220703125,7.399176770338416,0.26848120613135396,-0.5595542563643306
1782836912372191500,5.85119140625,7.599607572746277,0.3674426617514342,-0.5472399145185947
1782836912382120400,5.861120361328125,7.850860799896717,0.45048371385782954,-0.47565512612387534
1782836912392049400,5.87104931640625,8.29047211434543,0.544456348214671,-0.3898436594560742
1782836912401978400,5.880978271484375,8.873522177913785,0.6466712526727467,-0.4416850519828498
1782836912411907300,5.8909072265625,8.750248849466443,0.8710564197070896,-0.34683380816057324
1782836912421836300,5.900836181640625,8.228169095167518,1.0392973824542016,-0.15080693980008364
1782836912431765200,5.91076513671875,8.377697977855801,1.013450920470804,-0.2286484505020082
1782836912441694200,5.920694091796875,8.604532803064584,1.110977886308357,-0.3073199822872877
1782836912451623400,5.93062353515625,7.9817247296035285,1.3267226507693528,-0.19165603286512195
1782836912461556500,5.940556396484375,7.214606384885311,1.4301254498377443,-0.20637648600451647
1782836912471485400,5.9504853515625,7.1822583589881654,1.4434221537843346,-0.4707761219106614
1782836912481414400,5.960414306640625,6.861642257276177,1.3838995591051875,-0.8526777363210916
1782836912491343400,5.97034326171875,6.295225933122635,1.245666269674152,-1.0175330021526663
1782836912501272300,5.980272216796875,5.064859377780556,1.1640085616849363,-1.1078457988277077
1782836912511201300,5.990201171875,2.1365257064819336,1.2873302593186497,-1.3670967467337847
1782836912521130200,6.000130126953125,-1.5027981795996426,1.3102652908347547,-2.056930483980477
1782836912531059200,6.01005908203125,-4.019598629942536,1.3105923308320342,-2.596856860615313
1782836912540988400,6.019988525390625,-5.568092977312207,1.7493058196581899,-2.2580042604669925
1782836912550917400,6.02991748046875,-7.753740149837732,1.8522754880063235,-0.9473731319945305
1782836912560846300,6.039846435546875,-11.299069993448256,0.19359131177663802,0.8369800356473773
1782836912570775300,6.049775390625,-14.904073676776886,-2.647847919923067,1.8540728928171097
1782836912580704500,6.05970458984375,-16.778274142473936,-3.877886266224086,2.1062702689498662
1782836912590633500,6.069633544921875,-17.979596389639376,-2.6798072387635705,2.5713205605596303
1782836912600562400,6.0795625,-18.257162454175948,-1.8609820876836776,2.849650302945077
1782836912610491400,6.089491455078125,-18.033890289884805,-2.131910906162858,2.914670764388144
1782836912620420400,6.09942041015625,-18.542233779776094,-2.577949331049621,2.7571757251262663
1782836912630349300,6.109349365234375,-19.182879123222826,-2.966604657503962,2.2984723183251914
1782836912640278300,6.1192783203125,-18.323260189461706,-2.945973957407474,1.7233473486676811
1782836912650207200,6.129207275390625,-15.634471187341212,-1.84079796231091,0.7995267955657094
1782836912660136200,6.13913623046875,-12.140543029665947,-0.4488142462756484,0.015129545396938919
1782836912670066400,6.14906640625,-7.8578230401247735,0.2610391464971006,-0.13220482292175292
1782836912679995400,6.158995361328125,-4.308365302929282,0.353031128430739,0.11303506222330033
1782836912689924400,6.16892431640625,-1.5059762251138686,-0.027178660435229537,0.5748926952715963
1782836912699853300,6.178853271484375,0.7814005525708199,-0.33952531177811324,0.9609003567613661
1782836912709782300,6.1887822265625,2.471035893511772,-0.29429398504085835,1.2925678677111863
1782836912719711200,6.198711181640625,3.7838480923503637,-0.1469602012440562,1.1859706565156578
1782836912729640200,6.20864013671875,4.640476612123846,-0.056913398561440405,0.8568722654014825
1782836912739569400,6.2185693359375,5.643624895897507,-0.06660714611262082,0.40664756780602035
1782836912749498400,6.228498291015625,6.527477522683143,-0.06343512848038226,0.005664966959133744
1782836912759427300,6.23842724609375,7.012859823703765,-0.17543748665507883,-0.2709399974603206
1782836912769355300,6.248355224609375,7.725225418493151,-0.2937440230078995,-0.485691366969794
1782836912779284200,6.2582841796875,8.393102467736602,-0.16218491411115973,-0.5823892615720629
1782836912789213400,6.26821337890625,8.541860366052388,0.02736095819957554,-0.540103413702175
1782836912799142400,6.278142333984375,8.497139180794358,0.08466974928677082,-0.34600722114332016
1782836912809071400,6.2880712890625,8.235240640988945,0.04760145340207964,-0.06425123063623905
1782836912819000300,6.298000244140625,7.8802850473016495,0.016351853733509777,0.09692373924739658
1782836912828929500,6.307929443359375,7.711224365669488,0.034781609719619154,-0.001276303546130657
1782836912838858200,6.317858154296875,7.718997922280431,0.17320764524377882,-0.14443440909348426
1782836912848787200,6.327787109375,7.52074972460866,0.31391061272397636,-0.2281200427137315
1782836912858716200,6.337716064453125,7.318492875817418,0.20659345322344452,-0.37917642723023887
1782836912868645400,6.347645263671875,7.444011937364936,-0.017482757459580896,-0.5326973021641374
1782836912878574300,6.35757421875,7.469265036565065,-0.15733173845894632,-0.5760110317770392
1782836912888503300,6.36750341796875,7.593616807898878,-0.24811821706034243,-0.8057522459518164
1782836912898432300,6.377432373046875,7.743154458415508,-0.2391719634082168,-0.8346389524139464
1782836912908362500,6.387362548828125,8.012116945257782,-0.35141989384181793,-0.7906409668639302
1782836912918291500,6.39729150390625,8.235506598448753,-0.46189285049214956,-0.8366739653728902
1782836912928220200,6.40722021484375,8.412133915942906,-0.31898243609555066,-0.6614313071701675
1782836912938149400,6.4171494140625,7.898805623376369,-0.10466543941535054,-0.2807902872800827
1782836912948078300,6.427078369140625,7.1662284306854005,-0.08916296905279159,-0.2979136368427425
1782836912958007300,6.43700732421875,6.710232967668771,-0.03292188026234508,-0.6910605025626718
1782836912967936300,6.446936279296875,6.097742874604463,0.17499211750775576,-0.9961030414372682
1782836912977865200,6.456865234375,4.7343175098598005,0.1529784386202693,-1.1008837777953595
1782836912987794400,6.46679443359375,3.319349004882574,-0.2715127558469772,-1.2411634052969513
1782836912997723400,6.476723388671875,2.2005326069682836,-0.732625196551159,-1.020000853570923
1782836913007652400,6.48665234375,0.3849368904531002,-0.8953818826682866,-0.6778470199201255
1782836913017581300,6.496581298828125,-2.912642765691876,-0.8902620554365217,-0.784323965736851
1782836913027510500,6.506510498046875,-5.815693527173996,-0.8244316658500581,-1.1540678901679813
1782836913037439200,6.516439208984375,-8.121605493980645,-0.39057051242589946,-1.06433530453369
1782836913047368200,6.5263681640625,-10.639474450337886,-0.19626973720565438,-0.07769187309816479
1782836913057297200,6.536297119140625,-13.373507784807682,-0.7665616606835275,0.9699255208685994
1782836913067226400,6.546226318359375,-16.7733396086812,-0.9483118741493671,1.2030083005562424
1782836913077155300,6.5561552734375,-19.816821169638633,-0.24006942370459436,0.49270358381941914
1782836913087084300,6.566084228515625,-20.91186447777748,0.39946204021610315,-0.5645438813451678
1782836913097013200,6.57601318359375,-20.828111843335627,0.6140595343381167,-0.6731695296283811
1782836913106942500,6.5859423828125,-19.970108528077603,0.17054149477444588,0.4484352568954229
1782836913116871400,6.595871337890625,-18.408941746139526,-0.5151204001476988,1.6830143153659998
1782836913126800400,6.60580029296875,-16.49260309741497,-1.0093849862061441,2.1873092605188487
1782836913136729300,6.615729248046875,-13.362888191115855,-1.0930496501035987,1.72603498031646
1782836913146659300,6.625659423828125,-9.705675012600421,-0.4698893291387707,1.370889124754071
1782836913156588300,6.63558837890625,-6.395655561599135,-0.009734883279167115,1.2547326425746081
1782836913166517200,6.645517333984375,-3.4150562810122964,-0.013982859579846262,1.0828139411628246
1782836913176446500,6.655446533203125,-1.0342202983856201,-0.08638042566217481,0.8044698049258441
1782836913186375400,6.66537548828125,0.7825052989423275,-0.08688304142206907,0.9652810560636221
1782836913196304400,6.675304443359375,2.4683833331763743,-0.16614764372967183,1.0441638925120234
1782836913206233300,6.6852333984375,3.655947688624263,-0.1017339160080999,0.9024367696158587
1782836913216162600,6.69516259765625,4.367984782111645,0.06957425228990614,0.9952248703632504
1782836913226091300,6.70509130859375,4.931052964881062,0.09613361178301275,0.8338757129564881
1782836913236020200,6.715020263671875,5.455103142470121,0.026041984555497763,0.47744727023765443
1782836913245949200,6.72494921875,5.99172404781878,0.06430844071619213,0.2639453528000042
1782836913255878400,6.73487841796875,6.305148776721954,0.13402597393430768,0.4399414231859147
1782836913265807400,6.744807373046875,6.718574095034599,0.0610827201353386,0.49768327192813155
1782836913275736300,6.754736328125,7.233875148978829,0.02724646497443318,0.3553353502525016
1782836913285665300,6.764665283203125,7.5051646174639455,0.10378149618767202,0.220360478095524
1782836913295594500,6.774594482421875,7.644343955573439,0.018140271520242095,-0.06823777952175587
1782836913305523500,6.7845234375,7.917426737216115,-0.1526640389088541,-0.18935882530603557
1782836913315452400,6.794452392578125,8.360007422864436,-0.2022612327054143,-0.11529738113209605
1782836913325381400,6.80438134765625,8.635580267757177,-0.180329058088921,-0.03646371758766472
1782836913335310300,6.814310302734375,8.7762314319849,-0.163119710743241,-0.20541041745133698
1782836913345239300,6.8242392578125,8.901587996447086,-0.09155041217859834,-0.4248616352148354
1782836913355168300,6.834168212890625,9.022662938067317,0.015025281304866075,-0.38109760455116626
1782836913365097200,6.84409716796875,9.229594208410381,0.11750848131030797,-0.44253333937525746
1782836913375026200,6.854026123046875,9.248549084249138,0.32112120168991387,-0.44021497943028803
1782836913384956400,6.863956298828125,8.873377801007031,0.45897659771926697,-0.40854273390285667
1782836913394885400,6.873885498046875,8.444511752456426,0.397276147544384,-0.5989549772519618
1782836913404814300,6.883814453125,8.269599422186612,0.3925480230439454,-0.8495352735769003
1782836913414743300,6.893743408203125,8.084255129751563,0.5580947782710194,-0.8775463662482798
1782836913424672300,6.90367236328125,8.328226383200287,0.6417016475666314,-0.9813698018815368
1782836913434601200,6.913601318359375,8.64997411929071,0.6508514609668403,-1.098976409804076
1782836913444530200,6.9235302734375,8.378658931842446,0.5990356412727386,-1.0895127812143415
1782836913454459400,6.93345947265625,7.416836930191517,0.6407171665739267,-0.6165737821813673
1782836913464388400,6.943388427734375,6.120197867518663,0.5831351845685392,-0.20141236079111693
1782836913474317300,6.9533173828125,4.295288379213214,0.5329666936900467,-0.6008215748414397
1782836913484246300,6.963246337890625,0.9653238722920418,0.9595506957180797,-0.726973308269307
1782836913494175500,6.973175537109375,-3.2632711438298223,1.1141260481409727,-1.2040325290374456
1782836913504104400,6.9831044921875,-6.548432047906518,0.9553615734651684,-1.8551983897157012
1782836913514033400,6.993033447265625,-8.897462440949678,1.118554897433892,-1.8183105284318326
1782836913523962400,7.00296240234375,-11.54598957530856,0.6797559953466057,-0.9901464711204171
1782836913533891300,7.012891357421875,-14.487929162633419,-1.3058796230964362,0.8955430645793676
1782836913543820300,7.0228203125,-16.559413949406146,-3.2135178096234798,2.4650284697905183
1782836913553749200,7.032749267578125,-17.412114482080934,-2.9021733941257,2.695811448103189
1782836913563678200,7.04267822265625,-18.324658365821836,-1.5564369769372044,2.511782329919934
1782836913573607400,7.052607421875,-18.23522300956845,-1.48643770416826,2.474299863743782
1782836913583536400,7.062536376953125,-17.72592557995319,-1.8840826850250363,2.2154636341184375
1782836913593465300,7.07246533203125,-17.496269267582893,-2.115918095000088,2.126979587240517
1782836913603394300,7.082394287109375,-16.786538112950325,-2.5264383395209906,2.0856936371281742
1782836913613324300,7.09232421875,-14.925245059621334,-2.4956544942006467,2.1233979293614627
1782836913623253200,7.102253173828125,-12.272415844154358,-1.622229591796547,1.5081198130138218
1782836913633182200,7.11218212890625,-8.916467585670947,-0.4587696039050817,0.6982371892590076
1782836913643111200,7.122111083984375,-5.711809958851337,0.29378888506293294,0.16569610056988893
1782836913653040400,7.132040283203125,-3.154587481749058,0.6089462829776108,0.12241978035792708
1782836913662969300,7.14196923828125,-0.8830553389281034,0.7711375172317028,0.0982221084948629
1782836913672898300,7.151898193359375,1.2461293571412562,1.0659573527775705,-0.3862171395219862
1782836913682827300,7.1618271484375,2.931310056760907,1.3350031339891255,-0.6177664990972728
1782836913692756500,7.171756591796875,4.180032937526702,1.0290409960515796,-0.3237036193985492
1782836913702685400,7.181685546875,5.221368620875477,0.3806595784600824,0.058795011056959626
1782836913712614400,7.191614501953125,6.079008948040008,-0.02865158253200352,-0.005228036846593022
1782836913722543400,7.20154345703125,6.655506521224975,-0.17702157750874756,0.09893354469984769
1782836913732472300,7.211472412109375,7.033101232221722,-0.24426395278498528,0.13362740307077764
1782836913742401300,7.2214013671875,7.446252409768104,-0.15821955414414404,0.06881298559382558
1782836913752330200,7.231330322265625,7.878071462905407,0.09423881101235747,-0.17112981605641542
1782836913762259700,7.241259765625,8.505385615614056,0.5780522552810609,-0.7595680024039
1782836913772189000,7.25118896484375,8.764391941109299,1.015976712621376,-0.9306357130095362
1782836913782118000,7.261117919921875,8.574317113021015,0.8524808985747396,-0.9128801299579441
1782836913792046800,7.271046875,8.306684997999668,0.24712496823929248,-0.7765649491079151
1782836913801975800,7.280975830078125,8.201106316196919,-0.045269466790556906,-0.41698900214359164
1782836913811905000,7.290905029296875,8.362978547629714,0.13618753588236868,-0.3291208952069282
1782836913821833700,7.300833740234375,8.139159855371712,0.47864970482997593,-0.362518868548423
1782836913831762700,7.3107626953125,7.589308881571888,0.4576581355318427,-0.5175168302975595
1782836913841693000,7.32069287109375,7.454498844587802,0.20599961551614104,-0.631160160612315
1782836913851622000,7.330621826171875,7.613584660172462,0.16601408047787844,-0.5097473653398454
1782836913861550800,7.34055078125,7.440801158624887,0.2663193519223481,-0.5471636344119906
1782836913871479800,7.350479736328125,7.5540844234555955,0.33045499335490164,-0.8628452023312448
1782836913881409000,7.360408935546875,7.652060229039192,0.4638345591444522,-1.0220426615968345
1782836913891338000,7.370337890625,7.639087350219488,0.6247922330155968,-1.0149683392964304
1782836913901266700,7.3802666015625,7.544521060818433,0.6799242645855993,-0.936090325153619
1782836913911195600,7.390195556640625,7.37072750544548,0.8601583013348281,-0.7097071892350911
1782836913921124900,7.400124755859375,7.294820323807,1.1353646510027349,-0.6020611996389925
1782836913931053800,7.4100537109375,6.933595148330927,1.2112578041158615,-0.6446506335653365
1782836913940982800,7.419982666015625,6.026875440698862,1.0095498213790357,-0.4798737667322159
1782836913950911700,7.429911865234375,5.241816365620494,0.6718181880846619,-0.22031302222460508
1782836913960841000,7.439841064453125,4.114647734424471,0.5871579372785986,-0.33144276228323577
1782836913970770000,7.44977001953125,2.2714403728842734,0.7544650532416999,-0.7126376897290349
1782836913980699000,7.459698974609375,-0.2860100677549839,0.5550938428893685,-1.0589327148377894
1782836913990627800,7.4696279296875,-4.19714072419405,0.07365107327476143,-0.5258212789148092
1782836914000557000,7.47955712890625,-8.396552900451422,-0.26560879250019787,0.2542585464462638
1782836914010485800,7.48948583984375,-11.131356634771823,-0.11679207666926085,0.3865888954438269
1782836914020414700,7.499414794921875,-14.469303957140445,0.7743835134156047,0.5332363044116646
1782836914030343700,7.50934375,-16.977861479794978,1.6045206243656576,0.5105288711063564
1782836914040273000,7.51927294921875,-17.81543575500846,2.0669187940314413,0.8300902761336415
1782836914050201900,7.529201904296875,-17.665498876041173,1.761379703811556,1.1856143173586577
1782836914060130800,7.539130859375,-16.80189467203617,0.8520780899275093,1.735985734836012
1782836914070060800,7.549060791015625,-15.921515858840941,-0.022358108410984276,2.3441341454342006
1782836914079990000,7.558989990234375,-14.538832835918663,-0.8935836741399019,2.6986399495273825
1782836914089919000,7.5689189453125,-14.622233588182926,-1.6073915036268531,2.9220442157655953
1782836914099847700,7.57884765625,-13.798485593748092,-2.0700337111815807,2.464333765524626
1782836914109776600,7.588776611328125,-12.1360796205163,-1.4087933234736323,1.579626567736268
1782836914119705900,7.598705810546875,-10.176203443360327,-0.3868239463087171,0.9561178717251867
1782836914129634800,7.608634765625,-7.405070504552126,0.02730654286490753,0.3645055853862315
1782836914139563800,7.618563720703125,-4.410993318232894,0.24689729696325957,-0.3018963498033583
1782836914149492700,7.62849267578125,-2.05887372700274,0.3694761768730357,-0.31113340309560295
1782836914159422000,7.638421875,-0.21071780314445496,-0.11370978314708918,-0.15872596929632127
1782836914169351000,7.648350830078125,1.4908289248645306,-0.7705998301584273,-0.055406391531974075
1782836914179280000,7.65827978515625,2.5146990941494702,-1.1515799458097666,0.44926805445775386
1782836914189208800,7.668208740234375,3.1226392688244577,-1.3250836513906716,0.7755729423958808
1782836914199138000,7.678137939453125,3.936048240074515,-1.3609135280542075,0.8627986597757786
1782836914209066800,7.688066650390625,4.667697796526551,-1.3597072210043668,1.0105432893957942
1782836914218995700,7.69799560546875,5.496292646470666,-1.5145628516733645,0.9825311738111078
1782836914228924700,7.707924560546875,6.140746150028705,-1.6107634642779827,0.8078330708138645
1782836914238854000,7.71785400390625,6.499772354155779,-1.4605417770199476,0.6442492862228304
1782836914248782800,7.727782958984375,6.697234369885921,-1.3529448872625827,0.329202947467193
1782836914258711800,7.7377119140625,6.687156043463945,-1.3711515750825405,0.025222630996629594
1782836914268640800,7.747640869140625,6.6925424126774065,-1.4132465034902095,-0.1097572826616466
1782836914278570000,7.757570068359375,6.727590929704904,-1.3913441760227083,0.12012231707051396
1782836914288499000,7.7674990234375,6.77409256863892,-1.418695854937285,0.29860220362879336
1782836914298428000,7.777427978515625,7.0198723328143355,-1.4444073654294014,0.06790200822874903
1782836914308358000,7.78735791015625,7.275238255980611,-1.5046866236947476,0.255904487022385
1782836914318286800,7.797286865234375,7.355366854706406,-1.5841875920414923,0.14402677814066409
1782836914328215800,7.8072158203125,7.419020119449496,-1.4189479300022125,-0.32672676661200817
1782836914338144800,7.817144775390625,7.469122413223982,-1.0921984401017426,-0.5478972824487834
1782836914348073700,7.82707373046875,7.307583943790197,-1.051055697852373,-0.5190886827241629
1782836914358003000,7.8370029296875,7.15365887196958,-1.2775455090157688,-0.541316077427566
1782836914367932000,7.846931884765625,7.38602093616724,-1.2557353898763657,-0.5191535646539182
1782836914377860900,7.85686083984375,7.631056019455194,-0.9071182784955948,-0.7136746315613388
1782836914387789800,7.866789794921875,7.36097358867228,-0.5012199946869165,-0.9200642693083733
1782836914397718800,7.87671875,7.218302316793799,-0.22104279780387878,-1.1664599734250456
1782836914407647700,7.886647705078125,7.083110002493858,-0.055535278608649964,-1.0792283377610146
1782836914417576700,7.89657666015625,6.77760028449893,0.07581964948549866,-0.9001903058633208
1782836914427505700,7.906505615234375,6.4655415832519525,0.2644061387121677,-0.6804675046168267
1782836914437435000,7.916434814453125,5.494696901711821,0.4031076301768422,-0.658004912918061
1782836914447363800,7.92636376953125,3.8348938044548033,0.26241701072156426,-0.9863364113129675
1782836914457292800,7.936292724609375,1.6071528725653885,-0.09263736716508865,-0.8442948156401514
1782836914467221800,7.9462216796875,-1.1343038899034261,-0.6515327942945063,-0.4932106565587222
1782836914477151000,7.95615087890625,-4.161386104723811,-1.25835214824602,-0.1822753333184868
1782836914487080000,7.966079833984375,-7.061057745161652,-1.3574709863848984,0.3433507883504033
1782836914497009000,7.9760087890625,-10.094982957744598,-1.3695283577948807,0.8640836580850183
1782836914506937900,7.985937744140625,-14.277776007634401,-2.5147189678937196,1.1926043223764746
1782836914516866800,7.99586669921875,-19.092486320114133,-4.057246515813469,0.7805156594950705
1782836914526795800,8.005795654296875,-21.45148105781078,-4.0735856561958785,0.06665609982088208
1782836914536725800,8.015725830078125,-21.681336107623576,-2.6742762003824114,-0.11852613392025231
1782836914546655000,8.025655029296875,-20.4426664188385,-1.7707286930456756,0.38737697708159685
1782836914556584000,8.035583984375,-18.015577219080924,-1.4771633876055479,1.1831959311053155
1782836914566513000,8.045512939453126,-15.317323638522623,-1.498276610521972,1.8385935841344296
1782836914576441900,8.05544189453125,-12.95263565762043,-1.624519748560339,1.885845603044331
1782836914586371000,8.06537109375,-10.62307510420084,-1.4549337278798222,1.6198847822360694
1782836914596299800,8.0752998046875,-8.025091577643156,-0.9588172668769955,0.9146263891033828
1782836914606228700,8.085228759765625,-5.709470702248812,-0.1826554917424917,0.6185830031119287
1782836914616157700,8.09515771484375,-3.9578883159607647,0.3843020266156643,0.8783172775555401
1782836914626087000,8.1050869140625,-2.3225211563020944,0.5412715806987136,0.8623383487876504
1782836914636015900,8.115015869140626,-0.37163784841895103,0.7505755715224891,0.28585918804220856
1782836914645944800,8.12494482421875,1.41031746430099,1.257394262999296,-0.18586510143876075
1782836914655873800,8.134873779296875,2.899012299746275,1.7559867587268352,-0.5783397669855505
1782836914665803000,8.144802978515624,3.9384401036471126,1.8344161523193119,-0.9434496018752455
1782836914675732000,8.15473193359375,4.590565457007289,1.5241992795467376,-1.142651008618623
1782836914685661000,8.164660888671875,5.046617618647217,1.0621586911469698,-0.6768621005360037
1782836914695590000,8.17458984375,5.748092986109852,0.5642089503023773,-0.32714524775240567
1782836914705518800,8.184518798828124,6.3429883857727045,0.31216672819871455,0.047868799101375044
1782836914715447800,8.19444775390625,6.879977539911866,0.1912323640929535,0.24013923753779381
1782836914725376800,8.204376708984375,7.3913167044878,-0.013862155809625982,0.255146544794552
1782836914735305700,8.2143056640625,7.77147863562405,-0.13771050766594709,0.17876440258808432
1782836914745234700,8.224234619140624,8.36787216489017,-0.1290547613929957,-0.09472959020398557
1782836914755164000,8.234163818359375,8.794848454171419,-0.07867452745996416,-0.21270941535308957
1782836914765090000,8.244090087890624,8.650956116065382,-0.17681641032546758,-0.2698578282468021
1782836914775019300,8.254019287109376,8.499886433675885,-0.3627984892074019,-0.4485688201472163
1782836914784948200,8.2639482421875,8.594743230456114,-0.3186764388862997,-0.540369590357691
1782836914794877000,8.273876953125,8.49362795780301,-0.06622523412294685,-0.6222744049757719
1782836914804806000,8.283805908203124,8.125834509852528,0.045662594293989237,-0.543090174428001
1782836914814735000,8.293735107421876,7.84546507833302,-0.15270338453855364,-0.3643865621164441
1782836914824664000,8.3036640625,7.764272649767994,-0.39999183624386786,-0.4687445430178195
1782836914834593000,8.313593017578125,7.814652006918191,-0.4034479315144941,-0.7161390489134937
1782836914844522000,8.32352197265625,7.9180153507590285,-0.2869840638862923,-0.9029797173861414
1782836914854451200,8.333451171875,8.020658563631773,-0.3164093707371503,-0.9297682825252414
1782836914864380200,8.343380126953125,8.319927341410517,-0.5313487005667761,-0.8208899015899747
1782836914874309000,8.35330908203125,8.345107375374436,-0.7595411143969744,-0.6125668115623295
1782836914884238000,8.363238037109374,7.945052410766482,-0.8664358472343534,-0.4299526016782969
1782836914894167300,8.373167236328126,7.846141370159387,-0.7739930527932941,-0.41525545634925365
1782836914904096000,8.383095947265625,7.886704851216077,-0.5705718363977968,-0.45412506603486835
1782836914914025000,8.39302490234375,7.411543499958515,-0.3903782777894288,-0.32748664506860076
1782836914923954000,8.402953857421876,6.924163303118943,-0.3766544344719499,-0.12223280641846358
1782836914933883100,8.412883056640625,6.6800400739789,-0.4452941823907196,-0.03755662739090621
1782836914943812000,8.42281201171875,6.035590077552199,-0.45415063886754214,-0.0862350989073515
1782836914953741000,8.432740966796874,5.594188372555375,-0.38480303494036194,-0.40097872838936743
1782836914963670000,8.442669921875,4.802933365446329,-0.2986117021095007,-0.5175755016822368
1782836914973599200,8.45259912109375,3.1611820577085017,-0.38849925910979505,-0.31166999419033525
1782836914983529200,8.462529296875,0.5812240171849727,-0.745541230617091,-0.05452493252232671
1782836914993458000,8.4724580078125,-2.793471027344465,-1.1599469382692127,0.29770262444056567
1782836915003387000,8.482386962890626,-6.30394290806353,-1.3758955547392369,0.46819867263808845
1782836915013316000,8.492316162109375,-8.898912055236101,-1.2000354952905326,0.3185543468765914
1782836915023245000,8.5022451171875,-10.93805758394003,-0.5452481561794876,0.1149919684447348
1782836915033174000,8.512174072265625,-12.572775924301146,0.021060250620171427,-0.4127189236089587
1782836915043103000,8.52210302734375,-13.77877551562786,-0.15685243050940334,-0.4995508193656802
1782836915053032200,8.5320322265625,-15.383193410271405,-0.5762472516857087,-0.012113120185211301
1782836915062961200,8.541961181640625,-17.330738513642547,-0.7712066369451582,0.8928797636542469
1782836915072890000,8.55189013671875,-18.399410532206296,-0.9548300969369709,2.1305581763796506
1782836915082819000,8.561819091796876,-18.925860172152518,-1.0611606930855662,2.616150759150088
1782836915092748300,8.571748291015625,-20.622065539133548,-0.9508450458887964,2.009653769020736
1782836915102677000,8.581677001953125,-21.460183419704435,-0.7652086386393755,0.9370889077369123
1782836915112606000,8.59160595703125,-20.04627173030376,-0.623410861659795,0.41248763560373336
1782836915122535000,8.601534912109376,-17.243557073795795,0.1037450366348028,0.3710722138928249
1782836915132464000,8.611464111328125,-13.76290457727909,0.7379724027980119,0.10220085766641422
1782836915142393000,8.62139306640625,-9.785267604753374,0.7627850647542626,-0.45342831594236194
1782836915152322000,8.631322021484374,-6.133125153630972,0.6132770056582987,-0.5143682666061445
1782836915162251000,8.6412509765625,-2.9025562559634444,0.2485528090853244,-0.08078231339417398
1782836915172180200,8.65118017578125,-1.0958411805182695,-0.1851437283616513,0.7730128095842898
1782836915182109200,8.661109130859375,-0.8240741576492786,-0.4491603562995791,1.4245477958358823
1782836915192038100,8.6710380859375,-1.2577128274291753,-0.6280709624253213,1.402906019000709
1782836915201967000,8.680967041015625,-1.62979140535295,-0.6650876377206295,1.1376913403846323
1782836915211897000,8.69089697265625,-1.1612602858901022,-0.5985333177737892,1.041519077091664
1782836915221826000,8.700825927734375,0.1234440088391304,-0.44957080026399343,1.0337512195691465
1782836915231755000,8.710755126953124,1.7779741341292856,-0.3942755044236779,1.0211787382438777
1782836915241684200,8.720684326171876,3.3822102424651384,-0.7848492317199707,0.9307617505419998
1782836915251613200,8.73061328125,4.92850328039825,-1.326349433542788,0.8099767317790537
1782836915261542100,8.740542236328125,6.662641779932379,-1.5655163554497062,0.6617445378378033
1782836915271471000,8.75047119140625,7.742053219175339,-1.5436533370792864,0.7470299348048866
1782836915281400300,8.760400390625,7.9969842580556865,-1.439207312568277,1.1700794790964573
1782836915291329000,8.7703291015625,7.8916230183959,-1.22559561461322,1.660855675049871
1782836915301258000,8.780258056640625,7.649086181664466,-1.0018186426050961,1.7283236757755278
1782836915311187000,8.79018701171875,7.587479328057169,-0.748843706228584,1.3348033736333251
1782836915321116000,8.800115966796875,7.4104738249003885,-0.6331221083350479,1.0423555279158054
1782836915331045000,8.810045166015625,7.622343720689416,-0.6721981273129582,1.0040008089497685
1782836915340974000,8.81997412109375,7.472635974302888,-1.0062404776353389,0.6075330551788211
1782836915350903000,8.829903076171876,7.253671736338735,-1.4040087195456028,0.25166465749554334
1782836915360832000,8.83983203125,7.429723884293437,-1.5818728853583335,0.3378303444284946
1782836915370761200,8.84976123046875,7.651360556337237,-1.456228151604533,0.36296281292363997
1782836915380690200,8.859690185546874,7.660227168881892,-1.051889518328011,0.2690209207649343
1782836915390619100,8.869619140625,7.786800707918405,-0.5803131859503686,0.30745391086526214
1782836915400548000,8.879548095703125,8.041538854575156,-0.3348378846142441,0.32325379327181725
1782836915410477000,8.88947705078125,8.075287394919991,-0.2561077545095235,0.3045548649555072
1782836915420406000,8.899406005859374,7.903395873776078,-0.21828290463648736,0.3080016444085166
1782836915430335000,8.9093349609375,7.7989920809715985,-0.22335290137715635,0.10130169860329478
1782836915440265200,8.91926513671875,7.7951196234524245,-0.2734435777790844,-0.11838172048088162
1782836915450194200,8.929194091796875,7.998738408246636,-0.298499839232862,-0.27537659166827794
1782836915460123100,8.939123046875,8.099471988105773,-0.19313085465803742,-0.23180830277241765
1782836915470052000,8.949052001953126,7.797391660037636,-0.023567118874564766,-0.15508191370554267
1782836915479981300,8.958981201171875,7.499280235600471,0.13221695175096393,0.07296820557713508
1782836915489910000,8.968909912109375,7.347914785134792,0.22647198324576018,0.1499892667416483
1782836915499839000,8.9788388671875,6.915355142763256,0.38668388025090095,-0.05985372632965445
1782836915509768000,8.988767822265626,5.761722283011674,0.5945318270474672,-0.2213190574619919
1782836915519697200,8.998697265625,4.273989570596814,0.678052698560059,-0.3176294140513986
1782836915529626000,9.008626220703125,2.607255797293782,0.5286700924746692,-0.7158207036793232
1782836915539555000,9.01855517578125,0.41652854502499104,0.3029104952819645,-1.024195674912259
1782836915549484000,9.028484130859376,-2.1853812150657177,0.04026274454444646,-0.951824996836856
1782836915559413200,9.038413330078125,-3.3798920286506413,-0.19808131667226553,-0.7831768415283411
1782836915569342200,9.04834228515625,-3.1599773580938577,-0.2402965104587376,-0.3404059670701623
1782836915579271200,9.058271240234374,-3.377257003971934,-0.0023282968170940874,0.08671331087835132
1782836915589200100,9.0682001953125,-4.4490971311777825,-0.011873831536620855,0.5528728058390319
1782836915599129000,9.078129150390625,-5.517590286043286,-0.5173553561255335,0.7004347723685205
1782836915609058000,9.08805810546875,-5.967186987933516,-0.5822533602327108,0.3993443321205675
1782836915618987000,9.097987060546876,-6.381684903913736,-0.028690087911486625,0.15970248617827892
1782836915628916000,9.107916015625,-7.109448558843136,0.4591904596656561,0.19769202509373426
1782836915638845200,9.11784521484375,-9.041720105236768,0.25791896864995356,0.25829876174777744
1782836915648774100,9.127774169921874,-11.632478941237926,-0.3919384397782385,0.518207735171169
1782836915658704100,9.1377041015625,-12.77842358457446,-0.7690440520837902,0.4737437395446002
1782836915668633000,9.147633056640625,-12.945692706614732,-0.24690745303109288,0.23624701587222516
1782836915678562000,9.15756201171875,-12.193787128597497,0.675165744946897,0.03918729733265936
1782836915688491000,9.167490966796874,-10.936175423455238,1.1884236026257275,-0.17658742387518286
1782836915698420000,9.177419921875,-9.852762931877374,1.112739854479581,-0.37965398161411285
1782836915708349000,9.187348876953125,-8.049619869700074,0.6419144135344773,-0.2563182554550469
1782836915718278100,9.197278076171875,-6.144256203976274,0.24764256237260995,-0.12900237361863254
1782836915728207000,9.20720703125,-4.7449721748650076,0.11293218637071549,0.24249168241545557
1782836915738136000,9.217135986328126,-3.5544296803891657,-0.16298019267469643,0.7208095980077982
1782836915748065000,9.22706494140625,-2.095589884981513,-0.36573468878977,1.0088570168092845
1782836915757994200,9.236994140625,-1.1695786169022322,-0.2690046454835683,1.2832995424978435
1782836915767923200,9.246923095703124,-0.30890695921778677,-0.10387260853722691,1.3773250030204653
1782836915777852200,9.25685205078125,-1.1014712953597308,-0.23636698899008332,1.424442728026211
1782836915787781000,9.266781005859375,-1.1518062288463116,-0.6431609795294702,1.1587369779575616
1782836915797710000,9.2767099609375,-0.2946498858064413,-0.7261291855953633,0.4951149558100849
1782836915807639000,9.28663916015625,0.023754385074973104,-0.4445127496894449,0.3868865632161498
1782836915817568000,9.296568115234376,0.6389227574378251,-0.5463470573320984,0.6407195777267217
1782836915827497000,9.3064970703125,1.7300830866634844,-0.8998829204145818,0.6518474132016301
1782836915837426200,9.31642626953125,2.107369754624367,-0.9388008262213319,0.39729521757103503
1782836915847355100,9.326355224609374,1.8768793295174837,-0.788151122809574,0.22514241514243183
1782836915857284000,9.3362841796875,1.1408400136739014,-0.8445803545832633,0.2769871686700731
1782836915867213000,9.346213134765625,1.0723463231623171,-0.9026427405167371,0.405454193302989
1782836915877143000,9.35614306640625,1.5478852755606174,-0.5602747161259874,0.39531288464739917
1782836915887072000,9.366072021484374,2.1905045494288204,-0.4788622150694951,-0.10222432987354695
1782836915897001000,9.3760009765625,2.8723697920143603,0.29099936394225806,0.19843919019922612
1782836915906930000,9.385929931640625,2.877021417212486,0.5265473281670362,0.5914566573858261
1782836915916859100,9.395859130859375,3.123075906676054,0.1432104933217168,0.9098225690182298
