time,seconds_elapsed,z,y,x
1782836906603422000,0.082421875,-0.024686479941010475,-0.10736028850078583,-0.04907793179154396
1782836906613351000,0.092350830078125,-0.04838142544031143,-0.2124728560447693,-0.030216624960303307
1782836906623279900,0.10227978515625,-0.05089730769395828,-0.2620842754840851,-0.07631117850542068
1782836906633208800,0.112208740234375,-0.031647711992263794,-0.23796722292900085,-0.1698123663663864
1782836906643138000,0.122137939453125,-0.001595144160091877,-0.09090688824653625,-0.2638787031173706
1782836906653066800,0.132066650390625,0.03030393272638321,0.07572975754737854,-0.3167320787906647
1782836906662995700,0.14199560546875,0.04789487645030022,0.17420485615730286,-0.3236856162548065
1782836906672924700,0.151924560546875,0.0457928441464901,0.17737162113189697,-0.25762057304382324
1782836906682854000,0.16185400390625,0.04871836304664612,0.12844599783420563,-0.14256787300109863
1782836906692782800,0.171782958984375,0.05391498655080795,0.0778488740324974,-0.04081568121910095
1782836906702711800,0.1817119140625,0.06462465226650238,0.02868913859128952,0.01683485507965088
1782836906712640800,0.191640869140625,0.09412528574466705,-0.029602132737636566,0.0481879860162735
1782836906722570000,0.201570068359375,0.12664355337619781,-0.08248475939035416,0.08114924281835556
1782836906732499000,0.2114990234375,0.15973731875419617,-0.14833194017410278,0.11970275640487671
1782836906742428000,0.221427978515625,0.20071116089820862,-0.19543814659118652,0.1508810967206955
1782836906752356900,0.23135693359375,0.24070864915847778,-0.16238272190093994,0.16768351197242737
1782836906762285800,0.241285888671875,0.27385413646698,-0.09273793548345566,0.18003568053245544
1782836906772214800,0.25121484375,0.3045678436756134,-0.07123130559921265,0.17747877538204193
1782836906782144000,0.26114404296875,0.32950279116630554,-0.11466920375823975,0.17027932405471802
1782836906792073000,0.271072998046875,0.34658268094062805,-0.17498715221881866,0.16606727242469788
1782836906802002000,0.281001953125,0.36193183064460754,-0.22041988372802734,0.1716734915971756
1782836906811931000,0.290930908203125,0.3573589026927948,-0.22915531694889069,0.1643596589565277
1782836906821860000,0.300860107421875,0.3451032340526581,-0.20453934371471405,0.12866473197937012
1782836906831789000,0.3107890625,0.3403015732765198,-0.13353335857391357,0.06921951472759247
1782836906841718000,0.320718017578125,0.3328999876976013,-0.03145537152886391,-0.016464143991470337
1782836906851647000,0.33064697265625,0.305736243724823,0.011542164720594883,-0.1225796565413475
1782836906861576200,0.340576171875,0.26978975534439087,0.008537705056369305,-0.22118358314037323
1782836906871505000,0.3505048828125,0.25137799978256226,0.03031091019511223,-0.2528648376464844
1782836906881433900,0.360433837890625,0.2481551617383957,0.09461011737585068,-0.22391392290592194
1782836906891362800,0.37036279296875,0.23541966080665588,0.14680275321006775,-0.17246457934379578
1782836906901293000,0.38029296875,0.2195533812046051,0.17276282608509064,-0.1208164244890213
1782836906911222000,0.390221923828125,0.17496009171009064,0.15644004940986633,-0.0788002610206604
1782836906921151000,0.40015087890625,0.10848145931959152,0.12065643072128296,-0.056014761328697205
1782836906931080000,0.410079833984375,0.045127786695957184,0.0713818296790123,-0.041880831122398376
1782836906941009200,0.420009033203125,0.01716802828013897,0.018924184143543243,-0.03662540391087532
1782836906950938000,0.429938232421875,0.02980446070432663,-0.007046430837363005,-0.04668309539556503
1782836906960866800,0.43986669921875,0.061422042548656464,0.022473379969596863,-0.06639768183231354
1782836906970795800,0.449795654296875,0.08301308751106262,0.06651274114847183,-0.10590780526399612
1782836906980725000,0.45972509765625,0.08353765308856964,0.10266411304473877,-0.15696488320827484
1782836906990654000,0.469654052734375,0.07343229651451111,0.13346463441848755,-0.20072461664676666
1782836907000583000,0.4795830078125,0.0757235512137413,0.16748245060443878,-0.2146516889333725
1782836907010512000,0.489511962890625,0.08172418177127838,0.1982448846101761,-0.19722716510295868
1782836907020441000,0.499441162109375,0.0872211828827858,0.20779038965702057,-0.16062484681606293
1782836907030370000,0.5093701171875,0.07849293947219849,0.24310818314552307,-0.09106921404600143
1782836907040299000,0.519299072265625,0.05462764948606491,0.30237358808517456,-0.0010142060928046703
1782836907050228000,0.52922802734375,0.008856699801981449,0.3074463903903961,0.06717070937156677
1782836907060157200,0.5391572265625,-0.05057547241449356,0.2273261845111847,0.09111575037240982
1782836907070086000,0.5490859375,-0.10065142065286636,0.08148934692144394,0.07710912078619003
1782836907080014800,0.559014892578125,-0.13331159949302673,-0.0817362368106842,0.03688023239374161
1782836907089943800,0.56894384765625,-0.16971860826015472,-0.2079029530286789,-0.020465083420276642
1782836907099873000,0.578873046875,-0.21360492706298828,-0.26329320669174194,-0.10191556811332703
1782836907109802000,0.588802001953125,-0.2797466516494751,-0.22951684892177582,-0.19253520667552948
1782836907119731000,0.59873095703125,-0.37912705540657043,-0.03382404148578644,-0.27713507413864136
1782836907129660000,0.608659912109375,-0.47954660654067993,0.18642470240592957,-0.37891095876693726
1782836907139589000,0.618589111328125,-0.5575814247131348,0.31515246629714966,-0.5083118677139282
1782836907149518000,0.62851806640625,-0.5860546231269836,0.2547746002674103,-0.6487749814987183
1782836907159447000,0.638447021484375,-0.5547071099281311,0.09660646319389343,-0.733370304107666
1782836907169376000,0.6483759765625,-0.5076853036880493,0.15742480754852295,-0.7857679724693298
1782836907179305000,0.658304931640625,-0.49371767044067383,0.5205562710762024,-0.9305636882781982
1782836907189234000,0.66823388671875,-0.5435744524002075,1.0798983573913574,-1.139960527420044
1782836907199163000,0.678162841796875,-0.5332885384559631,1.5524160861968994,-1.2659409046173096
1782836907209091800,0.688091796875,-0.34792664647102356,1.8076890707015991,-1.216086983680725
1782836907219020800,0.698020751953125,-0.0119377002120018,1.758971929550171,-1.0607326030731201
1782836907228950000,0.707949951171875,0.4264380633831024,1.4354883432388306,-0.858314037322998
1782836907238879000,0.71787890625,0.8454614281654358,0.9212967157363892,-0.5588065981864929
1782836907248808000,0.727807861328125,1.1209666728973389,0.3067989647388458,-0.17437207698822021
1782836907258737000,0.73773681640625,1.2730746269226074,-0.30999839305877686,0.2458188235759735
1782836907268666000,0.747666015625,1.3542953729629517,-0.6674052476882935,0.6339476704597473
1782836907278595000,0.757594970703125,1.3611830472946167,-0.784615695476532,0.8665549159049988
1782836907288524800,0.76752490234375,1.2901091575622559,-0.7189107537269592,0.9127077460289001
1782836907298454000,0.7774541015625,1.2185609340667725,-0.3584004044532776,0.877406895160675
1782836907308383000,0.787383056640625,1.1438475847244263,0.2038557529449463,0.7546666264533997
1782836907318312000,0.79731201171875,1.0676770210266113,0.7057658433914185,0.543174147605896
1782836907328241000,0.807240966796875,1.0122592449188232,0.93726646900177,0.35946133732795715
1782836907338170000,0.817170166015625,0.9339603185653687,0.7891557812690735,0.22970759868621826
1782836907348099000,0.82709912109375,0.7599006295204163,0.24370020627975464,0.13828474283218384
1782836907358028000,0.837028076171875,0.5338405966758728,-0.47361674904823303,0.04523275047540665
1782836907367957000,0.84695703125,0.32557469606399536,-1.2916303873062134,-0.06902778148651123
1782836907377886000,0.856885986328125,0.015040528029203415,-2.057236433029175,-0.18482482433319092
1782836907387815000,0.86681494140625,-0.18039794266223907,-2.1756458282470703,-0.07374944537878036
1782836907397743900,0.876743896484375,-0.22557976841926575,-1.6636024713516235,0.23882699012756348
1782836907407672800,0.8866728515625,-0.28891506791114807,-0.9137290120124817,0.5661039352416992
1782836907417602000,0.89660205078125,-0.35578054189682007,-0.10691861063241959,0.7800184488296509
1782836907427531000,0.906531005859375,-0.3642757534980774,0.6050428748130798,0.8134278059005737
1782836907437460000,0.9164599609375,-0.25375619530677795,1.1775277853012085,0.7249025702476501
1782836907447389000,0.926388916015625,-0.1096581220626831,1.4512780904769897,0.6368067860603333
1782836907457318100,0.936318115234375,-0.00835847295820713,1.3685944080352783,0.6510770320892334
1782836907467247000,0.9462470703125,0.020010851323604584,1.0622124671936035,0.7819601893424988
1782836907477176000,0.956176025390625,-0.11588913202285767,0.7630850076675415,0.8830442428588867
1782836907487104800,0.966104736328125,-0.3066082000732422,0.500417172908783,0.824444591999054
1782836907497034000,0.976033935546875,-0.3773844540119171,0.2779470384120941,0.578801155090332
1782836907506963000,0.985962890625,-0.2985357344150543,0.165693998336792,0.22825294733047485
1782836907516892000,0.995891845703125,-0.1587977558374405,0.15108594298362732,-0.11166675388813019
1782836907526820900,1.00582080078125,-0.002136765979230404,0.257805734872818,-0.3302763104438782
1782836907536750000,1.01575,0.1374680995941162,0.4060506820678711,-0.39222103357315063
1782836907546679000,1.025678955078125,0.21523107588291168,0.5941497683525085,-0.26883092522621155
1782836907556608000,1.03560791015625,0.18864867091178894,0.7453515529632568,-0.0336700864136219
1782836907566537000,1.045536865234375,0.08506634831428528,0.739596962928772,0.24518872797489166
1782836907576466000,1.0554658203125,-0.04866575077176094,0.5796639323234558,0.4836508631706238
1782836907586395100,1.06539501953125,-0.17398078739643097,0.31226977705955505,0.5919009447097778
1782836907596323800,1.07532373046875,-0.23422549664974213,0.08571120351552963,0.6049166321754456
1782836907606252800,1.085252685546875,-0.22714094817638397,0.12416218221187592,0.5461118817329407
1782836907616181800,1.095181640625,-0.20829951763153076,0.4023190140724182,0.406581312417984
1782836907626111000,1.105111083984375,-0.13708604872226715,0.5970836877822876,0.16549359261989594
1782836907636040000,1.1150400390625,0.01802513189613819,0.33846333622932434,-0.21130168437957764
1782836907645969000,1.124968994140625,0.17613141238689423,-0.5480363965034485,-0.930138885974884
1782836907655897900,1.13489794921875,0.43582969903945923,-1.5746409893035889,-1.721527338027954
1782836907665827000,1.1448271484375,0.6141091585159302,-1.6777064800262451,-1.97662353515625
1782836907675756000,1.154756103515625,0.48201483488082886,-0.6617831587791443,-1.560121774673462
1782836907685685000,1.16468505859375,0.007513301447033882,0.5974046587944031,-0.9026866555213928
1782836907695615000,1.174614990234375,-0.5324756503105164,1.3390334844589233,-0.5138920545578003
1782836907705544000,1.1845439453125,-0.6940938234329224,1.5008962154388428,-0.5914523601531982
1782836907715473000,1.194472900390625,-0.3954566717147827,1.168214201927185,-0.9724265933036804
1782836907725401900,1.20440185546875,0.12356387078762054,0.8718675374984741,-1.2668606042861938
1782836907735331000,1.2143310546875,0.6317614316940308,0.7436845302581787,-1.1737096309661865
1782836907745260000,1.224260009765625,0.9925081729888916,0.5976617932319641,-0.7533823251724243
1782836907755189500,1.234189453125,1.1898077726364136,0.24163486063480377,-0.2495984584093094
1782836907765118500,1.244118408203125,1.217100977897644,-0.397163450717926,0.06331311911344528
1782836907775047400,1.25404736328125,1.159315586090088,-0.9877645373344421,0.1435984969139099
1782836907784976100,1.26397607421875,1.1692090034484863,-1.2472363710403442,0.1375960111618042
1782836907794905300,1.2739052734375,1.0899280309677124,-1.4152454137802124,0.016618072986602783
1782836907804834300,1.283834228515625,0.7985327243804932,-1.428831696510315,-0.2208765149116516
1782836907814763300,1.29376318359375,0.40705347061157227,-1.2275638580322266,-0.5650796294212341
1782836907824692200,1.303692138671875,0.037033870816230774,-0.7451665997505188,-0.9399280548095703
1782836907834621400,1.313621337890625,-0.25361189246177673,-0.10443136841058731,-1.213598370552063
1782836907844550400,1.32355029296875,-0.4477297067642212,0.3858611285686493,-1.2858234643936157
1782836907854479400,1.333479248046875,-0.5110465884208679,0.5878123641014099,-1.142388939857483
1782836907864408300,1.343408203125,-0.49970635771751404,0.35477858781814575,-0.8204812407493591
1782836907874337500,1.353337646484375,-0.44560185074806213,-0.1609945297241211,-0.3633200526237488
1782836907884266500,1.3632666015625,-0.382481187582016,-0.8111118674278259,0.1419662982225418
1782836907894195200,1.3731953125,-0.3030625581741333,-1.3613526821136475,0.7133378982543945
1782836907904124200,1.383124267578125,-0.3260802626609802,-1.5398025512695312,1.2052288055419922
1782836907914053400,1.393053466796875,-0.39343366026878357,-1.3961788415908813,1.5011162757873535
1782836907923982300,1.402982421875,-0.44337111711502075,-1.052748441696167,1.5388623476028442
1782836907933911300,1.412911376953125,-0.43434059619903564,-0.5614038705825806,1.325594186782837
1782836907943840300,1.42284033203125,-0.36453115940093994,-0.0067054578103125095,0.9339904189109802
1782836907953769500,1.43276953125,-0.25839295983314514,0.43720218539237976,0.45293062925338745
1782836907963698400,1.442698486328125,-0.12858062982559204,0.7168655395507812,0.06316127628087997
1782836907973627400,1.45262744140625,-0.03702809661626816,0.8197047710418701,-0.12812229990959167
1782836907983556400,1.462556396484375,-0.004530076868832111,0.6883270740509033,-0.07002756744623184
1782836907993485600,1.472485595703125,-0.04914984479546547,0.3987809121608734,0.14841924607753754
1782836908003414300,1.482414306640625,-0.203156977891922,0.07143579423427582,0.32634398341178894
1782836908013343200,1.49234326171875,-0.33817991614341736,-0.13784725964069366,0.38548871874809265
1782836908023272200,1.502272216796875,-0.3624402582645416,-0.006531051825731993,0.31926602125167847
1782836908033201400,1.512201416015625,-0.3130646049976349,0.36419573426246643,0.19109661877155304
1782836908043130400,1.52213037109375,-0.25901204347610474,0.629426896572113,0.08228012174367905
1782836908053059300,1.532059326171875,-0.21250589191913605,0.8066142797470093,0.03935691714286804
1782836908062988300,1.54198828125,-0.13079744577407837,0.9783463478088379,0.09071517735719681
1782836908072917200,1.551917236328125,-0.015321275219321251,1.0077627897262573,0.17545966804027557
1782836908082846500,1.561846435546875,0.09769156575202942,0.7406070232391357,0.28197094798088074
1782836908092775400,1.571775390625,0.24744956195354462,0.2919600009918213,0.46527111530303955
1782836908102705200,1.581705078125,0.32055866718292236,-0.07772163301706314,0.6529331803321838
1782836908112634400,1.59163427734375,0.2973710000514984,-0.2798612117767334,0.7429191470146179
1782836908122563300,1.601563232421875,0.22384589910507202,-0.18402762711048126,0.6941547989845276
1782836908132492300,1.6114921875,0.12803637981414795,0.09559088200330734,0.4841269850730896
1782836908142421200,1.621421142578125,0.004067033529281616,0.2256769835948944,0.16691572964191437
1782836908152350500,1.6313505859375,-0.10751785337924957,0.10933136940002441,-0.10237381607294083
1782836908162279400,1.641279541015625,-0.15721961855888367,0.3305402100086212,-0.15412062406539917
1782836908172208400,1.65120849609375,-0.059289366006851196,0.7267548441886902,-0.11535157263278961
1782836908182137300,1.661137451171875,0.22110527753829956,0.6697882413864136,-0.22032111883163452
1782836908192066300,1.67106640625,0.6261293888092041,0.5361815690994263,-0.33136770129203796
1782836908201995300,1.680995361328125,0.9770575761795044,0.33569663763046265,-0.2985530197620392
1782836908211924200,1.69092431640625,1.1555613279342651,-0.1446668803691864,-0.11766479909420013
1782836908221853200,1.700853271484375,1.1846894025802612,-0.5489400625228882,0.1544082760810852
1782836908231782400,1.710782470703125,1.1723707914352417,-0.7783998250961304,0.4376468360424042
1782836908241711400,1.72071142578125,1.1159762144088745,-0.7698995471000671,0.6640077829360962
1782836908251640300,1.730640380859375,0.9464987516403198,-0.6508843898773193,0.6127715110778809
1782836908261569300,1.7405693359375,0.7272843718528748,-0.45003223419189453,0.2432355284690857
1782836908271498500,1.75049853515625,0.5254040956497192,-0.1972653716802597,-0.33086296916007996
1782836908281427500,1.760427490234375,0.3323526382446289,0.18836061656475067,-0.9075004458427429
1782836908291356400,1.7703564453125,0.1512608528137207,0.556725800037384,-1.3258179426193237
1782836908301285400,1.780285400390625,0.028803374618291855,0.6926945447921753,-1.565923810005188
1782836908311214300,1.79021435546875,-0.03544997796416283,0.4936071038246155,-1.6632053852081299
1782836908321143300,1.800143310546875,-0.06644810736179352,-0.0512668639421463,-1.6297342777252197
1782836908331072300,1.810072265625,-0.13747097551822662,-0.8307957649230957,-1.5305001735687256
1782836908341001200,1.820001220703125,-0.2007807046175003,-1.6016879081726074,-1.3451473712921143
1782836908350930400,1.829930419921875,-0.20764198899269104,-2.0676465034484863,-1.067911148071289
1782836908360859400,1.839859375,-0.17697489261627197,-2.1453213691711426,-0.7707621455192566
1782836908370788400,1.849788330078125,-0.11966897547245026,-1.888563871383667,-0.5177934169769287
1782836908380717300,1.85971728515625,-0.08051438629627228,-1.3397233486175537,-0.37241804599761963
1782836908390646300,1.869646240234375,-0.07433129847049713,-0.5580463409423828,-0.3508776128292084
1782836908400575500,1.879575439453125,-0.07854121923446655,0.36300525069236755,-0.4022696912288666
1782836908410504400,1.88950439453125,-0.05613059550523758,1.075565218925476,-0.43952417373657227
1782836908420433400,1.899433349609375,-0.07186641544103622,1.2955948114395142,-0.3984137773513794
1782836908430362000,1.909362060546875,-0.1037629246711731,1.0788688659667969,-0.2784932553768158
1782836908440291300,1.919291259765625,-0.10221589356660843,0.5940067768096924,-0.08463270217180252
1782836908450220300,1.92922021484375,-0.0734097808599472,0.03857085853815079,0.1377633661031723
1782836908460149200,1.939149169921875,-0.01603969931602478,-0.34013649821281433,0.3567369878292084
1782836908470078200,1.949078125,0.07794877886772156,-0.420732706785202,0.5497427582740784
1782836908480007400,1.95900732421875,0.1985127478837967,-0.16078528761863708,0.7013540863990784
1782836908489936400,1.968936279296875,0.31174007058143616,0.2599044442176819,0.7640622854232788
1782836908499866400,1.978866455078125,0.4001825749874115,0.5742777585983276,0.7706320881843567
1782836908509795300,1.98879541015625,0.44996708631515503,0.6316484212875366,0.7894184589385986
1782836908519724300,1.998724365234375,0.4262566864490509,0.5004632472991943,0.8090986609458923
1782836908529653200,2.0086533203125,0.3749828040599823,0.32022854685783386,0.8395237922668457
1782836908539582200,2.018582275390625,0.329090416431427,0.18060806393623352,0.8701035380363464
1782836908549511400,2.028511474609375,0.2273307740688324,0.061251670122146606,0.8209162950515747
1782836908559440400,2.0384404296875,0.02795162796974182,-0.01732996106147766,0.6638811230659485
1782836908569369300,2.048369384765625,-0.14850306510925293,0.14534007012844086,0.45136237144470215
1782836908579298300,2.05829833984375,-0.2177274078130722,0.7192720174789429,0.2612411677837372
1782836908589227500,2.0682275390625,-0.19268155097961426,1.2863301038742065,0.14923550188541412
1782836908599156500,2.078156494140625,-0.10895203053951263,1.396824598312378,0.17189979553222656
1782836908609085400,2.08808544921875,0.0019141342490911484,1.0396921634674072,0.33578675985336304
1782836908619014100,2.09801416015625,0.06767503917217255,0.41709595918655396,0.5340895056724548
1782836908628943400,2.107943359375,0.055979833006858826,-0.23278969526290894,0.7104293704032898
1782836908638872300,2.117872314453125,0.02075526863336563,-0.3834993243217468,0.8688831925392151
1782836908648801300,2.12780126953125,0.027047116309404373,0.14189478754997253,0.9700415730476379
1782836908658730200,2.137730224609375,0.10554778575897217,0.9035657644271851,0.9141162633895874
1782836908668659500,2.147659423828125,0.17146573960781097,1.4257522821426392,0.6441466808319092
1782836908678588400,2.15758837890625,0.18551045656204224,1.3424224853515625,0.18280620872974396
1782836908688517400,2.167517333984375,0.16340674459934235,0.5746707916259766,-0.45239657163619995
1782836908698446300,2.1774462890625,0.23366674780845642,-0.18073982000350952,-0.9939167499542236
1782836908708375600,2.18737548828125,0.44338417053222656,-0.3184511065483093,-1.175057053565979
1782836908718304500,2.197304443359375,0.7056195735931396,-0.1391599327325821,-1.0072020292282104
1782836908728233200,2.207233154296875,0.8880881667137146,-0.14489425718784332,-0.5532349944114685
1782836908738162200,2.217162109375,0.9393345713615417,-0.4877986013889313,0.03706689551472664
1782836908748091100,2.227091064453125,0.890060544013977,-0.9275177121162415,0.558072030544281
1782836908758019600,2.23701953125,0.8121042251586914,-1.2530204057693481,0.8922622203826904
1782836908767948500,2.246948486328125,0.6795893311500549,-1.3675029277801514,1.0219032764434814
1782836908777877800,2.256877685546875,0.406114399433136,-1.288394808769226,0.92996746301651
1782836908787806700,2.266806640625,0.03247937187552452,-1.0457934141159058,0.6339191794395447
1782836908797735700,2.276735595703125,-0.35229307413101196,-0.7021049857139587,0.19844678044319153
1782836908807664600,2.28666455078125,-0.6718512177467346,-0.3504517674446106,-0.28747138381004333
1782836908817593900,2.29659375,-0.9016718864440918,-0.300325483083725,-0.7253749966621399
1782836908827522800,2.306522705078125,-1.0601507425308228,-0.6707857251167297,-1.0609184503555298
1782836908837451800,2.31645166015625,-1.1475063562393188,-1.0819694995880127,-1.2460747957229614
1782836908847380700,2.326380615234375,-1.1268361806869507,-1.265087366104126,-1.240960955619812
1782836908857309700,2.336309814453125,-0.9597812294960022,-1.2256046533584595,-1.043872356414795
1782836908867239700,2.34623974609375,-0.6973975300788879,-1.0578370094299316,-0.7235863208770752
1782836908877168600,2.356168701171875,-0.4480270743370056,-0.8338041305541992,-0.37666377425193787
1782836908887097600,2.36609765625,-0.28445690870285034,-0.6322778463363647,-0.0403706431388855
1782836908897026800,2.37602685546875,-0.2608082890510559,-0.44820284843444824,0.23111358284950256
1782836908906955800,2.385955810546875,-0.3690892159938812,-0.33160191774368286,0.40991923213005066
1782836908916884700,2.395884765625,-0.5663157105445862,-0.3001862168312073,0.44658029079437256
1782836908926813700,2.405813720703125,-0.7805888056755066,-0.2666083872318268,0.3684169054031372
1782836908936742700,2.41574267578125,-0.9341826438903809,-0.20508083701133728,0.24381692707538605
1782836908946671600,2.425671630859375,-1.0112171173095703,-0.1296839714050293,0.1079450473189354
1782836908956600600,2.4356005859375,-1.0155333280563354,-0.10461030900478363,-0.00019607506692409515
1782836908966529500,2.445529541015625,-0.9380058646202087,-0.029819589108228683,0.018797680735588074
1782836908976458800,2.455458740234375,-0.8383738398551941,0.15714524686336517,0.17091983556747437
1782836908986387700,2.4653876953125,-0.7334359884262085,0.24200603365898132,0.4188030958175659
1782836908996316700,2.475316650390625,-0.6067116260528564,0.303714394569397,0.6853713989257812
1782836909006245600,2.48524560546875,-0.4614366888999939,0.423781156539917,0.9124265313148499
1782836909016174800,2.4951748046875,-0.3046843409538269,0.466476172208786,1.0658748149871826
1782836909026103800,2.505103759765625,-0.13050192594528198,0.38412877917289734,1.1919658184051514
1782836909036032800,2.51503271484375,-0.005602870136499405,0.26971858739852905,1.291276454925537
1782836909045961700,2.524961669921875,0.023528950288891792,0.18800093233585358,1.2604986429214478
1782836909055890700,2.534890625,-0.0034041302278637886,0.16904428601264954,1.0583010911941528
1782836909065819600,2.544819580078125,-0.037295591086149216,0.27392303943634033,0.7663969397544861
1782836909075748600,2.55474853515625,-0.0288429856300354,0.5009673833847046,0.509970486164093
1782836909085677600,2.564677490234375,0.03507671505212784,0.8371438384056091,0.32029932737350464
1782836909095606800,2.574606689453125,0.15966923534870148,0.968059778213501,0.14736458659172058
1782836909105535700,2.58453564453125,0.34200939536094666,0.6311795115470886,-0.012956714257597923
1782836909115464700,2.594464599609375,0.5837998986244202,0.09535761177539825,-0.084953673183918
1782836909125393700,2.6043935546875,0.8183673024177551,-0.29301124811172485,0.05502324551343918
1782836909135323000,2.614322998046875,0.992095410823822,-0.4316681921482086,0.43882977962493896
1782836909145251800,2.624251953125,1.1422265768051147,-0.20105744898319244,0.9614126682281494
1782836909155180800,2.634180908203125,1.2603622674942017,0.164745032787323,1.3121877908706665
1782836909165109800,2.64410986328125,1.3383902311325073,0.36680591106414795,1.289702296257019
1782836909175038700,2.654038818359375,1.3564608097076416,0.5612704157829285,0.9119938015937805
1782836909184967700,2.6639677734375,1.2633877992630005,0.8439546227455139,0.3601137697696686
1782836909194896600,2.673896728515625,1.0457252264022827,1.103304386138916,-0.11228388547897339
1782836909204826600,2.68382666015625,0.8131514191627502,1.1937096118927002,-0.41864722967147827
1782836909214755800,2.693755859375,0.6613653898239136,1.145208477973938,-0.5801492929458618
1782836909224684800,2.703684814453125,0.5743894577026367,0.9537271857261658,-0.7051814794540405
1782836909234613800,2.71361376953125,0.5260682702064514,0.7075019478797913,-0.8412489891052246
1782836909244542700,2.723542724609375,0.4834216237068176,0.40485045313835144,-1.0220930576324463
1782836909254471700,2.7334716796875,0.4349009692668915,-0.021503251045942307,-1.1798019409179688
1782836909264400600,2.743400634765625,0.368597149848938,-0.3032834529876709,-1.1679635047912598
1782836909274329600,2.75332958984375,0.3046938180923462,-0.39398592710494995,-1.0062286853790283
1782836909284258600,2.763258544921875,0.2522614896297455,-0.582652747631073,-0.8264192342758179
1782836909294187800,2.773187744140625,0.20272164046764374,-0.7551127076148987,-0.7139422297477722
1782836909304116700,2.78311669921875,0.1249619573354721,-0.6974571347236633,-0.726911187171936
1782836909314045700,2.793045654296875,0.04392915964126587,-0.5222238302230835,-0.818661093711853
1782836909323974700,2.802974609375,0.04363304749131203,-0.2872788608074188,-0.812887966632843
1782836909333904000,2.81290380859375,0.06815410405397415,-0.06961444020271301,-0.664261519908905
1782836909343832800,2.822832763671875,0.09226846694946289,0.06354248523712158,-0.37818893790245056
1782836909353761800,2.83276171875,0.08779195696115494,0.12608975172042847,-0.02410886436700821
1782836909363690500,2.8426904296875,0.03411334753036499,0.04219554364681244,0.25401508808135986
1782836909373619700,2.85261962890625,-0.012579325586557388,-0.11462469398975372,0.453352689743042
1782836909383548700,2.862548583984375,-0.06337764859199524,-0.22240132093429565,0.5615568161010742
1782836909393477600,2.8724775390625,-0.1236412525177002,-0.3622835874557495,0.5526294112205505
1782836909403406600,2.882406494140625,-0.16099423170089722,-0.526322603225708,0.43546056747436523
1782836909413335800,2.892335693359375,-0.18265904486179352,-0.559942901134491,0.2028595507144928
1782836909423264800,2.9022646484375,-0.21965432167053223,-0.4641112983226776,-0.10465140640735626
1782836909433193700,2.91219384765625,-0.26379966735839844,-0.26619184017181396,-0.42142799496650696
1782836909443122700,2.922122802734375,-0.30402711033821106,0.05325707793235779,-0.6497716903686523
1782836909453052000,2.932052001953125,-0.35498324036598206,0.3597959876060486,-0.7568473219871521
1782836909462980900,2.94198095703125,-0.39357951283454895,0.4983161985874176,-0.7378715872764587
1782836909472909600,2.95190966796875,-0.37883731722831726,0.5139577388763428,-0.574661910533905
1782836909482838500,2.961838623046875,-0.3004820644855499,0.46192798018455505,-0.29986029863357544
1782836909492767700,2.971767822265625,-0.25905314087867737,0.33131617307662964,-0.0007489603012800217
1782836909502696700,2.98169677734375,-0.2796635627746582,0.222779780626297,0.25771525502204895
1782836909512626700,2.991626708984375,-0.33272358775138855,0.22939693927764893,0.4540189802646637
1782836909522556000,3.001555908203125,-0.34716954827308655,0.3290126919746399,0.5194752812385559
1782836909532484900,3.01148486328125,-0.34815680980682373,0.42628568410873413,0.4361870288848877
1782836909542413800,3.021413818359375,-0.3169355094432831,0.5304732918739319,0.20070068538188934
1782836909552342500,3.031342529296875,-0.29685235023498535,0.5660366415977478,-0.13176487386226654
1782836909562271500,3.041271484375,-0.34727734327316284,0.26965856552124023,-0.5092964768409729
1782836909572200700,3.05120068359375,-0.33647581934928894,-0.042545147240161896,-0.7685624361038208
1782836909582129700,3.061129638671875,-0.17291156947612762,-0.06513464450836182,-0.7671972513198853
1782836909592058600,3.07105859375,0.038420114666223526,-0.019236396998167038,-0.6589296460151672
1782836909601987600,3.080987548828125,0.25332507491111755,-0.036048077046871185,-0.44119885563850403
1782836909611916800,3.090916748046875,0.40610024333000183,0.08475077897310257,-0.12986522912979126
1782836909621845800,3.100845703125,0.4885011315345764,0.4150989353656769,0.1888566017150879
1782836909631774700,3.110774658203125,0.4427746534347534,0.9182481169700623,0.27868127822875977
1782836909641703700,3.12070361328125,0.2497740387916565,1.1648902893066406,-0.01816834881901741
1782836909651633000,3.1306328125,-0.019333332777023315,0.7214785814285278,-0.6534265875816345
1782836909661561600,3.1405615234375,-0.2347833514213562,-0.05619066208600998,-1.282282829284668
1782836909671490600,3.150490478515625,-0.3470361530780792,-0.5366992354393005,-1.6799039840698242
1782836909681419500,3.16041943359375,-0.3573964834213257,-0.8344796299934387,-1.8669557571411133
1782836909691348700,3.1703486328125,-0.2834423780441284,-1.0036907196044922,-1.880866289138794
1782836909701277700,3.180277587890625,-0.12014556676149368,-1.025576114654541,-1.7300915718078613
1782836909711206700,3.19020654296875,0.04772280156612396,-0.8174339532852173,-1.4007008075714111
1782836909721135600,3.200135498046875,0.2373790144920349,-0.5345626473426819,-0.8571226000785828
1782836909731064800,3.21006494140625,0.4264461398124695,-0.39728307723999023,-0.24181707203388214
1782836909740993800,3.219993896484375,0.453510582447052,-0.5563374757766724,0.21716438233852386
1782836909750922800,3.2299228515625,0.3404524624347687,-0.9542813897132874,0.5024584531784058
1782836909760855600,3.23985546875,0.22056052088737488,-1.387606143951416,0.5881611108779907
1782836909770784500,3.249784423828125,0.12735041975975037,-1.5974496603012085,0.42497193813323975
1782836909780713500,3.25971337890625,0.0033430522307753563,-1.4622820615768433,-0.03562145680189133
1782836909790642700,3.269642578125,-0.08628030866384506,-0.9881286025047302,-0.7095658183097839
1782836909800571600,3.279571533203125,-0.011863327585160732,-0.1907309889793396,-1.2578824758529663
1782836909810500600,3.28950048828125,0.1446612924337387,0.5976395010948181,-1.434532880783081
1782836909820429600,3.2994296875,0.26251882314682007,1.073785662651062,-1.165292501449585
1782836909830359800,3.30935986328125,0.2913789451122284,1.239292860031128,-0.5365409255027771
1782836909840288500,3.31928857421875,0.1837109923362732,1.065675973892212,0.20695510506629944
1782836909850217500,3.329217529296875,-0.0024370383471250534,0.597256600856781,0.845034122467041
1782836909860146400,3.339146484375,-0.1502774953842163,0.04214128851890564,1.2575489282608032
1782836909870075600,3.34907568359375,-0.19400262832641602,-0.34986403584480286,1.4174416065216064
1782836909880004600,3.359004638671875,-0.15139862895011902,-0.4860836863517761,1.3391468524932861
1782836909889933600,3.36893359375,-0.09092915058135986,-0.36077210307121277,1.0376198291778564
1782836909899862500,3.378862548828125,-0.0028020618483424187,-0.06487445533275604,0.6427828073501587
1782836909909791700,3.388791748046875,0.04885846748948097,0.2973650097846985,0.24077199399471283
1782836909919720700,3.398720703125,0.04653969034552574,0.6157026290893555,-0.06963766366243362
1782836909929649700,3.408649658203125,0.03207100182771683,0.7839592695236206,-0.16019845008850098
1782836909939578600,3.41857861328125,0.008167602121829987,0.7850319147109985,-0.011447700671851635
1782836909949507800,3.4285078125,-0.07087661325931549,0.6151677370071411,0.27389001846313477
1782836909959436500,3.4384365234375,-0.10460519045591354,0.3679808974266052,0.6710719466209412
1782836909969365500,3.448365478515625,-0.053416308015584946,0.3072144687175751,1.1394187211990356
1782836909979294500,3.45829443359375,-0.011981416493654251,0.3625432848930359,1.5042295455932617
1782836909989223700,3.4682236328125,-0.0007218373939394951,0.39300665259361267,1.6245373487472534
1782836909999152600,3.478152587890625,0.02468402311205864,0.4556266665458679,1.5432745218276978
1782836910009081600,3.48808154296875,0.08657188713550568,0.6575027704238892,1.3687494993209839
1782836910019010600,3.498010498046875,0.11287097632884979,0.9243894219398499,1.1239739656448364
1782836910028939800,3.507939697265625,0.10950207710266113,1.0932002067565918,0.8236886858940125
1782836910038868700,3.51786865234375,0.07243429869413376,1.0025067329406738,0.499011754989624
1782836910048797700,3.527797607421875,0.00959648098796606,0.666278064250946,0.20856663584709167
1782836910058726700,3.5377265625,-0.020576227456331253,0.2955474853515625,-0.0015164013020694256
1782836910068655600,3.547655517578125,-0.03769982233643532,0.0022495733574032784,-0.1191554144024849
1782836910078584600,3.55758447265625,-0.006840985268354416,-0.2349768877029419,-0.22807985544204712
1782836910088513500,3.567513427734375,0.16764213144779205,-0.4855942130088806,-0.27477890253067017
1782836910098442500,3.5774423828125,0.44683966040611267,-0.5440109968185425,-0.11551513522863388
1782836910108371700,3.587371826171875,0.7291432619094849,-0.2597576677799225,0.15891696512699127
1782836910118301700,3.5973017578125,0.8967490792274475,0.24194788932800293,0.385054349899292
1782836910128230700,3.607230712890625,0.8820047378540039,0.5346969366073608,0.4304924011230469
1782836910138159600,3.61715966796875,0.6690874099731445,0.504496693611145,0.2396146059036255
1782836910148088600,3.627088623046875,0.36825698614120483,0.41891390085220337,-0.08183213323354721
1782836910158017500,3.637017578125,0.11549735069274902,0.3693827986717224,-0.5059680342674255
1782836910167946500,3.646946533203125,-0.030871044844388962,0.24121710658073425,-0.9604417681694031
1782836910177875500,3.65687548828125,-0.09507942199707031,0.07474365830421448,-1.2954986095428467
1782836910187804700,3.6668046875,-0.17291828989982605,-0.06020350009202957,-1.4984121322631836
1782836910197733600,3.676733642578125,-0.21729658544063568,-0.11023179441690445,-1.6071693897247314
1782836910207662600,3.68666259765625,-0.17313258349895477,-0.12593938410282135,-1.5860257148742676
1782836910217591600,3.696591552734375,-0.0846194252371788,-0.21531160175800323,-1.4512521028518677
1782836910227520800,3.706520751953125,-0.06161930039525032,-0.4712674617767334,-1.2587002515792847
1782836910237449700,3.71644970703125,-0.1566212773323059,-0.9781329035758972,-1.0150514841079712
1782836910247378700,3.726378662109375,-0.1895025372505188,-1.347880482673645,-0.6238336563110352
1782836910257307600,3.7363076171875,-0.17385953664779663,-1.4420993328094482,-0.24290502071380615
1782836910267236600,3.746236572265625,-0.20834186673164368,-1.339316725730896,-0.03782644122838974
1782836910277165600,3.75616552734375,-0.25429075956344604,-1.0245500802993774,-0.018190976232290268
1782836910287094500,3.766094482421875,-0.23903246223926544,-0.5569904446601868,-0.14749117195606232
1782836910297023500,3.7760234375,-0.16893097758293152,-0.050497520714998245,-0.3216152489185333
1782836910306952700,3.78595263671875,-0.0986536294221878,0.3861975073814392,-0.38479501008987427
1782836910316881700,3.795881591796875,-0.11270478367805481,0.6255931258201599,-0.2924419641494751
1782836910326810600,3.805810546875,-0.2030879259109497,0.5911214351654053,-0.07237913459539413
1782836910336739600,3.815739501953125,-0.2583213746547699,0.36374232172966003,0.2150600254535675
1782836910346668800,3.825668701171875,-0.2604154348373413,0.012372053228318691,0.46849122643470764
1782836910356597800,3.83559765625,-0.23399336636066437,-0.34763288497924805,0.6176446080207825
1782836910366526700,3.845526611328125,-0.19821646809577942,-0.6181626319885254,0.6567081212997437
1782836910376455400,3.855455322265625,-0.18632790446281433,-0.797142744064331,0.5728585124015808
1782836910386384600,3.865384521484375,-0.21295419335365295,-0.8260766863822937,0.36817777156829834
1782836910396314600,3.875314697265625,-0.21181955933570862,-0.6415825486183167,0.050028637051582336
1782836910406243600,3.88524365234375,-0.15815792977809906,-0.30536141991615295,-0.32113054394721985
1782836910416172800,3.8951728515625,-0.08260196447372437,0.1278306394815445,-0.5428701043128967
1782836910426101800,3.905101806640625,-0.08556712418794632,0.48500317335128784,-0.5818409323692322
1782836910436030700,3.91503076171875,-0.1823805868625641,0.6158226728439331,-0.45539945363998413
1782836910445959700,3.924959716796875,-0.2970770597457886,0.5522029399871826,-0.18172475695610046
1782836910455888400,3.934888427734375,-0.3830161988735199,0.48210519552230835,0.1984582543373108
1782836910465817600,3.944817626953125,-0.42028793692588806,0.4494692385196686,0.5825198888778687
1782836910475746600,3.95474658203125,-0.41013020277023315,0.3858809471130371,0.9064345359802246
1782836910485675500,3.964675537109375,-0.3707177937030792,0.32638752460479736,1.067873477935791
1782836910495604500,3.9746044921875,-0.3197348415851593,0.33678263425827026,0.9833064079284668
1782836910505533700,3.98453369140625,-0.25785043835639954,0.4278731346130371,0.748533308506012
1782836910515462700,3.994462646484375,-0.23954473435878754,0.4722777307033539,0.4442134499549866
1782836910525391600,4.0043916015625,-0.23896841704845428,0.43741241097450256,0.09912662953138351
1782836910535320600,4.014320556640625,-0.24243976175785065,0.33714547753334045,-0.29433244466781616
1782836910545249800,4.024249755859375,-0.2391187995672226,0.13609731197357178,-0.658671498298645
1782836910555178800,4.0341787109375,-0.1371401995420456,-0.10791230946779251,-0.8189350962638855
1782836910565107500,4.044107421875,-0.011821423657238483,-0.3482151925563812,-0.7286608219146729
1782836910575036400,4.054036376953125,0.08259439468383789,-0.36838752031326294,-0.4525884687900543
1782836910584965600,4.063965576171875,0.10644672811031342,-0.234304279088974,-0.10416552424430847
1782836910594894600,4.07389453125,0.1646636724472046,-0.07198022305965424,0.15074534714221954
1782836910604823600,4.083823486328125,0.2918229401111603,0.09682157635688782,0.3177071511745453
1782836910614752500,4.09375244140625,0.44333145022392273,0.2966248691082001,0.4628804624080658
1782836910624681700,4.103681640625,0.5296953916549683,0.46929970383644104,0.5706385970115662
1782836910634610700,4.113610595703125,0.5917797088623047,0.6899803876876831,0.6822382807731628
1782836910644539600,4.12353955078125,0.5416672825813293,0.7908896803855896,0.6871742010116577
1782836910654468600,4.133468505859375,0.3507270812988281,0.762380063533783,0.5027021765708923
1782836910664397800,4.143397705078125,0.09300924837589264,0.7308796644210815,0.21728086471557617
1782836910674327600,4.15332763671875,-0.18686139583587646,0.5662438273429871,-0.12937955558300018
1782836910684256500,4.163256591796875,-0.40668562054634094,0.21100105345249176,-0.4601888954639435
1782836910694185700,4.173185791015625,-0.47900792956352234,-0.22738850116729736,-0.6943355798721313
1782836910704114700,4.18311474609375,-0.4324004650115967,-0.6979959607124329,-0.7481516599655151
1782836910714043600,4.193043701171875,-0.3355761170387268,-1.1801936626434326,-0.6146342754364014
1782836910723972600,4.20297265625,-0.21968543529510498,-1.5577646493911743,-0.43268418312072754
1782836910733901800,4.21290185546875,-0.08125915378332138,-1.8015868663787842,-0.41440442204475403
1782836910743830800,4.222830810546875,0.05689499154686928,-1.815429925918579,-0.583226203918457
1782836910753759700,4.232759765625,0.10591526329517365,-1.5374733209609985,-0.801368236541748
1782836910763688400,4.2426884765625,0.03949975222349167,-1.0917690992355347,-0.9531527161598206
1782836910773617200,4.2526171875,-0.10295513272285461,-0.5294682383537292,-0.9479205012321472
1782836910783546400,4.26254638671875,-0.2939511835575104,-0.008352119475603104,-0.8077136278152466
1782836910793475300,4.272475341796875,-0.4401090145111084,0.3950728178024292,-0.5037019848823547
1782836910803404300,4.282404296875,-0.5181599259376526,0.6221488118171692,-0.10634608566761017
1782836910813333200,4.292333251953125,-0.5543345808982849,0.6368697881698608,0.30154383182525635
1782836910823262500,4.302262451171875,-0.5484316945075989,0.5070143342018127,0.654976487159729
1782836910833191400,4.31219140625,-0.5107666850090027,0.3267781734466553,0.9073220491409302
1782836910843120400,4.322120361328125,-0.4863004982471466,0.18723680078983307,1.0087922811508179
1782836910853049300,4.33204931640625,-0.4665878713130951,0.05292980372905731,0.9157825708389282
1782836910862978300,4.341978271484375,-0.44750553369522095,0.010919234715402126,0.6093693375587463
1782836910872907500,4.351907470703125,-0.4237639009952545,0.07054551690816879,0.14918670058250427
1782836910882836200,4.361836181640625,-0.39220890402793884,0.13363207876682281,-0.3408154845237732
1782836910892765200,4.37176513671875,-0.34742751717567444,0.17055486142635345,-0.7130628228187561
1782836910902694100,4.381694091796875,-0.2797164022922516,0.23660790920257568,-0.8561483025550842
1782836910912623400,4.391623291015625,-0.16321153938770294,0.3712815046310425,-0.7127627730369568
1782836910922552300,4.40155224609375,-0.07020357251167297,0.49663567543029785,-0.35908403992652893
1782836910932481300,4.411481201171875,-0.052131034433841705,0.39135420322418213,0.08228541910648346
1782836910942411500,4.42141162109375,-0.08460508286952972,0.18724527955055237,0.49524450302124023
1782836910952340500,4.431340576171875,-0.11812735348939896,0.08601055294275284,0.8155025243759155
1782836910962269200,4.441269287109375,-0.12987802922725677,0.09658677130937576,1.0225917100906372
1782836910972198100,4.4511982421875,-0.1309865564107895,0.21380354464054108,1.13136625289917
1782836910982127400,4.46112744140625,-0.09816230833530426,0.42671316862106323,1.1515617370605469
1782836910992056300,4.471056396484375,-0.011873818002641201,0.6587241291999817,1.1154298782348633
1782836911001985300,4.4809853515625,0.02781766653060913,0.7232592105865479,0.9778668880462646
1782836911011914200,4.490914306640625,-0.0028200028464198112,0.4062701165676117,0.5991270542144775
1782836911021843500,4.500843505859375,-0.07853420078754425,-0.3288044035434723,-0.12090863287448883
1782836911031772400,4.5107724609375,-0.15288066864013672,-0.8446647524833679,-0.9166756868362427
1782836911041701400,4.520701416015625,-0.27355754375457764,-0.4996623992919922,-1.3782858848571777
1782836911051630300,4.53063037109375,-0.4339865446090698,0.06713271886110306,-1.3666718006134033
1782836911061559600,4.5405595703125,-0.5813423991203308,0.46644389629364014,-0.8605591058731079
1782836911071488300,4.55048828125,-0.6005041003227234,0.6712992191314697,-0.05715220421552658
1782836911081417200,4.560417236328125,-0.3994702696800232,0.6521934270858765,0.6989400386810303
1782836911091346200,4.57034619140625,-0.01901429146528244,0.5160073637962341,1.064288854598999
1782836911101275400,4.580275390625,0.3918720483779907,0.38556045293807983,0.9816228747367859
1782836911111204400,4.590204345703125,0.7476694583892822,0.3228161633014679,0.6290783286094666
1782836911121133300,4.60013330078125,0.9723241329193115,0.22100326418876648,0.23212696611881256
1782836911131062300,4.610062255859375,1.0134180784225464,0.08758896589279175,-0.026744259521365166
1782836911140991500,4.619991455078125,0.9010301232337952,0.1629265993833542,-0.06852392852306366
1782836911150920400,4.62992041015625,0.6598551273345947,0.12257324159145355,-0.054314322769641876
1782836911160849400,4.639849365234375,0.3606127202510834,-0.15438832342624664,-0.15519939363002777
1782836911170778400,4.6497783203125,0.10213087499141693,-0.43031010031700134,-0.3200283646583557
1782836911180707300,4.659707275390625,-0.03463815897703171,-0.6155627965927124,-0.4237166941165924
1782836911190636300,4.66963623046875,-0.039661817252635956,-0.6834942698478699,-0.43246203660964966
1782836911200566300,4.679566162109375,0.06409840285778046,-0.7090129852294922,-0.303997278213501
1782836911210495200,4.6894951171875,0.17175805568695068,-0.721977949142456,-0.032081738114356995
1782836911220424400,4.699424560546875,0.2146192491054535,-0.6883726119995117,0.26813772320747375
1782836911230353400,4.709353515625,0.20558393001556396,-0.7291789054870605,0.4225861728191376
1782836911240282400,4.719282470703125,0.1801277995109558,-0.7876707315444946,0.3416312634944916
1782836911250211300,4.72921142578125,0.13217678666114807,-0.7555530071258545,0.07187192142009735
1782836911260140500,4.739140625,0.03915417566895485,-0.5350688099861145,-0.2641385793685913
1782836911270069200,4.7490693359375,-0.1405973732471466,-0.12399257719516754,-0.550044596195221
1782836911279998200,4.758998291015625,-0.38272371888160706,0.2726772725582123,-0.6632212400436401
1782836911289927200,4.76892724609375,-0.6663896441459656,0.5425220727920532,-0.6264135241508484
1782836911299856400,4.7788564453125,-0.9308788180351257,0.6447312831878662,-0.5267268419265747
1782836911309785300,4.788785400390625,-1.1078470945358276,0.589787483215332,-0.3930095136165619
1782836911319714300,4.79871435546875,-1.1685247421264648,0.43456539511680603,-0.27892476320266724
1782836911329643300,4.808643310546875,-1.1213349103927612,0.22952282428741455,-0.19594094157218933
1782836911339572500,4.818572509765625,-1.0163419246673584,0.00689480546861887,-0.12510299682617188
1782836911349501400,4.82850146484375,-0.8711370825767517,-0.1610296070575714,-0.03695996105670929
1782836911359430400,4.838430419921875,-0.7194823026657104,-0.27558839321136475,0.0916435569524765
1782836911369359400,4.848359375,-0.6053297519683838,-0.3230951130390167,0.1947464644908905
1782836911379288300,4.858288330078125,-0.5119372010231018,-0.27825599908828735,0.21028707921504974
1782836911389217300,4.86821728515625,-0.43778178095817566,-0.09758209437131882,0.12849634885787964
1782836911399146200,4.878146240234375,-0.38481417298316956,0.10704561322927475,-0.010181636549532413
1782836911409075200,4.8880751953125,-0.3616425395011902,0.2313975989818573,-0.12496579438447952
1782836911419004400,4.89800439453125,-0.36120525002479553,0.2609592080116272,-0.14076925814151764
1782836911428933400,4.907933349609375,-0.34362003207206726,0.25036996603012085,-0.014209387823939323
1782836911438862300,4.9178623046875,-0.30991747975349426,0.1713198870420456,0.2161351442337036
1782836911448791300,4.927791259765625,-0.2352321892976761,0.006144891493022442,0.48339301347732544
1782836911458721300,4.93772119140625,-0.1239786297082901,-0.17825770378112793,0.7105425596237183
1782836911468650200,4.947650146484375,0.007895953953266144,-0.25522735714912415,0.8508457541465759
1782836911478579200,4.9575791015625,0.1800919473171234,-0.3031346797943115,0.8723819851875305
1782836911488508200,4.967508056640625,0.34628355503082275,-0.35506242513656616,0.7849990725517273
1782836911498437400,4.977437255859375,0.4523327648639679,-0.37093034386634827,0.6112754940986633
1782836911508366300,4.987366455078125,0.50650954246521,-0.47643542289733887,0.4138839542865753
1782836911518295300,4.99729541015625,0.5173518061637878,-0.6326053142547607,0.2593356668949127
1782836911528224300,5.007224365234375,0.4415492117404938,-0.7069069147109985,0.17440015077590942
1782836911538153500,5.017153564453125,0.27155831456184387,-0.4056522250175476,0.13129235804080963
1782836911548082400,5.02708251953125,0.10703462362289429,0.17340075969696045,0.12004780024290085
1782836911558011400,5.037011474609375,0.06519050151109695,0.7504236102104187,0.1423986554145813
1782836911567940400,5.0469404296875,0.12229883670806885,1.3002139329910278,0.23070268332958221
1782836911577869300,5.056869384765625,0.21019859611988068,1.4410597085952759,0.29751497507095337
1782836911587798300,5.06679833984375,0.36825859546661377,1.042034387588501,0.3279431462287903
1782836911597727200,5.076727294921875,0.5875560641288757,0.2693411707878113,0.341678649187088
1782836911607656200,5.08665625,0.8241963386535645,-0.5088648796081543,0.3620569109916687
1782836911617585400,5.09658544921875,1.0570602416992188,-0.8357051014900208,0.4058786928653717
1782836911627514400,5.106514404296875,1.2249956130981445,-0.9102577567100525,0.3730012774467468
1782836911637443300,5.116443359375,1.3331847190856934,-0.8270195722579956,0.30218568444252014
1782836911647372300,5.126372314453125,1.3407378196716309,-0.6742885708808899,0.22629261016845703
1782836911657301500,5.136301513671875,1.2097454071044922,-0.5291492342948914,0.11198148876428604
1782836911667230500,5.14623046875,1.0269855260849,-0.3518499732017517,-0.042348142713308334
1782836911677159400,5.156159423828125,0.910555899143219,-0.19446168839931488,-0.17961385846138
1782836911687088000,5.166088134765625,0.8504143953323364,-0.15047265589237213,-0.2007473111152649
1782836911697017300,5.176017333984375,0.7714657783508301,-0.2779594957828522,-0.11542337387800217
1782836911706946300,5.1859462890625,0.647760272026062,-0.5404621958732605,-0.06981674581766129
1782836911716876300,5.195876220703125,0.4646706283092499,-0.7464874982833862,-0.198679119348526
1782836911726805500,5.205805419921875,0.259859174489975,-0.7278047800064087,-0.5823092460632324
1782836911736734500,5.215734375,0.062225207686424255,-0.5071315765380859,-1.182621717453003
1782836911746663400,5.225663330078125,-0.09130117297172546,-0.1834331899881363,-1.8239222764968872
1782836911756592400,5.23559228515625,-0.2142838090658188,0.12820965051651,-2.239478588104248
1782836911766522400,5.2455224609375,-0.29725298285484314,0.41880661249160767,-2.273648977279663
1782836911776451300,5.255451416015625,-0.3824019730091095,0.6567243933677673,-1.9232763051986694
1782836911786380300,5.26538037109375,-0.5143887996673584,0.7748621702194214,-1.2713069915771484
1782836911796309200,5.275309326171875,-0.6171082854270935,0.7958747744560242,-0.4268801212310791
1782836911806238500,5.285238525390625,-0.6424068808555603,0.7235720157623291,0.4326624572277069
1782836911816167400,5.29516748046875,-0.6258431077003479,0.4515756070613861,1.1704457998275757
1782836911826096400,5.305096435546875,-0.5759502649307251,0.04133403301239014,1.7010085582733154
1782836911836025300,5.315025390625,-0.5402604341506958,-0.3318166434764862,1.9728789329528809
1782836911845954300,5.324954345703125,-0.5859197378158569,-0.5298924446105957,1.8716856241226196
1782836911855881500,5.334881591796875,-0.6335985660552979,-0.5224779844284058,1.4118095636367798
1782836911865810400,5.344810546875,-0.6396223902702332,-0.2908668518066406,0.7860372066497803
1782836911875739400,5.354739501953125,-0.6660674810409546,0.03967563062906265,0.18436232209205627
1782836911885668400,5.36466845703125,-0.6936368346214294,0.2026296705007553,-0.2504889965057373
1782836911895597300,5.374597412109375,-0.6653056740760803,0.05045336112380028,-0.5232089161872864
1782836911905526300,5.3845263671875,-0.6475852131843567,-0.18689820170402527,-0.6814584732055664
1782836911915455200,5.394455322265625,-0.6724187135696411,-0.7006403803825378,-0.6881781816482544
1782836911925384200,5.40438427734375,-0.6454381942749023,-1.125595211982727,-0.3907829225063324
1782836911935313200,5.414313232421875,-0.5543782711029053,-0.9542346000671387,0.19274596869945526
1782836911945242400,5.424242431640625,-0.5631190538406372,-0.5985561609268188,0.7703104615211487
1782836911955171300,5.43417138671875,-0.59782874584198,-0.3690878450870514,1.13493013381958
1782836911965100300,5.444100341796875,-0.5730315446853638,-0.21221806108951569,1.2303261756896973
1782836911975029200,5.454029296875,-0.5523666143417358,-0.08123841881752014,1.0819882154464722
1782836911984958500,5.46395849609375,-0.53240966796875,0.13719245791435242,0.828107476234436
1782836911994887400,5.473887451171875,-0.5263060331344604,0.46961793303489685,0.6262906789779663
1782836912004816400,5.48381640625,-0.5550380349159241,0.8144075870513916,0.537850022315979
1782836912014745300,5.493745361328125,-0.5778943300247192,1.0573432445526123,0.5007320642471313
1782836912024675300,5.50367529296875,-0.5902772545814514,1.0913324356079102,0.3462540805339813
1782836912034604300,5.513604248046875,-0.48996660113334656,0.94533371925354,0.03745606169104576
1782836912044533200,5.523533203125,-0.21737104654312134,0.5841664671897888,-0.2991568446159363
1782836912054462500,5.53346240234375,0.15244340896606445,0.20496223866939545,-0.4753577411174774
1782836912064391400,5.543391357421875,0.4796431362628937,0.08091086894273758,-0.32435011863708496
1782836912074320400,5.5533203125,0.6233915686607361,0.23685094714164734,0.06337930262088776
1782836912084249300,5.563249267578125,0.5058412551879883,0.41984179615974426,0.3534473478794098
1782836912094178600,5.573178466796875,0.28587135672569275,0.34730130434036255,0.35182613134384155
1782836912104107300,5.583107177734375,0.1645081639289856,0.141646146774292,0.08867092430591583
1782836912114036200,5.5930361328125,0.12677909433841705,-0.11511635035276413,-0.30691424012184143
1782836912123965200,5.602965087890625,0.09904014319181442,-0.22245906293392181,-0.7282204627990723
1782836912133894400,5.612894287109375,0.10654506087303162,-0.1284538358449936,-1.1129599809646606
1782836912143823400,5.6228232421875,0.21748223900794983,-0.037549763917922974,-1.3517022132873535
1782836912153752300,5.63275244140625,0.3882487714290619,-0.2157556116580963,-1.3088926076889038
1782836912163681300,5.642681396484375,0.5129971504211426,-0.6150742173194885,-1.0662789344787598
1782836912173610500,5.652610595703125,0.6277810335159302,-0.8441525101661682,-0.6265133023262024
1782836912183539500,5.66253955078125,0.6944271326065063,-0.7587829828262329,-0.10859021544456482
1782836912193468400,5.672468505859375,0.676788330078125,-0.5102298855781555,0.3081635534763336
1782836912203397400,5.6823974609375,0.5611740946769714,-0.21384510397911072,0.5683509111404419
1782836912213326300,5.692326416015625,0.32469895482063293,-0.05087650194764137,0.6107224225997925
1782836912223255300,5.70225537109375,0.05264588072896004,-0.017145972698926926,0.4292791485786438
1782836912233184300,5.712184326171875,-0.052132390439510345,0.020289773121476173,0.15555493533611298
1782836912243113200,5.72211328125,0.03122667968273163,0.11174352467060089,-0.150171160697937
1782836912253042200,5.732042236328125,0.19189918041229248,0.2310650795698166,-0.3841691017150879
1782836912262971400,5.741971435546875,0.3278370499610901,0.2911086976528168,-0.4574454426765442
1782836912272900400,5.751900390625,0.3805939853191376,0.26276707649230957,-0.3523167669773102
1782836912282830300,5.761830322265625,0.34419628977775574,0.15692481398582458,-0.12329903244972229
1782836912292759300,5.77175927734375,0.28388381004333496,0.007669463753700256,0.14626668393611908
1782836912302688300,5.781688232421875,0.21727845072746277,-0.18915997445583344,0.3793920874595642
1782836912312617200,5.7916171875,0.1582746058702469,-0.34362491965293884,0.5027536153793335
1782836912322546200,5.801546142578125,0.10567077994346619,-0.3301927447319031,0.48634830117225647
1782836912332475400,5.811475341796875,0.07010230422019958,-0.12102063000202179,0.3742177188396454
1782836912342404400,5.821404296875,0.05741953104734421,0.15378297865390778,0.23578420281410217
1782836912352333300,5.831333251953125,0.030196066945791245,0.3352712392807007,0.11670823395252228
1782836912362262300,5.84126220703125,-0.012076822109520435,0.3979561924934387,0.02944203093647957
1782836912372191500,5.85119140625,-0.0464097335934639,0.3838929235935211,-0.03174285590648651
1782836912382120400,5.861120361328125,-0.07336411625146866,0.3203589618206024,-0.04359631985425949
1782836912392049400,5.87104931640625,-0.0995115339756012,0.16949735581874847,0.029602017253637314
1782836912401978400,5.880978271484375,-0.15268979966640472,-0.06860095262527466,0.13152198493480682
1782836912411907300,5.8909072265625,-0.21438828110694885,-0.35855385661125183,0.18091726303100586
1782836912421836300,5.900836181640625,-0.23508557677268982,-0.46910804510116577,0.218545600771904
1782836912431765200,5.91076513671875,-0.14754536747932434,-0.24764789640903473,0.31005415320396423
1782836912441694200,5.920694091796875,-0.026860229671001434,0.1051034927368164,0.42889663577079773
1782836912451623400,5.93062353515625,0.04322567954659462,0.35914143919944763,0.5529066920280457
1782836912461556500,5.940556396484375,0.05268895626068115,0.6897076368331909,0.6489615440368652
1782836912471485400,5.9504853515625,0.07676026970148087,0.9845722317695618,0.6896944642066956
1782836912481414400,5.960414306640625,0.13375698029994965,1.0186558961868286,0.6515516042709351
1782836912491343400,5.97034326171875,0.17639048397541046,0.7214099764823914,0.5455804467201233
1782836912501272300,5.980272216796875,0.17638249695301056,0.1332276463508606,0.2916475236415863
1782836912511201300,5.990201171875,0.10252130031585693,-0.4421994984149933,-0.11381000280380249
1782836912521130200,6.000130126953125,0.07516158372163773,-0.5311495661735535,-0.4658015966415405
1782836912531059200,6.01005908203125,0.04656924679875374,0.07954727113246918,-0.5347614884376526
1782836912540988400,6.019988525390625,-0.02454167976975441,0.8748132586479187,-0.3585263192653656
1782836912550917400,6.02991748046875,-0.1295049786567688,1.1272656917572021,-0.21798977255821228
1782836912560846300,6.039846435546875,-0.14319682121276855,0.7202062010765076,-0.27722540497779846
1782836912570775300,6.049775390625,0.009486934170126915,0.23686550557613373,-0.43416503071784973
1782836912580704500,6.05970458984375,0.21681907773017883,-0.05286484584212303,-0.5668013691902161
1782836912590633500,6.069633544921875,0.3984757363796234,-0.3911170959472656,-0.5577165484428406
1782836912600562400,6.0795625,0.5662711262702942,-0.6598619818687439,-0.37444257736206055
1782836912610491400,6.089491455078125,0.6519326567649841,-0.9275712370872498,-0.27481499314308167
1782836912620420400,6.09942041015625,0.6259990930557251,-1.2340201139450073,-0.413542777299881
1782836912630349300,6.109349365234375,0.5281047224998474,-1.3946354389190674,-0.7077178359031677
1782836912640278300,6.1192783203125,0.42686888575553894,-1.1249946355819702,-0.8975191712379456
1782836912650207200,6.129207275390625,0.2904849946498871,-0.6231649518013,-0.8945292830467224
1782836912660136200,6.13913623046875,0.07635540515184402,0.07223565131425858,-0.7460399270057678
1782836912670066400,6.14906640625,-0.21601593494415283,0.6979215145111084,-0.5763368606567383
1782836912679995400,6.158995361328125,-0.4938158392906189,0.9089536070823669,-0.4465141296386719
1782836912689924400,6.16892431640625,-0.6356022357940674,0.6633198261260986,-0.3627205491065979
1782836912699853300,6.178853271484375,-0.5998839139938354,0.17628468573093414,-0.3150305449962616
1782836912709782300,6.1887822265625,-0.4014142155647278,-0.2869957983493805,-0.29335662722587585
1782836912719711200,6.198711181640625,-0.12728597223758698,-0.5947030186653137,-0.2983340919017792
1782836912729640200,6.20864013671875,0.12847629189491272,-0.6823658347129822,-0.2819281816482544
1782836912739569400,6.2185693359375,0.29804161190986633,-0.5540592670440674,-0.2221873700618744
1782836912749498400,6.228498291015625,0.306991308927536,-0.2990866005420685,-0.16336177289485931
1782836912759427300,6.23842724609375,0.16650132834911346,0.032488930970430374,-0.0773688405752182
1782836912769355300,6.248355224609375,-0.047849737107753754,0.39194434881210327,0.018476497381925583
1782836912779284200,6.2582841796875,-0.28879019618034363,0.6265760064125061,0.09547514468431473
1782836912789213400,6.26821337890625,-0.4965258240699768,0.6492080092430115,0.1390492171049118
1782836912799142400,6.278142333984375,-0.6089082956314087,0.522067129611969,0.16794931888580322
1782836912809071400,6.2880712890625,-0.5979958772659302,0.29785266518592834,0.1850450187921524
1782836912819000300,6.298000244140625,-0.46405062079429626,0.09702954441308975,0.20841717720031738
1782836912828929500,6.307929443359375,-0.24055813252925873,-0.02068874053657055,0.2455398440361023
1782836912838858200,6.317858154296875,0.006608788855373859,-0.08801504969596863,0.27263087034225464
1782836912848787200,6.327787109375,0.21118667721748352,-0.10289233922958374,0.23757052421569824
1782836912858716200,6.337716064453125,0.3612009584903717,-0.04493875056505203,0.1740509271621704
1782836912868645400,6.347645263671875,0.4093838036060333,0.07084041833877563,0.10494650900363922
1782836912878574300,6.35757421875,0.3871658444404602,0.224132239818573,0.07740171253681183
1782836912888503300,6.36750341796875,0.3190827965736389,0.3829644024372101,0.10053569078445435
1782836912898432300,6.377432373046875,0.21268099546432495,0.4542465806007385,0.1965349316596985
1782836912908362500,6.387362548828125,0.1292632818222046,0.4018796384334564,0.3549872934818268
1782836912918291500,6.39729150390625,0.09649735689163208,0.2509910464286804,0.568244457244873
1782836912928220200,6.40722021484375,0.06390179693698883,0.04756158962845802,0.7572649121284485
1782836912938149400,6.4171494140625,0.08437778055667877,-0.14796636998653412,0.8622368574142456
1782836912948078300,6.427078369140625,0.1854352056980133,-0.1579122692346573,0.8509976863861084
1782836912958007300,6.43700732421875,0.32262903451919556,-0.0200705137103796,0.7420666813850403
1782836912967936300,6.446936279296875,0.395328551530838,0.09707509726285934,0.5198556184768677
1782836912977865200,6.456865234375,0.41001027822494507,0.17349742352962494,0.2114008367061615
1782836912987794400,6.46679443359375,0.30157119035720825,0.3606122136116028,-0.12638986110687256
1782836912997723400,6.476723388671875,0.09391279518604279,0.6147696375846863,-0.40836191177368164
1782836913007652400,6.48665234375,-0.09626587480306625,0.7196856141090393,-0.6642330884933472
1782836913017581300,6.496581298828125,-0.20637798309326172,0.5828422904014587,-0.8449490666389465
1782836913027510500,6.506510498046875,-0.21922579407691956,0.22510680556297302,-0.8167619705200195
1782836913037439200,6.516439208984375,-0.1931137591600418,-0.3409350514411926,-0.5905314683914185
1782836913047368200,6.5263681640625,-0.13251148164272308,-0.8966251611709595,-0.29885828495025635
1782836913057297200,6.536297119140625,-0.03795835003256798,-1.2507153749465942,-0.08569008857011795
1782836913067226400,6.546226318359375,-0.015393927693367004,-1.2984389066696167,-0.1353367120027542
1782836913077155300,6.5561552734375,0.011878440156579018,-0.8618794679641724,-0.35933464765548706
1782836913087084300,6.566084228515625,0.06263699382543564,-0.1833197921514511,-0.5464776158332825
1782836913097013200,6.57601318359375,0.06631162017583847,0.20072881877422333,-0.5914091467857361
1782836913106942500,6.5859423828125,0.011814529076218605,0.2349570244550705,-0.4886520504951477
1782836913116871400,6.595871337890625,-0.05944686755537987,-0.013104453682899475,-0.3831498324871063
1782836913126800400,6.60580029296875,-0.0510287843644619,-0.3289071023464203,-0.2631170153617859
1782836913136729300,6.615729248046875,0.018858421593904495,-0.5545729994773865,-0.08575500547885895
1782836913146659300,6.625659423828125,0.047958146780729294,-0.6702463626861572,0.1318952590227127
1782836913156588300,6.63558837890625,-0.010111812502145767,-0.6230807304382324,0.32984936237335205
1782836913166517200,6.645517333984375,-0.14661327004432678,-0.44301286339759827,0.4625239968299866
1782836913176446500,6.655446533203125,-0.3252836763858795,-0.2749466300010681,0.4976465404033661
1782836913186375400,6.66537548828125,-0.43258050084114075,-0.19693100452423096,0.4654291570186615
1782836913196304400,6.675304443359375,-0.40266841650009155,-0.2566729187965393,0.37776827812194824
1782836913206233300,6.6852333984375,-0.35044485330581665,-0.403042733669281,0.20202024281024933
1782836913216162600,6.69516259765625,-0.29920694231987,-0.47425514459609985,-0.03655876964330673
1782836913226091300,6.70509130859375,-0.2184130847454071,-0.4044191837310791,-0.2666025161743164
1782836913236020200,6.715020263671875,-0.128445103764534,-0.2132422924041748,-0.42376071214675903
1782836913245949200,6.72494921875,-0.08198533952236176,-0.03567782789468765,-0.46446752548217773
1782836913255878400,6.73487841796875,-0.09379459917545319,0.03415185213088989,-0.3725368082523346
1782836913265807400,6.744807373046875,-0.10659321397542953,0.08770295977592468,-0.20011655986309052
1782836913275736300,6.754736328125,-0.1506355106830597,0.23210088908672333,-0.0653049498796463
1782836913285665300,6.764665283203125,-0.2121877819299698,0.4196605086326599,-0.01699788123369217
1782836913295594500,6.774594482421875,-0.2710193991661072,0.57701575756073,-0.02873602882027626
1782836913305523500,6.7845234375,-0.33125925064086914,0.6907550692558289,-0.034962840378284454
1782836913315452400,6.794452392578125,-0.3754799962043762,0.7078242897987366,0.011471772566437721
1782836913325381400,6.80438134765625,-0.3850254714488983,0.6207154393196106,0.10058648139238358
1782836913335310300,6.814310302734375,-0.321463018655777,0.46541082859039307,0.21718180179595947
1782836913345239300,6.8242392578125,-0.21462200582027435,0.2841905355453491,0.3628085255622864
1782836913355168300,6.834168212890625,-0.11605735123157501,0.13227955996990204,0.5328191518783569
1782836913365097200,6.84409716796875,-0.05134689435362816,0.05731157958507538,0.7047821283340454
1782836913375026200,6.854026123046875,-0.04539685696363449,0.026739826425909996,0.8245418071746826
1782836913384956400,6.863956298828125,-0.07042648643255234,0.023477964103221893,0.8488957285881042
1782836913394885400,6.873885498046875,-0.08340513706207275,0.12719210982322693,0.786152720451355
1782836913404814300,6.883814453125,-0.10602234303951263,0.35470184683799744,0.6480239629745483
1782836913414743300,6.893743408203125,-0.15483222901821136,0.6505148410797119,0.5143308639526367
1782836913424672300,6.90367236328125,-0.23762182891368866,0.8708834052085876,0.4279368221759796
1782836913434601200,6.913601318359375,-0.31434670090675354,0.8483618497848511,0.3799186944961548
1782836913444530200,6.9235302734375,-0.3879207968711853,0.5469096302986145,0.3013516962528229
1782836913454459400,6.93345947265625,-0.4695751965045929,0.14542849361896515,0.12082746624946594
1782836913464388400,6.943388427734375,-0.4533001780509949,-0.21026396751403809,-0.12192212045192719
1782836913474317300,6.9533173828125,-0.4042551517486572,-0.43669524788856506,-0.4273688495159149
1782836913484246300,6.963246337890625,-0.34277641773223877,-0.4420044720172882,-0.7711362242698669
1782836913494175500,6.973175537109375,-0.16540589928627014,-0.07452072203159332,-0.9916616678237915
1782836913504104400,6.9831044921875,0.08412041515111923,0.5479860305786133,-0.9407722353935242
1782836913514033400,6.993033447265625,0.31682130694389343,0.871309757232666,-0.7034851312637329
1782836913523962400,7.00296240234375,0.4419930875301361,0.6526682376861572,-0.47074347734451294
1782836913533891300,7.012891357421875,0.4654901325702667,0.17155618965625763,-0.23542176187038422
1782836913543820300,7.0228203125,0.4515814185142517,-0.1851278394460678,0.1424843668937683
1782836913553749200,7.032749267578125,0.45096516609191895,-0.4627290964126587,0.5596150159835815
1782836913563678200,7.04267822265625,0.48265400528907776,-0.542332649230957,0.832364559173584
1782836913573607400,7.052607421875,0.5872166156768799,-0.43957674503326416,0.9029591083526611
1782836913583536400,7.062536376953125,0.6334449052810669,-0.46360015869140625,0.732917308807373
1782836913593465300,7.07246533203125,0.6058708429336548,-0.6258569955825806,0.45044779777526855
1782836913603394300,7.082394287109375,0.5636093616485596,-0.7117379903793335,0.22310470044612885
1782836913613324300,7.09232421875,0.4951680302619934,-0.6665252447128296,0.12160418182611465
1782836913623253200,7.102253173828125,0.38672202825546265,-0.5374456644058228,0.16649581491947174
1782836913633182200,7.11218212890625,0.19079354405403137,-0.3882873058319092,0.2848629057407379
1782836913643111200,7.122111083984375,-0.08063561469316483,-0.1836690455675125,0.3422326147556305
1782836913653040400,7.132040283203125,-0.339538037776947,0.12401234358549118,0.29039230942726135
1782836913662969300,7.14196923828125,-0.43793171644210815,0.46278345584869385,0.2007250040769577
1782836913672898300,7.151898193359375,-0.4037875831127167,0.6323805451393127,0.0594501718878746
1782836913682827300,7.1618271484375,-0.34120631217956543,0.5054529309272766,-0.10938190668821335
1782836913692756500,7.171756591796875,-0.33376145362854004,0.2545181214809418,-0.3083285689353943
1782836913702685400,7.181685546875,-0.3760041892528534,0.10715891420841217,-0.521622359752655
1782836913712614400,7.191614501953125,-0.43619856238365173,0.16529439389705658,-0.7188451290130615
1782836913722543400,7.20154345703125,-0.49056586623191833,0.2896745502948761,-0.8418367505073547
1782836913732472300,7.211472412109375,-0.4798738360404968,0.37322962284088135,-0.8343029618263245
1782836913742401300,7.2214013671875,-0.43965575098991394,0.4079657196998596,-0.6812005639076233
1782836913752330200,7.231330322265625,-0.3452669382095337,0.45840224623680115,-0.35926011204719543
1782836913762259700,7.241259765625,-0.22758793830871582,0.541220486164093,0.04141664505004883
1782836913772189000,7.25118896484375,-0.13646842539310455,0.4975696802139282,0.4005867838859558
1782836913782118000,7.261117919921875,-0.024348169565200806,0.264924556016922,0.6794710159301758
1782836913792046800,7.271046875,0.06132838502526283,-0.004779911134392023,0.8195780515670776
1782836913801975800,7.280975830078125,0.12360600382089615,-0.1356792002916336,0.8199437856674194
1782836913811905000,7.290905029296875,0.1323571503162384,-0.14677046239376068,0.6408389806747437
1782836913821833700,7.300833740234375,0.11701931804418564,-0.1213817149400711,0.2865825891494751
1782836913831762700,7.3107626953125,0.13034629821777344,-0.06716295331716537,-0.11141911149024963
1782836913841693000,7.32069287109375,0.15963011980056763,0.06545411050319672,-0.395871639251709
1782836913851622000,7.330621826171875,0.15045394003391266,0.18832305073738098,-0.5154669880867004
1782836913861550800,7.34055078125,0.12405714392662048,0.22415220737457275,-0.4559068977832794
1782836913871479800,7.350479736328125,0.09766148775815964,0.20570902526378632,-0.268135130405426
1782836913881409000,7.360408935546875,0.0811869353055954,0.1554805487394333,-0.0040829298086464405
1782836913891338000,7.370337890625,0.0789932906627655,0.07129455357789993,0.3223966360092163
1782836913901266700,7.3802666015625,0.09099191427230835,-0.012580854818224907,0.6845027208328247
1782836913911195600,7.390195556640625,0.09598825871944427,-0.034117840230464935,1.006747841835022
1782836913921124900,7.400124755859375,0.07389244437217712,-0.014469103887677193,1.178087592124939
1782836913931053800,7.4100537109375,0.017454201355576515,-0.017571687698364258,1.15725839138031
1782836913940982800,7.419982666015625,-0.07938077300786972,0.07082943618297577,0.9272162914276123
1782836913950911700,7.429911865234375,-0.14374670386314392,0.2959022521972656,0.5218621492385864
1782836913960841000,7.439841064453125,-0.13743621110916138,0.4023531675338745,-0.025042008608579636
1782836913970770000,7.44977001953125,-0.10292378067970276,0.17677704989910126,-0.6797215342521667
1782836913980699000,7.459698974609375,-0.16917549073696136,-0.34046047925949097,-1.4338641166687012
1782836913990627800,7.4696279296875,-0.34541070461273193,-0.8159825205802917,-2.137366771697998
1782836914000557000,7.47955712890625,-0.42967063188552856,-0.7918989658355713,-2.3338427543640137
1782836914010485800,7.48948583984375,-0.32474634051322937,-0.40977632999420166,-1.93887197971344
1782836914020414700,7.499414794921875,-0.08953842520713806,-0.1768498569726944,-1.181527018547058
1782836914030343700,7.50934375,0.11390072107315063,-0.028707535937428474,-0.35700201988220215
1782836914040273000,7.51927294921875,0.20326367020606995,0.1275666356086731,0.2522432208061218
1782836914050201900,7.529201904296875,0.23810501396656036,0.3695928454399109,0.5050426721572876
1782836914060130800,7.539130859375,0.17356763780117035,0.5844830274581909,0.37566274404525757
1782836914070060800,7.549060791015625,0.07411321997642517,0.6975259780883789,0.06655468791723251
1782836914079990000,7.558989990234375,-0.006656787358224392,0.2321343719959259,-0.39435771107673645
1782836914089919000,7.5689189453125,-0.027154073119163513,-0.537059485912323,-0.9076228737831116
1782836914099847700,7.57884765625,0.07171570509672165,-0.9640089273452759,-1.2657567262649536
1782836914109776600,7.588776611328125,0.17278853058815002,-1.0938321352005005,-1.3996987342834473
1782836914119705900,7.598705810546875,0.21677324175834656,-0.9484586715698242,-1.2445212602615356
1782836914129634800,7.608634765625,0.23891742527484894,-0.558075487613678,-0.832443356513977
1782836914139563800,7.618563720703125,0.19209662079811096,-0.20869146287441254,-0.3585248291492462
1782836914149492700,7.62849267578125,0.05422263592481613,-0.127457857131958,-0.004106561187654734
1782836914159422000,7.638421875,-0.06140692159533501,-0.2696740925312042,0.19507144391536713
1782836914169351000,7.648350830078125,-0.1859954595565796,-0.45732441544532776,0.20342044532299042
1782836914179280000,7.65827978515625,-0.24921000003814697,-0.560716986656189,0.051456842571496964
1782836914189208800,7.668208740234375,-0.1990717202425003,-0.4536869525909424,-0.200778067111969
1782836914199138000,7.678137939453125,-0.09000597149133682,-0.20565645396709442,-0.4829314947128296
1782836914209066800,7.688066650390625,0.011171775870025158,0.019733533263206482,-0.6883832216262817
1782836914218995700,7.69799560546875,0.06786230951547623,0.13697680830955505,-0.734535813331604
1782836914228924700,7.707924560546875,0.06415652483701706,0.16396526992321014,-0.6336094737052917
1782836914238854000,7.71785400390625,0.04348650202155113,0.1755913496017456,-0.41360440850257874
1782836914248782800,7.727782958984375,0.03830345720052719,0.2297123670578003,-0.16330958902835846
1782836914258711800,7.7377119140625,0.07996568828821182,0.3186097741127014,0.09248901158571243
1782836914268640800,7.747640869140625,0.13692112267017365,0.3530023694038391,0.3389832079410553
1782836914278570000,7.757570068359375,0.20066210627555847,0.3081566095352173,0.5284401774406433
1782836914288499000,7.7674990234375,0.28481239080429077,0.28968143463134766,0.6011852025985718
1782836914298428000,7.777427978515625,0.3411295413970947,0.2987351715564728,0.6256987452507019
1782836914308358000,7.78735791015625,0.356832355260849,0.34361740946769714,0.5915277600288391
1782836914318286800,7.797286865234375,0.36013320088386536,0.4187241792678833,0.5343426465988159
1782836914328215800,7.8072158203125,0.37772390246391296,0.49989891052246094,0.5090604424476624
1782836914338144800,7.817144775390625,0.3897290527820587,0.468683660030365,0.531971275806427
1782836914348073700,7.82707373046875,0.4201010465621948,0.28502726554870605,0.6372678875923157
1782836914358003000,7.8370029296875,0.4409193992614746,0.1131044551730156,0.8548834919929504
1782836914367932000,7.846931884765625,0.4112539291381836,0.09236428886651993,1.1551434993743896
1782836914377860900,7.85686083984375,0.31475692987442017,0.12190504372119904,1.413333773612976
1782836914387789800,7.866789794921875,0.21241669356822968,0.21471168100833893,1.497779369354248
1782836914397718800,7.87671875,0.1511426866054535,0.33557629585266113,1.4251066446304321
1782836914407647700,7.886647705078125,0.15188491344451904,0.3355826735496521,1.2870023250579834
1782836914417576700,7.89657666015625,0.2087562084197998,0.30475592613220215,1.132676362991333
1782836914427505700,7.906505615234375,0.23859240114688873,0.29579466581344604,0.9456639885902405
1782836914437435000,7.916434814453125,0.24360108375549316,0.14771507680416107,0.7196608781814575
1782836914447363800,7.92636376953125,0.17282065749168396,-0.12228044867515564,0.45479223132133484
1782836914457292800,7.936292724609375,0.08924253284931183,-0.35105860233306885,0.19379980862140656
1782836914467221800,7.9462216796875,0.14613831043243408,-0.5570940375328064,0.05563660338521004
1782836914477151000,7.95615087890625,0.34517771005630493,-0.7132840156555176,0.11290115863084793
1782836914487080000,7.966079833984375,0.4799349904060364,-0.7922906875610352,0.2830507755279541
1782836914497009000,7.9760087890625,0.4378712773323059,-0.7244914770126343,0.3030795156955719
1782836914506937900,7.985937744140625,0.31528440117836,-0.5083485245704651,-0.13887368142604828
1782836914516866800,7.99586669921875,0.2373991459608078,0.008470756001770496,-0.8454309105873108
1782836914526795800,8.005795654296875,0.1711769849061966,0.6780539155006409,-1.365686058998108
1782836914536725800,8.015725830078125,0.14382866024971008,1.1327149868011475,-1.4168950319290161
1782836914546655000,8.025655029296875,0.2229844629764557,1.3050403594970703,-1.0271294116973877
1782836914556584000,8.035583984375,0.3507212996482849,1.2966656684875488,-0.4871864318847656
1782836914566513000,8.045512939453126,0.48902884125709534,1.001666784286499,-0.05335723236203194
1782836914576441900,8.05544189453125,0.5616801977157593,0.3913838565349579,0.15691323578357697
1782836914586371000,8.06537109375,0.593447208404541,-0.3408392369747162,0.17812477052211761
1782836914596299800,8.0752998046875,0.5386947989463806,-1.0084036588668823,0.05059198662638664
1782836914606228700,8.085228759765625,0.3544498085975647,-1.4420655965805054,-0.17997783422470093
1782836914616157700,8.09515771484375,0.1316278725862503,-1.5260943174362183,-0.4439986050128937
1782836914626087000,8.1050869140625,-0.06757150590419769,-1.3674346208572388,-0.667785108089447
1782836914636015900,8.115015869140626,-0.27169230580329895,-1.1263647079467773,-0.8037635684013367
1782836914645944800,8.12494482421875,-0.46871110796928406,-0.8706548810005188,-0.8526586890220642
1782836914655873800,8.134873779296875,-0.5803012847900391,-0.7162692546844482,-0.8242924213409424
1782836914665803000,8.144802978515624,-0.5528757572174072,-0.6777125597000122,-0.777169942855835
1782836914675732000,8.15473193359375,-0.42488861083984375,-0.6894387602806091,-0.7267758250236511
1782836914685661000,8.164660888671875,-0.2891603410243988,-0.5589436292648315,-0.6630247831344604
1782836914695590000,8.17458984375,-0.18460777401924133,-0.2846067249774933,-0.5510050654411316
1782836914705518800,8.184518798828124,-0.1982535421848297,0.07849875837564468,-0.45968714356422424
1782836914715447800,8.19444775390625,-0.28741756081581116,0.32847920060157776,-0.34311139583587646
1782836914725376800,8.204376708984375,-0.3781759738922119,0.4606817066669464,-0.24578137695789337
1782836914735305700,8.2143056640625,-0.40063339471817017,0.5602930784225464,-0.173956498503685
1782836914745234700,8.224234619140624,-0.38159793615341187,0.6052930355072021,-0.09906894713640213
1782836914755164000,8.234163818359375,-0.3654801547527313,0.5189668536186218,-0.028027478605508804
1782836914765090000,8.244090087890624,-0.32069215178489685,0.3136565685272217,0.023896170780062675
1782836914775019300,8.254019287109376,-0.24593287706375122,0.11431863903999329,0.09996713697910309
1782836914784948200,8.2639482421875,-0.1407739818096161,-0.03042443096637726,0.18398959934711456
1782836914794877000,8.273876953125,-0.01839767023921013,-0.13100756704807281,0.2388884276151657
1782836914804806000,8.283805908203124,0.08997327834367752,-0.14602673053741455,0.25104445219039917
1782836914814735000,8.293735107421876,0.16476811468601227,-0.025930237025022507,0.21718338131904602
1782836914824664000,8.3036640625,0.2207254022359848,0.1683891862630844,0.17323508858680725
1782836914834593000,8.313593017578125,0.24350407719612122,0.38777491450309753,0.1431284099817276
1782836914844522000,8.32352197265625,0.21203722059726715,0.4869012236595154,0.14500834047794342
1782836914854451200,8.333451171875,0.15510673820972443,0.4365519881248474,0.2285386174917221
1782836914864380200,8.343380126953125,0.09435310959815979,0.3068981170654297,0.3631494343280792
1782836914874309000,8.35330908203125,0.024108372628688812,0.08421431481838226,0.4841233193874359
1782836914884238000,8.363238037109374,-0.0021570539101958275,-0.12930622696876526,0.5737224221229553
1782836914894167300,8.373167236328126,0.030715014785528183,-0.18565669655799866,0.6492890119552612
1782836914904096000,8.383095947265625,0.08826912194490433,-0.16841033101081848,0.6812000274658203
1782836914914025000,8.39302490234375,0.11117033660411835,-0.15982834994792938,0.6874988079071045
1782836914923954000,8.402953857421876,0.12336495518684387,-0.08710647374391556,0.6978140473365784
1782836914933883100,8.412883056640625,0.13612914085388184,0.009659281000494957,0.691685676574707
1782836914943812000,8.42281201171875,0.1564570665359497,0.1228707954287529,0.6233593225479126
1782836914953741000,8.432740966796874,0.1637304723262787,0.2198750376701355,0.5211476683616638
1782836914963670000,8.442669921875,0.12772348523139954,0.20534642040729523,0.3796270191669464
1782836914973599200,8.45259912109375,0.07822174578905106,0.08455034345388412,0.17779524624347687
1782836914983529200,8.462529296875,0.07223575562238693,-0.11191104352474213,-0.07343566417694092
1782836914993458000,8.4724580078125,0.14846031367778778,-0.37027305364608765,-0.3130229413509369
1782836915003387000,8.482386962890626,0.28065723180770874,-0.4084492027759552,-0.497606098651886
1782836915013316000,8.492316162109375,0.3362552225589752,-0.1418614685535431,-0.5690557360649109
1782836915023245000,8.5022451171875,0.34149181842803955,0.45062848925590515,-0.486895352602005
1782836915033174000,8.512174072265625,0.36789068579673767,1.194264531135559,-0.2393224537372589
1782836915043103000,8.52210302734375,0.48108354210853577,1.5788114070892334,0.1151333749294281
1782836915053032200,8.5320322265625,0.6073005199432373,1.2032644748687744,0.41300642490386963
1782836915062961200,8.541961181640625,0.6263594031333923,0.23580297827720642,0.5931509137153625
1782836915072890000,8.55189013671875,0.5802885293960571,-0.7650497555732727,0.6143192052841187
1782836915082819000,8.561819091796876,0.5332584381103516,-1.6691765785217285,0.3656236529350281
1782836915092748300,8.571748291015625,0.5285237431526184,-2.314911365509033,-0.1311093270778656
1782836915102677000,8.581677001953125,0.500241756439209,-2.2708964347839355,-0.6007927060127258
1782836915112606000,8.59160595703125,0.3425871729850769,-1.5934250354766846,-0.8360150456428528
1782836915122535000,8.601534912109376,0.12087210267782211,-0.7612104415893555,-0.8220161199569702
1782836915132464000,8.611464111328125,0.010134968906641006,-0.07887519150972366,-0.5911844968795776
1782836915142393000,8.62139306640625,0.012606915086507797,0.15357403457164764,-0.2928673028945923
1782836915152322000,8.631322021484374,-0.0069762784987688065,-0.0965242087841034,-0.0543459951877594
1782836915162251000,8.6412509765625,-0.15651170909404755,-0.5762527585029602,-0.004491620697081089
1782836915172180200,8.65118017578125,-0.42125406861305237,-0.98630291223526,-0.2659750282764435
1782836915182109200,8.661109130859375,-0.6278154850006104,-1.1901718378067017,-0.831211268901825
1782836915192038100,8.6710380859375,-0.6363442540168762,-1.1277304887771606,-1.5393571853637695
1782836915201967000,8.680967041015625,-0.49357911944389343,-0.8076145648956299,-2.1710901260375977
1782836915211897000,8.69089697265625,-0.2827441096305847,-0.3167934715747833,-2.458953619003296
1782836915221826000,8.700825927734375,-0.06833192706108093,0.19934073090553284,-2.2686715126037598
1782836915231755000,8.710755126953124,0.09211625903844833,0.6206191182136536,-1.687226414680481
1782836915241684200,8.720684326171876,0.1657247096300125,0.7486814856529236,-0.8793526887893677
1782836915251613200,8.73061328125,0.1365879774093628,0.643197774887085,-0.00523537490516901
1782836915261542100,8.740542236328125,0.05160171538591385,0.3686996102333069,0.7734811902046204
1782836915271471000,8.75047119140625,-0.059800297021865845,-0.062080901116132736,1.3430743217468262
1782836915281400300,8.760400390625,-0.17154920101165771,-0.4019085168838501,1.6128261089324951
1782836915291329000,8.7703291015625,-0.22210460901260376,-0.45657119154930115,1.5167394876480103
1782836915301258000,8.780258056640625,-0.13711701333522797,-0.18591412901878357,1.1091954708099365
1782836915311187000,8.79018701171875,-0.01764693856239319,0.19242100417613983,0.5402490496635437
1782836915321116000,8.800115966796875,0.06697660684585571,0.5308720469474792,-0.015406440943479538
1782836915331045000,8.810045166015625,0.13164497911930084,0.6737735271453857,-0.4421909749507904
1782836915340974000,8.81997412109375,0.1518740952014923,0.5411376953125,-0.6814893484115601
1782836915350903000,8.829903076171876,0.12288480997085571,0.3257099688053131,-0.7052550315856934
1782836915360832000,8.83983203125,0.05587727576494217,0.1875464916229248,-0.5070458054542542
1782836915370761200,8.84976123046875,-0.01650301367044449,0.1062248945236206,-0.14446648955345154
1782836915380690200,8.859690185546874,-0.06895609945058823,0.08569751679897308,0.3202495276927948
1782836915390619100,8.869619140625,-0.06699090451002121,0.17747069895267487,0.8032724857330322
1782836915400548000,8.879548095703125,-0.019420459866523743,0.33101844787597656,1.2148319482803345
1782836915410477000,8.88947705078125,0.011784740723669529,0.5192018151283264,1.467604398727417
1782836915420406000,8.899406005859374,-0.01658644527196884,0.6822914481163025,1.5247060060501099
1782836915430335000,8.9093349609375,-0.06840312480926514,0.8189111351966858,1.4373337030410767
1782836915440265200,8.91926513671875,-0.12236249446868896,0.9479974508285522,1.2829716205596924
1782836915450194200,8.929194091796875,-0.1770509034395218,1.0224132537841797,1.1322643756866455
1782836915460123100,8.939123046875,-0.21604064106941223,0.9221292734146118,1.003282904624939
1782836915470052000,8.949052001953126,-0.20583823323249817,0.6811714768409729,0.8861353993415833
1782836915479981300,8.958981201171875,-0.15314173698425293,0.4986424446105957,0.7721707820892334
1782836915489910000,8.968909912109375,-0.057149194180965424,0.45643550157546997,0.6487521529197693
1782836915499839000,8.9788388671875,0.040436215698719025,0.4614869952201843,0.46329596638679504
1782836915509768000,8.988767822265626,0.09028896689414978,0.4302959442138672,0.2056979238986969
1782836915519697200,8.998697265625,0.19725055992603302,0.366130530834198,-0.06657993793487549
1782836915529626000,9.008626220703125,0.39228227734565735,0.3082369267940521,-0.30475854873657227
1782836915539555000,9.01855517578125,0.6027074456214905,0.20731030404567719,-0.48330673575401306
1782836915549484000,9.028484130859376,0.7782010436058044,0.16389228403568268,-0.465320885181427
1782836915559413200,9.038413330078125,0.8411989212036133,0.4268046021461487,-0.13089175522327423
1782836915569342200,9.04834228515625,0.7408189177513123,0.8520515561103821,0.3868618309497833
1782836915579271200,9.058271240234374,0.5168204307556152,1.2145456075668335,0.834928035736084
1782836915589200100,9.0682001953125,0.3320149779319763,1.3110382556915283,1.0783560276031494
1782836915599129000,9.078129150390625,0.2651968002319336,1.1235445737838745,1.1346182823181152
1782836915609058000,9.08805810546875,0.29421913623809814,0.6218780279159546,1.0361862182617188
1782836915618987000,9.097987060546876,0.3166842460632324,-0.07371678948402405,0.7734222412109375
1782836915628916000,9.107916015625,0.2388715147972107,-0.8482143878936768,0.2547430098056793
1782836915638845200,9.11784521484375,0.11909318715333939,-1.5737314224243164,-0.5204482674598694
1782836915648774100,9.127774169921874,0.03695843368768692,-1.901601791381836,-1.3224728107452393
1782836915658704100,9.1377041015625,-0.014753760769963264,-1.6752599477767944,-1.852494239807129
1782836915668633000,9.147633056640625,-0.08508892357349396,-1.0808632373809814,-1.973285436630249
1782836915678562000,9.15756201171875,-0.21658623218536377,-0.27518507838249207,-1.804943561553955
1782836915688491000,9.167490966796874,-0.3660769462585449,0.3467230796813965,-1.4985426664352417
1782836915698420000,9.177419921875,-0.490365594625473,0.7264911532402039,-1.1112945079803467
1782836915708349000,9.187348876953125,-0.5904898047447205,0.9394688010215759,-0.738433837890625
1782836915718278100,9.197278076171875,-0.659555971622467,0.8732975125312805,-0.4391120970249176
1782836915728207000,9.20720703125,-0.6993028521537781,0.5087107419967651,-0.23250088095664978
1782836915738136000,9.217135986328126,-0.6723788380622864,0.08820799738168716,-0.06689327210187912
1782836915748065000,9.22706494140625,-0.6257829666137695,-0.202860489487648,0.016920113936066628
1782836915757994200,9.236994140625,-0.5831702351570129,-0.26500722765922546,0.004314840771257877
1782836915767923200,9.246923095703124,-0.5712974071502686,-0.19754207134246826,-0.15992242097854614
1782836915777852200,9.25685205078125,-0.49227797985076904,-0.06640749424695969,-0.5355578660964966
1782836915787781000,9.266781005859375,-0.3143743872642517,0.19555477797985077,-0.9014716148376465
1782836915797710000,9.2767099609375,-0.09233013540506363,0.3295309543609619,-1.110286831855774
1782836915807639000,9.28663916015625,0.06184517592191696,0.17797398567199707,-1.0886175632476807
1782836915817568000,9.296568115234376,0.13933198153972626,0.024834491312503815,-0.7885384559631348
1782836915827497000,9.3064970703125,0.15417243540287018,-0.1219492182135582,-0.33016732335090637
1782836915837426200,9.31642626953125,0.11178211867809296,-0.32216912508010864,0.14100125432014465
1782836915847355100,9.326355224609374,0.01783275417983532,-0.5285667777061462,0.447731077671051
1782836915857284000,9.3362841796875,-0.07485537230968475,-0.508629560470581,0.5792545080184937
1782836915867213000,9.346213134765625,-0.1598576456308365,-0.14820726215839386,0.6084799766540527
1782836915877143000,9.35614306640625,-0.15836095809936523,0.2923722565174103,0.590957760810852
1782836915887072000,9.366072021484374,-0.11593881994485855,0.6490836143493652,0.6229087114334106
1782836915897001000,9.3760009765625,-0.05144796893000603,0.5173021554946899,0.7062196135520935
1782836915906930000,9.385929931640625,0.12295506149530411,0.07811268419027328,0.8149037957191467
1782836915916859100,9.395859130859375,0.38277891278266907,-0.3491308093070984,0.8593857884407043
