time,seconds_elapsed,z,y,x
1782831924301511700,0.08351171875,-0.7707821279227733,-0.7311556354552508,-0.48015324126072223
1782831924311440600,0.093440673828125,-0.12233575533628463,0.5963631341278552,-0.25867957775890826
1782831924321369600,0.10336962890625,1.0990040284633635,0.954364671382308,0.325869638326019
1782831924331298800,0.113298828125,2.3255443035155534,1.495802037101984,1.0122073501504958
1782831924341227800,0.123227783203125,1.6235685853153465,3.318269685213268,1.0114088932491838
1782831924351156700,0.13315673828125,-1.161154487428069,3.7610616755247115,0.3201248110637069
1782831924361085700,0.143085693359375,-1.619975529259443,2.3982982818201184,-1.256665364202857
1782831924371015000,0.153014892578125,-0.21568039398789404,1.0926526136100292,-1.4519672792896627
1782831924380944000,0.16294384765625,0.7472551218628883,0.6712552935048938,-0.7942486359670757
1782831924390872800,0.172872802734375,0.3690256200939417,0.319453195412457,-0.15746069860085843
1782831924400801500,0.182801513671875,0.5413701457023621,0.1096601058974862,0.2761716875687241
1782831924410730800,0.192730712890625,1.335812550675869,0.4640978131905198,0.1800266045436263
1782831924420659700,0.20265966796875,1.8237562266170977,0.5146013812422752,0.08152472925931215
1782831924430588700,0.212588623046875,2.297498943248391,0.633721389402449,0.17941110299378632
1782831924440517600,0.222517578125,2.348520105433464,1.6199857583925128,0.47680283485427494
1782831924450446800,0.23244677734375,2.0691887847900388,2.7749223942190406,0.7772086538389325
1782831924460375800,0.242375732421875,1.8388894983410835,2.7041695266038177,0.11772986897602676
1782831924470304800,0.2523046875,0.7346002229511738,1.0939458682909606,-0.5738384369783103
1782831924480233700,0.262233642578125,-0.7738111203551292,0.6001935060709714,-0.7994381674341857
1782831924490162700,0.27216259765625,-0.9139134185284375,0.9095794809773564,-0.4217833968132734
1782831924500092000,0.282091796875,-0.2970154458940029,1.0084455133989452,0.22851327981501815
1782831924510020600,0.2920205078125,-0.6151163499146699,0.7889654348671435,0.4670750754356384
1782831924519949600,0.301949462890625,-0.8619295487910509,0.4064323906853795,0.5766213456951081
1782831924529878500,0.31187841796875,-0.16537293303012848,0.21605624156296252,0.8950390605799853
1782831924539807700,0.321807861328125,0.8691033859431743,0.3870440918654203,1.155054124726355
1782831924549736700,0.33173681640625,1.8963444929659365,0.787618111911416,0.5917375201538205
1782831924559665700,0.341665771484375,1.8715479053616522,0.9320701297268271,0.1827595366388559
1782831924569594600,0.3515947265625,2.1174112561672924,1.3287874743446706,0.3126476801160723
1782831924579523800,0.36152392578125,2.822337640866637,1.9089348022088408,0.6273703398752957
1782831924589452800,0.371452880859375,3.788870304426551,1.8532801350042223,0.969353566199541
1782831924599381800,0.3813818359375,4.087387971577048,1.3501613940238952,0.8325418340042233
1782831924609310700,0.391310791015625,2.763879606679082,0.8668488850146532,0.35760815402269364
1782831924619239700,0.40123974609375,-0.3295686389744282,0.42787353038191794,0.379690075840801
1782831924629167900,0.41116796875,-1.9991104554355144,0.09855828164666891,0.7093170208737254
1782831924639096800,0.421096923828125,-0.538776037555933,-0.19308716164678333,0.8390184826724231
1782831924649025800,0.43102587890625,1.2400433152258394,-0.4219365415483713,0.8447714932411908
1782831924658954500,0.44095458984375,1.1644710646301508,-0.34444559784978623,0.634178850846365
1782831924668883700,0.4508837890625,0.5455658438265323,0.16878244921267033,0.36341961678043005
1782831924678812700,0.460812744140625,0.9544663781911135,0.9310676746860146,-0.012711743665486573
1782831924688741600,0.47074169921875,1.3342951318502425,1.6832906480893493,-0.7745959871225059
1782831924698670600,0.480670654296875,-0.02933247746825218,1.9414818578094244,-1.1556800015397368
1782831924708599800,0.490599853515625,-1.9126327799439429,1.50344670663625,-1.0774470073021947
1782831924718528800,0.50052880859375,-3.283701352918148,0.6548012945711612,-1.1140874696962535
1782831924728457700,0.510457763671875,-3.130268448528647,-0.3756735336758196,-0.9686912298332899
1782831924738386700,0.52038671875,-2.4383804091006516,-1.1162126451566814,-0.5806098673420027
1782831924748316000,0.53031591796875,-1.9109622163832187,-0.7744387507341801,-0.33397976994756606
1782831924758244900,0.540244873046875,-2.203685518041253,0.3984067590095103,-0.1493741670506075
1782831924768173600,0.550173583984375,-2.3203180932998655,0.8221538571111857,0.24576821986809372
1782831924778102500,0.5601025390625,-0.8993576544314622,0.4685264432877302,0.2697931289801374
1782831924788031700,0.57003173828125,0.682176208230853,0.4674133674792945,0.2407933905975893
1782831924797960700,0.579960693359375,1.5827268718391656,0.7160720480918884,0.0027838220322504636
1782831924807889700,0.5898896484375,1.6905062785565852,0.825676478279382,0.004554156173020601
1782831924817818600,0.599818603515625,1.9758815555393694,0.8670958455130457,0.5446220601703972
1782831924827747600,0.60974755859375,1.976243959110975,0.8973477759137749,1.100767823265493
1782831924837676500,0.619676513671875,1.1433359221428632,0.8048283360399305,1.5208052531942724
1782831924847605800,0.629605712890625,0.5750789385586976,0.43462592725157734,1.5356836733743549
1782831924857534700,0.63953466796875,1.7787562244176864,-0.0424441802367568,0.7351761231429874
1782831924867463700,0.649463623046875,3.1691099280983206,-0.5270544739715755,0.22622852987870573
1782831924877392600,0.659392578125,3.6659792532950637,-0.039878859793394804,0.09901537776440382
1782831924887321600,0.669321533203125,3.6890550084561107,1.4087841172538698,0.0487994675476104
1782831924897250600,0.67925048828125,3.618922903087735,2.1587278936788437,0.25060323880910873
1782831924907179500,0.689179443359375,2.8079963963031767,1.893393972597271,0.37428660936206576
1782831924917108500,0.6991083984375,2.544496266520023,1.230290275235474,0.10122998507395387
1782831924927037700,0.70903759765625,2.4763053583472967,1.023517118063569,-0.18026750062741337
1782831924936966700,0.718966552734375,2.0982424453169104,1.0056155506700277,-0.46192288030423223
1782831924946895600,0.7288955078125,2.411051672670245,0.9941175667084753,-0.6346284212447703
1782831924956824600,0.738824462890625,2.949102318561077,1.1788453346803784,-0.21626045889817178
1782831924966753800,0.74875390625,2.569333186134696,1.2123913381904363,0.48000623400546605
1782831924976682800,0.758682861328125,2.092082169121504,0.9842410464689135,1.02564127061069
1782831924986611700,0.76861181640625,1.2125602650165557,0.8087748817086219,1.3904745535813272
1782831924996540700,0.778540771484375,-0.37350948750972746,0.6656545508883893,1.2121357559941708
1782831925006469400,0.788469482421875,-2.1360195105254647,0.6387218280382454,0.31731782735157754
1782831925016398600,0.798398681640625,-3.835617442554235,0.5949940377317369,-0.6142310915127396
1782831925026327600,0.80832763671875,-6.600923867166042,0.29267741668969394,-1.1077614815451204
1782831925036256500,0.818256591796875,-10.278412940990924,-0.49750031657665966,-1.0071474364124238
1782831925046185500,0.828185546875,-12.650153763014078,-1.4948501432046293,-0.6820041395995765
1782831925056114700,0.83811474609375,-13.446688756352662,-1.960936207602918,-0.26460732384007424
1782831925066043600,0.848043701171875,-14.655014744800328,-1.9303966924324631,0.041318902533873915
1782831925075972600,0.85797265625,-15.22001477241516,-1.780095948588848,-0.006711882196180522
1782831925085901600,0.867901611328125,-15.14265446935892,-1.4132427040979265,-0.06166311383917927
1782831925095830800,0.877830810546875,-14.858489152687786,-1.0717840131044387,0.14941789659447968
1782831925105759700,0.887759765625,-14.05653330334425,-1.3263131931856273,0.2172984236437827
1782831925115688400,0.8976884765625,-13.335403971862792,-1.5568933424025773,0.41485652015954255
1782831925125617400,0.907617431640625,-12.716004830062388,-1.829253947250545,0.603080971140787
1782831925135546600,0.917546630859375,-11.714105085045098,-2.333254731762409,0.9446711795594542
1782831925145475600,0.9274755859375,-10.635055464851856,-2.8629350241929292,1.2362909769549966
1782831925155404500,0.937404541015625,-9.899867212879657,-3.070821987825632,1.597304847767949
1782831925165333500,0.94733349609375,-9.549587209787964,-3.289563522949815,1.959443484827131
1782831925175262700,0.9572626953125,-7.723878680059313,-2.7289041548877955,1.3552511183783411
1782831925185191700,0.967191650390625,-5.546866649410128,-1.3733631136521696,0.33161658448018133
1782831925195120600,0.97712060546875,-3.6048464469403028,-0.12291910818219184,-0.4284200583487749
1782831925205049600,0.987049560546875,-1.4331225858271122,0.3983557594746351,-0.6259728211022914
1782831925214978800,0.996978759765625,0.48786418096423145,0.6437246047616004,-0.5708288068335503
1782831925224907500,1.006907470703125,2.1307798563063143,0.7537351315319538,-0.8396272622205316
1782831925234836500,1.01683642578125,3.1002035651326176,0.6799389506980776,-0.8419755789123475
1782831925244765400,1.026765380859375,3.850674141910672,0.6969663656055927,-0.6261846372220665
1782831925254694700,1.036694580078125,4.786227729839086,0.9031146688774228,-0.04991616008523851
1782831925264623600,1.04662353515625,5.55960045877695,1.0868930271700024,0.30794213277362287
1782831925274552600,1.056552490234375,5.92902296923399,1.151152441112697,0.21058139034844933
1782831925284481500,1.0664814453125,6.188055013692378,1.114335453107953,0.10837634969726204
1782831925294410800,1.07641064453125,6.818434983712434,1.1564461636066437,0.16079901271071284
1782831925304339700,1.086339599609375,7.586166491892933,1.368311967742443,0.31508100821021945
1782831925314268700,1.0962685546875,8.470126086184383,1.5580831367090344,0.22240319943688808
1782831925324197600,1.10619775390625,9.077406335645913,1.6971826875805853,-0.1443374149924144
1782831925334126600,1.116126708984375,9.272994958719611,1.8512743481397627,-0.302143346834369
1782831925344055600,1.1260556640625,9.323810953721404,2.0720164094313978,-0.28250209616664795
1782831925353984500,1.135984619140625,9.124480806031823,2.362273028714955,-0.23333657178562134
1782831925363913500,1.14591357421875,8.488505207961797,2.7172347598820923,-0.18338344069086013
1782831925373842700,1.1558427734375,7.128871636715531,3.011762480613589,0.0732256144043058
1782831925383771600,1.165771728515625,5.430079760372639,2.8951854349344965,0.3640344607431441
1782831925393700600,1.17570068359375,4.724646595194936,2.305244735069573,0.5377322641240433
1782831925403629600,1.185629638671875,5.249388846701383,1.491490019121766,0.1552534708801657
1782831925413558800,1.195558837890625,5.6866082975775,0.9609247605502604,-0.6572741874907165
1782831925423486700,1.20548681640625,6.548779253908991,1.1254726409330964,-1.1203583666592836
1782831925433415700,1.215415771484375,6.44769846804738,1.8722089996188878,-1.0300680740769952
1782831925443344600,1.2253447265625,6.292378142476082,2.5272552088618276,-0.920886253215745
1782831925453273600,1.235273681640625,6.8164160451054565,2.80846605964154,-1.0182211305473
1782831925463202800,1.245202880859375,7.849404755869507,2.952776330898702,-1.022094391784072
1782831925473131800,1.2551318359375,8.559453890410065,3.1081063010811802,-0.869564573714137
1782831925483060500,1.265060546875,8.663035260915755,3.2461890761256216,-0.7764242254629731
1782831925492989400,1.274989501953125,8.517768711847067,3.5189763819530606,-0.31294381351843475
1782831925502918700,1.284918701171875,8.497851128455997,3.8164731816232202,0.5207218734165653
1782831925512847600,1.29484765625,8.239079196238517,3.9004894354373216,1.3921575382322071
1782831925522776600,1.304776611328125,7.219634442180395,3.553426056304574,1.578365754020214
1782831925532705500,1.31470556640625,6.233716110149025,3.1885362208411094,1.580937650334835
1782831925542634500,1.324634521484375,6.238163152685761,2.9651278629496693,0.7900276572711765
1782831925552563700,1.334563720703125,6.483472376739979,2.9684935399904844,-0.9805128927912562
1782831925562492700,1.34449267578125,6.75822221481204,3.2845918720170855,-1.7004923966504633
1782831925572421600,1.354421630859375,6.154021226665377,3.3078298320025206,-1.5388842229813335
1782831925582350600,1.3643505859375,4.1620811012506485,3.209719294123351,-0.5523143317060545
1782831925592279600,1.374279541015625,1.3297820383399723,2.664302795639634,0.19869232471007853
1782831925602208500,1.38420849609375,-0.6644955901116132,1.8338520886957643,-0.10429916338622569
1782831925612137500,1.394137451171875,-1.2265531345337628,1.3993319599062204,-0.5611711900416761
1782831925622066400,1.40406640625,-1.7525959472447632,1.6005147497251628,-0.46552872277647256
1782831925631995600,1.41399560546875,-3.338711292478442,1.3067498300597071,-0.40627778464555736
1782831925641924600,1.423924560546875,-5.847507300063968,0.15223141964524983,-0.8348837209552527
1782831925651853600,1.433853515625,-9.127349639466404,-1.4953089928880332,-0.8931550734642892
1782831925661782500,1.443782470703125,-13.903473908442258,-3.4089836831003426,-0.34755291621536016
1782831925671711700,1.453711669921875,-16.62046258460879,-5.233956299769878,0.4485710121043026
1782831925681640700,1.463640625,-15.356318262827395,-6.365524042707682,1.7877186985522509
1782831925691569700,1.473569580078125,-14.56144331165552,-6.92911244995892,2.519139706945419
1782831925701498600,1.48349853515625,-15.824581086742876,-6.962900737792253,2.822693614697456
1782831925711427600,1.493427490234375,-16.68165618124008,-6.392616632294654,2.916480736419558
1782831925721356500,1.5033564453125,-16.105934853124616,-5.703731281813979,2.6454075410336255
1782831925731285500,1.513285400390625,-14.097908100783824,-5.419783991807699,2.754571387846768
1782831925741214500,1.52321435546875,-11.555948659265042,-5.151193260887265,3.1309353880047794
1782831925751143700,1.533143798828125,-9.348216496181488,-3.2896927022874354,3.0535841450378296
1782831925761072600,1.54307275390625,-6.710485481125116,-1.1159443496093153,1.5390204165816306
1782831925771001600,1.553001708984375,-4.308199298712611,-0.3405114732712507,0.023321985007077453
1782831925780930600,1.5629306640625,-3.8956174454867836,-0.12049947981983422,0.6170626616768539
1782831925790859800,1.57285986328125,-6.111197399461269,-1.390925073827803,1.1607397691473365
1782831925800788700,1.582788818359375,-6.710025462397932,-2.7747975987955926,1.4695175490275025
1782831925810717700,1.5927177734375,-5.931141861084103,-1.8283176893137394,1.6459195333331822
1782831925820647400,1.6026474609375,-5.09088872205019,-0.659484776212275,1.5755834298253057
1782831925830576400,1.612576416015625,-4.316247580611705,-0.07316942723765969,0.9187645118214189
1782831925840505300,1.62250537109375,-2.86776375952363,0.2084222395531833,0.19146883972994982
1782831925850434600,1.6324345703125,-0.8174626305550337,0.3263239579647779,-0.3438425904553383
1782831925860363500,1.642363525390625,0.9261211581945419,0.1081526239439845,-0.7496544380895793
1782831925870292500,1.65229248046875,2.5111457855820656,-0.3572252921849489,-0.4089222347397357
1782831925880221400,1.662221435546875,4.108190521109104,-0.670986121174693,0.3011103139922023
1782831925890150700,1.672150634765625,5.429728462716937,-0.8600904967956244,1.0269763186067342
1782831925900079600,1.68207958984375,6.241066472911834,-0.9404322998806833,1.5696565239943563
1782831925910008300,1.69200830078125,6.184148653903603,-0.8617905787117779,1.4823735234692692
1782831925919937300,1.701937255859375,6.209992704734206,-0.6683942049853503,0.8815867276802658
1782831925929866500,1.711866455078125,6.187635326975584,-0.22880554075986145,0.5954308582464233
1782831925939795500,1.72179541015625,6.222095814982056,0.07247150810137391,0.4057815255612135
1782831925949724400,1.731724365234375,6.369847751125693,0.0963020271524787,0.18120788675006477
1782831925959653400,1.7416533203125,6.391659769961238,0.10494140681251883,0.055676148384064435
1782831925969582600,1.75158251953125,6.753992614418268,0.10081044448763131,-0.02271861228644848
1782831925979511600,1.761511474609375,7.103380052584409,0.09347761738151311,-0.14543189569823442
1782831925989440500,1.7714404296875,7.527783861029148,0.0656868163973093,-0.2674289205994457
1782831925999369500,1.781369384765625,7.726972554421424,0.1855772244080901,-0.048055371182039376
1782831926009298700,1.791298583984375,7.145730417057871,0.34970717163980003,0.18983583170063792
1782831926019227400,1.801227294921875,7.508265506088733,0.31329277308657766,0.2958847613636404
1782831926029156400,1.81115625,7.871352968305349,0.4834992637529969,0.17826858189515768
1782831926039085300,1.821085205078125,7.538153279352188,0.8161457027375698,-0.456462569071725
1782831926049014500,1.8310146484375,7.4611179704666135,1.1169076416835189,-0.7477372062914073
1782831926058943500,1.840943603515625,7.684025393098592,1.3612404219210148,-0.8262146768093108
1782831926068872400,1.85087255859375,7.7691493158936495,1.4872686020344494,-0.8586082223486154
1782831926078801400,1.860801513671875,7.348483524933457,1.5017892948180436,-0.8424590515803545
1782831926088730600,1.870730712890625,6.910383199569583,1.3104288108333944,-0.7752935409326106
1782831926098659600,1.88065966796875,7.391630008220672,1.2728352854982017,-0.7572152287326752
1782831926108588500,1.890588623046875,8.137563526090979,1.6152262889057396,-0.9673163612835108
1782831926118517500,1.900517578125,8.29200180813074,2.0638880480334163,-0.9714178052529692
1782831926128446500,1.910446533203125,7.255455112624168,2.2619585510507223,-0.7439883751519024
1782831926138375400,1.92037548828125,5.60948998658359,2.153654828198254,-1.0404947024799882
1782831926148304400,1.930304443359375,4.927785487517714,2.052366244804859,-1.4594576350450514
1782831926158233300,1.9402333984375,4.257811173734068,1.9582482836931943,-2.214060050930828
1782831926168162600,1.95016259765625,2.629104641008377,2.221502037499845,-2.4523700637474652
1782831926178090500,1.960090576171875,0.41561259922385213,2.654513223031163,-2.245504113725573
1782831926188019500,1.97001953125,-2.0846821219980716,2.3416350220948456,-1.3683056841321288
1782831926197948400,1.979948486328125,-4.369888569906354,0.6473524398699403,0.2736331090018153
1782831926207877400,1.98987744140625,-6.184640821334719,-2.180906115478277,1.9966782598525286
1782831926217806600,1.999806640625,-8.327459490481019,-5.443995473000407,3.364370049870014
1782831926227735600,2.009735595703125,-11.916838319176435,-7.849295450276136,3.858906548205018
1782831926237664500,2.01966455078125,-15.396270333987474,-7.534871773463487,3.2443677059173583
1782831926247593500,2.029593505859375,-16.953568750059603,-5.073983179956675,2.4756717366188763
1782831926257522700,2.039522705078125,-18.670414754009247,-3.981215123273432,1.889863752644509
1782831926267451600,2.04945166015625,-19.686594368791578,-4.115185786823928,2.1550695173017678
1782831926277380400,2.05938037109375,-19.941775583040712,-4.749077564357221,2.4497728868611155
1782831926287309300,2.069309326171875,-18.502057252210378,-5.413028087806701,2.6903765635728836
1782831926297238500,2.079238525390625,-16.47257270129919,-5.441461570608616,2.919245524957776
1782831926307167500,2.08916748046875,-14.173113856154679,-5.04306957077682,2.8912343592211602
1782831926317096400,2.099096435546875,-11.229341208183765,-4.191566723453998,2.6699142057806253
1782831926327025400,2.109025390625,-8.336113921579718,-3.018019202920794,2.1493530393511056
1782831926336954600,2.11895458984375,-5.615045867145061,-1.864909197999537,1.627912605869025
1782831926346883600,2.128883544921875,-3.453754552718997,-1.1078925605788825,0.9854719034381211
1782831926356812500,2.1388125,-1.5870166779875754,-0.9109557377666234,0.8005386760219931
1782831926366741500,2.148741455078125,-0.26835633764266964,-0.8880354654282331,0.8409612873032689
1782831926376670500,2.15867041015625,0.1501911459892988,-1.0264400197729469,0.7056206505738198
1782831926386599400,2.168599365234375,0.7483604527562856,-1.2845920665264128,0.24280703197494147
1782831926396528400,2.1785283203125,1.3243097444087266,-1.3025168686650692,-0.08811638260930776
1782831926406457300,2.188457275390625,1.448880126929283,-1.3088079316332935,-0.29429668845459817
1782831926416386300,2.19838623046875,2.1350603101044894,-1.2305894043125212,-0.5115439664330333
1782831926426315500,2.2083154296875,2.7399323293805122,-0.9924510948009788,-0.6574733633246272
1782831926436244500,2.218244384765625,3.1458091320097443,-0.7924088533192872,-0.7753536005567759
1782831926446173400,2.22817333984375,3.9415848314136266,-0.6478640426538884,-1.1598922124072908
1782831926456102400,2.238102294921875,4.847831076315045,-0.47123847872540353,-1.2146947197619824
1782831926466031600,2.248031494140625,5.467338939186931,-0.08877090099528431,-1.0885112029563635
1782831926475960600,2.257960693359375,6.174323425459861,0.254388602566719,-0.9662788349293172
1782831926485889500,2.2678896484375,6.773683987838029,0.30008754681572314,-0.7630131744217127
1782831926495818500,2.277818603515625,7.212462358593941,0.2399151099257171,-0.5307838697582483
1782831926505747500,2.28774755859375,7.532904272782802,0.19031535884588957,-0.27875790466964245
1782831926515676400,2.297676513671875,7.783572978043556,-0.07319529233127832,0.026891587122157213
1782831926525605400,2.30760546875,7.858066785752773,-0.47382221160829063,-0.0016878069564700126
1782831926535534300,2.317534423828125,7.539898661714791,-0.4225942748047411,0.001512596520036459
1782831926545463600,2.327463623046875,7.343550744706392,-0.15736425248906016,0.02891892823129892
1782831926555392500,2.337392578125,7.489810396465659,-0.050909226243197915,0.09514131281003356
1782831926565321500,2.347321533203125,7.455225989818572,0.08524404204338788,0.09440883381702005
1782831926575250400,2.35725048828125,7.351583829036355,0.15778277016207576,-0.22312859110198913
1782831926585179600,2.3671796875,7.241528294080496,0.313999898442626,-0.4458105344150215
1782831926595108600,2.377108642578125,7.241326634028553,0.5825340768702327,-0.6382148283641785
1782831926605037600,2.38703759765625,7.265387308573723,0.7406392108544707,-0.8148977485030889
1782831926614966300,2.39696630859375,7.5535063313066955,0.8129911842294036,-1.0039734094861894
1782831926624895500,2.4068955078125,7.797849340677261,0.9253273774683475,-0.8961598813034594
1782831926634824400,2.416824462890625,7.759373187288642,0.9414188267000019,-0.5533290982391685
1782831926644753400,2.42675341796875,7.7391411311209195,0.8121082639150321,-0.6162877317816019
1782831926654682400,2.436682373046875,7.9915937971889965,0.7409443312808871,-0.9191643978592008
1782831926664611600,2.446611572265625,8.105896468195319,0.9489378240279853,-1.0146000905059278
1782831926674540500,2.45654052734375,7.527270650810003,1.3023320136174559,-1.0115502014160156
1782831926684469500,2.466469482421875,7.25545160549283,1.4283452884227037,-1.164849615618959
1782831926694398500,2.4763984375,7.262758713635802,1.4595128723636268,-1.4048448781087994
1782831926704327700,2.48632763671875,6.688333855071663,1.5707719378903506,-1.9381787246108053
1782831926714256600,2.496256591796875,5.757345383101701,1.7112211498051881,-2.304796114519238
1782831926724185300,2.506185302734375,4.771876548403501,1.9200886489078401,-2.407551555594802
1782831926734114300,2.5161142578125,3.7368046016246077,1.9676096940174697,-2.1401713695079088
1782831926744043500,2.52604345703125,2.071402369186282,1.8853671718776226,-2.2478663128122687
1782831926753972500,2.535972412109375,-0.9619546881198883,1.3748007452398538,-1.6173311522305012
1782831926763901400,2.5459013671875,-5.104637845939398,-0.35326983255743977,0.4480167392224073
1782831926773830400,2.555830322265625,-9.319469125124812,-3.2016829949229955,2.1066442168287933
1782831926783759600,2.565759521484375,-13.392400701326132,-5.464502254456281,2.790621483132243
1782831926793688600,2.5756884765625,-17.85427957266569,-5.5491012765944,3.5900986674025654
1782831926803617500,2.585617431640625,-21.404382622027395,-4.968353060227632,3.2722473542287944
1782831926813546500,2.59554638671875,-22.048944262135027,-3.4861727212429043,2.5131249767005444
1782831926823475500,2.605475341796875,-20.220966618430612,-0.9880343012720346,2.4074827281422913
1782831926833404400,2.615404296875,-18.027946871310473,-0.1645481726437807,2.1382488770127295
1782831926843333400,2.62533349609375,-16.081438709771632,-1.438087222497165,2.6612024915367365
1782831926853262300,2.635262451171875,-13.338313721829651,-2.7693092305123805,3.383707203024626
1782831926863191300,2.64519140625,-11.327445024061202,-3.3907474769249557,3.715218792760372
1782831926873120500,2.65512060546875,-9.721412095436452,-3.7029420795112844,3.9348815343827006
1782831926883049500,2.665049560546875,-8.729714595481752,-3.2812925382107494,3.4653906299769877
1782831926892978400,2.674978515625,-7.661786088761687,-2.3451221335582435,2.4407117746576668
1782831926902907400,2.684907470703125,-6.02178717764914,-1.6561111108712852,2.013277220214903
1782831926912836600,2.694836669921875,-4.959694537475705,-1.2314150414817036,1.442705237686634
1782831926922765600,2.704765625,-3.307237126806378,-0.8223423654206097,0.972928794337809
1782831926932694500,2.714694580078125,-1.6595874086797235,-0.26571985165923834,0.7554028455484658
1782831926942623500,2.72462353515625,-0.6028828912854194,-0.03054755234643817,0.5288941104888916
1782831926952552400,2.734552490234375,0.1257172144681215,-0.16841266605220734,0.2191441245757043
1782831926962481400,2.7444814453125,0.6337853945493698,-0.6487707822352647,0.11381759090311824
1782831926972410400,2.754410400390625,1.7594851222366092,-1.2106257167574017,0.4408892254300415
1782831926982339300,2.76433935546875,2.2857617437034845,-1.3691723839640617,0.8692144451022148
1782831926992268500,2.7742685546875,2.6822581390470264,-1.317462654992938,1.1711334451287985
1782831927002197500,2.784197509765625,3.289766352045536,-1.1683899916395544,1.3473980667904017
1782831927012126500,2.79412646484375,3.9806285555571317,-0.8146936772983521,1.1225734854254872
1782831927022055400,2.804055419921875,4.857959087097645,-0.4534247357457876,0.5732370004864409
1782831927031984600,2.813984619140625,5.581790663275123,-0.1472274008128792,0.11198387266993522
1782831927041912600,2.82391259765625,6.063314535301924,-0.08800956123396754,-0.16432956145703792
1782831927051842600,2.833842529296875,6.553218697661161,-0.3343645680140704,-0.36850780676491557
1782831927061771500,2.843771484375,6.888954627093672,-0.7657341238182037,-0.2472803779967129
1782831927071699500,2.853699462890625,7.02728640846312,-1.2540141190417111,0.04213650252707302
1782831927081628700,2.863628662109375,6.673440237322449,-1.6914723471097648,0.27205519216060636
1782831927091557400,2.873557373046875,6.3533426065266125,-1.8843804989278314,0.32551081495098766
1782831927101486300,2.883486328125,6.650034811815619,-1.615437447438389,0.250725330818817
1782831927111415300,2.893415283203125,6.483322739136218,-1.0445946120794862,0.03283851282782852
1782831927121344500,2.903344482421875,6.281939750570058,-0.6966760774221271,-0.12030534548722206
1782831927131273500,2.9132734375,6.7689528676629065,-0.5241239734776317,-0.6482071570031345
1782831927141202400,2.923202392578125,7.419540928453206,-0.1322167325552553,-1.0769104162074625
1782831927151131400,2.93313134765625,7.793570055922865,0.36083120772242544,-0.9102537269771098
1782831927161060600,2.943060546875,8.092713746017218,0.33947657726556063,-0.7795924071703105
1782831927170989600,2.952989501953125,8.20645410696566,0.046198710464686155,-0.4291396778602153
1782831927180918500,2.96291845703125,8.521396254694462,0.06517872074469924,-0.3864456145156175
1782831927190847500,2.972847412109375,8.643245103296637,0.38936405924558637,-0.15064349286668002
1782831927200776700,2.982776611328125,8.257883849951625,0.6457163631007075,0.16206731561347842
1782831927210705400,2.992705322265625,7.64790486292541,0.663022594949603,0.22883820092044768
1782831927220634400,3.00263427734375,7.31233435318768,0.4705209781058132,0.13954108409397303
1782831927230563300,3.012563232421875,7.280484924462437,0.26005378872156143,-0.08514569623544811
1782831927240492500,3.022492431640625,6.8866060181409114,0.1647507094785571,-0.5832530387945473
1782831927250421500,3.03242138671875,5.979422200128436,0.2790026732109487,-0.3820954564820975
1782831927260350500,3.0423505859375,5.14510371184051,0.46564781911149616,0.15337474446147678
1782831927270279400,3.052279541015625,4.383502084717154,0.5585280551217496,0.29614290084317324
1782831927280208600,3.062208740234375,3.9908711326301094,0.7351965814091265,-0.07370192667916417
1782831927290137600,3.0721376953125,2.1026532474964856,1.191666968461126,-0.2508126437760889
1782831927300066600,3.082066650390625,-1.2579624182760716,1.2428716705195606,-0.48505964493751524
1782831927309995500,3.09199560546875,-4.321390788719058,0.7926885470435023,-0.9410863798752427
1782831927319924500,3.101924560546875,-7.959706374540924,0.15260741335079073,-1.0696304883323609
1782831927329853400,3.111853515625,-10.605083520436287,-0.7854264470860362,-0.5198221846304834
1782831927339782400,3.121782470703125,-11.970637713903187,-1.7489768799647687,0.24289997095540164
1782831927349711400,3.13171142578125,-13.922743257057666,-2.3042732596889137,0.880603561861813
1782831927359640300,3.141640380859375,-16.079107636475563,-2.6792688941031693,1.4882257566288113
1782831927369569500,3.151569580078125,-17.0577960172534,-2.902622014676034,2.0063385069929063
1782831927379498500,3.16149853515625,-16.404230401957033,-2.609334064872563,2.711168591710925
1782831927389427500,3.171427490234375,-15.457680203717945,-2.016606949159503,2.7504478781759736
1782831927399356400,3.1813564453125,-15.661715752619504,-1.9799606415465474,2.5011358482211827
1782831927409285600,3.19128564453125,-15.482013849985599,-2.676919992889464,2.7787480899870394
1782831927419214600,3.201214599609375,-14.230347901505231,-2.909302515353262,3.1628567129224536
1782831927429143600,3.2111435546875,-12.158401342439651,-1.737976762522757,2.942649196898937
1782831927439072300,3.221072265625,-9.41111865029633,-0.08025997002050281,2.181961762011051
1782831927449001500,3.23100146484375,-6.811792476958036,1.0739860531933605,1.1911742165081203
1782831927458930400,3.240930419921875,-4.409797386446595,1.5005283349715173,0.41121743300482627
1782831927468859400,3.250859375,-2.146235784113407,1.4619433143809437,0.19065891158655285
1782831927478788400,3.260788330078125,-0.5385784691572189,1.1887851294144987,0.3461906879514456
1782831927488717600,3.270717529296875,0.7688754175186157,0.6259114463038742,0.5325400657758116
1782831927498646500,3.280646484375,1.4822791231840848,-0.017326836245507002,0.7142354803144931
1782831927508575500,3.290575439453125,1.5228677386820315,-0.4031413863159716,1.0714445520170033
1782831927518504400,3.30050439453125,1.7888778054594991,-0.49112829732671376,1.3198885669656097
1782831927528433700,3.31043359375,2.314181197980046,-0.3760049575872719,1.4575807352572678
1782831927538362600,3.320362548828125,2.911123593300581,-0.002727452202513814,1.4324600302651525
1782831927548291300,3.330291259765625,3.6606098352164027,0.34703181495070456,1.2364032051578164
1782831927558220300,3.34022021484375,4.385129978179932,0.5847081329736858,1.0485557707954198
1782831927568149500,3.3501494140625,5.612929897904396,0.5689593596998602,0.4537892582092434
1782831927578078500,3.360078369140625,6.779640265893936,0.6539161092344671,0.363350277871266
1782831927588007400,3.37000732421875,6.727478116980195,0.7824927317216992,1.0450375335413962
1782831927597936400,3.379936279296875,6.875898746165633,0.3679219697009772,1.0506388606797903
1782831927607865600,3.389865478515625,7.434826175868511,0.09263649038225412,0.7075549796372652
1782831927617794600,3.399794677734375,7.450880069568753,0.21364486957229673,0.5236730148397386
1782831927627723500,3.4097236328125,7.229698155555129,0.228277206036821,0.3996417806971818
1782831927637652500,3.419652587890625,6.884989230594039,0.019501257675141093,0.2222351493936032
1782831927647581700,3.429581787109375,6.415482544097304,-0.13911715959347784,0.33687527219336477
1782831927657510400,3.439510498046875,6.7653826079607,-0.15442688386291265,0.5642033973444253
1782831927667439400,3.449439453125,6.7573506926745175,0.15036299542486667,0.6535958643041551
1782831927677368300,3.459368408203125,6.550188536185026,0.5029322784975171,0.6958854385010897
1782831927687297500,3.469297607421875,6.867904824802279,0.7530725029047578,0.4739473723579198
1782831927697226500,3.4792265625,7.095021389561891,1.0440076790370048,0.0553525424528867
1782831927707155500,3.489155517578125,6.993965153619647,1.2992752563953398,-0.1006098073489964
1782831927717084400,3.49908447265625,6.895519976958632,1.328714116847515,-0.07087050264552235
1782831927727013600,3.509013671875,7.09698129145801,1.1830625139839948,-0.05785831472873688
1782831927736942600,3.518942626953125,7.396515442174673,1.1225289886966348,-0.2978438595421612
1782831927746871600,3.52887158203125,7.815162879049778,1.152829142153263,-0.4327233085006475
1782831927756800500,3.538800537109375,8.188445572066307,1.1275288428105412,-0.6251937264885753
1782831927766729500,3.5487294921875,8.068778159156441,0.9843054900072514,-0.6645832683950662
1782831927776658400,3.558658447265625,7.295574941566586,0.5663331759147345,-0.5599491739660502
1782831927786587400,3.56858740234375,6.3047805279314515,0.12682809831947087,-0.6335278395917266
1782831927796516400,3.578516357421875,5.541183343076706,0.1269631228759885,-0.6507481467228382
1782831927806445300,3.5884453125,4.949564188605547,0.3083205376319587,-0.45175767931640143
1782831927816374500,3.59837451171875,3.924863413715362,-0.03386895185410976,-0.8287466064397245
1782831927826303200,3.60830322265625,1.7413965078383684,-0.17894684648290277,-1.6572369000308214
1782831927836232200,3.618232177734375,-2.063033769291639,0.15592676703184843,-1.5383917632892727
1782831927846161400,3.628161376953125,-6.008604455471039,0.15170140442177651,-1.427220083785057
1782831927856090400,3.63809033203125,-7.57106595339477,-0.05978446048572659,-1.3748464840777217
1782831927866019300,3.648019287109375,-7.774423456904292,-0.1122314176902175,-0.6767924693658948
1782831927875948300,3.6579482421875,-10.464106192994118,-0.7889784404791891,0.5269865233018994
1782831927885877200,3.667877197265625,-15.690511638993025,-3.035625002238154,2.2542307332776486
1782831927895806200,3.67780615234375,-19.7749506976366,-5.373811345183849,3.7673534691452977
1782831927905735200,3.687735107421875,-20.695689578270912,-5.6224640344470735,4.772611292418837
1782831927915664100,3.6976640625,-19.69548611577749,-4.111324727481604,5.1489638944000005
1782831927925593300,3.70759326171875,-18.712070121955872,-3.2055656815752385,4.562402315579354
1782831927935522300,3.717522216796875,-17.73683860363364,-2.7477485560894013,4.363912125845253
1782831927945451300,3.727451171875,-15.784258428704737,-2.419747166431695,4.583402433510124
1782831927955380200,3.737380126953125,-13.611024747550486,-2.6845918426916002,4.31244380441457
1782831927965309400,3.747309326171875,-10.85993038816452,-2.6907489040166137,3.544951365686953
1782831927975238400,3.75723828125,-8.188516883736849,-2.0261454696163534,2.5139392156928775
1782831927985167400,3.76716748046875,-5.364598695680499,-1.4814276209212838,1.5327400211378932
1782831927995096300,3.777096435546875,-2.915878678873181,-0.8932141832403838,0.7662699111953377
1782831928005025300,3.787025390625,-1.7182833432763813,-0.32164237601980566,0.3445680551856756
1782831928014954200,3.796954345703125,-1.2063368604570626,-0.3007125468462705,0.4897372813597321
1782831928024883200,3.80688330078125,-0.6287959156990051,-0.4000228159040212,0.7842981737084687
1782831928034812200,3.816812255859375,-0.24523674333989617,-0.12173011759333312,1.0365952108234167
1782831928044741000,3.8267412109375,-0.0793155287772417,0.23308504470996558,0.9323672129772603
1782831928054670300,3.83667041015625,0.2758662748813629,0.35530367647260425,0.11571385297849773
1782831928064599300,3.846599365234375,0.9948083254516125,0.505265689881146,-0.6788350811094045
1782831928074528300,3.8565283203125,2.360055060404539,0.752755472844839,-0.9552189501240849
1782831928084457200,3.866457275390625,3.8115801488846537,0.8947462881784886,-0.9927386795707046
1782831928094386400,3.876386474609375,5.363638910737634,0.7686353982176631,-0.9851485167026519
1782831928104315400,3.8863154296875,7.026051898232102,0.5705873262278736,-0.6139158150184899
1782831928114244000,3.896244140625,7.970996414840221,0.46191045921407636,0.10966127494126558
1782831928124173000,3.906173095703125,7.9308233944058415,0.29081388784013684,0.23476159962005913
1782831928134102300,3.916102294921875,7.564931980684399,0.17115158949680626,0.19164879940673707
1782831928144031200,3.92603125,7.363131058967113,0.14014811007641256,-0.13906535634100436
1782831928153960200,3.935960205078125,7.317513801652193,0.13181268179900943,-0.6059443246826529
1782831928163889200,3.94588916015625,7.189055764043331,0.2113116773843765,-0.6870758899059146
1782831928173818400,3.955818359375,7.338993812054396,0.27175606308355926,-0.9143939685869962
1782831928183747300,3.965747314453125,7.9097572255015365,0.42044995625242587,-1.0202755788590758
1782831928193676300,3.97567626953125,8.744074544745683,0.6132232296444475,-1.0287244774483144
1782831928203605200,3.985605224609375,8.630492004707454,0.9711480484008789,-0.4036896678484976
1782831928213534500,3.995534423828125,8.06868814278543,1.0082226644285022,-0.056042789739370345
1782831928223463400,4.00546337890625,8.349958907058834,0.8853710685245693,-0.12291034035384654
1782831928233392000,4.01539208984375,8.254698790174722,0.9893811858363449,-0.17356573796644806
1782831928243321000,4.025321044921875,8.133399976670741,1.0241058777369558,-0.46794871646501124
1782831928253250300,4.035250244140625,8.281496196207403,1.003746541927755,-0.7105318765562028
1782831928263179300,4.04517919921875,8.279481933775545,0.9698514327190816,-0.8582297444250434
1782831928273108200,4.055108154296875,8.29002670866549,0.9080760906770825,-1.2492039422810077
1782831928283037200,4.065037109375,7.994586549264192,1.080756862502545,-1.360898476615548
1782831928292966400,4.07496630859375,7.409339852434396,1.4042134483374655,-0.7617376745931804
1782831928302895400,4.084895263671875,7.6187196849733585,1.3494998613752425,-0.5658658506639301
1782831928312824300,4.09482421875,7.754669539642333,1.3470555369630455,-0.9253200709447265
1782831928322753300,4.104753173828125,7.243195350509882,1.754925851497054,-1.2387031526632606
1782831928332682500,4.1146826171875,6.656105656161904,2.1773041454635558,-1.4124785878576338
1782831928342611200,4.124611083984375,5.272970213297009,2.3113512352511285,-1.1527129684276878
1782831928352540200,4.1345400390625,4.007272232332825,2.08013395717442,-0.9762725518077612
1782831928362469000,4.14446923828125,3.1109038228452204,1.9363539934016762,-1.0299703858561813
1782831928372398300,4.1543984375,1.8730138862609862,2.0771064260467886,-1.0776600655309856
1782831928382327300,4.164327392578125,-0.15048165336847305,2.1828750774636863,-1.3017008761070668
1782831928392256300,4.17425634765625,-2.769554145184159,2.052222744680941,-1.1539428024835885
1782831928402185200,4.184185302734375,-6.406726406189799,1.2900254897519945,0.2714411519154906
1782831928412114400,4.194114501953125,-9.575648118239641,-0.32018530907928944,1.7778545994028447
1782831928422043400,4.20404345703125,-12.60939972782135,-1.988379802584648,3.2346286944523452
1782831928431972400,4.213972412109375,-16.578583929300308,-2.5105633095189925,4.715824114052951
1782831928441901300,4.2239013671875,-18.57944911944866,-2.4444815024547277,5.022724117362499
1782831928451830300,4.233830322265625,-19.899449183964727,-2.649901345321536,5.622127349838614
1782831928461759200,4.24375927734375,-20.97495777055025,-3.594181260541081,6.2324143799006935
1782831928471688200,4.253688232421875,-21.141974379134176,-4.114213434660434,6.290913915142417
1782831928481617200,4.2636171875,-20.544910987782476,-4.117367514777183,5.8951031639754765
1782831928491546000,4.273546142578125,-19.594788191753626,-4.3165819271326065,5.798982046347856
1782831928501475300,4.283475341796875,-18.569148674708604,-4.620689961636066,5.520158090704679
1782831928511404300,4.293404296875,-16.329758806079624,-4.003174733886122,4.7054503118157385
1782831928521333200,4.303333251953125,-12.919832289171218,-2.6267069322168823,3.2891108107462523
1782831928531262200,4.31326220703125,-9.534219544786215,-1.4796578347697853,2.030476776818931
1782831928541191400,4.32319140625,-6.342064841187,-0.8851954196967184,1.1461536099120975
1782831928551120400,4.333120361328125,-3.2972043930917976,-0.5443656742565334,0.5604229289576411
1782831928561049300,4.34304931640625,-0.7351198629111051,-0.3106178547888994,0.1398304954946041
1782831928570978000,4.35297802734375,1.2603706484615802,-0.463294533983618,-0.24841858824640511
1782831928580907300,4.3629072265625,2.92455298371613,-0.7011410209417342,-0.31983634951114653
1782831928590836200,4.372836181640625,4.070541466194391,-0.6493032816767692,-0.3591521685943007
1782831928600765200,4.38276513671875,4.421103793358802,-0.41794308799803254,-0.20532705001682042
1782831928610694100,4.392694091796875,4.324200000920891,-0.4941553900629282,-0.003190612734854221
1782831928620623400,4.402623291015625,4.639363097923994,-0.47679859707057476,-0.10113207765743136
1782831928630552300,4.41255224609375,5.148489262625575,0.10011077178567647,-0.45637467159256334
1782831928640481300,4.422481201171875,5.796448143956065,0.5174979794666171,-1.3896269968412815
1782831928650410200,4.43241015625,6.5694619764536615,0.6051574120886624,-1.956456139579415
1782831928660339500,4.44233935546875,7.204827333670854,0.46966779534257946,-2.2957665664978326
1782831928670268400,4.452268310546875,8.023727303552628,0.009283230521529913,-2.5025419156268236
1782831928680197000,4.462197021484375,8.52214561175704,-0.2774562474865466,-1.6541947558559476
1782831928690126000,4.4721259765625,8.150572645267843,-0.32739005282633005,-0.6291054200395941
1782831928700055300,4.48205517578125,7.752421468454599,-0.4768364448629319,-0.42111894155517215
1782831928709984300,4.491984375,7.549066303032636,-0.4617066072050482,-0.771726423035562
1782831928719913200,4.501913330078125,7.8912378184705965,-0.4395051506604999,-1.242114568541944
1782831928729842200,4.51184228515625,8.444165130975842,-0.42547918259128925,-1.601169414241612
1782831928739771400,4.521771484375,8.517473528292774,-0.20757789768353102,-1.5263547040149568
1782831928749700400,4.531700439453125,8.47022253229618,0.151225384407863,-1.5847254983104764
1782831928759629300,4.54162939453125,8.750824603527784,0.40838250183984637,-1.9219616031728683
1782831928769558300,4.551558349609375,9.145271665126085,0.5212957643143833,-1.6359427675895393
1782831928779487500,4.561487548828125,9.42764191507399,0.4721799973592162,-1.2356295904368162
1782831928789416200,4.571416259765625,9.662004213178157,0.41316418315842746,-1.033770070400089
1782831928799345200,4.58134521484375,9.365943291530012,0.5412039953552186,-0.8034232915475964
1782831928809274000,4.591274169921875,8.87498289811611,0.6259162686094641,-0.9166574565395712
1782831928819203300,4.601203369140625,8.676497969079017,0.6494480969749391,-1.3073670851752162
1782831928829132500,4.611132568359375,8.82744723995924,0.6365545670017599,-1.6869949094347654
1782831928839061500,4.6210615234375,8.984501841977238,0.576646626266837,-1.8717752843767403
1782831928848990500,4.630990478515625,9.150088125497103,0.541033607224375,-1.900369072306901
1782831928858919700,4.640919677734375,9.27239816187024,0.6368940280891955,-1.91439584409371
1782831928868848600,4.6508486328125,9.029142363214492,0.9275693111762404,-1.7226571744464336
1782831928878777600,4.660777587890625,8.312246139258146,1.3575412751421332,-1.4198802424162627
1782831928888706600,4.67070654296875,6.9372016483902925,1.6254703272834419,-0.9533324057251215
1782831928898635500,4.680635498046875,5.820302482274174,1.3780514175988734,-0.8443183426462113
1782831928908564500,4.690564453125,4.843337856549025,1.1214409011989832,-1.27296431870535
1782831928918493400,4.700493408203125,3.021574265053868,1.0933157536938787,-1.9704061928682028
1782831928928422400,4.71042236328125,-0.15374503907859324,1.560872913558036,-1.4421904200322926
1782831928938351600,4.7203515625,-4.207721154919266,1.8944743151798844,-1.223403584461659
1782831928948280600,4.730280517578125,-7.785338818672299,1.5540594341509044,-0.097751495308429
1782831928958209500,4.74020947265625,-10.489648630529642,0.20072861631065606,1.3082783548012376
1782831928968138500,4.750138427734375,-12.839009278440475,-1.363090141440928,2.2469221638299524
1782831928978067700,4.760067626953125,-15.264295812690257,-2.5115040975004432,2.7964038659259676
1782831928987996700,4.76999658203125,-18.321212024760246,-3.2896231441825625,3.797978324511647
1782831928997925600,4.779925537109375,-20.752561220049856,-3.9362253502070903,3.9838349503830073
1782831929007854300,4.789854248046875,-20.874889961123465,-4.448912129999697,3.4703573124736544
1782831929017783300,4.799783203125,-21.00733560706377,-3.8572079275935884,3.6814962636396285
1782831929027712500,4.80971240234375,-21.11917334926128,-3.5786011218324303,3.357865490281582
1782831929037641500,4.819641357421875,-21.065621791815758,-4.070783165995777,3.3871278251230716
1782831929047570400,4.8295703125,-21.037765816640853,-4.4606355932801955,3.632710605421662
1782831929057499400,4.83949951171875,-20.737012937784193,-4.397520965458453,3.4552830774605274
1782831929067428600,4.8494287109375,-17.951888883024452,-3.3508772388294337,2.5493670874267815
1782831929077357600,4.859357666015625,-14.178843339717387,-1.7901830428391694,1.1810003207571804
1782831929087286500,4.86928662109375,-10.386820708739757,-0.6606286855503917,0.09094283820688724
1782831929097215500,4.879215576171875,-6.891867299669981,-0.14993702509775758,-0.4513794936537742
1782831929107144700,4.889144775390625,-4.168532469347119,-0.2035223386824131,-0.37096221417970954
1782831929117073400,4.899073486328125,-1.864681526723504,-0.548624208483845,-0.2123321795385331
1782831929127002400,4.90900244140625,0.06206979494392872,-0.9114027508817613,0.13613602489084003
1782831929136931300,4.918931396484375,1.838151831716299,-1.285154230453819,0.442360247830674
1782831929146860500,4.928860595703125,2.917082209444046,-1.3734357404969633,0.5584978061139583
1782831929156789500,4.93878955078125,3.282840936696529,-0.8981319120287895,0.6670101302158087
1782831929166718500,4.948718505859375,4.312895932096243,-0.6367457056596875,0.47186537845209237
1782831929176647400,4.9586474609375,5.627461112082004,-0.44238677051141856,0.1301152302313596
1782831929186576600,4.96857666015625,7.02014355097115,-0.24630722211562095,-0.3595388663569465
1782831929196505600,4.978505615234375,8.423534430879354,-0.14158011564090847,-0.7833616235107183
1782831929206434600,4.9884345703125,9.538868247374891,-0.07110555351041258,-0.8896697886317968
1782831929216363500,4.998363525390625,9.971999552154541,0.17017083483114837,-0.48141905994545664
1782831929226292700,5.008292724609375,9.98509284248352,0.38328736968040467,-0.09298314839545636
1782831929236221400,5.018221435546875,9.8352202609241,0.3507834225691855,0.0028590426929295063
1782831929246150400,5.028150390625,9.554208439847827,0.3133930185906589,0.01471058933250606
1782831929256079400,5.038079345703125,9.270485021725296,0.34171412705928084,-0.099513463479653
1782831929266008600,5.048008544921875,9.064188542154431,0.3048173518165946,-0.8384859101656824
1782831929275937500,5.0579375,8.847268377238512,0.4040018025375902,-1.4139021909199654
1782831929285866500,5.067866455078125,8.344730943277478,0.5512441817238927,-1.2626450231343507
1782831929295795500,5.07779541015625,7.469767725390195,0.5773857541963457,-1.0131617282658816
1782831929305724700,5.087724609375,6.714689947077631,0.37382176832929254,-0.8910079053677618
1782831929315653600,5.097653564453125,6.866291544386744,-0.05464534403160214,-1.079831125959754
1782831929325582600,5.10758251953125,7.796298604103923,-0.17838000638037918,-1.619310781740397
1782831929335511600,5.117511474609375,8.429803428146242,0.17596023188754914,-1.800655921536684
1782831929345440500,5.1274404296875,8.84059664438963,0.5378182984396815,-1.6745025076083837
1782831929355369500,5.137369384765625,9.092084849339724,0.7573447003312408,-1.6820653440780937
1782831929365298400,5.14729833984375,8.920252949428559,0.9075639033712446,-1.3578864353179931
1782831929375227400,5.157227294921875,8.302642444610596,0.9652842709340155,-0.7929628339402377
1782831929385156600,5.167156494140625,7.748363132974505,0.8784422921746968,-0.7795891192346811
1782831929395085600,5.17708544921875,7.756587940484285,0.8599784147232771,-1.4835979506976902
1782831929405014500,5.1870146484375,8.223813238045572,1.1066638955667614,-1.8508957240857182
1782831929414943500,5.196943603515625,8.528550802624226,1.3455590147949754,-1.8286628494895993
1782831929424872700,5.206872802734375,8.800545204508303,1.436376473056525,-1.7845248709470032
1782831929434801700,5.2168017578125,9.074033644342421,1.5723380181632935,-1.6493552068702875
1782831929444730600,5.226730712890625,9.134678374919295,1.7286029311083255,-1.5426853688299655
1782831929454659600,5.23665966796875,8.38370627835989,2.0345669687420127,-1.1741649217791854
1782831929464588300,5.24658837890625,6.668218118759989,2.1890204483509064,-0.7321278414882719
1782831929474517500,5.256517578125,4.375422823157907,1.7972585341833531,-0.42810076326653357
1782831929484446500,5.266446533203125,1.461633225518465,1.4492261638879775,-0.1845429129242897
1782831929494375400,5.27637548828125,-3.327983562237024,1.3314223528929054,0.34036388149410485
1782831929504304400,5.286304443359375,-9.444048275473714,1.3278326578378676,0.12708163468912242
1782831929514233600,5.296233642578125,-13.525139777255058,0.7862596830397844,0.061748454035073515
1782831929524162600,5.30616259765625,-14.683796602648496,-0.904941884304583,1.2690084206864236
1782831929534091500,5.316091552734375,-17.814973982715607,-2.629166308067739,2.1210586727589367
1782831929544020500,5.3260205078125,-20.798474245440957,-3.6222418183773755,2.6891654342174527
1782831929553949700,5.33594970703125,-19.44966192793846,-3.5208073967725038,2.3342810060702264
1782831929563878700,5.345878662109375,-17.375176205784083,-2.6668396206408738,2.1472160273224112
1782831929573807400,5.355807373046875,-17.75787554644346,-3.173945093169808,3.0359438589289782
1782831929583736300,5.365736328125,-19.853800362467766,-4.860696987628937,5.080277311664819
1782831929593665500,5.37566552734375,-20.08434748619795,-6.254325182935595,5.7465288055330515
1782831929603594500,5.385594482421875,-18.57017977132201,-5.036405436712503,5.274018261045217
1782831929613523500,5.3955234375,-16.892006904637814,-1.907665366794914,4.283784696163237
1782831929623452400,5.405452392578125,-13.10731651624441,-0.3422840359017253,2.3826610060967504
1782831929633381600,5.415381591796875,-9.701410925415157,0.46994376273974775,0.50036242800951
1782831929643310600,5.425310546875,-6.878152078050374,0.3151847243130207,-0.4368276750795543
1782831929653239600,5.435239501953125,-5.068614346399903,-0.41374446726441383,-0.4401540430232882
1782831929663168500,5.44516845703125,-3.4864299108743664,-1.2547697597146032,-0.10593377885073423
1782831929673097700,5.45509765625,-1.8037772684276103,-2.0035639277130364,0.4188695551931858
1782831929683026400,5.4650263671875,-0.6750596542239189,-2.35890618263036,1.0724348782286048
1782831929692955400,5.474955322265625,-0.383199106875062,-2.2692630288451907,1.6145345072492956
1782831929702884400,5.48488427734375,0.2531470780730247,-2.222048273205757,1.8053452483966945
1782831929712813600,5.4948134765625,1.1835966208606958,-2.4781597540423275,1.8222613118842244
1782831929722742500,5.504742431640625,2.1250649857908486,-2.3737243970558044,1.5136848997950554
1782831929732671500,5.51467138671875,3.3772073196113106,-1.7406147098109126,1.0610311484217643
1782831929742600400,5.524600341796875,5.034642518693208,-1.0773920622445643,0.3974139120472595
1782831929752529700,5.53452978515625,6.819490630245208,-0.6717739836167543,0.07850494304671883
1782831929762458600,5.544458740234375,8.173691070526838,-0.38920517888944595,0.39362650246303527
1782831929772387600,5.5543876953125,9.00100464848876,-0.4061645335294306,0.5158958780322224
1782831929782316500,5.564316650390625,9.489961885386705,-0.5036649766862392,0.7512912455111742
1782831929792245500,5.57424560546875,9.957648370718955,-0.3021553660657257,0.9837851193949579
1782831929802174500,5.584174560546875,10.039261655044555,-0.19788393093664197,0.7651222024649381
1782831929812103400,5.594103515625,9.112221628439427,-0.25599819318782535,0.3367684873506427
1782831929822032400,5.604032470703125,8.33486362925768,-0.2590086635828018,0.24829043182209132
1782831929831961900,5.6139619140625,7.834626873454451,-0.3502930087037384,0.3174336722835898
1782831929841890800,5.623890869140625,7.5491533967942,-0.6432646590996534,0.26605419818013903
1782831929851819800,5.63381982421875,7.619124758642911,-1.0799806904982774,0.003706453302502632
1782831929861749000,5.6437490234375,7.490701792347431,-1.5271329949110746,0.12487630666457115
1782831929871678000,5.653677978515625,7.75807145704031,-1.5429615554228424,0.2038254863474518
1782831929881607000,5.66360693359375,7.698741900715231,-0.6587544891763478,0.24348127797469496
1782831929891536000,5.673535888671875,7.653971031096577,-0.11405468759462237,0.0943241512082517
1782831929901464800,5.68346484375,8.006327840462326,-0.09869849383495748,-0.5711722134437411
1782831929911393800,5.693393798828125,8.15205265469253,0.03421265072524547,-0.8249911263637244
1782831929921322800,5.70332275390625,8.176025650954246,-0.05475033877603709,-1.0088548979174345
1782831929931251700,5.713251708984375,8.330491405522823,-0.2154222545083612,-1.0914467449516057
1782831929941181000,5.723180908203125,8.51405056810677,-0.2053242004726082,-1.0335002404827625
1782831929951110000,5.73310986328125,8.718535029819607,-0.13845036624781787,-1.0445187703642993
1782831929961038800,5.743038818359375,8.82108764179945,0.012942775942385196,-1.1513730250608176
1782831929970967800,5.7529677734375,8.776094653862714,0.39410643146708607,-1.3275954880811274
1782831929980897000,5.76289697265625,8.437928282412885,0.8528095460072159,-1.0028943090125917
1782831929990826000,5.772825927734375,7.7546438206791874,1.111035388649255,-0.6324104529343545
1782831930000755000,5.7827548828125,6.765379100829363,1.3153763502381741,-0.32560908769369123
1782831930010683600,5.79268359375,5.3116947884887455,1.3467495397537945,-0.41289413404539227
1782831930020612900,5.80261279296875,3.5043671341031786,1.3489952728539705,-1.0630778518185018
1782831930030541800,5.812541748046875,0.22910510822832583,1.3588866984017192,-1.4864502713888883
1782831930040470800,5.822470703125,-4.524081352752447,1.0878893447309732,-1.7269900890842078
1782831930050399700,5.832399658203125,-7.104863569140434,0.5566016171038151,-1.5486758414164186
1782831930060329000,5.842328857421875,-7.644756628027558,0.2007531662300229,-0.44347821900993584
1782831930070258000,5.8522578125,-9.743850137215853,-0.5094971899710595,1.9016491752453146
1782831930080187000,5.862186767578125,-12.828436446499824,-2.219973658888787,4.087560405534505
1782831930090115800,5.87211572265625,-16.94147148503065,-3.6606349696576594,6.40635172765851
1782831930100045000,5.882045166015625,-19.032731816375254,-4.109520308408141,8.213959952551127
1782831930109974000,5.89197412109375,-19.648366637206077,-3.6349811807021495,7.226708326089382
1782831930119903000,5.901903076171875,-21.211651726472375,-3.118580933344364,6.30965076431632
1782831930129831700,5.911831787109375,-21.573875265336035,-3.2966543579936025,6.600298428744077
1782831930139761000,5.921760986328125,-21.398899806702136,-2.8149218116521832,6.856987709468603
1782831930149689900,5.93168994140625,-20.336545300722122,-1.9646568355612455,6.186050688132643
1782831930159618800,5.941618896484375,-17.420353902637956,-0.6187772105097771,4.386473209482431
1782831930169547800,5.9515478515625,-13.39967566076517,0.9399801721990108,2.072214708482474
1782831930179476700,5.961476806640625,-9.408552014678715,1.6562154480285942,-0.009260288037359714
1782831930189406000,5.971406005859375,-6.200116038364172,1.3188861119247972,-0.7406587923377752
1782831930199335000,5.9813349609375,-4.911072253125906,0.3818598210953176,0.03734758775010705
1782831930209263900,5.991263916015625,-4.773592704671621,-0.9747311675846576,0.9707087802007793
1782831930219192800,6.00119287109375,-4.447334213158488,-2.2346895819835364,1.6185400896288453
1782831930229122000,6.0111220703125,-3.418478072154522,-2.614835292637348,1.302980102262646
1782831930239050800,6.02105078125,-1.9830735128700732,-2.316050206722319,1.0577962581537663
1782831930248979700,6.030979736328125,-0.4164887975364923,-2.065731045551598,0.9489170735009014
1782831930258908700,6.04090869140625,1.0599603043198584,-1.872368866355717,1.0582204749152064
1782831930268838000,6.050837890625,2.6002111394792795,-1.659565050717443,0.9277966171260923
1782831930278766800,6.060766845703125,4.4915199763655655,-1.2503596881873904,0.30878252912051973
1782831930288695800,6.07069580078125,6.277065422531962,-0.7050757300421595,0.0066845923304557795
1782831930298624800,6.080624755859375,7.713959928113222,-0.3914748043218627,-0.2313798482272774
1782831930308554000,6.090553955078125,8.743785790932177,-0.22267171417996287,-0.2705978329591453
1782831930318483000,6.10048291015625,9.432633732011913,-0.2473112845916301,-0.17525201055295764
1782831930328412000,6.110411865234375,9.592443770217894,-0.190403548585996,0.4533590500984341
1782831930338340900,6.1203408203125,9.301001156020163,0.07086582647040486,0.7046962292052805
1782831930348269800,6.130269775390625,8.539279117387533,0.24271767319105564,0.45233971698805686
1782831930358198800,6.14019873046875,7.970392019206285,0.26337299627214666,-0.09708565181083977
1782831930368127700,6.150127685546875,7.61168613307476,0.37211657184660435,-0.7014766826368868
1782831930378056700,6.160056640625,7.13178314024806,0.6343861369214951,-0.777211284187436
1782831930387986000,6.16998583984375,6.51101621722579,0.9209867179155349,-0.6901721754208207
1782831930397915000,6.179914794921875,6.238776900669932,1.0192242431752383,-0.4428219470582902
1782831930407843800,6.18984375,6.856929841801524,0.7775101210035383,-0.06600428484864533
1782831930417772800,6.199772705078125,7.60334968188405,0.8144872680060565,-0.18303309288322925
1782831930427702000,6.209701904296875,7.506183439117669,1.272088558784127,-0.4485591024708003
1782831930437631000,6.219630859375,7.011054820108413,1.4498038176454602,-0.6208468563906848
1782831930447560000,6.229559814453125,6.846700708732008,1.4370663550168274,-0.8078641235392541
1782831930457489000,6.239489013671875,7.17499567450881,1.4719197878636419,-1.0482483122814445
1782831930467417900,6.24941796875,7.597966235280037,1.667184731940925,-1.1830697474423795
1782831930477346800,6.259346923828125,7.942776867049932,1.9306823775060473,-1.0530510363880545
1782831930487275800,6.26927587890625,8.322305176457762,2.0354329379215836,-0.9203307382248341
1782831930497204700,6.279204833984375,8.701661636430025,1.9797785629779099,-0.8566310770567506
1782831930507134000,6.289134033203125,8.968585895442962,1.9748484130993484,-0.7647440168023109
1782831930517063000,6.29906298828125,9.084141781380772,2.0513295952335,-0.585560438954085
1782831930526992000,6.308991943359375,9.056760437980294,2.1339497185140845,-0.4389591341502964
1782831930536920800,6.3189208984375,8.933474834573268,2.132190307626128,-0.3513420063000172
1782831930546850000,6.32885009765625,8.774053503423929,2.197004432842135,-0.32797333260700107
1782831930556779000,6.338779052734375,8.405198563721775,2.3368302521616218,-0.9406761916391551
1782831930566708000,6.3487080078125,8.097136823156475,2.5172926177740096,-1.3329206286266446
1782831930576636700,6.35863671875,7.7330796391248695,2.8922447053074833,-1.0819225452810526
1782831930586566000,6.36856591796875,0.9652876319348812,2.953850097610056,0.40693230303153394
1782831930596494800,6.378494873046875,-10.191908377492426,1.998710057941079,-0.03958148428201675
1782831930606423800,6.388423828125,-8.227067271405458,-0.452325542332232,-2.186633114822954
1782831930616352800,6.398352783203125,-2.2094880668401715,-0.5671054754614829,-0.27260551951974626
1782831930626281700,6.40828173828125,-2.4590303984194994,1.4887525569818914,1.2562518149659037
1782831930636211000,6.4182109375,-7.175808744457363,2.1699702954441307,1.3823252955257892
1782831930646140000,6.428139892578125,-11.938333527147769,0.8790009489707649,0.23253347524181006
1782831930656068900,6.43806884765625,-14.262212527799605,-0.8872770482763648,-0.13255012922808526
1782831930665997800,6.447997802734375,-15.456762504351138,-1.9693452856384217,0.2611789933592081
1782831930675927000,6.457927001953125,-16.777845103406904,-2.2356002670876682,1.5222358705192804
1782831930685855700,6.467855712890625,-21.152224554991722,-3.050405807262659,4.57657551009953
1782831930695784700,6.47778466796875,-24.063880063211915,-4.975383689516782,8.18403710797429
1782831930705713700,6.487713623046875,-22.498925579428672,-5.081038943687081,8.99615428584814
1782831930715643000,6.497642822265625,-21.459386131846905,-2.847754113934934,7.029484795290231
1782831930725571800,6.50757177734375,-18.90349402656555,-1.3967030727073548,4.455541777272522
1782831930735500800,6.517500732421875,-14.612336463546752,-0.7375650641061365,2.206846320159733
1782831930745429800,6.5274296875,-9.800621241229772,-0.43202144384160635,0.9524632216751575
1782831930755359000,6.53735888671875,-5.410117753317952,-0.4381841311898082,0.7380874805450439
1782831930765288000,6.547287841796875,-2.5006699842751026,-0.7756118861667811,0.7046165880978107
1782831930775217000,6.557216796875,-1.7233862193733454,-1.3387239080779254,1.2881637875333427
1782831930785145900,6.567145751953125,-1.3335627259224652,-1.9440289119437335,1.2013519116513431
1782831930795074800,6.57707470703125,-0.5540004946947098,-2.2731178045772014,0.4806855215065181
1782831930805003800,6.587003662109375,0.37303193312585353,-2.4581796268090605,0.329722806622833
1782831930814932700,6.5969326171875,0.9424421783983706,-2.6603093420892954,0.9639859016865492
1782831930824861700,6.60686181640625,1.619746396678686,-2.4969755136713383,0.7364286074221134
1782831930834793700,6.616793701171875,2.6354671617776155,-2.2152084903135894,0.3635135786741972
1782831930844722700,6.62672265625,4.071970622214675,-1.9713691926814614,-0.15396189669966698
1782831930854652000,6.63665185546875,5.798532549014687,-1.7302230796560645,-0.6298233590506017
1782831930864580900,6.646580810546875,7.045036000165343,-1.4031678848072886,-0.5123566710554063
1782831930874509800,6.656509765625,7.734308304136991,-1.066476042889431,-0.33532917526252565
1782831930884438800,6.666438720703125,8.203374261128902,-0.9511763967350125,-0.3772699360217899
1782831930894368000,6.676367919921875,8.674640943035483,-0.8788770303301513,-0.41490649678111075
1782831930904297000,6.686296875,9.02532309718728,-0.9066576021812855,-0.3867991041284054
1782831930914226000,6.696225830078125,8.983989216279983,-1.0527079220388085,-0.1225852731179446
1782831930924155000,6.70615478515625,8.869216005152463,-1.0784187749437988,0.11253153314795344
1782831930934083800,6.716083740234375,8.723764747166634,-1.0965991592787205,0.21779705734830349
1782831930944012800,6.7260126953125,8.698767668554186,-1.2557152238711713,-0.06619794425722211
1782831930953941800,6.735941650390625,8.532256671404838,-1.314978144700825,-0.5200698027160018
1782831930963872000,6.7458720703125,7.969684163197875,-1.2590274171590805,-0.4838610097374767
1782831930973800000,6.755800048828125,7.169777063077688,-1.2461014462210238,-0.24744477477818727
1782831930983729000,6.76572900390625,6.15802578613162,-1.3149528641290962,-0.0032533027075231074
1782831930993657900,6.775657958984375,5.376527618405222,-1.2299246567934752,0.3381249434608966
1782831931003587800,6.785587890625,6.387689112764597,-0.9162249834064393,0.4997723531618714
1782831931013516800,6.795516845703125,7.408207049012184,-0.5455437781251966,0.23567089648470282
1782831931023445800,6.80544580078125,7.826558717811107,-0.28236683414811264,-0.17173033923283218
1782831931033374700,6.815374755859375,7.77209589073956,-0.2904435201577842,-0.11525441877320408
1782831931043304000,6.825303955078125,6.866870805579423,-0.4851640551600605,0.16769750352017582
1782831931053233000,6.83523291015625,6.1256707459717985,-0.7078006980266421,-0.05755436334609985
1782831931063161900,6.845161865234375,5.997574527412652,-0.8074437792353332,-0.13284955056607722
1782831931073090800,6.8550908203125,6.354332202085852,-0.5650340760149062,0.05011902571357786
1782831931083020000,6.86502001953125,5.99685147383511,-0.2163436071369797,0.2801701826203614
1782831931092949000,6.874948974609375,4.683246663314104,-0.2740156785786152,0.4557253408383578
1782831931102878000,6.8848779296875,3.5043542746216056,-0.3142015584945679,0.6916408597338944
1782831931112807000,6.894806884765625,1.184571603372693,-0.3329775706350803,0.5323416936594992
1782831931122735600,6.904735595703125,-1.873965487897396,-0.006985913364589214,-0.6449328845728188
1782831931132664800,6.914664794921875,-3.7036288927316665,0.41662287224493916,-1.30306120467484
1782831931142593800,6.92459375,-3.5977024204045533,0.38816169771850106,-1.4184420263066888
1782831931152522800,6.934522705078125,-2.8892718269765374,0.08126432475745678,-1.8705331753611563
1782831931162451700,6.94445166015625,-2.7275813818514347,0.14768500838726759,-1.8957573407277464
1782831931172381000,6.954380859375,-4.212209698510169,-0.028030747219920157,-1.2132519005425273
1782831931182310000,6.964309814453125,-7.329487732562423,-1.0580025943808258,0.5228070456601679
1782831931192238800,6.97423876953125,-10.264342330062389,-2.3465011668264864,2.7173767987012862
1782831931202167800,6.984167724609375,-11.726212871468066,-2.7980934264481068,4.6202632606565945
1782831931212097000,6.994096923828125,-13.474361191654204,-2.548918759137392,4.0550598194241525
1782831931222026000,7.00402587890625,-15.273884309768675,-1.8565546266302466,3.4552485906690356
1782831931231954700,7.01395458984375,-16.914943543589114,-1.2831785464666783,2.550772278049588
1782831931241883600,7.023883544921875,-18.05847995674014,-0.6035330257572233,1.2311692500270903
1782831931251812900,7.033812744140625,-18.204050457191467,-0.0917715441159904,0.444474682701379
1782831931261741800,7.043741943359375,-18.204934254288673,0.11507307085692882,0.9518032233964652
1782831931271670800,7.0536708984375,-16.90555144586563,-0.11685425518527626,1.078072957180813
1782831931281599700,7.063599853515625,-13.906750738155841,-0.07881342447400093,0.099409491648525
1782831931291529000,7.073529052734375,-10.38881042125225,0.20047873320281503,-0.9864320537071675
1782831931301458000,7.0834580078125,-6.905770737338066,0.14448738138973713,-1.2074347386963664
1782831931311387000,7.093386962890625,-3.798732357749343,-0.23513035986721514,-0.691317692194134
1782831931321315800,7.10331591796875,-1.367131233525276,-0.5289261130623519,-0.05216923624165356
1782831931331245000,7.1132451171875,0.04765373157858848,-0.6920717254318296,0.7447476690866053
1782831931341173800,7.123173828125,0.8213333345085382,-0.7158951571550219,1.4094330826818942
1782831931351102700,7.133102783203125,1.885228055667877,-0.8185921460416168,1.2073531978927552
1782831931361031700,7.14303173828125,2.9812089369177817,-0.491608043667674,0.47319721157774325
1782831931370961000,7.1529609375,3.4004993478715417,-0.017150895156711338,0.315872779642418
1782831931380889900,7.162889892578125,4.0517286291748285,-0.1579533044233918,0.6122184365160763
1782831931390818800,7.17281884765625,5.140896323278546,-0.6432972461950034,0.18442250141501426
1782831931400747800,7.182747802734375,6.000360943260788,-0.6457839484442025,-0.15617887862939386
1782831931410677000,7.192677001953125,6.518202913859486,-0.475237046842277,-0.5229217215484008
1782831931420606000,7.20260595703125,6.778676973819732,-0.5625186591278761,-0.94942326945737
1782831931430535000,7.212534912109375,6.662975541931391,-0.514159774954617,-0.7397671041950583
1782831931440464000,7.2224638671875,6.564619212597608,-0.48545142073407765,-0.6725615537978709
1782831931450393000,7.23239306640625,6.495902234724164,-0.347269715359807,-0.6162728264734149
1782831931460321800,7.24232177734375,6.892746420592069,-0.133378689006716,-0.47106915004048494
1782831931470250800,7.252250732421875,7.672782114550471,-0.018154738437011837,-0.23682941887006162
1782831931480179700,7.2621796875,8.381607844775914,0.2049846663199365,0.04768208089023828
1782831931490109000,7.27210888671875,8.599380242606998,0.46171522890292105,0.1736206830240786
1782831931500038000,7.282037841796875,8.463425127241015,0.643742798005417,0.15609598611891268
1782831931509966800,7.291966796875,8.639130069193243,0.5298307337518781,0.11426387336589396
1782831931519895800,7.301895751953125,8.484856622326374,0.43176703068912026,0.09098061293400823
1782831931529825000,7.311824951171875,8.03008281005919,0.34750272039808333,0.2709555603556335
1782831931539754000,7.32175390625,7.952728352221846,0.058987611019611356,0.078065894042328
1782831931549683000,7.331682861328125,7.952413294923305,-0.03620959669612348,-0.4186512362673878
1782831931559612000,7.34161181640625,7.6095993899285785,0.11311433800458907,-0.7965414230793714
1782831931569540900,7.351540771484375,7.1131953441560265,0.2767811977691948,-0.47308564096204936
1782831931579469800,7.3614697265625,7.061551666158437,0.29057226110398765,-0.09822883049659431
1782831931589398800,7.371398681640625,7.3823068840801715,0.3193545573435724,-0.5537504654563963
1782831931599327700,7.38132763671875,7.598904392912983,0.694469434223324,-0.9074262484662234
1782831931609256700,7.391256591796875,7.327766900119185,0.9780655727043748,-0.6068882544692605
1782831931619186000,7.40118603515625,6.596717647647857,0.8088895941294729,-0.27273002268224955
1782831931629115000,7.411114990234375,5.506551590156555,0.5364015635095536,-0.18484511074125765
1782831931639043800,7.4210439453125,4.1638142086535685,0.5728365664593875,-0.27844372415393587
1782831931648972800,7.430972900390625,3.099562929141521,0.9329745312206447,-0.4559178677357733
1782831931658902000,7.440902099609375,2.130588717648387,1.493222834263742,-0.5966570025078952
1782831931668831000,7.4508310546875,0.30219021818339825,1.9174132922187446,-1.074416699695587
1782831931678760000,7.460760009765625,-2.5189205112367867,2.1604048869803547,-1.9191515141882
1782831931688688600,7.470688720703125,-5.581709999254346,2.025630359701067,-2.188089743372053
1782831931698617900,7.480617919921875,-6.671240681451558,1.0631989939801394,-1.849375528781116
1782831931708546800,7.490546875,-7.851783759960532,-0.42475086831673975,-0.07095657349377871
1782831931718475800,7.500475830078125,-10.579538744813203,-1.3241137834452092,1.8990791786268353
1782831931728404700,7.51040478515625,-12.659628862845898,-1.2836164994925259,3.2473902686089273
1782831931738334000,7.520333984375,-13.974680365043877,-0.9519944351196289,3.8517508312314748
1782831931748263000,7.530262939453125,-13.996021259236334,-1.1867493858031928,3.5716064406394956
1782831931758191900,7.54019189453125,-14.435492872953414,-1.6501345206797122,2.8826702367544175
1782831931768120800,7.550120849609375,-16.333316206300257,-1.9398136323362587,3.0601234836786984
1782831931778050000,7.560050048828125,-18.309161521482466,-2.2591547456763683,3.994197938965261
1782831931787979000,7.56997900390625,-18.359430403995514,-2.4420270950399336,4.521704102227091
1782831931797907700,7.57990771484375,-17.32498915633559,-1.2726001615680753,3.942281581506133
1782831931807836700,7.589836669921875,-15.147480282080172,-0.05801321302950382,2.2524470647312698
1782831931817766000,7.599765869140625,-11.80060146523714,0.837049228426069,0.1728106818154454
1782831931827690800,7.609690673828125,-7.755487285766005,1.1312003709301353,-1.2777405931964516
1782831931837619700,7.61961962890625,-3.4301018744528293,0.6609424276746809,-1.9731170592620968
1782831931847549000,7.629548828125,-0.34128070407807826,0.5942547636717558,-1.3156845394045114
1782831931857478000,7.639477783203125,1.7119167308539152,0.5017923146821558,-0.22400771202407777
1782831931867406800,7.64940673828125,3.183207427033782,-0.014937091564759612,0.4142048513177782
1782831931877335800,7.659335693359375,3.2760844481736417,-0.4382644298844039,0.8461954616297036
1782831931887265000,7.66926513671875,2.39794961451292,-0.7588096583172679,1.4468091658741236
1782831931897194000,7.679194091796875,2.3656255540132523,-1.209452289063856,2.3460110452219842
1782831931907123000,7.689123046875,3.293214446672797,-1.1623070184640585,2.1236700243011115
1782831931917052000,7.699052001953125,3.3048382489711043,-0.6387788919877261,1.4025905233107507
1782831931926980600,7.708980712890625,3.6332413512974977,-0.4615892644356936,0.903874766529724
1782831931936909800,7.718909912109375,4.776450432190299,-0.5982561082676052,0.37445429407916964
1782831931946838800,7.7288388671875,5.907367017742991,-0.6367056659102439,0.08940819425182417
1782831931956767700,7.738767822265625,6.782488641062378,-0.7232125674962997,-0.20409517013430595
1782831931966696700,7.74869677734375,7.505033100038767,-0.9531203704096376,-0.6194483877696096
1782831931976626000,7.7586259765625,7.94098939911127,-1.182000072384253,-0.5397956263946369
1782831931986555000,7.768554931640625,8.213826097038387,-1.4280737780049442,-0.25275555800478905
1782831931996483800,7.77848388671875,8.467619656321405,-1.4939356587082147,-0.12250235320799983
1782831932006412800,7.788412841796875,8.638287773150205,-1.5857415434852242,-0.028834099492058157
1782831932016342000,7.798342041015625,8.49146581133306,-1.6831749127551912,0.3662243354702368
1782831932026271000,7.80827099609375,8.201323173817991,-1.7853996079549193,0.7685260195590555
1782831932036200000,7.818199951171875,7.899445674845576,-1.7638596840590237,0.8949090775247662
1782831932046128600,7.828128662109375,7.55252784166336,-1.575844126588106,0.41529410785920917
1782831932056057900,7.838057861328125,7.171310263994336,-1.1294723780937492,-0.09580108275986277
1782831932065986800,7.84798681640625,6.747141433349252,-0.641072117491439,-0.15687769281482322
1782831932075915800,7.857915771484375,6.592454144984483,-0.5126041430104523,-0.2568560886587947
1782831932085844700,7.8678447265625,6.906662133219838,-0.7622435782887041,-0.5325719952840358
1782831932095774000,7.87777392578125,7.043298801109194,-0.9452207032009958,-0.5982268821731209
1782831932105703000,7.887702880859375,6.976070015966892,-0.9691617699544877,-0.5010172386564314
1782831932115631900,7.8976318359375,7.063983277219534,-0.8813584718823433,-0.2659492034357041
1782831932125560800,7.907560791015625,6.910158743163943,-0.7904723322987556,0.06957301018089056
1782831932135490000,7.917489990234375,6.230328221276402,-0.6443977547828108,0.27454079843126233
1782831932145419000,7.9274189453125,5.30849628470838,-0.44845977028217165,0.3132994220230728
1782831932155347700,7.93734765625,4.523671602907776,-0.264611415493302,0.06006890345029533
1782831932165276700,7.947276611328125,3.6507109570145606,-0.09373597605675459,-0.10235789312534034
1782831932175206000,7.957205810546875,2.381023614153266,0.10589863447211682,-0.1562405822213739
1782831932185134800,7.967134765625,0.9321335503518581,0.21606734747886658,-0.4369059279475361
1782831932195063800,7.977063720703125,-0.7554144629210233,0.29845578089542685,-0.6244652660835533
1782831932204994000,7.986994140625,-2.364053774651885,0.38747174269296225,-0.7188127251021563
1782831932214923000,7.996923095703125,-3.6484547025203704,0.3929715091530233,-0.5098353358842432
1782831932224852000,8.00685205078125,-4.574699779355526,0.3877366041742265,0.5374991494879127
1782831932234780700,8.01678076171875,-5.863619645953178,0.5488070177048444,1.6642574463173747
1782831932244710000,8.0267099609375,-9.364420027485489,0.6666515991017222,1.9549568409323692
1782831932254638800,8.036638916015624,-12.797865951669216,-0.39643063663095235,1.176103196365386
1782831932264567800,8.04656787109375,-13.378520644533634,-2.031674169909954,1.2663169896453619
1782831932274496800,8.056496826171875,-14.137847312462329,-2.1439894664913415,2.6024542422309516
1782831932284425700,8.06642578125,-15.160115307247638,-1.9878430653594432,4.040055434776843
1782831932294355000,8.07635498046875,-16.197700113630294,-2.27583378553763,4.4606382236287
1782831932304284000,8.086283935546875,-17.06864591256976,-2.1661545365482566,3.636411213505268
1782831932314212900,8.096212890625,-18.16730039694309,-1.6031100269153713,2.7497768470466135
1782831932324141800,8.106141845703124,-19.2722642105937,-1.6148147854954003,2.784937007755041
1782831932334071000,8.116071044921876,-19.047058447891473,-1.7042044029109178,2.803896559768915
1782831932343999700,8.125999755859375,-16.38814435955286,-1.0759778845977037,1.7158754053518175
1782831932353928700,8.1359287109375,-12.603852615088224,-0.20287183888442814,0.32401202776059507
1782831932363857700,8.145857666015624,-8.99037277983725,0.00981572996303439,-0.23506065563187
1782831932373787000,8.155786865234376,-5.755339303976297,-0.41618155821822583,-0.2742521176829934
1782831932383715800,8.1657158203125,-3.2621523689329623,-0.9298990692980587,-0.35532077373787757
1782831932393644800,8.175644775390625,-1.213667349475622,-1.4086818259231746,-0.4056716354459524
1782831932403573800,8.18557373046875,0.3193839295685291,-1.6360346836566924,0.04035451448112726
1782831932413503000,8.1955029296875,1.4368261165201663,-1.67429529459849,0.8990440584376453
1782831932423432000,8.205431884765625,2.2491052069574593,-1.7714591992773114,1.4923060116797684
1782831932433361000,8.21536083984375,2.6678958516955373,-1.6823646192856132,1.5219804344534873
1782831932443289900,8.225289794921874,3.512220185691118,-1.577215414941311,1.1124619873862713
1782831932453218800,8.23521875,4.664265483990311,-1.5598504386425018,0.7215327246505767
1782831932463147800,8.245147705078125,5.729743090426921,-1.363537592947483,0.2969829318638891
1782831932473076700,8.25507666015625,6.77730042476952,-1.1751380045950413,-0.30824571883007884
1782831932483005700,8.265005615234376,7.662528431561589,-1.1423326633844524,-0.9538029458463192
1782831932492935000,8.274934814453125,8.121817675426602,-0.957315045620501,-1.1772963516727089
1782831932502864000,8.28486376953125,8.324356263768673,-0.6482604946255683,-1.0947526546292006
1782831932512792800,8.294792724609374,8.283547283518313,-0.5304516421291977,-0.9364217490650713
1782831932522721800,8.3047216796875,8.236306808915733,-0.6495123213175684,-0.6004351328071207
1782831932532651000,8.314651123046875,8.053567146021127,-0.8284794799361378,-0.2572331052776426
1782831932542580000,8.324580078125,7.73938253866136,-0.9794775583941489,-0.07140950489304959
1782831932552509000,8.334509033203124,7.552035089710355,-1.1878672839172184,-0.35717253908440466
1782831932562438000,8.34443798828125,7.16854196832478,-1.4033885418206453,-0.5704964330740273
1782831932572366800,8.354366943359375,6.572943973350524,-1.6252002781704067,-0.6106676999427377
1782831932582295800,8.3642958984375,6.76381608929634,-1.5984540178030728,-0.5637804226920008
1782831932592224800,8.374224853515624,7.3174565185070035,-1.2028257835961877,-0.6097042617380619
1782831932602153700,8.38415380859375,7.885261666670441,-0.754732983462885,-0.7176163549244403
1782831932612083000,8.3940830078125,8.546467567586898,-0.668742726162076,-1.0612596964806318
1782831932622012000,8.404011962890625,8.852744178301096,-0.7088152088314295,-1.3316050159834325
1782831932631940900,8.41394091796875,8.873201275396347,-0.6597577479347586,-1.4119823287732898
1782831932641869800,8.423869873046876,8.881670413056016,-0.6140749511029571,-1.252202247314155
1782831932651799000,8.433799072265625,8.374711070999503,-0.49089909168072043,-0.9071331107385456
1782831932661728000,8.44372802734375,8.147144424384832,-0.17033355111218987,-0.6494881367243825
1782831932671657000,8.453656982421874,8.088136939620972,0.12512940464280545,-0.4873540394850075
1782831932681585700,8.463585693359375,8.116140798833966,0.31342655553407966,-0.578366289666295
1782831932691515000,8.473514892578125,8.344654370909929,0.7323941642742604,-0.5794352340720593
1782831932701443800,8.48344384765625,8.52645236904025,1.2199742676001042,-0.37913302647992964
1782831932711372800,8.493372802734376,8.017315682944655,1.3381659819342195,-0.03460895656645298
1782831932721301800,8.5033017578125,6.2908402653843165,1.1242676490575074,0.056106941016763445
1782831932731230700,8.513230712890625,4.448196967467665,0.8703682913124561,0.18119871706292032
1782831932741160000,8.523159912109374,2.9969699851512908,0.908803382038325,0.4908426122531295
1782831932751089000,8.5330888671875,1.7111135977774858,1.054879055532813,0.15048647567406295
1782831932761017900,8.543017822265625,-0.16032441746890544,0.8863089338965714,-0.9969337931729852
1782831932770946800,8.55294677734375,-2.70614228798151,0.13007029511108995,-1.763509409316629
1782831932780876000,8.5628759765625,-4.04793917376399,-0.6526946776807308,-1.3414815362229942
1782831932790804700,8.5728046875,-3.8604713133037087,-0.4298348935827613,-0.5432413464017212
1782831932800733700,8.582733642578125,-4.827823476552963,0.3459323292762041,0.00405249026119709
1782831932810662700,8.59266259765625,-6.4393292836308476,0.003793108672648668,0.024882804583013056
1782831932820591900,8.602591796875,-7.792005875346064,-1.0807247137986122,0.3497480881720781
1782831932830521000,8.61252099609375,-10.640546463483572,-1.7586662070691585,1.255021250257641
1782831932840450000,8.622449951171875,-13.275135088860988,-2.0372988779239356,2.453021805654466
1782831932850379000,8.63237890625,-15.381457380259036,-1.9426225522771476,3.3624580787688494
1782831932860308200,8.64230810546875,-17.42683741943836,-1.5973646151311696,3.390455508241057
1782831932870237200,8.6522373046875,-18.412335480231047,-0.8973042290329932,2.591944246393442
1782831932880166100,8.662166259765625,-19.187141456842422,0.2534269179277122,1.9441244812726974
1782831932890095000,8.67209521484375,-19.26573627012968,0.9535178452946245,1.5232679900459944
1782831932900024000,8.682024169921876,-18.05045564023852,1.2601526217967272,0.8879416496649384
1782831932909953000,8.691953125,-16.272759738528727,1.3541576240532098,-0.03303067439906299
1782831932919882000,8.701882080078125,-13.715247338569164,1.3434141117207705,-0.8259666933976113
1782831932929811000,8.71181103515625,-10.334335319221019,1.3254181440420447,-0.5580438518013805
1782831932939740200,8.721740234375,-6.721490274742245,1.0360084239114076,-0.24337314142510294
1782831932949669000,8.731669189453125,-4.426378518891334,0.4011506508901715,0.20146146062985062
1782831932959598000,8.74159814453125,-2.772382062086463,-0.5392367138702422,0.7262019585706293
1782831932969527000,8.751527099609374,-1.4401134676277636,-1.0582645332526415,1.4057102627664804
1782831932979456300,8.761456298828126,-1.3790285920679568,-0.90999244569242,2.145796954304725
1782831932989385200,8.77138525390625,-1.2785907802850007,-0.9551365325376391,1.8299694020435213
1782831932999314200,8.781314208984375,-0.4857108023226261,-0.977063044598326,1.3809003772892057
1782831933009243100,8.7912431640625,0.331247385841608,-0.43590928159300235,1.203768544339016
1782831933019172000,8.801172119140626,1.5202099176496267,-0.11270485302140004,1.1109196533150971
1782831933029101000,8.81110107421875,2.7209815451949835,-0.21630776863861828,0.9740606479119509
1782831933039030000,8.821030029296875,3.5448330000042914,-0.36432412787210194,0.48659693750739097
1782831933048959000,8.830958984375,4.328520202207565,-0.6608943507492542,0.17143062563389538
1782831933058888200,8.84088818359375,5.093497443243861,-1.0492608503248542,0.13930771372951567
1782831933068817200,8.850817138671875,5.76907907551527,-1.2660086543485523,0.03549845275208354
1782831933078746000,8.86074609375,6.084769995784759,-1.3421065362535416,0.17286781883016228
1782831933088675000,8.870675048828126,6.232844588011503,-1.3958067083895205,0.32158341237418353
1782831933098604300,8.880604248046875,6.565508854913711,-1.4946509673707187,0.11251469161100686
1782831933108533200,8.890533203125,6.646447600978613,-1.6469064985439181,0.035375849285721774
1782831933118462200,8.900462158203124,6.818123433545232,-1.7382323447190224,-0.04877170275785029
1782831933128391000,8.910390869140626,7.095631045892834,-1.5223070360593496,0.06187485689371824
1782831933138320100,8.920320068359375,7.2488698890149585,-1.285071812867373,0.07527816301994025
1782831933148249000,8.9302490234375,7.110995788285136,-1.2062339115392415,-0.0937685631521046
1782831933158178000,8.940177978515624,6.968851755151152,-1.0624042634058743,-0.12153225693367421
1782831933168107000,8.95010693359375,6.889142258620262,-0.7670868536014109,-0.3047944823976606
1782831933178036200,8.9600361328125,7.033708550465106,-0.3533390618687495,-0.5199198728512973
1782831933187965200,8.969965087890625,7.457174201276898,-0.22222689302191137,-0.8359316225729883
1782831933197894100,8.97989404296875,7.889956546488404,-0.362422166708298,-1.171762682943046
1782831933207823000,8.989822998046876,8.059127702757715,-0.47078752008751035,-1.4034464094877241
1782831933217752300,8.99975244140625,7.513878669795393,-0.40783243020903315,-1.114922166954726
1782831933227681300,9.009681396484375,7.068308739203214,-0.3957168988710269,-0.7275223935194313
1782831933237611000,9.019611083984374,7.207080665555596,-0.4768113834869116,-0.7026359356746077
1782831933247540000,9.0295400390625,7.3637430533856145,-0.4668875900395214,-1.0004878323927522
1782831933257469200,9.03946923828125,7.109021857863664,-0.4787657324250787,-1.1066361307770014
1782831933267398100,9.049398193359375,6.61342386777699,-0.5301508325517177,-0.8651938112840056
1782831933277327000,9.0593271484375,5.652071821725368,-0.39332660620100796,-0.592895604147762
1782831933287256000,9.069256103515626,4.923101129093766,-0.16013021007105707,-0.7082412083357572
1782831933297185300,9.079185302734375,5.157886621046066,0.1162617691848427,-1.2534497631572186
1782831933307114200,9.0891142578125,5.6479503578811885,0.2616349204331636,-1.7495470810681581
1782831933317043000,9.09904296875,5.224137501066923,0.294882671649009,-1.5283778804056345
1782831933326972000,9.108971923828125,3.6301451388478276,0.2615339442767203,-0.9958721552908419
1782831933336901000,9.118901123046875,1.5962410179287194,0.0937758696757257,-0.9327079892389476
1782831933346830000,9.128830078125,-0.349119727140665,-0.05891016186922788,-0.9086990448810159
1782831933356759000,9.138759033203126,-1.5685715052366256,-0.0053767246022820465,-0.9634778060339391
1782831933366688000,9.14868798828125,-2.7218653422921895,0.07476122647374868,-0.8234433123998344
1782831933376617200,9.1586171875,-4.559893255367875,0.0008984101444482803,-0.1623635220810771
1782831933386546200,9.168546142578125,-6.24663229034543,-0.6224855635084211,0.5973531680785119
1782831933396475100,9.17847509765625,-7.820107349714636,-1.6327961401268838,1.2264052504956722
1782831933406404000,9.188404052734375,-10.467741919147967,-2.328554445116967,1.4937423280932007
1782831933416333300,9.198333251953125,-12.289444135844708,-2.3339637568145988,1.6873349550440906
1782831933426262000,9.208261962890624,-13.234854516398906,-2.0937534633345902,1.6810435998149216
1782831933436191000,9.21819091796875,-14.174756362664699,-2.07580308836326,2.225003762010485
1782831933446120000,9.228119873046875,-16.05128205643892,-1.746366551335901,3.8292709961369633
1782831933456049200,9.238049072265625,-16.94141653997302,-1.1388365648970007,4.915927291941642
1782831933465978000,9.24797802734375,-16.68900128330588,-0.045901481083780525,4.033304791472852
1782831933475907000,9.257906982421876,-15.561467910450697,1.2426834544710814,2.130279213307798
1782831933485836000,9.2678359375,-13.279904787480831,2.0743619496442376,0.44871495061963795
1782831933495765200,9.27776513671875,-10.361944626158476,1.6942209151655434,-0.9011421997606753
1782831933505694200,9.287694091796874,-7.655078115555644,0.5291420939005911,-1.7513531075768172
1782831933515623200,9.297623046875,-6.04312281114459,0.22590689670890568,-0.5232001366309821
1782831933525552000,9.30755224609375,-4.829457215234637,-0.17734949428886174,0.3809681329526007
1782831933535481000,9.317481201171875,-3.728723001977801,-0.7071570663608611,1.1625315479349345
1782831933545410000,9.32741015625,-3.504622570168972,-0.9019758741058409,1.8688383541420102
1782831933555339000,9.337339111328125,-3.06358969848454,-0.9166153709635138,1.7975456805616616
1782831933565268000,9.34726806640625,-1.902854313251376,-0.9610352351874113,0.8262536205802112
1782831933575197200,9.357197265625,-0.97623748049438,-0.7597953814189881,0.312300327983126
1782831933585126100,9.367126220703126,0.27515841887295245,-0.7095705572433769,0.30462621315866706
1782831933595055000,9.37705517578125,1.4446043493062257,-0.9585592735279351,0.5866435580156744
1782831933604984000,9.386984130859375,2.2938369136095047,-1.2612220045939087,0.9353235785648226
1782831933614913000,9.3969130859375,3.2985938016235825,-1.4230132797449826,0.8349628506060689
1782831933624842200,9.40684228515625,4.546527577838301,-1.3725840921036898,0.42212607277110215
1782831933634771200,9.416771240234375,5.882166525512933,-1.2958597488634287,0.021520561608299613
1782831933644700200,9.4267001953125,6.718821932315826,-1.4106331061214208,0.025012422312051058
1782831933654629000,9.436629150390624,6.995256946995854,-1.714977287468314,0.2956877044215798
1782831933664558000,9.44655810546875,7.014048741227388,-1.9182026890307664,0.49494632124491034
1782831933674487000,9.456487060546875,6.424838401463627,-2.0414985215708614,0.7088746108684688
1782831933684416000,9.466416015625,5.748979705816507,-2.3828888235032557,0.14629063141942023
1782831933694345000,9.476344970703124,5.777504958555102,-2.477522625182569,-0.5320240790776908
1782831933704274200,9.486274169921876,6.2748652821391815,-1.8889165349222719,-0.21745178757458924
1782831933714203100,9.496203125,6.348848802238702,-1.446510621318966,-0.1782786648977548
1782831933724132000,9.506132080078125,6.22988456916213,-1.3785079291947184,-0.06547894580028951
1782831933734061000,9.51606103515625,7.280690091645718,-1.4841364414885638,0.015523513150587677
1782831933743990300,9.525990234375,6.941110346266627,-1.4363437398307024,0.13453911108821628
1782831933753919200,9.535919189453125,6.468561223334073,-1.4227826858595012,-0.22083879966437817
1782831933763848200,9.54584814453125,6.785837366968393,-1.2850444864690302,-0.7662306020982563
1782831933773777000,9.55577685546875,7.462642988076806,-1.0364292796719818,-0.8904270367398858
1782831933783706000,9.5657060546875,7.264425185543298,-0.8853090361390262,-0.7592324137739836
1782831933793635000,9.575635009765625,4.344322751495242,-1.2138758776597678,-0.4942588504374027
1782831933803564000,9.58556396484375,2.300180729678273,-1.5514245556026696,0.43671310878917574
1782831933813493000,9.595492919921876,2.5205115798205138,-1.378008309109509,0.5548360687360168
1782831933823422200,9.605422119140625,3.2144442768186328,-1.0048134405069054,-0.309453925576061
1782831933833351200,9.61535107421875,5.055037071946263,-0.011501783353835345,-0.3099244656972587
1782831933843280100,9.625280029296874,6.2482549231112,0.8893979859530925,-0.3972951445057988
1782831933853209000,9.635208984375,6.134059219610691,1.1369324848413467,-0.5781546927422285
1782831933863138300,9.64513818359375,5.497265875416994,0.6281677738633007,-0.86107322422266
