time,seconds_elapsed,z,y,x
1782831924301511700,0.08351171875,-0.1888151913881302,0.4862314760684967,0.5401026606559753
1782831924311440600,0.093440673828125,-0.6652926206588745,0.7970616221427917,0.9098281860351562
1782831924321369600,0.10336962890625,-0.9323413372039795,1.4078360795974731,1.0652761459350586
1782831924331298800,0.113298828125,-1.068166732788086,2.177114963531494,0.8728089332580566
1782831924341227800,0.123227783203125,-1.1302615404129028,2.5751893520355225,0.3622828722000122
1782831924351156700,0.13315673828125,-0.9541844725608826,2.282451629638672,-0.25700172781944275
1782831924361085700,0.143085693359375,-0.5337294340133667,1.6521170139312744,-0.650916576385498
1782831924371015000,0.153014892578125,-0.07796885073184967,1.0176889896392822,-0.7794200778007507
1782831924380944000,0.16294384765625,0.2165120542049408,0.21873058378696442,-0.7878572344779968
1782831924390872800,0.172872802734375,0.3539924621582031,-0.7306497097015381,-0.6026532053947449
1782831924400801500,0.182801513671875,0.3826792240142822,-1.5116316080093384,-0.28155210614204407
1782831924410730800,0.192730712890625,0.4107203185558319,-2.0342857837677,0.07606534659862518
1782831924420659700,0.20265966796875,0.460997074842453,-2.3277392387390137,0.47693899273872375
1782831924430588700,0.212588623046875,0.4682230055332184,-2.1025424003601074,0.833713948726654
1782831924440517600,0.222517578125,0.3025820851325989,-1.4397339820861816,0.9965776801109314
1782831924450446800,0.23244677734375,0.05203470215201378,-1.0353178977966309,1.038777470588684
1782831924460375800,0.242375732421875,0.007162035442888737,-0.5217255353927612,1.0034966468811035
1782831924470304800,0.2523046875,0.1915714144706726,-0.09980648010969162,0.9079092741012573
1782831924480233700,0.262233642578125,0.3977448344230652,0.00727416854351759,0.7150783538818359
1782831924490162700,0.27216259765625,0.5332923531532288,0.19302606582641602,0.46838390827178955
1782831924500092000,0.282091796875,0.5764334201812744,0.3178255259990692,0.20609265565872192
1782831924510020600,0.2920205078125,0.5560991764068604,0.07302698493003845,0.01798875257372856
1782831924519949600,0.301949462890625,0.5030370354652405,-0.49382975697517395,0.031138908118009567
1782831924529878500,0.31187841796875,0.391422837972641,-0.9964745044708252,0.2559063136577606
1782831924539807700,0.321807861328125,0.1809987723827362,-1.157427430152893,0.5426733493804932
1782831924549736700,0.33173681640625,-0.12135007232427597,-1.2472137212753296,0.6793211698532104
1782831924559665700,0.341665771484375,-0.4998302459716797,-1.3935106992721558,0.677868664264679
1782831924569594600,0.3515947265625,-0.9024447202682495,-1.5586589574813843,0.6174235939979553
1782831924579523800,0.36152392578125,-1.313637137413025,-1.5219007730484009,0.4751870632171631
1782831924589452800,0.371452880859375,-1.6351386308670044,-1.404119849205017,0.31429553031921387
1782831924599381800,0.3813818359375,-1.8226418495178223,-1.558659315109253,0.13991093635559082
1782831924609310700,0.391310791015625,-1.8014198541641235,-2.2197821140289307,-0.11679066717624664
1782831924619239700,0.40123974609375,-1.5985751152038574,-3.273238182067871,-0.5241382122039795
1782831924629167900,0.41116796875,-1.3187881708145142,-4.079908847808838,-0.9204200506210327
1782831924639096800,0.421096923828125,-1.0120415687561035,-4.172008991241455,-1.1984543800354004
1782831924649025800,0.43102587890625,-0.7261025309562683,-3.714866876602173,-1.3434500694274902
1782831924658954500,0.44095458984375,-0.4763939082622528,-3.025146961212158,-1.4557758569717407
1782831924668883700,0.4508837890625,-0.3352717459201813,-2.0415093898773193,-1.5145366191864014
1782831924678812700,0.460812744140625,-0.3444758951663971,-0.6277857422828674,-1.4172002077102661
1782831924688741600,0.47074169921875,-0.47914960980415344,0.7971559166908264,-1.2554068565368652
1782831924698670600,0.480670654296875,-0.6591534614562988,1.7194056510925293,-1.1352518796920776
1782831924708599800,0.490599853515625,-0.8040846586227417,1.8734008073806763,-1.0777604579925537
1782831924718528800,0.50052880859375,-0.8407310843467712,1.5488523244857788,-1.0977383852005005
1782831924728457700,0.510457763671875,-0.7432250380516052,1.3029001951217651,-1.1549248695373535
1782831924738386700,0.52038671875,-0.5622145533561707,1.191435694694519,-1.2101037502288818
1782831924748316000,0.53031591796875,-0.48501133918762207,0.9905881881713867,-1.244762659072876
1782831924758244900,0.540244873046875,-0.5532162189483643,0.5180010199546814,-1.1960340738296509
1782831924768173600,0.550173583984375,-0.6218076348304749,0.10118231177330017,-0.958347737789154
1782831924778102500,0.5601025390625,-0.6129292249679565,-0.046050816774368286,-0.5359163284301758
1782831924788031700,0.57003173828125,-0.5314374566078186,0.0056034959852695465,-0.0559673048555851
1782831924797960700,0.579960693359375,-0.3957749307155609,-0.007135469000786543,0.358885258436203
1782831924807889700,0.5898896484375,-0.27926141023635864,-0.06409361213445663,0.6261870265007019
1782831924817818600,0.599818603515625,-0.2508516311645508,-0.05950658768415451,0.7248941659927368
1782831924827747600,0.60974755859375,-0.2956884801387787,-0.13994823396205902,0.5697917342185974
1782831924837676500,0.619676513671875,-0.3660489320755005,-0.4796261787414551,0.24639317393302917
1782831924847605800,0.629605712890625,-0.38447627425193787,-0.8056900501251221,-0.07876856625080109
1782831924857534700,0.63953466796875,-0.26854994893074036,-0.9264915585517883,-0.2036156952381134
1782831924867463700,0.649463623046875,-0.1359729915857315,-0.8035405874252319,-0.14234541356563568
1782831924877392600,0.659392578125,-0.13265523314476013,-0.7518366575241089,0.08520092815160751
1782831924887321600,0.669321533203125,-0.21759454905986786,-0.7535114288330078,0.3625361919403076
1782831924897250600,0.67925048828125,-0.3566102385520935,-0.607286274433136,0.514033854007721
1782831924907179500,0.689179443359375,-0.4758261442184448,-0.2608911991119385,0.5324217677116394
1782831924917108500,0.6991083984375,-0.5251718759536743,0.29792124032974243,0.4166310429573059
1782831924927037700,0.70903759765625,-0.4727076292037964,0.8179208636283875,0.22492489218711853
1782831924936966700,0.718966552734375,-0.31133657693862915,1.0921499729156494,0.032170619815588
1782831924946895600,0.7288955078125,-0.1396838128566742,1.183511734008789,-0.07012858986854553
1782831924956824600,0.738824462890625,-0.061578087508678436,1.088537573814392,-0.06590481102466583
1782831924966753800,0.74875390625,-0.0634411945939064,0.9083660840988159,0.013621360063552856
1782831924976682800,0.758682861328125,-0.05793910473585129,0.8105071783065796,0.14906947314739227
1782831924986611700,0.76861181640625,0.008756529539823532,0.800582230091095,0.29285502433776855
1782831924996540700,0.778540771484375,0.1529182344675064,0.7079476118087769,0.4346712827682495
1782831925006469400,0.788469482421875,0.33646538853645325,0.6046521663665771,0.5589905977249146
1782831925016398600,0.798398681640625,0.476727157831192,0.6837901473045349,0.5913306474685669
1782831925026327600,0.80832763671875,0.5713534951210022,0.8107008337974548,0.4667972922325134
1782831925036256500,0.818256591796875,0.6930671334266663,0.7972865104675293,0.2508538067340851
1782831925046185500,0.828185546875,0.7983914017677307,0.8795903325080872,0.09369093179702759
1782831925056114700,0.83811474609375,0.7933433651924133,1.0723682641983032,0.1006268709897995
1782831925066043600,0.848043701171875,0.6574633121490479,1.2620810270309448,0.26966413855552673
1782831925075972600,0.85797265625,0.5260363221168518,1.361240029335022,0.631162703037262
1782831925085901600,0.867901611328125,0.4221266806125641,1.345287561416626,0.9215197563171387
1782831925095830800,0.877830810546875,0.4849626421928406,1.3110315799713135,0.9551945924758911
1782831925105759700,0.887759765625,0.7023667097091675,1.2543926239013672,0.7567558288574219
1782831925115688400,0.8976884765625,0.948304295539856,1.1235642433166504,0.37736591696739197
1782831925125617400,0.907617431640625,1.1512806415557861,0.9478706121444702,-0.04343602433800697
1782831925135546600,0.917546630859375,1.2409214973449707,0.7203282713890076,-0.43086734414100647
1782831925145475600,0.9274755859375,1.2302067279815674,0.26907625794410706,-0.7239538431167603
1782831925155404500,0.937404541015625,1.1085889339447021,-0.19173237681388855,-0.9277695417404175
1782831925165333500,0.94733349609375,0.9401660561561584,-0.479740172624588,-0.8527839779853821
1782831925175262700,0.9572626953125,0.7648850679397583,-0.3910864591598511,-0.5364227890968323
1782831925185191700,0.967191650390625,0.6179857850074768,-0.16606773436069489,-0.2484002560377121
1782831925195120600,0.97712060546875,0.5707170367240906,0.11067064851522446,-0.13639116287231445
1782831925205049600,0.987049560546875,0.5897465348243713,0.24295441806316376,-0.12060637027025223
1782831925214978800,0.996978759765625,0.6630641222000122,0.16701677441596985,-0.11744625866413116
1782831925224907500,1.006907470703125,0.7385078072547913,-0.09420783072710037,-0.0690443366765976
1782831925234836500,1.01683642578125,0.7881022095680237,-0.5081503987312317,0.08005379885435104
1782831925244765400,1.026765380859375,0.763139009475708,-0.8431395292282104,0.28767240047454834
1782831925254694700,1.036694580078125,0.643531084060669,-0.9296001195907593,0.4920055568218231
1782831925264623600,1.04662353515625,0.49646368622779846,-0.8044049739837646,0.6617087125778198
1782831925274552600,1.056552490234375,0.3646553158760071,-0.5848654508590698,0.7492337822914124
1782831925284481500,1.0664814453125,0.2258329540491104,-0.406615674495697,0.8006763458251953
1782831925294410800,1.07641064453125,0.04374944418668747,-0.18808811902999878,0.7950765490531921
1782831925304339700,1.086339599609375,-0.15519805252552032,0.06779391318559647,0.7595677971839905
1782831925314268700,1.0962685546875,-0.309053897857666,0.2803133428096771,0.7428015470504761
1782831925324197600,1.10619775390625,-0.4108246862888336,0.43190306425094604,0.7499330639839172
1782831925334126600,1.116126708984375,-0.49130380153656006,0.528068482875824,0.7950523495674133
1782831925344055600,1.1260556640625,-0.5872238278388977,0.5424376130104065,0.8637895584106445
1782831925353984500,1.135984619140625,-0.6703453660011292,0.45245447754859924,0.9198280572891235
1782831925363913500,1.14591357421875,-0.7592760324478149,0.19739848375320435,0.8994511365890503
1782831925373842700,1.1558427734375,-0.8440500497817993,-0.3223365843296051,0.7475489377975464
1782831925383771600,1.165771728515625,-0.8830925822257996,-1.0093177556991577,0.44735920429229736
1782831925393700600,1.17570068359375,-0.8148038387298584,-1.309556484222412,0.10296109318733215
1782831925403629600,1.185629638671875,-0.6506679058074951,-1.2910726070404053,-0.11050595343112946
1782831925413558800,1.195558837890625,-0.4662642478942871,-0.9772752523422241,-0.21467149257659912
1782831925423486700,1.20548681640625,-0.32543736696243286,-0.5870690941810608,-0.2101334035396576
1782831925433415700,1.215415771484375,-0.29439449310302734,-0.3037031590938568,-0.15117181837558746
1782831925443344600,1.2253447265625,-0.31928619742393494,-0.2721613645553589,-0.04680328443646431
1782831925453273600,1.235273681640625,-0.29219678044319153,-0.39265555143356323,0.111783966422081
1782831925463202800,1.245202880859375,-0.228305846452713,-0.5695749521255493,0.2948654890060425
1782831925473131800,1.2551318359375,-0.18308457732200623,-0.7624802589416504,0.5082603096961975
1782831925483060500,1.265060546875,-0.1934824287891388,-0.9724510908126831,0.7135895490646362
1782831925492989400,1.274989501953125,-0.2867172956466675,-1.1419363021850586,0.8842100501060486
1782831925502918700,1.284918701171875,-0.45304304361343384,-1.1454106569290161,0.9740849137306213
1782831925512847600,1.29484765625,-0.6386393308639526,-0.9132242202758789,0.8964255452156067
1782831925522776600,1.304776611328125,-0.7616155743598938,-0.6339035630226135,0.7089405059814453
1782831925532705500,1.31470556640625,-0.8439946174621582,-0.03568465635180473,0.4441570043563843
1782831925542634500,1.324634521484375,-0.8489975333213806,0.6494029760360718,0.24670682847499847
1782831925552563700,1.334563720703125,-0.7601504921913147,1.0153628587722778,0.1327323019504547
1782831925562492700,1.34449267578125,-0.6652100682258606,1.2325842380523682,0.0769105851650238
1782831925572421600,1.354421630859375,-0.7077444791793823,1.2973650693893433,-0.004594926722347736
1782831925582350600,1.3643505859375,-0.8340311646461487,1.1081883907318115,-0.06759633868932724
1782831925592279600,1.374279541015625,-0.8757240176200867,0.6944193840026855,-0.0698472410440445
1782831925602208500,1.38420849609375,-0.6912505626678467,0.3931237459182739,0.04309007152915001
1782831925612137500,1.394137451171875,-0.4530060589313507,0.4985950291156769,0.23190340399742126
1782831925622066400,1.40406640625,-0.3378687798976898,1.0105857849121094,0.39927732944488525
1782831925631995600,1.41399560546875,-0.2111542522907257,1.5547069311141968,0.6185590624809265
1782831925641924600,1.423924560546875,0.017701031640172005,2.026832103729248,0.7127861380577087
1782831925651853600,1.433853515625,0.2876494228839874,1.9130889177322388,0.5368825197219849
1782831925661782500,1.443782470703125,0.45792973041534424,1.0380966663360596,0.012343117967247963
1782831925671711700,1.453711669921875,0.44302403926849365,0.29871898889541626,-0.5359790921211243
1782831925681640700,1.463640625,0.19682617485523224,0.17748241126537323,-0.7973974347114563
1782831925691569700,1.473569580078125,-0.18083801865577698,0.21126620471477509,-0.8816444277763367
1782831925701498600,1.48349853515625,-0.5230163335800171,0.08333837985992432,-0.9394861459732056
1782831925711427600,1.493427490234375,-0.7106282711029053,0.13238315284252167,-1.1107258796691895
1782831925721356500,1.5033564453125,-0.6802459955215454,0.5585146546363831,-1.468902349472046
1782831925731285500,1.513285400390625,-0.44960322976112366,1.1342939138412476,-1.861993670463562
1782831925741214500,1.52321435546875,-0.18886500597000122,1.332576870918274,-2.1151092052459717
1782831925751143700,1.533143798828125,-0.08506030589342117,0.9925633072853088,-2.089262008666992
1782831925761072600,1.54307275390625,0.005775392521172762,0.3102706968784332,-1.795538306236267
1782831925771001600,1.553001708984375,0.005382309667766094,-0.48515453934669495,-1.486722707748413
1782831925780930600,1.5629306640625,-0.17884835600852966,-1.4650192260742188,-1.5584962368011475
1782831925790859800,1.57285986328125,-0.30431225895881653,-2.4313559532165527,-1.808235764503479
1782831925800788700,1.582788818359375,-0.41198793053627014,-2.9012627601623535,-1.8708306550979614
1782831925810717700,1.5927177734375,-0.5468493700027466,-2.6431798934936523,-1.8301982879638672
1782831925820647400,1.6026474609375,-0.5424719452857971,-1.9896161556243896,-1.6933716535568237
1782831925830576400,1.612576416015625,-0.42544013261795044,-1.2498198747634888,-1.5015888214111328
1782831925840505300,1.62250537109375,-0.25570085644721985,-0.4971546232700348,-1.2778441905975342
1782831925850434600,1.6324345703125,-0.0569576658308506,0.050767846405506134,-1.0530076026916504
1782831925860363500,1.642363525390625,0.1517072170972824,0.2985990643501282,-0.8393906950950623
1782831925870292500,1.65229248046875,0.2691611647605896,0.2608039975166321,-0.5669256448745728
1782831925880221400,1.662221435546875,0.26126527786254883,0.02842472866177559,-0.20613493025302887
1782831925890150700,1.672150634765625,0.13724294304847717,-0.230970099568367,0.1873905211687088
1782831925900079600,1.68207958984375,-0.03393710032105446,-0.46343180537223816,0.5046151280403137
1782831925910008300,1.69200830078125,-0.15562571585178375,-0.6216986775398254,0.6854645609855652
1782831925919937300,1.701937255859375,-0.22181828320026398,-0.5884754061698914,0.7515003085136414
1782831925929866500,1.711866455078125,-0.27627646923065186,-0.3555183410644531,0.6651273369789124
1782831925939795500,1.72179541015625,-0.2789109945297241,0.03256649523973465,0.5075961351394653
1782831925949724400,1.731724365234375,-0.23816198110580444,0.457143634557724,0.3278423249721527
1782831925959653400,1.7416533203125,-0.18259303271770477,0.8319973945617676,0.16925671696662903
1782831925969582600,1.75158251953125,-0.12774282693862915,1.0782843828201294,0.09621100127696991
1782831925979511600,1.761511474609375,-0.07473073899745941,1.0897679328918457,0.15302900969982147
1782831925989440500,1.7714404296875,-0.05459245294332504,0.8935193419456482,0.32414937019348145
1782831925999369500,1.781369384765625,-0.11567306518554688,0.4755720794200897,0.5515214204788208
1782831926009298700,1.791298583984375,-0.21634988486766815,-0.13082516193389893,0.8268632292747498
1782831926019227400,1.801227294921875,-0.3463619649410248,-0.3735455870628357,1.0801949501037598
1782831926029156400,1.81115625,-0.4387819170951843,-0.30132171511650085,1.157293438911438
1782831926039085300,1.821085205078125,-0.44967159628868103,-0.11237239092588425,1.0769790410995483
1782831926049014500,1.8310146484375,-0.410068541765213,0.1810874491930008,0.9211087822914124
1782831926058943500,1.840943603515625,-0.365389883518219,0.5295016169548035,0.7359631061553955
1782831926068872400,1.85087255859375,-0.3584771156311035,0.8109143972396851,0.5747105479240417
1782831926078801400,1.860801513671875,-0.39434248208999634,0.8307939171791077,0.48910632729530334
1782831926088730600,1.870730712890625,-0.4255470037460327,0.6741183400154114,0.5680650472640991
1782831926098659600,1.88065966796875,-0.44442906975746155,0.5916160345077515,0.8083411455154419
1782831926108588500,1.890588623046875,-0.43695810437202454,0.5639694929122925,1.0807162523269653
1782831926118517500,1.900517578125,-0.4246853291988373,0.5547246336936951,1.231536626815796
1782831926128446500,1.910446533203125,-0.3436557352542877,0.29404908418655396,1.2481279373168945
1782831926138375400,1.92037548828125,-0.22545254230499268,-0.09038868546485901,1.2100021839141846
1782831926148304400,1.930304443359375,-0.11511137336492538,-0.23927803337574005,1.2765873670578003
1782831926158233300,1.9402333984375,-0.036143798381090164,-0.20840926468372345,1.4181830883026123
1782831926168162600,1.95016259765625,0.02543354406952858,-0.019939757883548737,1.5358325242996216
1782831926178090500,1.960090576171875,0.1159573569893837,0.43370547890663147,1.5757548809051514
1782831926188019500,1.97001953125,0.23306401073932648,1.0309261083602905,1.5050610303878784
1782831926197948400,1.979948486328125,0.3195716440677643,1.5010008811950684,1.3449954986572266
1782831926207877400,1.98987744140625,0.34080663323402405,1.5348535776138306,1.1314464807510376
1782831926217806600,1.999806640625,0.2912442684173584,0.9946851134300232,0.7925054430961609
1782831926227735600,2.009735595703125,0.3126944303512573,0.06807580590248108,0.2937433421611786
1782831926237664500,2.01966455078125,0.37580540776252747,-0.584797203540802,-0.21309299767017365
1782831926247593500,2.029593505859375,0.6065302491188049,-0.6842676401138306,-0.5065488815307617
1782831926257522700,2.039522705078125,0.9462030529975891,-0.5329841375350952,-0.6267061829566956
1782831926267451600,2.04945166015625,1.202309489250183,-0.37101230025291443,-0.6711828112602234
1782831926277380400,2.05938037109375,1.306383490562439,-0.13684791326522827,-0.6899417042732239
1782831926287309300,2.069309326171875,1.2634727954864502,0.22726906836032867,-0.7896957397460938
1782831926297238500,2.079238525390625,1.1609035730361938,0.44510704278945923,-1.1136858463287354
1782831926307167500,2.08916748046875,1.0507773160934448,0.5915877819061279,-1.5321122407913208
1782831926317096400,2.099096435546875,0.9018115401268005,0.6173439621925354,-1.8186583518981934
1782831926327025400,2.109025390625,0.7314035892486572,0.5302830934524536,-1.8510156869888306
1782831926336954600,2.11895458984375,0.566196620464325,0.2565460205078125,-1.7072402238845825
1782831926346883600,2.128883544921875,0.3953348696231842,-0.09024735540151596,-1.5346897840499878
1782831926356812500,2.1388125,0.19965685904026031,-0.33314719796180725,-1.5276715755462646
1782831926366741500,2.148741455078125,0.017248431220650673,-0.4764484465122223,-1.7661778926849365
1782831926376670500,2.15867041015625,-0.12082882970571518,-0.504120945930481,-2.1412317752838135
1782831926386599400,2.168599365234375,-0.2130011022090912,-0.48421648144721985,-2.422733783721924
1782831926396528400,2.1785283203125,-0.272567480802536,-0.5885410308837891,-2.5371901988983154
1782831926406457300,2.188457275390625,-0.2657226324081421,-0.8542488813400269,-2.404258966445923
1782831926416386300,2.19838623046875,-0.24025443196296692,-1.176858901977539,-2.06071400642395
1782831926426315500,2.2083154296875,-0.24361881613731384,-1.3978370428085327,-1.6266645193099976
1782831926436244500,2.218244384765625,-0.2604283392429352,-1.4294617176055908,-1.1511318683624268
1782831926446173400,2.22817333984375,-0.28302499651908875,-1.1947258710861206,-0.6257937550544739
1782831926456102400,2.238102294921875,-0.3557572364807129,-0.7755661010742188,-0.13828374445438385
1782831926466031600,2.248031494140625,-0.4636884927749634,-0.33805111050605774,0.23197607696056366
1782831926475960600,2.257960693359375,-0.5907526016235352,0.04102881997823715,0.4692041873931885
1782831926485889500,2.2678896484375,-0.710904598236084,0.3176497519016266,0.560538649559021
1782831926495818500,2.277818603515625,-0.8163046836853027,0.49963271617889404,0.5057461857795715
1782831926505747500,2.28774755859375,-0.9159785509109497,0.6112774610519409,0.3423317074775696
1782831926515676400,2.297676513671875,-0.9730631709098816,0.671401858329773,0.13386037945747375
1782831926525605400,2.30760546875,-0.9121025800704956,0.6097017526626587,-0.025492791086435318
1782831926535534300,2.317534423828125,-0.813607931137085,0.3572269082069397,-0.11211320757865906
1782831926545463600,2.327463623046875,-0.7048553824424744,0.03733731806278229,-0.06355872005224228
1782831926555392500,2.337392578125,-0.5927327275276184,-0.23759131133556366,0.08908975124359131
1782831926565321500,2.347321533203125,-0.4838094711303711,-0.32695525884628296,0.3011910915374756
1782831926575250400,2.35725048828125,-0.4058680832386017,-0.31540822982788086,0.5309690237045288
1782831926585179600,2.3671796875,-0.35352417826652527,-0.19143381714820862,0.7184662222862244
1782831926595108600,2.377108642578125,-0.28453466296195984,-0.02062917873263359,0.843459963798523
1782831926605037600,2.38703759765625,-0.18766431510448456,0.06477227061986923,0.9659030437469482
1782831926614966300,2.39696630859375,-0.0834202691912651,0.065813347697258,1.1034045219421387
1782831926624895500,2.4068955078125,-0.047061193734407425,0.037110865116119385,1.1398369073867798
1782831926634824400,2.416824462890625,-0.05898410081863403,0.007035738788545132,1.0796163082122803
1782831926644753400,2.42675341796875,-0.07123011350631714,0.006170476786792278,0.9727534651756287
1782831926654682400,2.436682373046875,-0.09076885879039764,0.021289274096488953,0.8912960886955261
1782831926664611600,2.446611572265625,-0.1660388559103012,-0.07227689772844315,0.8424379825592041
1782831926674540500,2.45654052734375,-0.2776619493961334,-0.3212605118751526,0.8661417365074158
1782831926684469500,2.466469482421875,-0.3608841300010681,-0.48921674489974976,0.9748314619064331
1782831926694398500,2.4763984375,-0.39996635913848877,-0.4239819347858429,1.0892549753189087
1782831926704327700,2.48632763671875,-0.4195845425128937,-0.26913803815841675,1.1394901275634766
1782831926714256600,2.496256591796875,-0.46380549669265747,-0.04267529398202896,1.1119680404663086
1782831926724185300,2.506185302734375,-0.5684227347373962,0.34418347477912903,1.0097931623458862
1782831926734114300,2.5161142578125,-0.7213299870491028,0.7872727513313293,0.8439803123474121
1782831926744043500,2.52604345703125,-0.8875346779823303,1.0641577243804932,0.6513623595237732
1782831926753972500,2.535972412109375,-1.101022481918335,1.0731544494628906,0.3351278603076935
1782831926763901400,2.5459013671875,-1.1746540069580078,0.8561555743217468,-0.08360574394464493
1782831926773830400,2.555830322265625,-0.9176472425460815,0.5692929625511169,-0.43099698424339294
1782831926783759600,2.565759521484375,-0.5496167540550232,0.20251604914665222,-0.6869877576828003
1782831926793688600,2.5756884765625,-0.2325299233198166,0.054942309856414795,-1.0369020700454712
1782831926803617500,2.585617431640625,0.16036251187324524,0.22266708314418793,-1.162269949913025
1782831926813546500,2.59554638671875,0.5329848527908325,0.7275485992431641,-0.8592073917388916
1782831926823475500,2.605475341796875,0.8849778175354004,1.2311102151870728,-0.2802787721157074
1782831926833404400,2.615404296875,1.17023766040802,1.4223277568817139,0.21144011616706848
1782831926843333400,2.62533349609375,1.2978216409683228,1.3417620658874512,0.2710874676704407
1782831926853262300,2.635262451171875,1.2400636672973633,0.8604267239570618,-0.04771390184760094
1782831926863191300,2.64519140625,1.0625216960906982,0.030927926301956177,-0.6189044117927551
1782831926873120500,2.65512060546875,0.853351891040802,-0.7610467672348022,-1.278099536895752
1782831926883049500,2.665049560546875,0.606704592704773,-1.302911639213562,-1.8151185512542725
1782831926892978400,2.674978515625,0.2473449409008026,-1.4638514518737793,-2.0809993743896484
1782831926902907400,2.684907470703125,-0.15950937569141388,-1.3896323442459106,-2.1562185287475586
1782831926912836600,2.694836669921875,-0.4828816056251526,-1.236688256263733,-2.1231284141540527
1782831926922765600,2.704765625,-0.6817784309387207,-0.987111508846283,-1.9863269329071045
1782831926932694500,2.714694580078125,-0.7771075963973999,-0.7689980864524841,-1.8301297426223755
1782831926942623500,2.72462353515625,-0.7719264030456543,-0.6816666126251221,-1.6964280605316162
1782831926952552400,2.734552490234375,-0.7469623684883118,-0.7891393303871155,-1.5531115531921387
1782831926962481400,2.7444814453125,-0.7412059307098389,-0.9280431866645813,-1.304494023323059
1782831926972410400,2.754410400390625,-0.7440701723098755,-1.0474721193313599,-0.9498769044876099
1782831926982339300,2.76433935546875,-0.7350178360939026,-1.1574817895889282,-0.6278083324432373
1782831926992268500,2.7742685546875,-0.6916895508766174,-1.0635473728179932,-0.37642034888267517
1782831927002197500,2.784197509765625,-0.6446937918663025,-0.7756420373916626,-0.1663174331188202
1782831927012126500,2.79412646484375,-0.5816839933395386,-0.32529357075691223,0.02059142291545868
1782831927022055400,2.804055419921875,-0.49060383439064026,0.1639280766248703,0.1545119434595108
1782831927031984600,2.813984619140625,-0.3705650269985199,0.5389994382858276,0.22498100996017456
1782831927041912600,2.82391259765625,-0.23930419981479645,0.7303603291511536,0.24124467372894287
1782831927051842600,2.833842529296875,-0.09771864861249924,0.7416348457336426,0.2326933741569519
1782831927061771500,2.843771484375,0.01568940468132496,0.585431694984436,0.2189176380634308
1782831927071699500,2.853699462890625,0.09444224089384079,0.28511911630630493,0.21930420398712158
1782831927081628700,2.863628662109375,0.14067578315734863,-0.08811653405427933,0.22483612596988678
1782831927091557400,2.873557373046875,0.15431919693946838,-0.31983643770217896,0.2887371778488159
1782831927101486300,2.883486328125,0.138003870844841,-0.282661110162735,0.39291658997535706
1782831927111415300,2.893415283203125,0.09715927392244339,-0.12974528968334198,0.45121797919273376
1782831927121344500,2.903344482421875,0.10416844487190247,0.16107963025569916,0.4905925691127777
1782831927131273500,2.9132734375,0.1996198296546936,0.48207223415374756,0.567503035068512
1782831927141202400,2.923202392578125,0.2970033586025238,0.6877087950706482,0.694746196269989
1782831927151131400,2.93313134765625,0.34804046154022217,0.6864155530929565,0.8406352400779724
1782831927161060600,2.943060546875,0.34069201350212097,0.5283865332603455,1.009219765663147
1782831927170989600,2.952989501953125,0.322801798582077,0.30609217286109924,1.1840484142303467
1782831927180918500,2.96291845703125,0.28933411836624146,0.06535334885120392,1.3387138843536377
1782831927190847500,2.972847412109375,0.1960712969303131,-0.06430497020483017,1.3725141286849976
1782831927200776700,2.982776611328125,0.04510228708386421,-0.06756255030632019,1.1916987895965576
1782831927210705400,2.992705322265625,-0.09778602421283722,0.05297396332025528,0.8360331058502197
1782831927220634400,3.00263427734375,-0.22226883471012115,0.3730859160423279,0.37737953662872314
1782831927230563300,3.012563232421875,-0.22838760912418365,0.7452954649925232,0.032238833606243134
1782831927240492500,3.022492431640625,-0.17130514979362488,0.770122766494751,-0.12070970237255096
1782831927250421500,3.03242138671875,-0.1647266149520874,0.4434303343296051,-0.06852513551712036
1782831927260350500,3.0423505859375,-0.15398342907428741,0.03315413370728493,0.18729865550994873
1782831927270279400,3.052279541015625,-0.09172426164150238,-0.2244425117969513,0.5824108123779297
1782831927280208600,3.062208740234375,0.015402186661958694,-0.08706282079219818,0.9579745531082153
1782831927290137600,3.0721376953125,0.1272081434726715,0.1331515908241272,1.01335608959198
1782831927300066600,3.082066650390625,0.30918434262275696,0.4347181022167206,0.8095434904098511
1782831927309995500,3.09199560546875,0.5790736675262451,0.5923961997032166,0.559158205986023
1782831927319924500,3.101924560546875,0.8016931414604187,0.552474319934845,0.38842055201530457
1782831927329853400,3.111853515625,0.8889038562774658,0.8116312623023987,0.4242895841598511
1782831927339782400,3.121782470703125,0.7900358438491821,1.4016966819763184,0.5029199719429016
1782831927349711400,3.13171142578125,0.5783764719963074,1.8950622081756592,0.4260495603084564
1782831927359640300,3.141640380859375,0.4249752163887024,1.9755864143371582,0.19554762542247772
1782831927369569500,3.151569580078125,0.37231388688087463,1.7947964668273926,0.03370661661028862
1782831927379498500,3.16149853515625,0.3704366087913513,1.5466009378433228,0.08023549616336823
1782831927389427500,3.171427490234375,0.41535142064094543,1.124530553817749,0.09510339796543121
1782831927399356400,3.1813564453125,0.45977482199668884,0.5134338736534119,-0.15249574184417725
1782831927409285600,3.19128564453125,0.4391534626483917,0.03888426348567009,-0.5779641270637512
1782831927419214600,3.201214599609375,0.38473230600357056,-0.2714216709136963,-0.9301730394363403
1782831927429143600,3.2111435546875,0.34169572591781616,-0.44546201825141907,-1.0155867338180542
1782831927439072300,3.221072265625,0.38706719875335693,-0.550044596195221,-0.9023898243904114
1782831927449001500,3.23100146484375,0.4398077130317688,-0.7004361152648926,-0.7831189632415771
1782831927458930400,3.240930419921875,0.4197668731212616,-0.9461859464645386,-0.7143561244010925
1782831927468859400,3.250859375,0.28062453866004944,-1.192887306213379,-0.7979622483253479
1782831927478788400,3.260788330078125,0.044224243611097336,-1.3271112442016602,-1.072105050086975
1782831927488717600,3.270717529296875,-0.22260019183158875,-1.358346700668335,-1.4721932411193848
1782831927498646500,3.280646484375,-0.4792269170284271,-1.3196405172348022,-1.877369999885559
1782831927508575500,3.290575439453125,-0.7230207920074463,-1.2383110523223877,-2.102369785308838
1782831927518504400,3.30050439453125,-0.873824417591095,-1.1240150928497314,-2.027944326400757
1782831927528433700,3.31043359375,-0.8971653580665588,-1.0254449844360352,-1.7006222009658813
1782831927538362600,3.320362548828125,-0.7846419811248779,-0.9055502414703369,-1.2581374645233154
1782831927548291300,3.330291259765625,-0.5767588019371033,-0.7627832889556885,-0.8473808765411377
1782831927558220300,3.34022021484375,-0.28480949997901917,-0.6806241869926453,-0.480090469121933
1782831927568149500,3.3501494140625,0.054454777389764786,-0.6270615458488464,-0.09274308383464813
1782831927578078500,3.360078369140625,0.26846906542778015,-0.6146349906921387,0.24709436297416687
1782831927588007400,3.37000732421875,0.33440348505973816,-0.680124819278717,0.45414671301841736
1782831927597936400,3.379936279296875,0.36747968196868896,-0.6136216521263123,0.5659751892089844
1782831927607865600,3.389865478515625,0.3723297119140625,-0.4476616084575653,0.5831270217895508
1782831927617794600,3.399794677734375,0.324321985244751,-0.27562540769577026,0.47084444761276245
1782831927627723500,3.4097236328125,0.2437683343887329,-0.12589241564273834,0.24875317513942719
1782831927637652500,3.419652587890625,0.13800781965255737,-0.09345537424087524,-0.023454101756215096
1782831927647581700,3.429581787109375,-0.020529845729470253,-0.0313885360956192,-0.23754005134105682
1782831927657510400,3.439510498046875,-0.16877152025699615,0.12839074432849884,-0.2883393168449402
1782831927667439400,3.449439453125,-0.2751469612121582,0.21989309787750244,-0.22881299257278442
1782831927677368300,3.459368408203125,-0.2981678545475006,0.33571237325668335,-0.06625445187091827
1782831927687297500,3.469297607421875,-0.20949658751487732,0.461477667093277,0.16420477628707886
1782831927697226500,3.4792265625,-0.03636900335550308,0.523070752620697,0.38006383180618286
1782831927707155500,3.489155517578125,0.1911534070968628,0.44862329959869385,0.576305091381073
1782831927717084400,3.49908447265625,0.4259592294692993,0.38366374373435974,0.7329426407814026
1782831927727013600,3.509013671875,0.6309576630592346,0.40693068504333496,0.8340213298797607
1782831927736942600,3.518942626953125,0.7691522836685181,0.46232151985168457,0.8724536895751953
1782831927746871600,3.52887158203125,0.8321152925491333,0.5178268551826477,0.9139816761016846
1782831927756800500,3.538800537109375,0.8581919074058533,0.5019405484199524,0.9599363803863525
1782831927766729500,3.5487294921875,0.8088257312774658,0.4111286699771881,0.9078750014305115
1782831927776658400,3.558658447265625,0.7176305651664734,0.18990784883499146,0.6949438452720642
1782831927786587400,3.56858740234375,0.5618657469749451,-0.05938040465116501,0.36515727639198303
1782831927796516400,3.578516357421875,0.34423357248306274,-0.23853498697280884,0.0241291131824255
1782831927806445300,3.5884453125,0.180442214012146,0.05291399359703064,-0.2416153848171234
1782831927816374500,3.59837451171875,0.1766703724861145,0.42279699444770813,-0.3674454987049103
1782831927826303200,3.60830322265625,0.20969034731388092,0.758270263671875,-0.4180660545825958
1782831927836232200,3.618232177734375,0.22533641755580902,0.8319168090820312,-0.4313027858734131
1782831927846161400,3.628161376953125,0.21966266632080078,1.0282726287841797,-0.3540063202381134
1782831927856090400,3.63809033203125,0.3280431926250458,1.816155195236206,-0.20258110761642456
1782831927866019300,3.648019287109375,0.6211385726928711,2.9498848915100098,-0.1326887160539627
1782831927875948300,3.6579482421875,1.0160245895385742,3.4639577865600586,-0.3720773160457611
1782831927885877200,3.667877197265625,1.3824474811553955,3.034252643585205,-0.759965181350708
1782831927895806200,3.67780615234375,1.5852622985839844,2.191004514694214,-0.9357279539108276
1782831927905735200,3.687735107421875,1.4776016473770142,1.5919458866119385,-0.6605838537216187
1782831927915664100,3.6976640625,1.2657967805862427,1.4253427982330322,-0.10398741066455841
1782831927925593300,3.70759326171875,1.2178680896759033,1.3648394346237183,0.19988827407360077
1782831927935522300,3.717522216796875,1.3557626008987427,1.312700867652893,0.11152593046426773
1782831927945451300,3.727451171875,1.576214075088501,1.133824110031128,-0.24676674604415894
1782831927955380200,3.737380126953125,1.772576928138733,0.8530009984970093,-0.6811403036117554
1782831927965309400,3.747309326171875,1.7377917766571045,0.44928178191185,-1.0167831182479858
1782831927975238400,3.75723828125,1.4196151494979858,-0.20916934311389923,-1.091028094291687
1782831927985167400,3.76716748046875,1.0150494575500488,-1.0211992263793945,-0.9161415100097656
1782831927995096300,3.777096435546875,0.6573116183280945,-1.8721705675125122,-0.7275883555412292
1782831928005025300,3.787025390625,0.3683951497077942,-2.6567800045013428,-0.6837542057037354
1782831928014954200,3.796954345703125,0.13366304337978363,-3.0924477577209473,-0.7709948420524597
1782831928024883200,3.80688330078125,-0.08014347404241562,-3.0172388553619385,-0.924439013004303
1782831928034812200,3.816812255859375,-0.29132041335105896,-2.4974753856658936,-1.1300510168075562
1782831928044741000,3.8267412109375,-0.3708663582801819,-1.740533471107483,-1.2557293176651
1782831928054670300,3.83667041015625,-0.27555155754089355,-1.0515766143798828,-1.2101362943649292
1782831928064599300,3.846599365234375,-0.07196211814880371,-0.5142170786857605,-0.9919232130050659
1782831928074528300,3.8565283203125,0.16457267105579376,-0.20316681265830994,-0.6434147357940674
1782831928084457200,3.866457275390625,0.3862079679965973,-0.15664315223693848,-0.2297118604183197
1782831928094386400,3.876386474609375,0.5533804297447205,-0.257022500038147,0.23295804858207703
1782831928104315400,3.8863154296875,0.5753061771392822,-0.3048599362373352,0.683562159538269
1782831928114244000,3.896244140625,0.4423984885215759,-0.32920655608177185,1.00106680393219
1782831928124173000,3.906173095703125,0.22880397737026215,-0.37152397632598877,1.1216299533843994
1782831928134102300,3.916102294921875,-0.006026907823979855,-0.3186650276184082,1.0395781993865967
1782831928144031200,3.92603125,-0.1647871881723404,-0.13496164977550507,0.8057529330253601
1782831928153960200,3.935960205078125,-0.25775307416915894,0.09068825095891953,0.5302212238311768
1782831928163889200,3.94588916015625,-0.27802395820617676,0.28246599435806274,0.29643112421035767
1782831928173818400,3.955818359375,-0.22389784455299377,0.417043000459671,0.196235790848732
1782831928183747300,3.965747314453125,-0.09824731200933456,0.5043099522590637,0.25905686616897583
1782831928193676300,3.97567626953125,-0.0016786959022283554,0.46342140436172485,0.39964088797569275
1782831928203605200,3.985605224609375,0.03030814602971077,0.19943638145923615,0.5176779627799988
1782831928213534500,3.995534423828125,0.09043113887310028,-0.15014906227588654,0.6495081782341003
1782831928223463400,4.00546337890625,0.17564751207828522,-0.3787051737308502,0.7866029143333435
1782831928233392000,4.01539208984375,0.22570082545280457,-0.40615010261535645,0.8233146071434021
1782831928243321000,4.025321044921875,0.2295013815164566,-0.22448831796646118,0.7573882341384888
1782831928253250300,4.035250244140625,0.15319089591503143,0.09040889889001846,0.5893608927726746
1782831928263179300,4.04517919921875,0.047609321773052216,0.4201909303665161,0.38519376516342163
1782831928273108200,4.055108154296875,-0.04273388907313347,0.6109361052513123,0.2560325860977173
1782831928283037200,4.065037109375,-0.1688099503517151,0.5880833864212036,0.22470800578594208
1782831928292966400,4.07496630859375,-0.32072144746780396,0.5207927823066711,0.3239235281944275
1782831928302895400,4.084895263671875,-0.4096442759037018,0.5869483351707458,0.5413838028907776
1782831928312824300,4.09482421875,-0.44990676641464233,0.6866695880889893,0.7722564339637756
1782831928322753300,4.104753173828125,-0.40561071038246155,0.7588577270507812,0.9506744146347046
1782831928332682500,4.1146826171875,-0.3283689320087433,0.7167396545410156,1.030592918395996
1782831928342611200,4.124611083984375,-0.26515063643455505,0.605467677116394,1.081478238105774
1782831928352540200,4.1345400390625,-0.21816875040531158,0.6028149127960205,1.1040035486221313
1782831928362469000,4.14446923828125,-0.21891626715660095,0.817560613155365,1.082369089126587
1782831928372398300,4.1543984375,-0.24824991822242737,1.2739558219909668,0.9071851968765259
1782831928382327300,4.164327392578125,-0.18722514808177948,1.7494444847106934,0.5524937510490417
1782831928392256300,4.17425634765625,-0.01814904995262623,2.009974241256714,0.034288711845874786
1782831928402185200,4.184185302734375,0.21862472593784332,2.016704559326172,-0.5505669116973877
1782831928412114400,4.194114501953125,0.5309320092201233,1.8611818552017212,-0.8760829567909241
1782831928422043400,4.20404345703125,0.6980069875717163,1.6284308433532715,-0.9663972854614258
1782831928431972400,4.213972412109375,0.7127859592437744,1.397304654121399,-0.8265088796615601
1782831928441901300,4.2239013671875,0.6870079636573792,1.2203145027160645,-0.5637229681015015
1782831928451830300,4.233830322265625,0.6928240656852722,0.9151716828346252,-0.47272270917892456
1782831928461759200,4.24375927734375,0.8033562898635864,0.4449128806591034,-0.5958275198936462
1782831928471688200,4.253688232421875,0.9197859764099121,-0.1301511973142624,-0.8458077907562256
1782831928481617200,4.2636171875,0.9269705414772034,-0.5478918552398682,-1.1126954555511475
1782831928491546000,4.273546142578125,0.7896124124526978,-0.7678543329238892,-1.3616658449172974
1782831928501475300,4.283475341796875,0.5875722765922546,-0.9492717385292053,-1.4696002006530762
1782831928511404300,4.293404296875,0.35469746589660645,-0.9296615719795227,-1.3460484743118286
1782831928521333200,4.303333251953125,0.1290251612663269,-0.7495657205581665,-1.049019455909729
1782831928531262200,4.31326220703125,-0.05838228017091751,-0.5189982652664185,-0.7492941617965698
1782831928541191400,4.32319140625,-0.20339782536029816,-0.34379515051841736,-0.5350820422172546
1782831928551120400,4.333120361328125,-0.35628244280815125,-0.2568370997905731,-0.446018248796463
1782831928561049300,4.34304931640625,-0.5046283006668091,-0.3671637177467346,-0.48146554827690125
1782831928570978000,4.35297802734375,-0.6281339526176453,-0.6896129250526428,-0.5792267322540283
1782831928580907300,4.3629072265625,-0.7076099514961243,-1.0983456373214722,-0.6899871230125427
1782831928590836200,4.372836181640625,-0.7448100447654724,-1.4893890619277954,-0.8251148462295532
1782831928600765200,4.38276513671875,-0.7516753077507019,-1.7430078983306885,-0.9731322526931763
1782831928610694100,4.392694091796875,-0.6969279050827026,-1.741687536239624,-1.037551760673523
1782831928620623400,4.402623291015625,-0.6184355616569519,-1.4347035884857178,-0.9270963072776794
1782831928630552300,4.41255224609375,-0.5082331895828247,-0.9911339282989502,-0.6764643788337708
1782831928640481300,4.422481201171875,-0.3537997007369995,-0.573477566242218,-0.3293684422969818
1782831928650410200,4.43241015625,-0.22126828134059906,-0.3138100504875183,0.0522441603243351
1782831928660339500,4.44233935546875,-0.08786982297897339,-0.3016534745693207,0.44611623883247375
1782831928670268400,4.452268310546875,-0.016167934983968735,-0.35212036967277527,0.8143349885940552
1782831928680197000,4.462197021484375,-0.1556914746761322,-0.2688855230808258,0.9704586863517761
1782831928690126000,4.4721259765625,-0.41295337677001953,-0.11360165476799011,0.8694124817848206
1782831928700055300,4.48205517578125,-0.648380696773529,0.06405821442604065,0.5821123719215393
1782831928709984300,4.491984375,-0.7866949439048767,0.2398260533809662,0.2309522032737732
1782831928719913200,4.501913330078125,-0.7924152612686157,0.4156034588813782,-0.015632208436727524
1782831928729842200,4.51184228515625,-0.6855207681655884,0.5129140615463257,-0.1121576800942421
1782831928739771400,4.521771484375,-0.5383927822113037,0.4897769093513489,-0.10797339677810669
1782831928749700400,4.531700439453125,-0.3726520240306854,0.2769472301006317,0.016370924189686775
1782831928759629300,4.54162939453125,-0.2365245521068573,-0.011205265298485756,0.2534792721271515
1782831928769558300,4.551558349609375,-0.17706549167633057,-0.2583785653114319,0.556159257888794
1782831928779487500,4.561487548828125,-0.17414447665214539,-0.3585819900035858,0.856483519077301
1782831928789416200,4.571416259765625,-0.20269541442394257,-0.2921648919582367,1.0361770391464233
1782831928799345200,4.58134521484375,-0.23951366543769836,-0.14366643130779266,1.0596455335617065
1782831928809274000,4.591274169921875,-0.26950833201408386,0.04636155813932419,0.9474294781684875
1782831928819203300,4.601203369140625,-0.28689125180244446,0.23389166593551636,0.789867103099823
1782831928829132500,4.611132568359375,-0.2951531708240509,0.4047912359237671,0.647149384021759
1782831928839061500,4.6210615234375,-0.3101747930049896,0.5590344071388245,0.5383498072624207
1782831928848990500,4.630990478515625,-0.3360537886619568,0.6704959869384766,0.5005127191543579
1782831928858919700,4.640919677734375,-0.3873260021209717,0.711017370223999,0.49051815271377563
1782831928868848600,4.6508486328125,-0.4730382263660431,0.6703381538391113,0.46253257989883423
1782831928878777600,4.660777587890625,-0.5818294882774353,0.4427591562271118,0.40811002254486084
1782831928888706600,4.67070654296875,-0.6556387543678284,0.10897532850503922,0.2942013144493103
1782831928898635500,4.680635498046875,-0.5986591577529907,0.2658269703388214,0.176131933927536
1782831928908564500,4.690564453125,-0.3722960352897644,0.5659101009368896,0.2032298743724823
1782831928918493400,4.700493408203125,-0.11806708574295044,0.9319754838943481,0.3185124099254608
1782831928928422400,4.71042236328125,0.20234155654907227,0.9455966949462891,0.5003541707992554
1782831928938351600,4.7203515625,0.525625467300415,0.5219547152519226,0.71157306432724
1782831928948280600,4.730280517578125,0.8310988545417786,0.07243815809488297,0.9754284024238586
1782831928958209500,4.74020947265625,1.0601348876953125,-0.09196312725543976,1.2835619449615479
1782831928968138500,4.750138427734375,1.2243651151657104,-0.023939337581396103,1.4929362535476685
1782831928978067700,4.760067626953125,1.2354488372802734,0.09113851189613342,1.3495681285858154
1782831928987996700,4.76999658203125,1.0458842515945435,0.1082458645105362,0.7884792685508728
1782831928997925600,4.779925537109375,0.9547002911567688,-0.06010620668530464,0.16768895089626312
1782831929007854300,4.789854248046875,0.9399524927139282,-0.25609728693962097,-0.1991090178489685
1782831929017783300,4.799783203125,0.9217491745948792,-0.5649961829185486,-0.31371647119522095
1782831929027712500,4.80971240234375,0.9204258322715759,-0.8298693895339966,-0.40420615673065186
1782831929037641500,4.819641357421875,0.8780660033226013,-0.98661869764328,-0.7348487377166748
1782831929047570400,4.8295703125,0.8133804798126221,-1.2452621459960938,-1.2641024589538574
1782831929057499400,4.83949951171875,0.7033161520957947,-1.4952729940414429,-1.6706938743591309
1782831929067428600,4.8494287109375,0.5183798670768738,-1.4399242401123047,-1.651639461517334
1782831929077357600,4.859357666015625,0.2828695476055145,-1.307486653327942,-1.275470495223999
1782831929087286500,4.86928662109375,0.05931209400296211,-1.1088616847991943,-0.814996600151062
1782831929097215500,4.879215576171875,-0.146554097533226,-0.890490710735321,-0.5633215308189392
1782831929107144700,4.889144775390625,-0.3553547263145447,-0.7433185577392578,-0.5871214270591736
1782831929117073400,4.899073486328125,-0.5651060938835144,-0.7453286647796631,-0.7990684509277344
1782831929127002400,4.90900244140625,-0.7636542916297913,-0.756761908531189,-1.0814149379730225
1782831929136931300,4.918931396484375,-0.8116809129714966,-0.7272537350654602,-1.3001121282577515
1782831929146860500,4.928860595703125,-0.7356117367744446,-0.899494469165802,-1.3541017770767212
1782831929156789500,4.93878955078125,-0.5579745173454285,-1.2281495332717896,-1.2052102088928223
1782831929166718500,4.948718505859375,-0.3192218840122223,-1.3997431993484497,-0.8889718055725098
1782831929176647400,4.9586474609375,-0.1356629580259323,-1.2854206562042236,-0.5153626203536987
1782831929186576600,4.96857666015625,-0.0402674600481987,-0.9299224615097046,-0.18118681013584137
1782831929196505600,4.978505615234375,-0.009437402710318565,-0.43846258521080017,0.06601382046937943
1782831929206434600,4.9884345703125,-0.042950890958309174,0.06306761503219604,0.22480079531669617
1782831929216363500,4.998363525390625,-0.13755303621292114,0.4411230981349945,0.3036719858646393
1782831929226292700,5.008292724609375,-0.2650396227836609,0.6970206499099731,0.3414342701435089
1782831929236221400,5.018221435546875,-0.4272375702857971,0.9048591256141663,0.33110716938972473
1782831929246150400,5.028150390625,-0.6182981133460999,1.1554208993911743,0.24387051165103912
1782831929256079400,5.038079345703125,-0.7670410871505737,1.3879483938217163,0.13638480007648468
1782831929266008600,5.048008544921875,-0.8124836683273315,1.4811441898345947,0.0894593596458435
1782831929275937500,5.0579375,-0.7629987597465515,1.4783886671066284,0.08192673325538635
1782831929285866500,5.067866455078125,-0.6780939698219299,1.3023462295532227,0.10172627121210098
1782831929295795500,5.07779541015625,-0.577389657497406,0.8991878628730774,0.13131573796272278
1782831929305724700,5.087724609375,-0.4712352454662323,0.44919270277023315,0.13959871232509613
1782831929315653600,5.097653564453125,-0.3862042725086212,0.24254539608955383,0.2099611610174179
1782831929325582600,5.10758251953125,-0.35789912939071655,0.17133672535419464,0.34224197268486023
1782831929335511600,5.117511474609375,-0.3769577741622925,0.2369607537984848,0.497077614068985
1782831929345440500,5.1274404296875,-0.3651205897331238,0.22159883379936218,0.7024630308151245
1782831929355369500,5.137369384765625,-0.34107232093811035,0.10136773437261581,0.9273689389228821
1782831929365298400,5.14729833984375,-0.3463491201400757,-0.07820894569158554,1.0980995893478394
1782831929375227400,5.157227294921875,-0.44749557971954346,-0.1554587483406067,1.1290632486343384
1782831929385156600,5.167156494140625,-0.5561219453811646,-0.11950235813856125,1.0500534772872925
1782831929395085600,5.17708544921875,-0.5968758463859558,0.04770012944936752,0.9376501441001892
1782831929405014500,5.1870146484375,-0.5982215404510498,0.2838261127471924,0.8052660226821899
1782831929414943500,5.196943603515625,-0.5978606343269348,0.5383304357528687,0.6797113418579102
1782831929424872700,5.206872802734375,-0.6142401099205017,0.7445962429046631,0.5976963639259338
1782831929434801700,5.2168017578125,-0.6647160649299622,0.8900120258331299,0.5823912024497986
1782831929444730600,5.226730712890625,-0.7296399474143982,0.9138966202735901,0.6329603791236877
1782831929454659600,5.23665966796875,-0.8256569504737854,0.8619046211242676,0.6323379874229431
1782831929464588300,5.24658837890625,-0.8666759729385376,0.6887648105621338,0.6237328052520752
1782831929474517500,5.256517578125,-0.8413628339767456,0.47412288188934326,0.5877247452735901
1782831929484446500,5.266446533203125,-0.7377579212188721,0.362962543964386,0.47446051239967346
1782831929494375400,5.27637548828125,-0.5766924023628235,0.09516268223524094,0.31792205572128296
1782831929504304400,5.286304443359375,-0.28150099515914917,-0.432232141494751,0.13465313613414764
1782831929514233600,5.296233642578125,0.10341217368841171,-0.4498366415500641,0.00928482972085476
1782831929524162600,5.30616259765625,0.3747835159301758,0.15422369539737701,-0.0150487395003438
1782831929534091500,5.316091552734375,0.3158394992351532,0.6006532311439514,-0.0747753232717514
1782831929544020500,5.3260205078125,0.05253356695175171,0.8989437818527222,-0.06558261811733246
1782831929553949700,5.33594970703125,-0.2673136293888092,1.1207563877105713,0.08205106109380722
1782831929563878700,5.345878662109375,-0.5675464272499084,0.9026787281036377,0.052367206662893295
1782831929573807400,5.355807373046875,-0.8263434767723083,0.05214165151119232,-0.37243518233299255
1782831929583736300,5.365736328125,-0.9531147480010986,-1.1612675189971924,-1.0425070524215698
1782831929593665500,5.37566552734375,-0.7870154976844788,-1.9171775579452515,-1.5611382722854614
1782831929603594500,5.385594482421875,-0.666721522808075,-2.1916182041168213,-1.7664618492126465
1782831929613523500,5.3955234375,-0.6027852892875671,-1.8994463682174683,-1.5636358261108398
1782831929623452400,5.405452392578125,-0.5079644918441772,-1.3236110210418701,-1.133850336074829
1782831929633381600,5.415381591796875,-0.41724666953086853,-0.8201674222946167,-0.7870460748672485
1782831929643310600,5.425310546875,-0.39559701085090637,-0.5933542847633362,-0.7296147346496582
1782831929653239600,5.435239501953125,-0.45158734917640686,-0.8448066115379333,-0.9529139995574951
1782831929663168500,5.44516845703125,-0.4519695043563843,-1.4014784097671509,-1.2422958612442017
1782831929673097700,5.45509765625,-0.36347630620002747,-1.9727524518966675,-1.4555491209030151
1782831929683026400,5.4650263671875,-0.3153015971183777,-2.375687837600708,-1.5511339902877808
1782831929692955400,5.474955322265625,-0.3960567116737366,-2.446103811264038,-1.5251742601394653
1782831929702884400,5.48488427734375,-0.56383216381073,-2.0452044010162354,-1.4077898263931274
1782831929712813600,5.4948134765625,-0.7381249070167542,-1.3714590072631836,-1.2041975259780884
1782831929722742500,5.504742431640625,-0.8842520117759705,-0.712588369846344,-0.9522435665130615
1782831929732671500,5.51467138671875,-0.9873861074447632,-0.22685986757278442,-0.6717720627784729
1782831929742600400,5.524600341796875,-0.9757052659988403,0.0697036162018776,-0.3624914586544037
1782831929752529700,5.53452978515625,-0.8942669630050659,0.2519155442714691,-0.04987110570073128
1782831929762458600,5.544458740234375,-0.8385581374168396,0.3175198435783386,0.22885878384113312
1782831929772387600,5.5543876953125,-0.7895338535308838,0.26902714371681213,0.4961429536342621
1782831929782316500,5.564316650390625,-0.7862951755523682,0.29602545499801636,0.6910051107406616
1782831929792245500,5.57424560546875,-0.8045384883880615,0.44236528873443604,0.8413956761360168
1782831929802174500,5.584174560546875,-0.8090381622314453,0.4922955334186554,0.9005884528160095
1782831929812103400,5.594103515625,-0.8126132488250732,0.3923961818218231,0.8392548561096191
1782831929822032400,5.604032470703125,-0.8463709354400635,0.30891939997673035,0.650913417339325
1782831929831961900,5.6139619140625,-0.887997031211853,0.22977328300476074,0.38426998257637024
1782831929841890800,5.623890869140625,-0.8616639971733093,0.08739856630563736,0.14139021933078766
1782831929851819800,5.63381982421875,-0.77033531665802,-0.15140938758850098,-0.010175882838666439
1782831929861749000,5.6437490234375,-0.6464604735374451,-0.39753422141075134,-0.06252297759056091
1782831929871678000,5.653677978515625,-0.5827143788337708,-0.5014103651046753,-0.07039660960435867
1782831929881607000,5.66360693359375,-0.6302698850631714,-0.4005868434906006,-0.051336631178855896
1782831929891536000,5.673535888671875,-0.6757018566131592,-0.13352185487747192,0.0168808214366436
1782831929901464800,5.68346484375,-0.6771431565284729,0.12913240492343903,0.1382562518119812
1782831929911393800,5.693393798828125,-0.6534061431884766,0.33123764395713806,0.31728115677833557
1782831929921322800,5.70332275390625,-0.6375677585601807,0.46614378690719604,0.5418685078620911
1782831929931251700,5.713251708984375,-0.6807727217674255,0.5790789127349854,0.7829452753067017
1782831929941181000,5.723180908203125,-0.7848336100578308,0.6817951798439026,1.0165239572525024
1782831929951110000,5.73310986328125,-0.9147244691848755,0.77485191822052,1.2263157367706299
1782831929961038800,5.743038818359375,-1.0191054344177246,0.7829293012619019,1.4353302717208862
1782831929970967800,5.7529677734375,-1.0736497640609741,0.753449559211731,1.5978546142578125
1782831929980897000,5.76289697265625,-1.1172326803207397,0.7465850114822388,1.6596205234527588
1782831929990826000,5.772825927734375,-1.1341484785079956,0.7728752493858337,1.6205134391784668
1782831930000755000,5.7827548828125,-1.1067805290222168,0.9138046503067017,1.50214421749115
1782831930010683600,5.79268359375,-0.9667825102806091,1.0972594022750854,1.3233801126480103
1782831930020612900,5.80261279296875,-0.7112386226654053,1.3374624252319336,1.0334364175796509
1782831930030541800,5.812541748046875,-0.3449965715408325,1.3923827409744263,0.6062794327735901
1782831930040470800,5.822470703125,0.09486601501703262,1.3915952444076538,0.034844398498535156
1782831930050399700,5.832399658203125,0.5332624316215515,1.6957262754440308,-0.30215707421302795
1782831930060329000,5.842328857421875,0.8239616751670837,2.3303983211517334,-0.43842437863349915
1782831930070258000,5.8522578125,0.967931866645813,2.7960968017578125,-0.4484576880931854
1782831930080187000,5.862186767578125,0.9950564503669739,2.571427345275879,-0.45278745889663696
1782831930090115800,5.87211572265625,0.8237006068229675,1.7661486864089966,-0.5706185698509216
1782831930100045000,5.882045166015625,0.5671111345291138,0.8783096075057983,-0.6289133429527283
1782831930109974000,5.89197412109375,0.4275224506855011,-0.2487560212612152,-0.6336101293563843
1782831930119903000,5.901903076171875,0.4022147059440613,-1.2644129991531372,-0.6942431330680847
1782831930129831700,5.911831787109375,0.35526934266090393,-1.7714147567749023,-0.8694954514503479
1782831930139761000,5.921760986328125,0.2809240221977234,-1.9578192234039307,-1.1112515926361084
1782831930149689900,5.93168994140625,0.28232067823410034,-1.8593471050262451,-1.1721690893173218
1782831930159618800,5.941618896484375,0.34535449743270874,-1.5771276950836182,-0.9670992493629456
1782831930169547800,5.9515478515625,0.3849007487297058,-1.2804441452026367,-0.6439781188964844
1782831930179476700,5.961476806640625,0.3722773790359497,-1.0655674934387207,-0.3545660674571991
1782831930189406000,5.971406005859375,0.1883968710899353,-1.0135045051574707,-0.2978127598762512
1782831930199335000,5.9813349609375,-0.14645861089229584,-1.2537639141082764,-0.5481775999069214
1782831930209263900,5.991263916015625,-0.5514543056488037,-1.475856065750122,-1.0095956325531006
1782831930219192800,6.00119287109375,-0.9000455737113953,-1.4359583854675293,-1.4611343145370483
1782831930229122000,6.0111220703125,-1.1081855297088623,-1.1443166732788086,-1.7161269187927246
1782831930239050800,6.02105078125,-1.1807992458343506,-0.7608044147491455,-1.629991054534912
1782831930248979700,6.030979736328125,-1.0905910730361938,-0.4937805235385895,-1.2332098484039307
1782831930258908700,6.04090869140625,-0.8985942602157593,-0.3858838975429535,-0.6934906840324402
1782831930268838000,6.050837890625,-0.5981531143188477,-0.4601621925830841,-0.12697598338127136
1782831930278766800,6.060766845703125,-0.2783503830432892,-0.5992037057876587,0.37865179777145386
1782831930288695800,6.07069580078125,-0.012339944019913673,-0.7417169809341431,0.7808046936988831
1782831930298624800,6.080624755859375,0.17056062817573547,-0.8470284938812256,1.0787558555603027
1782831930308554000,6.090553955078125,0.23767144978046417,-0.854038655757904,1.3003463745117188
1782831930318483000,6.10048291015625,0.1372087448835373,-0.6880768537521362,1.448649525642395
1782831930328412000,6.110411865234375,-0.12395595759153366,-0.28815844655036926,1.4672291278839111
1782831930338340900,6.1203408203125,-0.43560147285461426,0.13343219459056854,1.3415753841400146
1782831930348269800,6.130269775390625,-0.701424777507782,0.4589175283908844,1.088444471359253
1782831930358198800,6.14019873046875,-0.8584649562835693,0.6855347156524658,0.7880761027336121
1782831930368127700,6.150127685546875,-0.9039689898490906,0.8107419013977051,0.4986473619937897
1782831930378056700,6.160056640625,-0.8942093253135681,0.76898592710495,0.240586519241333
1782831930387986000,6.16998583984375,-0.8410518169403076,0.45185586810112,0.05022873356938362
1782831930397915000,6.179914794921875,-0.7531304955482483,0.08854661136865616,-0.04267271235585213
1782831930407843800,6.18984375,-0.6292218565940857,-0.09645973145961761,0.015955714508891106
1782831930417772800,6.199772705078125,-0.5244584083557129,-0.24401803314685822,0.16229747235774994
1782831930427702000,6.209701904296875,-0.4529092609882355,-0.466362863779068,0.3573918342590332
1782831930437631000,6.219630859375,-0.360219269990921,-0.7072790861129761,0.6187046766281128
1782831930447560000,6.229559814453125,-0.2589612603187561,-0.770270049571991,0.9339927434921265
1782831930457489000,6.239489013671875,-0.1882902979850769,-0.6435081362724304,1.2498316764831543
1782831930467417900,6.24941796875,-0.1923287957906723,-0.37488800287246704,1.478675127029419
1782831930477346800,6.259346923828125,-0.27380049228668213,-0.09448642283678055,1.6113966703414917
1782831930487275800,6.26927587890625,-0.38660523295402527,0.0939943715929985,1.679352045059204
1782831930497204700,6.279204833984375,-0.4960686266422272,0.2105201780796051,1.7168163061141968
1782831930507134000,6.289134033203125,-0.6000109910964966,0.2729206383228302,1.7319672107696533
1782831930517063000,6.29906298828125,-0.7258576154708862,0.3357214331626892,1.7337385416030884
1782831930526992000,6.308991943359375,-0.877173125743866,0.4618852138519287,1.697664499282837
1782831930536920800,6.3189208984375,-1.0738697052001953,0.7902050018310547,1.584394931793213
1782831930546850000,6.32885009765625,-1.2554736137390137,1.2275922298431396,1.4051802158355713
1782831930556779000,6.338779052734375,-1.30998957157135,1.6822454929351807,1.1317942142486572
1782831930566708000,6.3487080078125,-1.312609314918518,2.3166279792785645,0.7976656556129456
1782831930576636700,6.35863671875,-1.312472939491272,3.110959529876709,0.37649422883987427
1782831930586566000,6.36856591796875,-1.237298846244812,1.8260610103607178,-0.393117755651474
1782831930596494800,6.378494873046875,-1.0068166255950928,-0.764358401298523,-1.4098689556121826
1782831930606423800,6.388423828125,-0.5035350322723389,-1.6526929140090942,-1.8044240474700928
1782831930616352800,6.398352783203125,-0.3697817623615265,-0.8741208910942078,-1.814919352531433
1782831930626281700,6.40828173828125,-0.5140179991722107,0.08684512972831726,-1.6397954225540161
1782831930636211000,6.4182109375,-0.5630318522453308,0.4720120131969452,-1.3961892127990723
1782831930646140000,6.428139892578125,-0.34659841656684875,0.7349675893783569,-1.170077919960022
1782831930656068900,6.43806884765625,-0.11324451863765717,1.2357920408248901,-1.0534197092056274
1782831930665997800,6.447997802734375,0.022810015827417374,1.6752307415008545,-1.1881489753723145
1782831930675927000,6.457927001953125,0.0722888857126236,1.3177226781845093,-1.6036872863769531
1782831930685855700,6.467855712890625,-0.022451765835285187,0.1356183886528015,-2.2787537574768066
1782831930695784700,6.47778466796875,-0.16200034320354462,-0.5194116830825806,-2.7336795330047607
1782831930705713700,6.487713623046875,-0.35338443517684937,-0.44245389103889465,-2.6942288875579834
1782831930715643000,6.497642822265625,-0.4178004264831543,0.014126698486506939,-2.3485968112945557
1782831930725571800,6.50757177734375,-0.20906895399093628,0.4884689152240753,-1.8332762718200684
1782831930735500800,6.517500732421875,0.2452191859483719,0.5879691243171692,-1.2811787128448486
1782831930745429800,6.5274296875,0.7753176689147949,0.1921902596950531,-0.7665811777114868
1782831930755359000,6.53735888671875,1.2128188610076904,-0.5520673394203186,-0.3195410668849945
1782831930765288000,6.547287841796875,1.3671907186508179,-1.416121482849121,-0.05078085511922836
1782831930775217000,6.557216796875,1.2109369039535522,-2.095073699951172,-0.08651595562696457
1782831930785145900,6.567145751953125,0.9164355993270874,-2.462817668914795,-0.32875874638557434
1782831930795074800,6.57707470703125,0.5667343139648438,-2.382822275161743,-0.6991775631904602
1782831930805003800,6.587003662109375,0.15579889714717865,-1.841245412826538,-1.1064637899398804
1782831930814932700,6.5969326171875,-0.1964305192232132,-1.167446494102478,-1.3762942552566528
1782831930824861700,6.60686181640625,-0.4485636353492737,-0.6450616121292114,-1.4093414545059204
1782831930834793700,6.616793701171875,-0.6101173758506775,-0.3887147307395935,-1.2481523752212524
1782831930844722700,6.62672265625,-0.6207167506217957,-0.3881005048751831,-0.944072961807251
1782831930854652000,6.63665185546875,-0.4872678518295288,-0.5317939519882202,-0.6034078001976013
1782831930864580900,6.646580810546875,-0.28974542021751404,-0.7551791071891785,-0.28288915753364563
1782831930874509800,6.656509765625,-0.09916695207357407,-1.0675218105316162,0.0005257748998701572
1782831930884438800,6.666438720703125,0.0594458281993866,-1.3503140211105347,0.2639296054840088
1782831930894368000,6.676367919921875,0.15627038478851318,-1.4674347639083862,0.4739300012588501
1782831930904297000,6.686296875,0.13784930109977722,-1.345362901687622,0.5927980542182922
1782831930914226000,6.696225830078125,0.008154410868883133,-0.959753155708313,0.5821446180343628
1782831930924155000,6.70615478515625,-0.14283709228038788,-0.4660003185272217,0.4803284704685211
1782831930934083800,6.716083740234375,-0.26453691720962524,-0.00209975428879261,0.35267409682273865
1782831930944012800,6.7260126953125,-0.28674280643463135,0.34800347685813904,0.2651655972003937
1782831930953941800,6.735941650390625,-0.2319277971982956,0.5779309272766113,0.171523779630661
1782831930963872000,6.7458720703125,-0.1514340192079544,0.6183846592903137,0.058445967733860016
1782831930973800000,6.755800048828125,-0.048204027116298676,0.4112250506877899,-0.04214668646454811
1782831930983729000,6.76572900390625,0.06067260354757309,-0.060362186282873154,-0.10250770300626755
1782831930993657900,6.775657958984375,0.1338789016008377,-0.44791391491889954,-0.057836905121803284
1782831931003587800,6.785587890625,0.15891221165657043,-0.40461230278015137,0.12259288132190704
1782831931013516800,6.795516845703125,0.152107834815979,-0.1341317892074585,0.3809322714805603
1782831931023445800,6.80544580078125,0.136618509888649,0.20385180413722992,0.6470751166343689
1782831931033374700,6.815374755859375,0.09895795583724976,0.503397524356842,0.8519749641418457
1782831931043304000,6.825303955078125,0.05360819399356842,0.5957978367805481,0.9619685411453247
1782831931053233000,6.83523291015625,0.047024063766002655,0.4838617444038391,0.9865186214447021
1782831931063161900,6.845161865234375,0.04410263150930405,0.37221211194992065,0.9442858099937439
1782831931073090800,6.8550908203125,-0.022957362234592438,0.32005491852760315,0.8821726441383362
1782831931083020000,6.86502001953125,-0.12709325551986694,0.20465676486492157,0.7979097366333008
1782831931092949000,6.874948974609375,-0.23421785235404968,0.2183390110731125,0.7345288991928101
1782831931102878000,6.8848779296875,-0.34800058603286743,0.4835340678691864,0.776046872138977
1782831931112807000,6.894806884765625,-0.44862890243530273,0.6127913594245911,0.8827469348907471
1782831931122735600,6.904735595703125,-0.4930117726325989,0.4173968732357025,0.9669204354286194
1782831931132664800,6.914664794921875,-0.5187232494354248,0.42989587783813477,1.029742956161499
1782831931142593800,6.92459375,-0.4412350356578827,0.8684079647064209,1.124643325805664
1782831931152522800,6.934522705078125,-0.2665145993232727,1.611112117767334,1.2521040439605713
1782831931162451700,6.94445166015625,-0.10485042631626129,2.1253631114959717,1.3319119215011597
1782831931172381000,6.954380859375,-0.018725130707025528,2.0713789463043213,1.2606122493743896
1782831931182310000,6.964309814453125,0.010995647870004177,1.3699315786361694,0.9244700074195862
1782831931192238800,6.97423876953125,0.04758801311254501,0.40881437063217163,0.3806360065937042
1782831931202167800,6.984167724609375,0.09762497991323471,-0.591294527053833,-0.22751088440418243
1782831931212097000,6.994096923828125,0.23515939712524414,-1.3560459613800049,-0.6853796243667603
1782831931222026000,7.00402587890625,0.3937164545059204,-1.5967142581939697,-0.9571758508682251
1782831931231954700,7.01395458984375,0.5023835301399231,-1.5611299276351929,-1.0627816915512085
1782831931241883600,7.023883544921875,0.552192747592926,-1.478009819984436,-0.9464648365974426
1782831931251812900,7.033812744140625,0.5025469064712524,-1.4629226922988892,-0.6657572984695435
1782831931261741800,7.043741943359375,0.38782063126564026,-1.3987163305282593,-0.3452930152416229
1782831931271670800,7.0536708984375,0.2921455204486847,-1.0107842683792114,-0.01619608700275421
1782831931281599700,7.063599853515625,0.20214425027370453,-0.4393768906593323,0.24690137803554535
1782831931291529000,7.073529052734375,0.09164384007453918,0.05138830095529556,0.3359822630882263
1782831931301458000,7.0834580078125,-0.06750378012657166,0.33527082204818726,0.25247347354888916
1782831931311387000,7.093386962890625,-0.26049426198005676,0.34226560592651367,0.06541118025779724
1782831931321315800,7.10331591796875,-0.4648407995700836,0.11231143027544022,-0.14388000965118408
1782831931331245000,7.1132451171875,-0.6692951321601868,-0.2092548906803131,-0.4095740020275116
1782831931341173800,7.123173828125,-0.7500256896018982,-0.4411573112010956,-0.6640709042549133
1782831931351102700,7.133102783203125,-0.6809542179107666,-0.4851388931274414,-0.8191001415252686
1782831931361031700,7.14303173828125,-0.5732172131538391,-0.5251376032829285,-0.9267470240592957
1782831931370961000,7.1529609375,-0.48509910702705383,-0.7590188384056091,-0.8609192967414856
1782831931380889900,7.162889892578125,-0.42677056789398193,-0.941533625125885,-0.6519798040390015
1782831931390818800,7.17281884765625,-0.39181604981422424,-0.984122633934021,-0.3632020354270935
1782831931400747800,7.182747802734375,-0.4068020284175873,-0.8873863816261292,-0.0733737125992775
1782831931410677000,7.192677001953125,-0.4288380742073059,-0.7269394397735596,0.19897471368312836
1782831931420606000,7.20260595703125,-0.4701417088508606,-0.494209349155426,0.4031451940536499
1782831931430535000,7.212534912109375,-0.5492256283760071,-0.1880025714635849,0.44186198711395264
1782831931440464000,7.2224638671875,-0.624098539352417,0.11596962809562683,0.31785380840301514
1782831931450393000,7.23239306640625,-0.6824294924736023,0.3845885694026947,0.11549456417560577
1782831931460321800,7.24232177734375,-0.712319016456604,0.6691483855247498,-0.04517362266778946
1782831931470250800,7.252250732421875,-0.704614520072937,0.9482673406600952,-0.0790407732129097
1782831931480179700,7.2621796875,-0.6729545593261719,1.1709063053131104,0.008492555469274521
1782831931490109000,7.27210888671875,-0.5876295566558838,1.2203949689865112,0.18653684854507446
1782831931500038000,7.282037841796875,-0.5025469660758972,1.1556017398834229,0.3279705345630646
1782831931509966800,7.291966796875,-0.41507646441459656,1.0138202905654907,0.44195303320884705
1782831931519895800,7.301895751953125,-0.33125704526901245,0.7070885896682739,0.5115201473236084
1782831931529825000,7.311824951171875,-0.2077995240688324,0.3465498685836792,0.5587337017059326
1782831931539754000,7.32175390625,-0.04042671620845795,0.017401203513145447,0.6018944382667542
1782831931549683000,7.331682861328125,0.12319070845842361,-0.2600919306278229,0.6299178004264832
1782831931559612000,7.34161181640625,0.1847681701183319,-0.40644678473472595,0.5746719837188721
1782831931569540900,7.351540771484375,0.11687300354242325,-0.31166595220565796,0.4627222418785095
1782831931579469800,7.3614697265625,0.02147236466407776,-0.028903570026159286,0.40445971488952637
1782831931589398800,7.371398681640625,-0.025351068004965782,0.28369829058647156,0.4303339421749115
1782831931599327700,7.38132763671875,-0.07257018983364105,0.5113260746002197,0.485458105802536
1782831931609256700,7.391256591796875,-0.14845377206802368,0.5890743732452393,0.49650248885154724
1782831931619186000,7.40118603515625,-0.19288185238838196,0.4810960590839386,0.43266597390174866
1782831931629115000,7.411114990234375,-0.16554690897464752,0.23661202192306519,0.34750473499298096
1782831931639043800,7.4210439453125,-0.06446222960948944,-0.025948919355869293,0.28484106063842773
1782831931648972800,7.430972900390625,0.05851535499095917,-0.12778712809085846,0.2512500584125519
1782831931658902000,7.440902099609375,0.19405508041381836,-0.056015267968177795,0.2640073597431183
1782831931668831000,7.4508310546875,0.3377062678337097,0.1415441483259201,0.3250778913497925
1782831931678760000,7.460760009765625,0.45078256726264954,0.4157150089740753,0.3699494004249573
1782831931688688600,7.470688720703125,0.4825122654438019,0.7867714166641235,0.4267745912075043
1782831931698617900,7.480617919921875,0.5070284008979797,1.2473264932632446,0.4961949586868286
1782831931708546800,7.490546875,0.5237290263175964,1.32979416847229,0.5753068327903748
1782831931718475800,7.500475830078125,0.5279240608215332,0.9545515775680542,0.6117733716964722
1782831931728404700,7.51040478515625,0.5058469772338867,0.5225396752357483,0.5466201901435852
1782831931738334000,7.520333984375,0.4946492910385132,0.37568965554237366,0.4215148091316223
1782831931748263000,7.530262939453125,0.5533086657524109,0.34228724241256714,0.25473806262016296
1782831931758191900,7.54019189453125,0.6552802324295044,-0.08810556679964066,-0.011658077128231525
1782831931768120800,7.550120849609375,0.6340433359146118,-1.0540751218795776,-0.4071960747241974
1782831931778050000,7.560050048828125,0.5560346841812134,-2.05584454536438,-0.8916736841201782
1782831931787979000,7.56997900390625,0.4658113121986389,-2.4640538692474365,-1.3062514066696167
1782831931797907700,7.57990771484375,0.3383978009223938,-2.1977837085723877,-1.5047221183776855
1782831931807836700,7.589836669921875,0.25039657950401306,-1.4596736431121826,-1.450583815574646
1782831931817766000,7.599765869140625,0.20959605276584625,-0.5626856088638306,-1.2763688564300537
1782831931827690800,7.609690673828125,0.26834380626678467,0.2913866639137268,-1.0256415605545044
1782831931837619700,7.61961962890625,0.4039267599582672,0.7404945492744446,-0.7554621696472168
1782831931847549000,7.629548828125,0.44338202476501465,0.647287130355835,-0.5727051496505737
1782831931857478000,7.639477783203125,0.43479156494140625,0.17489232122898102,-0.4940491318702698
1782831931867406800,7.64940673828125,0.3684098720550537,-0.44831159710884094,-0.5563381314277649
1782831931877335800,7.659335693359375,0.19717581570148468,-1.196730375289917,-0.7959973216056824
1782831931887265000,7.66926513671875,0.0023082029074430466,-1.8410941362380981,-1.1558125019073486
1782831931897194000,7.679194091796875,-0.09351759403944016,-1.8070541620254517,-1.5462065935134888
1782831931907123000,7.689123046875,-0.05900648608803749,-1.4028960466384888,-1.815475344657898
1782831931917052000,7.699052001953125,-0.05144823342561722,-0.9899854063987732,-1.9051845073699951
1782831931926980600,7.708980712890625,-0.036579541862010956,-0.5450204610824585,-1.8017308712005615
1782831931936909800,7.718909912109375,-0.023280832916498184,-0.09794311225414276,-1.5597764253616333
1782831931946838800,7.7288388671875,-0.032744910567998886,0.19424240291118622,-1.2561473846435547
1782831931956767700,7.738767822265625,-0.0009146695956587791,0.2039465308189392,-0.9634901881217957
1782831931966696700,7.74869677734375,0.05905971676111221,0.0049639297649264336,-0.7152431011199951
1782831931976626000,7.7586259765625,0.1324177235364914,-0.23551660776138306,-0.4947194755077362
1782831931986555000,7.768554931640625,0.19373327493667603,-0.4535940885543823,-0.27398815751075745
1782831931996483800,7.77848388671875,0.2283998727798462,-0.5861322283744812,-0.05151302367448807
1782831932006412800,7.788412841796875,0.20861151814460754,-0.5670719742774963,0.14900968968868256
1782831932016342000,7.798342041015625,0.11935999244451523,-0.3882012963294983,0.2735675275325775
1782831932026271000,7.80827099609375,0.01292489469051361,-0.10306517034769058,0.32326558232307434
1782831932036200000,7.818199951171875,-0.03991065174341202,0.19139721989631653,0.34325119853019714
1782831932046128600,7.828128662109375,-0.024930104613304138,0.3460954427719116,0.38570064306259155
1782831932056057900,7.838057861328125,-0.02050046995282173,0.383091002702713,0.42951658368110657
1782831932065986800,7.84798681640625,-0.06300531327724457,0.442671000957489,0.44972118735313416
1782831932075915800,7.857915771484375,-0.09134196490049362,0.6143091917037964,0.46911051869392395
1782831932085844700,7.8678447265625,-0.1024947538971901,0.8149978518486023,0.5431134104728699
1782831932095774000,7.87777392578125,-0.1369360238313675,0.9565962553024292,0.6622575521469116
1782831932105703000,7.887702880859375,-0.1820846050977707,1.015208125114441,0.7841402888298035
1782831932115631900,7.8976318359375,-0.2283662110567093,1.0005015134811401,0.860293447971344
1782831932125560800,7.907560791015625,-0.2575041353702545,0.9271021485328674,0.8860682845115662
1782831932135490000,7.917489990234375,-0.3016785681247711,0.8752317428588867,0.8752676844596863
1782831932145419000,7.9274189453125,-0.36646050214767456,0.9517859220504761,0.8045855164527893
1782831932155347700,7.93734765625,-0.3642551004886627,1.099543809890747,0.7449912428855896
1782831932165276700,7.947276611328125,-0.2786933183670044,1.2103203535079956,0.7072561383247375
1782831932175206000,7.957205810546875,-0.11758504062891006,1.1225312948226929,0.7502874732017517
1782831932185134800,7.967134765625,0.08078290522098541,0.8505420684814453,0.8775471448898315
1782831932195063800,7.977063720703125,0.21020060777664185,0.5787923336029053,1.000272512435913
1782831932204994000,7.986994140625,0.21926520764827728,0.45999032258987427,1.0844835042953491
1782831932214923000,7.996923095703125,0.1051473468542099,0.6165563464164734,1.1340789794921875
1782831932224852000,8.00685205078125,-0.03188347816467285,1.1096022129058838,1.1456615924835205
1782831932234780700,8.01678076171875,-0.11264033615589142,1.5759119987487793,0.9932031631469727
1782831932244710000,8.0267099609375,-0.01038667093962431,1.518083095550537,0.5418487191200256
1782831932254638800,8.036638916015624,0.28848299384117126,1.2303581237792969,-0.09318584203720093
1782831932264567800,8.04656787109375,0.5061788558959961,1.002324104309082,-0.5888062119483948
1782831932274496800,8.056496826171875,0.4823758602142334,0.5982520580291748,-0.826043963432312
1782831932284425700,8.06642578125,0.3788430988788605,0.033783070743083954,-0.8149548172950745
1782831932294355000,8.07635498046875,0.36046525835990906,-0.6084912419319153,-0.6485527157783508
1782831932304284000,8.086283935546875,0.37187105417251587,-1.1819933652877808,-0.4741337299346924
1782831932314212900,8.096212890625,0.2955126464366913,-1.6651537418365479,-0.46376216411590576
1782831932324141800,8.106141845703124,0.17587944865226746,-1.8862706422805786,-0.6270961761474609
1782831932334071000,8.116071044921876,0.05736751854419708,-1.6131049394607544,-0.8360782861709595
1782831932343999700,8.125999755859375,-0.04302779585123062,-0.787955641746521,-0.9454289674758911
1782831932353928700,8.1359287109375,-0.14280709624290466,0.15390440821647644,-0.9944542646408081
1782831932363857700,8.145857666015624,-0.26477694511413574,0.8937966227531433,-1.0357414484024048
1782831932373787000,8.155786865234376,-0.4365811049938202,1.231827735900879,-1.1301981210708618
1782831932383715800,8.1657158203125,-0.6135963797569275,1.1233247518539429,-1.2713062763214111
1782831932393644800,8.175644775390625,-0.7864488959312439,0.7077246308326721,-1.3831791877746582
1782831932403573800,8.18557373046875,-0.9328130483627319,0.11319471895694733,-1.4023683071136475
1782831932413503000,8.1955029296875,-1.0164966583251953,-0.545158326625824,-1.2777423858642578
1782831932423432000,8.205431884765625,-0.9767195582389832,-1.2013909816741943,-1.0022554397583008
1782831932433361000,8.21536083984375,-0.816180408000946,-1.7686268091201782,-0.638474702835083
1782831932443289900,8.225289794921874,-0.5931406617164612,-2.079012155532837,-0.23284600675106049
1782831932453218800,8.23521875,-0.39428773522377014,-2.0188212394714355,0.12208923697471619
1782831932463147800,8.245147705078125,-0.25320306420326233,-1.6904268264770508,0.4163498878479004
1782831932473076700,8.25507666015625,-0.14813613891601562,-1.205596923828125,0.6707446575164795
1782831932483005700,8.265005615234376,-0.06406334042549133,-0.6552094221115112,0.8520838022232056
1782831932492935000,8.274934814453125,-0.012111564166843891,-0.11126145720481873,0.9466719031333923
1782831932502864000,8.28486376953125,-0.03883957862854004,0.32682108879089355,0.9069031476974487
1782831932512792800,8.294792724609374,-0.11217321455478668,0.6676363348960876,0.7467469573020935
1782831932522721800,8.3047216796875,-0.2323656678199768,0.9528942108154297,0.5359138250350952
1782831932532651000,8.314651123046875,-0.3775649070739746,1.2402065992355347,0.29581010341644287
1782831932542580000,8.324580078125,-0.46121346950531006,1.4647630453109741,0.07223214954137802
1782831932552509000,8.334509033203124,-0.4261336624622345,1.5452358722686768,-0.09048406779766083
1782831932562438000,8.34443798828125,-0.2992766499519348,1.3810675144195557,-0.16361181437969208
1782831932572366800,8.354366943359375,-0.12799681723117828,1.0393187999725342,-0.14933094382286072
1782831932582295800,8.3642958984375,0.03147753328084946,0.714374840259552,-0.05197136849164963
1782831932592224800,8.374224853515624,0.12716391682624817,0.5008339881896973,0.11061632633209229
1782831932602153700,8.38415380859375,0.16310620307922363,0.4228441119194031,0.30100250244140625
1782831932612083000,8.3940830078125,0.17978830635547638,0.43487244844436646,0.48198041319847107
1782831932622012000,8.404011962890625,0.1925504505634308,0.4058746099472046,0.6391942501068115
1782831932631940900,8.41394091796875,0.18393418192863464,0.3330668807029724,0.7907047271728516
1782831932641869800,8.423869873046876,0.10608413815498352,0.1907571256160736,0.9291576743125916
1782831932651799000,8.433799072265625,-0.03645893931388855,0.008076474070549011,0.9897813200950623
1782831932661728000,8.44372802734375,-0.1867070347070694,-0.07639127224683762,0.9916068911552429
1782831932671657000,8.453656982421874,-0.2844052314758301,-0.06166090443730354,0.9347444176673889
1782831932681585700,8.463585693359375,-0.3003906011581421,0.026829548180103302,0.8502929210662842
1782831932691515000,8.473514892578125,-0.282912939786911,0.21155866980552673,0.7555086016654968
1782831932701443800,8.48344384765625,-0.2564496695995331,0.3910006284713745,0.7022064924240112
1782831932711372800,8.493372802734376,-0.20538832247257233,0.30877164006233215,0.7349522709846497
1782831932721301800,8.5033017578125,-0.13034257292747498,-0.07661624997854233,0.8080999851226807
1782831932731230700,8.513230712890625,-0.05608431249856949,-0.487213134765625,0.8898571133613586
1782831932741160000,8.523159912109374,0.03575639799237251,-0.5492805242538452,0.927712619304657
1782831932751089000,8.5330888671875,0.1576801836490631,-0.19800405204296112,0.8688803911209106
1782831932761017900,8.543017822265625,0.3474748730659485,0.040172040462493896,0.670562744140625
1782831932770946800,8.55294677734375,0.5426291823387146,0.11571040004491806,0.42787039279937744
1782831932780876000,8.5628759765625,0.6375780701637268,0.2961065471172333,0.28488102555274963
1782831932790804700,8.5728046875,0.548741340637207,0.5955368280410767,0.32679304480552673
1782831932800733700,8.582733642578125,0.35459157824516296,0.8431020975112915,0.4031626284122467
1782831932810662700,8.59266259765625,0.23044520616531372,1.1055046319961548,0.4183153212070465
1782831932820591900,8.602591796875,0.10906364768743515,1.189755916595459,0.2654203176498413
1782831932830521000,8.61252099609375,-0.08475231379270554,0.7640495300292969,-0.11653812974691391
1782831932840450000,8.622449951171875,-0.314853698015213,-0.13588613271713257,-0.5396608710289001
1782831932850379000,8.63237890625,-0.49549999833106995,-1.2645841836929321,-0.8687098026275635
1782831932860308200,8.64230810546875,-0.5434765815734863,-2.1337485313415527,-0.9597902297973633
1782831932870237200,8.6522373046875,-0.5481038093566895,-2.435173988342285,-0.877798855304718
1782831932880166100,8.662166259765625,-0.6047255396842957,-2.2127866744995117,-0.8429194688796997
1782831932890095000,8.67209521484375,-0.657292366027832,-1.5715373754501343,-0.8806561827659607
1782831932900024000,8.682024169921876,-0.6208280920982361,-0.816990852355957,-0.9908870458602905
1782831932909953000,8.691953125,-0.39259782433509827,-0.14440925419330597,-1.1018743515014648
1782831932919882000,8.701882080078125,-0.15626677870750427,0.36482521891593933,-1.0741689205169678
1782831932929811000,8.71181103515625,-0.06825034320354462,0.8056706786155701,-0.9305074214935303
1782831932939740200,8.721740234375,-0.1590641438961029,0.9159484505653381,-0.7291260957717896
1782831932949669000,8.731669189453125,-0.351610004901886,0.5692371129989624,-0.548065721988678
1782831932959598000,8.74159814453125,-0.5904214978218079,0.12510041892528534,-0.4635801315307617
1782831932969527000,8.751527099609374,-0.9022102355957031,-0.2294907420873642,-0.5728015303611755
1782831932979456300,8.761456298828126,-1.1968902349472046,-0.5317251682281494,-0.9350929260253906
1782831932989385200,8.77138525390625,-1.238592267036438,-0.6232671737670898,-1.3328158855438232
1782831932999314200,8.781314208984375,-1.1042273044586182,-0.6249958276748657,-1.567458987236023
1782831933009243100,8.7912431640625,-0.8792669177055359,-0.6620962023735046,-1.5323073863983154
1782831933019172000,8.801172119140626,-0.6038007140159607,-0.6575797200202942,-1.2747418880462646
1782831933029101000,8.81110107421875,-0.3275880515575409,-0.5862984657287598,-0.9006702303886414
1782831933039030000,8.821030029296875,-0.1008070856332779,-0.501782238483429,-0.5133802890777588
1782831933048959000,8.830958984375,0.060201846063137054,-0.4011572301387787,-0.12524685263633728
1782831933058888200,8.84088818359375,0.17676974833011627,-0.28430384397506714,0.2527278959751129
1782831933068817200,8.850817138671875,0.21515104174613953,-0.11289159953594208,0.5719380378723145
1782831933078746000,8.86074609375,0.1183193102478981,0.1861100047826767,0.6661169528961182
1782831933088675000,8.870675048828126,-0.014710313640534878,0.5199441313743591,0.5598072409629822
1782831933098604300,8.880604248046875,-0.12577344477176666,0.718846321105957,0.3444421589374542
1782831933108533200,8.890533203125,-0.18811079859733582,0.7101629972457886,0.11965233087539673
1782831933118462200,8.900462158203124,-0.1862465888261795,0.5334734916687012,-0.006983638275414705
1782831933128391000,8.910390869140626,-0.14193271100521088,0.30159127712249756,-0.025559866800904274
1782831933138320100,8.920320068359375,-0.07939023524522781,0.07478503882884979,0.021323487162590027
1782831933148249000,8.9302490234375,-0.01677642948925495,-0.07190781086683273,0.13689157366752625
1782831933158178000,8.940177978515624,0.05340665206313133,-0.07188171148300171,0.29815906286239624
1782831933168107000,8.95010693359375,0.14276514947414398,0.07311611622571945,0.48219841718673706
1782831933178036200,8.9600361328125,0.2324976921081543,0.2221657931804657,0.6772645711898804
1782831933187965200,8.969965087890625,0.34440797567367554,0.2929798364639282,0.877874493598938
1782831933197894100,8.97989404296875,0.4712753891944885,0.3230559825897217,1.054444670677185
1782831933207823000,8.989822998046876,0.5499221086502075,0.3451537787914276,1.1566822528839111
1782831933217752300,8.99975244140625,0.49493446946144104,0.4221974313259125,1.1420409679412842
1782831933227681300,9.009681396484375,0.39143460988998413,0.5626165866851807,1.0452789068222046
1782831933237611000,9.019611083984374,0.31155097484588623,0.6645197868347168,0.9385169744491577
1782831933247540000,9.0295400390625,0.26046210527420044,0.6255021095275879,0.8631131649017334
1782831933257469200,9.03946923828125,0.2098551243543625,0.4866584837436676,0.794852614402771
1782831933267398100,9.049398193359375,0.18650344014167786,0.2549683451652527,0.745578944683075
1782831933277327000,9.0593271484375,0.18498145043849945,-0.03040584921836853,0.7610785365104675
1782831933287256000,9.069256103515626,0.1995076835155487,-0.11064492911100388,0.8384349346160889
1782831933297185300,9.079185302734375,0.2316666841506958,0.09653861820697784,0.9533876180648804
1782831933307114200,9.0891142578125,0.2662910223007202,0.4008525013923645,1.1149455308914185
1782831933317043000,9.09904296875,0.24485978484153748,0.6000827550888062,1.2302109003067017
1782831933326972000,9.108971923828125,0.25275981426239014,0.5715057849884033,1.2360824346542358
1782831933336901000,9.118901123046875,0.34427163004875183,0.4490581750869751,1.1175761222839355
1782831933346830000,9.128830078125,0.49985387921333313,0.39434102177619934,0.8681889176368713
1782831933356759000,9.138759033203126,0.6413002610206604,0.33098095655441284,0.6228896975517273
1782831933366688000,9.14868798828125,0.6827114224433899,0.26961660385131836,0.44685080647468567
1782831933376617200,9.1586171875,0.6446290016174316,0.318662166595459,0.3545621633529663
1782831933386546200,9.168546142578125,0.596463680267334,0.6472925543785095,0.3136932849884033
1782831933396475100,9.17847509765625,0.4873582422733307,1.001251220703125,0.11486194282770157
1782831933406404000,9.188404052734375,0.30278897285461426,1.134017825126648,-0.34775736927986145
1782831933416333300,9.198333251953125,0.006867289077490568,0.8709137439727783,-0.9760987758636475
1782831933426262000,9.208261962890624,-0.24118539690971375,0.1619570553302765,-1.4705173969268799
1782831933436191000,9.21819091796875,-0.44702962040901184,-0.8805527687072754,-1.721861720085144
1782831933446120000,9.228119873046875,-0.6602253317832947,-1.9103813171386719,-1.749862790107727
1782831933456049200,9.238049072265625,-0.7604193091392517,-2.3583245277404785,-1.5476130247116089
1782831933465978000,9.24797802734375,-0.7357802391052246,-2.1130478382110596,-1.2685108184814453
1782831933475907000,9.257906982421876,-0.6252793073654175,-1.4888207912445068,-0.9878136515617371
1782831933485836000,9.2678359375,-0.48693975806236267,-0.8643143773078918,-0.7328173518180847
1782831933495765200,9.27776513671875,-0.2072276920080185,-0.40204259753227234,-0.5619361400604248
1782831933505694200,9.287694091796874,0.04588792473077774,-0.2460288256406784,-0.5047571063041687
1782831933515623200,9.297623046875,0.05543961748480797,-0.48523473739624023,-0.5943564772605896
1782831933525552000,9.30755224609375,-0.03669632226228714,-0.8753060698509216,-0.7269879579544067
1782831933535481000,9.317481201171875,-0.19832730293273926,-1.206027865409851,-0.9115799069404602
1782831933545410000,9.32741015625,-0.45927417278289795,-1.351176142692566,-1.2081818580627441
1782831933555339000,9.337339111328125,-0.6066897511482239,-1.1466538906097412,-1.4994245767593384
1782831933565268000,9.34726806640625,-0.6147570610046387,-0.6938712000846863,-1.6953275203704834
1782831933575197200,9.357197265625,-0.5128107666969299,-0.25249192118644714,-1.7237173318862915
1782831933585126100,9.367126220703126,-0.3401835858821869,0.028184279799461365,-1.5519356727600098
1782831933595055000,9.37705517578125,-0.1425032764673233,0.03375028446316719,-1.2326194047927856
1782831933604984000,9.386984130859375,0.0744871273636818,-0.121984101831913,-0.8189659714698792
1782831933614913000,9.3969130859375,0.29918575286865234,-0.26160457730293274,-0.36264529824256897
1782831933624842200,9.40684228515625,0.47847098112106323,-0.23619191348552704,0.07608769088983536
1782831933634771200,9.416771240234375,0.5500364899635315,-0.020481187850236893,0.4172508716583252
1782831933644700200,9.4267001953125,0.4997576177120209,0.27877458930015564,0.5509235858917236
1782831933654629000,9.436629150390624,0.37938618659973145,0.5370320081710815,0.5013735890388489
1782831933664558000,9.44655810546875,0.21523241698741913,0.5710822939872742,0.3137056231498718
1782831933674487000,9.456487060546875,0.08084744215011597,0.39917129278182983,0.05283302813768387
1782831933684416000,9.466416015625,0.08856470882892609,0.19761621952056885,-0.14353813230991364
1782831933694345000,9.476344970703124,0.13239875435829163,0.31946757435798645,-0.2610735297203064
1782831933704274200,9.486274169921876,0.11329454928636551,0.6451530456542969,-0.30732566118240356
1782831933714203100,9.496203125,0.05007217079401016,0.955150306224823,-0.2820274829864502
1782831933724132000,9.506132080078125,-0.008318230509757996,1.2391711473464966,-0.14992687106132507
1782831933734061000,9.51606103515625,-0.030477061867713928,1.4341057538986206,0.10963679105043411
1782831933743990300,9.525990234375,0.003982579801231623,1.250614047050476,0.38989946246147156
1782831933753919200,9.535919189453125,0.17753413319587708,0.8600119352340698,0.7524640560150146
1782831933763848200,9.54584814453125,0.3857764005661011,0.515651285648346,1.2088251113891602
1782831933773777000,9.55577685546875,0.4630333483219147,0.3796306252479553,1.7020353078842163
1782831933783706000,9.5657060546875,0.3727996349334717,0.10807037353515625,1.957322597503662
1782831933793635000,9.575635009765625,0.22093287110328674,-0.44612810015678406,1.757328748703003
1782831933803564000,9.58556396484375,0.014096088707447052,-0.5340993404388428,1.234326720237732
1782831933813493000,9.595492919921876,-0.06299257278442383,-0.2464936524629593,0.7416541576385498
1782831933823422200,9.605422119140625,-0.0517813116312027,0.17904891073703766,0.47333768010139465
1782831933833351200,9.61535107421875,-0.11338182538747787,0.6770464777946472,0.4736231565475464
1782831933843280100,9.625280029296874,-0.16327141225337982,0.9249558448791504,0.6412037014961243
1782831933853209000,9.635208984375,-0.12398552149534225,0.8955580592155457,0.8821348547935486
1782831933863138300,9.64513818359375,0.10570907592773438,0.7042293548583984,1.0632506608963013
