time,seconds_elapsed,z,y,x
1782831431925909800,0.08790966796875,-0.220335526317358,-0.016182050124555824,0.2026636029612273
1782831431935838700,0.097838623046875,-0.30446283929049966,-0.0673839757040143,0.12864471928738058
1782831431945767700,0.107767578125,-0.3687345281928778,-0.06337313262745738,0.1203621902409941
1782831431955697000,0.11769677734375,-0.24667525171041488,-0.03960515741854906,0.2077685979500413
1782831431965625900,0.1276259765625,-0.1595282986551523,-0.038670214655995364,0.2412038345620036
1782831431975554800,0.137554931640625,-0.16827976038753986,-0.10084960745424032,0.19246292880121618
1782831431985483500,0.1474833984375,-0.10480126768946647,-0.19568258496746418,0.1443745321324095
1782831431995412700,0.157412841796875,-0.057258010748028755,-0.18764058667868375,0.11717022579926997
1782831432005341700,0.167341796875,-0.015033903002738951,-0.1513340324141085,0.12008761108331381
1782831432015270700,0.177270751953125,-0.03537351119816303,-0.19790113779976962,0.15377010045461356
1782831432025199600,0.18719970703125,-0.09220891261994839,-0.2375786298021674,0.18129991241507232
1782831432035128600,0.197128662109375,-0.16134031651318073,-0.2215339423216879,0.14753639369681476
1782831432045060900,0.207060791015625,-0.2745814957678318,-0.20858079111576078,0.06280793649274856
1782831432054989800,0.21698974609375,-0.3925783451169729,-0.18068053840771317,0.005635558201558887
1782831432064919000,0.2269189453125,-0.5015273801356553,-0.2288341823324561,-0.010378259216621518
1782831432074848800,0.236848876953125,-0.5353846415519714,-0.2342619064696133,0.04312379653137177
1782831432084777700,0.24677783203125,-0.5320259787738323,-0.21104703509882092,0.03447765833698213
1782831432094707000,0.25670703125,-0.5077279883414506,-0.12070493926405906,-0.0039606107266619795
1782831432104636000,0.266635986328125,-0.4797761515766382,-0.060994713058322665,-0.06115636989343911
1782831432114564900,0.27656494140625,-0.4264326839238405,-0.09479776006937027,-0.12711301620807497
1782831432124493800,0.286493896484375,-0.31310031925439835,-0.11765227369517087,-0.19096834286190567
1782831432134423000,0.296423095703125,-0.1567787076860666,-0.128546446544677,-0.1850187868077308
1782831432144352000,0.30635205078125,0.00004325461983680725,-0.16151728051528333,-0.0670174074139446
1782831432154281000,0.316281005859375,0.023062311157584187,-0.18010449208542703,0.04834642655048519
1782831432164210000,0.3262099609375,0.06249941853284836,-0.22282164404466748,-0.0157815430322662
1782831432174139100,0.33613916015625,0.12776713273525236,-0.2635984755910933,-0.008428001931682229
1782831432184067800,0.34606787109375,0.09089958358705043,-0.3193183169864118,0.06684172205347567
1782831432193996800,0.355996826171875,0.09291209245324135,-0.31656288079842926,0.021589790919609365
1782831432203925800,0.36592578125,0.2163525941610336,-0.21517536707520485,-0.021657376263104378
1782831432213855000,0.37585498046875,0.3113303869724274,-0.17617329011633992,-0.04955426797028631
1782831432223784000,0.385783935546875,0.4206482553035021,-0.22714330663606522,-0.03952657575700432
1782831432233713000,0.395712890625,0.6000912147402763,-0.24365488097593188,-0.02194978333842009
1782831432243641900,0.405641845703125,0.6850549785375595,-0.2238425115250051,-0.05708470000773668
1782831432253571000,0.415571044921875,0.7798042232900857,-0.19962533124387263,-0.12768610338829456
1782831432263500000,0.4255,0.8440852645426988,-0.1912944330111146,-0.15478062920402735
1782831432273429000,0.435428955078125,0.7771633533924818,-0.2613493814900517,-0.08081256240196526
1782831432283358000,0.44535791015625,0.8013374251842499,-0.39207551016137,0.03953000982310623
1782831432293287000,0.455286865234375,0.8707254341870546,-0.4458253666579723,0.1546271556753665
1782831432303217000,0.465216796875,0.936935982197523,-0.4255332508660853,0.22117310965266077
1782831432313145900,0.475145751953125,1.043273373413086,-0.3000248568430543,0.2457355962401256
1782831432323074800,0.48507470703125,1.0549509517252444,-0.1879258333608508,0.19733031564187256
1782831432333004000,0.495004150390625,1.0105629439443349,-0.1344130004905164,0.057415941256098446
1782831432342933000,0.50493310546875,1.031139283505082,-0.03253565742373466,-0.02742083516065031
1782831432352862000,0.514862060546875,1.0462976896703242,0.06299202435538172,-0.020697883581183848
1782831432362791000,0.524791015625,1.0526648866146802,0.10173895750939846,0.024801665638200937
1782831432372720000,0.53472021484375,1.1330436607092618,0.09012202334329486,-0.010651486667431891
1782831432382648800,0.54464892578125,1.2681225777626037,0.11675766294300556,-0.06657835840955376
1782831432392577800,0.554577880859375,1.4587451028615235,0.1613455772101879,-0.04661792225744575
1782831432402506800,0.5645068359375,1.7251134815573692,0.2263572708249092,-0.10480177914611995
1782831432412436000,0.57443603515625,1.9461276377886532,0.23281638383641837,-0.1400262372624129
1782831432422365000,0.584364990234375,2.0885066487222907,0.17823299912512303,-0.09907551045380532
1782831432432294000,0.5942939453125,2.175003028914332,0.113405429905653,0.019583529131114483
1782831432442222800,0.604222900390625,2.3243185611128805,0.0012093757897615432,0.11838891740664839
1782831432452152000,0.614152099609375,2.4517788198560475,0.03642725803479552,0.19441051920503377
1782831432462081000,0.6240810546875,2.5867344027906656,0.17120090853124856,0.20878899050634353
1782831432472010000,0.634010009765625,2.6291525718033313,0.23888678979128597,0.1946665763253346
1782831432481939000,0.64393896484375,2.502377957236767,0.2889028665870428,0.175728322827816
1782831432491868000,0.653867919921875,2.424146132043004,0.34611221588775515,0.09107567080631851
1782831432501796900,0.663796875,2.3559850344866513,0.3982398780100047,0.02105791253261268
1782831432511725800,0.673725830078125,2.243469831418991,0.49791693455353375,-0.04398516260106116
1782831432521654800,0.68365478515625,2.0222341413915155,0.5941710309110582,-0.04702522441670298
1782831432531584000,0.693583984375,1.7314292405754326,0.4871973876185715,0.025672310992889105
1782831432541514000,0.703513916015625,1.5487714107453823,0.3653729428052902,0.12181067201625555
1782831432551443000,0.71344287109375,1.4071435104399919,0.3352876011431217,0.18090143288308755
1782831432561372000,0.723371826171875,1.1220149016946555,0.32914880612716074,0.18678473703432827
1782831432571300900,0.73330078125,0.7839397156596183,0.3062308718763292,0.18655973263941705
1782831432581229800,0.743229736328125,0.3669891458302736,0.21338044648244975,0.16820667688501997
1782831432591158800,0.75315869140625,-0.16266425859332084,0.10621025770455599,0.11256200135145336
1782831432601087700,0.763087646484375,-0.6563520311444997,0.1461830793917179,-0.06431591163659468
1782831432611017000,0.773016845703125,-1.0326116941452026,0.19450842662155626,-0.19507897478481753
1782831432620946000,0.78294580078125,-1.4062848477840422,0.21951032753959296,-0.35020251740869135
1782831432630875000,0.792875,-1.8161673789232968,0.21451734155789015,-0.3867203398037702
1782831432640803800,0.802803955078125,-2.4428806431293486,0.16830547935068607,-0.46394514337945725
1782831432650733000,0.812733154296875,-3.130938310614228,0.08113470702841877,-0.48695258254464713
1782831432660662000,0.822662109375,-4.054594539999962,0.08189531613737344,-0.3350086380712688
1782831432670591000,0.832591064453125,-5.1251890510588884,0.05311228924542665,-0.22572770421709865
1782831432680520000,0.84252001953125,-6.05524637965858,-0.19736790770590304,-0.12707852941658346
1782831432690449000,0.852448974609375,-7.1503984088689085,-0.550036121108383,-0.06954488006494938
1782831432700377900,0.8623779296875,-8.114786461615562,-0.9285058613739907,0.07659202209748327
1782831432710306800,0.872306884765625,-9.664756142234802,-1.346162241385132,0.5347119299221783
1782831432720235800,0.88223583984375,-11.707289559811352,-1.7231670236647127,1.0880093178488313
1782831432730165000,0.8921650390625,-13.214225569868088,-1.8948124610930681,1.1788859589517116
1782831432740094000,0.902093994140625,-14.101295989656448,-1.4722645096480846,0.5814688222588971
1782831432750023000,0.91202294921875,-14.049285231912135,-0.8770869320429862,-0.039116972042806446
1782831432759953000,0.921952880859375,-13.643055378061533,-0.5434492900639772,-0.3441885543487966
1782831432769881900,0.9318818359375,-12.97464173772335,-0.5457102207332849,-0.4495833309520036
1782831432779810800,0.941810791015625,-12.124052498114109,-0.7411551975525915,-0.3507419215150177
1782831432789739800,0.95173974609375,-11.00702415266037,-0.9811670458510517,-0.09919069779869169
1782831432799669000,0.9616689453125,-9.376536581736802,-1.2296062384940682,0.2550543729990721
1782831432809598000,0.971597900390625,-7.667507973539829,-1.4678618907749652,0.6602965309865773
1782831432819527000,0.98152685546875,-6.237742881447076,-1.8491680235102772,1.071144692287594
1782831432829456000,0.991455810546875,-4.772164133173227,-2.222625634702295,1.3320629888840019
1782831432839385000,1.001385009765625,-3.0895138288140296,-2.1650968441888687,1.27265656793043
1782831432849314000,1.01131396484375,-0.9635480947911739,-1.6399850287176667,1.0069932687640188
1782831432859243000,1.021242919921875,1.1381395225435496,-1.1864051024101674,0.6523139347348362
1782831432869172000,1.031171875,2.921528082937002,-1.0324717011526225,0.5209336530037224
1782831432879100700,1.0411005859375,4.336265701767802,-0.8622003285564481,0.5646844223270192
1782831432889030000,1.05102978515625,5.274158546298742,-0.4604682245165109,0.532833751492761
1782831432898958800,1.060958740234375,6.122059569737315,-0.25894597361013294,0.5681216667667031
1782831432908887800,1.0708876953125,6.848147984930873,-0.11108780061304568,0.6751410488970577
1782831432918816800,1.080816650390625,7.428619722443819,0.014308949729055165,0.8982534925818443
1782831432928746000,1.09074609375,7.506679113680124,0.18366116165369747,0.8827482457403093
1782831432938675000,1.100675048828125,7.0893263927906744,0.3760838680423796,0.7770269405964761
1782831432948604000,1.11060400390625,7.129309443610906,0.41229003067240116,0.6337734118506312
1782831432958532900,1.120532958984375,7.670331214267015,0.42515360389873386,0.5710940701736137
1782831432968462000,1.130462158203125,7.954608174619078,0.4371546420115977,0.6168302411604673
1782831432978391000,1.14039111328125,7.76521256096661,0.3069057023979723,0.6755565708953887
1782831432988320800,1.15032080078125,7.950082806149124,0.11416004766523838,0.6763320853125303
1782831432998250000,1.16025,8.408402328199148,-0.023655527810379863,0.34224195032566784
1782831433008179000,1.170178955078125,8.88347074047625,0.08630633751265704,0.15627704177424312
1782831433018108000,1.18010791015625,9.20662016005814,0.15194449246264993,0.08821805288549513
1782831433028036900,1.190036865234375,9.158145175224542,0.3230415752932429,0.09432700075246393
1782831433037966000,1.199966064453125,8.7895106002748,0.5221408368363977,0.056652555668167764
1782831433047890400,1.209890380859375,8.424837330171465,0.5096712313637137,-0.19791626230366527
1782831433057819400,1.2198193359375,8.269495961812138,0.4239391135424375,-0.5768953768635169
1782831433067748600,1.22974853515625,8.231696684771777,0.4466482273481786,-0.784837541282177
1782831433077677600,1.239677490234375,8.254804004114865,0.4981818691000342,-0.8409079496808349
1782831433087606500,1.2496064453125,8.228485906031727,0.5762509049475193,-0.7573203696075826
1782831433097535500,1.259535400390625,7.827555912154913,0.8389331424765288,-0.6218151899661869
1782831433107464400,1.26946435546875,7.380777774816751,1.2091463649198413,-0.6894488295823336
1782831433117393400,1.279393310546875,7.0262611570686095,1.5346756653755902,-0.6100524175886064
1782831433127322400,1.289322265625,7.182826514264941,1.6148700228139756,-0.3966701444752514
1782831433137251300,1.299251220703125,7.606806544339657,1.3478922800481319,-0.4941162270963192
1782831433147180500,1.3091806640625,7.501150121125578,1.2197248959489166,-0.7636096059449017
1782831433157109500,1.319109619140625,6.975795875200629,1.3604571625888346,-1.1705235696021468
1782831433167038500,1.32903857421875,6.364939520817995,1.5010504591494798,-1.4854000316835938
1782831433176967400,1.338967529296875,5.963834754896164,1.4977867811784147,-1.6139682516686618
1782831433186896600,1.348896728515625,5.60417434451878,1.5272614435963332,-1.3772086831644177
1782831433196825600,1.35882568359375,4.6311879747748375,1.6535945980057118,-1.0772880173482
1782831433206755300,1.36875537109375,3.2089620460152624,1.498380509287864,-0.9232640151977538
1782831433216684300,1.378684326171875,1.7039415141910315,1.0247798314757643,-0.6997863914623856
1782831433226613500,1.388613525390625,0.1985159086972475,0.4433572229787707,-0.5313661996908485
1782831433236542500,1.39854248046875,-1.095170733910799,-0.0840323281660676,-0.5329135752633214
1782831433246471400,1.408471435546875,-2.109440715679526,-0.8659931449681519,-0.28222265817075964
1782831433256400400,1.418400390625,-3.4646558859616516,-1.4951057254008948,0.3912355522058904
1782831433266329600,1.42832958984375,-6.473265455502271,-1.5320539385698735,1.3935279498025774
1782831433276258600,1.438258544921875,-10.033497100168466,-1.316933078160882,1.7838965099155901
1782831433286187500,1.4481875,-12.430256628113984,-1.3574939288690686,1.3763473901599645
1782831433296116500,1.458116455078125,-13.530982658064364,-1.2644370211176574,0.7309997142411768
1782831433306045400,1.46804541015625,-14.189791434711218,-0.6614267040602863,0.4791289397142827
1782831433315974400,1.477974365234375,-14.968964958882331,-0.20421207451224327,0.7629410590335727
1782831433325903400,1.4879033203125,-15.47869142756462,-0.35273441050648685,1.10123953243047
1782831433335832300,1.497832275390625,-15.615048693990706,-0.8732049760431051,1.4074036226809024
1782831433345761500,1.507761474609375,-15.858305661690235,-1.4550537009976803,1.803468787000328
1782831433355690500,1.5176904296875,-15.475164422482251,-2.149333165606856,2.253420293677598
1782831433365619500,1.527619384765625,-14.759441918480395,-2.6175445515960454,2.8465649041503664
1782831433375548400,1.53754833984375,-13.624300408709049,-2.7353362337619065,3.3038071523576975
1782831433385477600,1.5474775390625,-11.768999873793124,-2.5069927575558424,3.0016479138344523
1782831433395406600,1.557406494140625,-9.677946463197468,-1.93309747582376,2.6165768756076693
1782831433405335600,1.56733544921875,-7.594913861972093,-1.2648023472987115,2.2836947281710804
1782831433415264300,1.57726416015625,-5.89989039825201,-0.40852570970281954,1.8891968131683765
1782831433425193500,1.587193359375,-4.35775331095457,0.3773071262270212,1.4192743854776024
1782831433435123500,1.59712353515625,-2.7564462418079376,0.6273772810727357,0.9318743879590183
1782831433445052400,1.607052490234375,-1.2763695971041917,0.5334675558842719,0.6575145721178501
1782831433454981600,1.616981689453125,0.05950783550143242,0.3220679079554975,0.5985482961472124
1782831433464910600,1.62691064453125,1.072038864648342,-0.1848278673455119,0.5945209037946537
1782831433474839600,1.636839599609375,2.210041609069705,-0.7175897591784596,0.5799737248629331
1782831433484768500,1.6467685546875,3.368092869785428,-0.6826264362163841,0.6993276879094541
1782831433494697500,1.656697509765625,4.14510717009604,-0.055327188815921545,0.8817110116470604
1782831433504626400,1.66662646484375,4.439765239208937,0.5137891880765557,1.1290542988121508
1782831433514555400,1.676555419921875,4.524909035748243,0.7987633369125425,1.4722880366541444
1782831433524484400,1.686484375,4.3423967518687245,0.9093671534009278,1.6438719531536101
1782831433534413600,1.69641357421875,3.9725551392167806,0.9232434108011424,1.7730641502559183
1782831433544342500,1.706342529296875,3.7512346935153005,0.8220942358784377,1.6860662502825259
1782831433554271500,1.716271484375,3.900139306825399,0.6823828367188572,1.2641615651771425
1782831433564200400,1.726200439453125,4.590929614144564,0.5794974856533109,0.7923572692625224
1782831433574129400,1.73612939453125,5.398874474769831,0.6362740695599466,0.582193446739018
1782831433584058600,1.74605859375,6.2143368714183564,0.7817716509055346,0.5033406401026994
1782831433593987600,1.755987548828125,6.998440253207087,0.8474743224591016,0.6001728286091238
1782831433603916300,1.765916259765625,7.6474571191579095,0.6759339528404176,0.7674724188528954
1782831433613845200,1.77584521484375,7.781063625571131,0.331767244997248,0.7868696316316723
1782831433623774500,1.7857744140625,7.412218038219213,0.07661503764688968,0.7288341337051242
1782831433633703400,1.795703369140625,7.045277407705783,-0.22288301884308456,0.6878666749574244
1782831433643633400,1.80563330078125,6.505630432534217,-0.4717258969161659,0.6647291796717792
1782831433653562600,1.815562744140625,6.442317359530925,-0.39688028009459375,0.48274270976465194
1782831433663491600,1.82549169921875,6.837778566607833,0.18615991966687143,0.3930425285626203
1782831433673420500,1.835420654296875,6.8233344461917875,0.6164466486703604,0.26192674298658963
1782831433683349200,1.845349365234375,6.664145754754543,0.630615386211127,0.07169926335355266
1782831433693278500,1.855278564453125,6.428964541482925,0.46794995857402677,-0.07531501529845408
1782831433703207400,1.86520751953125,6.276399067577719,0.4706069028235972,-0.08829064319767058
1782831433713136400,1.875136474609375,6.226422446009517,0.5877917051374912,-0.038983774117194114
1782831433723065300,1.8850654296875,6.286788944166898,0.6069723525561392,-0.20072598596215246
1782831433732994600,1.89499462890625,6.499017736396193,0.6995449839219451,-0.3602863237233832
1782831433742923500,1.904923583984375,6.361018547981977,0.7539363531924784,-0.43886312642991543
1782831433752852500,1.9148525390625,5.529847710070014,0.7379309748090803,-0.4060522687939927
1782831433762781400,1.924781494140625,4.922352356553078,0.6594955898672342,-0.389954828212969
1782831433772710700,1.934710693359375,4.176429360076785,0.8323793369188904,-0.40858975138235837
1782831433782639600,1.9446396484375,3.301349237811565,1.040535472881794,-0.4218757512718439
1782831433792568300,1.954568359375,2.316104274997115,0.9837858500473201,-0.5312444730073214
1782831433802497300,1.964497314453125,0.9512094222217797,0.7553462199904024,-0.46696313949376345
1782831433812426500,1.974426513671875,-0.45594402509033677,0.35824104509875176,-0.08849946364276111
1782831433822355500,1.98435546875,-1.3231494684576988,0.13693199757412075,0.0003092120796442032
1782831433832284400,1.994284423828125,-2.2318775933027264,0.2077026931069791,0.32910942396484316
1782831433842213400,2.00421337890625,-3.3502883330255746,0.19886150726452467,0.5886080630216747
1782831433852143600,2.0141435546875,-5.1198190484583375,-0.09582578794285654,0.5860865817200392
1782831433862072600,2.024072509765625,-7.343826054516434,-0.5640741449415684,0.7465718157738447
1782831433872001500,2.03400146484375,-10.044234767282008,-1.3477750834092497,1.145382333278656
1782831433881930200,2.04393017578125,-13.126203587543964,-2.069589474545419,1.5928798709325491
1782831433891859500,2.053859375,-14.625518601202964,-2.461740826421976,1.3626450280219315
1782831433901788400,2.063788330078125,-14.492989953154325,-1.8091997318677604,1.3377404499985277
1782831433911717400,2.07371728515625,-13.14377899172306,-0.7643160006485878,1.3848349402591584
1782831433921646300,2.083646240234375,-11.124772580206393,-0.14224515542089938,1.2433299356810747
1782831433931575600,2.093575439453125,-10.579081648695468,-0.271026433634758,1.1976216390818357
1782831433941504500,2.10350439453125,-10.429884774440527,-0.876300165579468,0.983721698769927
1782831433951433500,2.11343359375,-10.136745877718925,-1.6244681645035743,1.0533460007466375
1782831433961362400,2.123362548828125,-10.138747280669211,-2.2575014255113897,1.6918122465886174
1782831433971291600,2.133291748046875,-9.279403072196244,-2.930875464735925,1.843874739407748
1782831433981220600,2.143220703125,-7.714601733148098,-2.820907023541629,1.9698653639897703
1782831433991149300,2.1531494140625,-6.568110561844706,-1.6052677894711493,1.7232529483824968
1782831434001078300,2.163078369140625,-5.518538965070247,-0.887832344071567,1.0769153846435249
1782831434011007500,2.173007568359375,-4.719735442277789,-0.7421627671599388,0.1614528369769454
1782831434020936400,2.1829365234375,-3.5494442931920287,-0.584070492657274,-0.38873723258413373
1782831434030865400,2.192865478515625,-2.047209008172154,-0.3568285479523241,-0.5813715358968824
1782831434040794600,2.202794677734375,-1.0110480971127749,-0.33923582731224594,-0.5391721972666681
1782831434050724600,2.212724609375,0.11077800401151179,-0.5276635457806289,-0.39540472764931617
1782831434060653600,2.222653564453125,1.2685416799575089,-0.4984996298123151,-0.1461391671847552
1782831434070582500,2.23258251953125,2.2056769841194153,-0.3415025301352143,0.14692754108346998
1782831434080511500,2.242511474609375,2.815349097153544,-0.10404182762429118,0.24051643681973217
1782831434090440400,2.2524404296875,2.7823323782145977,0.1172703617054969,0.31418066183701154
1782831434100369700,2.26236962890625,2.7463252452880145,0.09793861537836492,0.5098598858036101
1782831434110298600,2.272298583984375,2.8280899207830426,-0.009491904836148023,0.6411511010117829
1782831434120227600,2.2822275390625,3.133927555558085,-0.031331177004799246,0.47244482230786233
1782831434130156500,2.292156494140625,3.893196940341592,0.03591013882551342,0.062436107505671676
1782831434140085800,2.302085693359375,4.636383789852261,0.07976831404604018,-0.20399408438000827
1782831434150014700,2.3120146484375,5.25342380130589,0.03070628657210618,-0.1703493332032114
1782831434159943700,2.321943603515625,5.952694936722517,-0.2076621419008821,-0.09676968119684606
1782831434169872600,2.33187255859375,6.590059358802438,-0.5325513178221881,0.064200267633982
1782831434179801600,2.341801513671875,7.1420257173210375,-0.7296200964510441,0.07892722357939928
1782831434189730600,2.35173046875,7.461172915524243,-0.7953521402295678,0.1278975907145068
1782831434199659500,2.361659423828125,7.492644743108749,-0.842143848151341,0.2906345126852393
1782831434209588500,2.37158837890625,7.190919804349541,-0.8473620942562818,0.41755606144182383
1782831434219517400,2.381517333984375,6.494965246134996,-0.8571965289197861,0.6389705421023071
1782831434229446700,2.39144677734375,5.883221587523818,-0.9520783870760351,0.8913700166784226
1782831434239375600,2.401375732421875,5.939747192344069,-0.8537968765441328,0.6157108817417174
1782831434249305600,2.4113056640625,6.2385255562573665,-0.42507863896638154,0.02978551846537739
1782831434259234600,2.421234619140625,6.2655310520827765,0.10384469761699437,-0.2617439337655902
1782831434269163500,2.43116357421875,6.511026154097914,0.2024672401389107,-0.5224591820705682
1782831434279092500,2.441092529296875,7.205854338631034,-0.05153006155528128,-0.3611798750296235
1782831434289021400,2.451021484375,7.510039530023932,-0.15853475757315755,0.0414774540964514
1782831434298950700,2.46095068359375,6.79712565370202,-0.1244054012171924,0.11774309378378092
1782831434308879600,2.470879638671875,5.933430848804116,-0.34757980422228574,0.06166106801256537
1782831434318808600,2.48080859375,5.5828860572963945,-0.5139075537592173,-0.0731188660942018
1782831434328737500,2.490737548828125,5.5507244938820595,-0.10961239429824053,-0.4383761466305703
1782831434338666800,2.500666748046875,5.613106423515081,0.49678084319569166,-0.5522451023947447
1782831434348595700,2.510595703125,4.947825820505619,0.9195342540849,-0.5484394265014678
1782831434358524700,2.520524658203125,4.05207934230864,1.1698377792950718,-0.39141755770929154
1782831434368453400,2.530453369140625,3.36115108782351,1.092378765104711,-0.6698239455275237
1782831434378382600,2.540382568359375,2.577350488373637,1.0785416706711053,-1.309808340847492
1782831434388311600,2.5503115234375,1.6886328859001396,1.1177474535085261,-1.4968185206681488
1782831434398240500,2.560240478515625,0.5089537307441234,0.7310662036061286,-1.0411034820280969
1782831434408169500,2.57016943359375,-0.6048790335386991,-0.11427154521569609,0.12492168017625808
1782831434418098700,2.5800986328125,-2.2296675160378214,-0.7117591533288359,1.3109157175675035
1782831434428027600,2.590027587890625,-4.211373247686028,-0.8728346814259886,1.477260856630653
1782831434437956600,2.59995654296875,-5.7179111983358855,-1.1426368339627981,1.0379752670049667
1782831434447886600,2.609886474609375,-8.33838537364304,-1.4831959457680581,0.5541781893491745
1782831434457815600,2.619815673828125,-11.506977415347098,-1.7508908968925474,0.6773859782796353
1782831434467744500,2.62974462890625,-13.721643177086115,-1.7210512005545198,0.9690405547276139
1782831434477673500,2.639673583984375,-14.692574952387808,-1.4580879541270435,0.37831630326956506
1782831434487602400,2.6496025390625,-14.43591139062643,-1.0148770077511668,-0.3910522315282374
1782831434497531600,2.65953173828125,-14.09896024018526,-0.7953340931162237,-0.7002733712617307
1782831434507460600,2.669460693359375,-14.70911458377838,-1.3432215117581188,-0.19203787178955972
1782831434517389600,2.6793896484375,-15.340882208764553,-2.2340525992542504,0.4867518358081579
1782831434527318500,2.689318603515625,-15.433292781436442,-2.8375322873890396,1.3900222797691821
1782831434537247700,2.699247802734375,-14.989267742198704,-2.8552567446500063,2.179000281856954
1782831434547176700,2.7091767578125,-13.061982167524098,-2.107906053458154,1.7183333198979496
1782831434557105700,2.719105712890625,-10.481209303486347,-0.9563843406416476,0.7313436323080211
1782831434567034400,2.729034423828125,-7.800124884393811,-0.24759178203344342,-0.03520041965357959
1782831434576963600,2.738963623046875,-5.039913737094402,0.07853066200986504,-0.29588286166749894
1782831434586892500,2.748892578125,-2.6524621357202527,0.2150111164242029,-0.05020860369317233
1782831434596821500,2.758821533203125,-0.5449994421154261,0.15483509933762252,0.1430539875857532
1782831434606750500,2.76875048828125,1.2024953825980425,0.010073284920677543,0.11113690045177936
1782831434616679700,2.7786796875,2.328848021236062,-0.1059896006911993,0.1150716095522046
1782831434626608600,2.788608642578125,2.9534657744675874,-0.22042956127636135,0.3769815475344658
1782831434636538600,2.79853857421875,3.4732921968817707,-0.23979082595892248,0.6199319335028529
1782831434646467600,2.808467529296875,3.8459137956410645,-0.13528138082288205,0.5834117364875971
1782831434656396500,2.818396484375,4.153328470474482,-0.08252886480055749,0.4603101113453507
1782831434666325500,2.828325439453125,4.723524897688627,-0.01761968171223998,0.29311193564943966
1782831434676254500,2.83825439453125,5.157261182624102,0.14445808223001658,0.24664193396270273
1782831434686183700,2.84818359375,5.19109506316483,0.1746777177963406,0.3249216168861836
1782831434696112600,2.858112548828125,5.105968217760324,-0.06709631786905229,0.3333111134383827
1782831434706041600,2.86804150390625,5.666842105355858,-0.3132405314426869,0.26219664596915243
1782831434715970600,2.877970458984375,6.48802112608552,-0.16634316630177198,0.21634631055071948
1782831434725899800,2.887899658203125,7.056295060804485,0.18284633813947437,0.33551015785261984
1782831434735828700,2.897828857421875,7.458824891093373,0.31828239806741476,0.5856746399182826
1782831434745757700,2.9077578125,7.784061638343334,0.3057716568667441,0.7574339860498904
1782831434755686400,2.917686279296875,7.970052411988377,0.34551563823409376,0.8135171077996491
1782831434765615600,2.92761572265625,8.022256646478176,0.4764966915145516,0.6929551572028547
1782831434775544600,2.937544677734375,8.007643014714121,0.6357591788403689,0.4982041539970785
1782831434785473500,2.9474736328125,7.85587132153511,0.736143945261836,0.42015418817624445
1782831434795402500,2.957402587890625,7.499149302697181,0.8373146013639867,0.43708610682003196
1782831434805331500,2.96733154296875,6.967778572961688,0.8832119907945394,0.622345862776786
1782831434815260700,2.9772607421875,6.605780659547448,0.7183342939354479,0.6690425128262489
1782831434825190700,2.987190673828125,6.812703162062168,0.5779710067383944,0.5936084285922348
1782831434835119400,2.997119384765625,6.546369270157814,0.7841160951398313,0.3095757253248244
1782831434845048600,3.007048583984375,6.236262287500501,1.0945824126288295,0.089329119399935
1782831434854977500,3.0169775390625,6.625977644401789,0.9588375790126621,-0.022677622688934206
1782831434864906500,3.026906494140625,6.849021845155954,0.8362199379950761,-0.12260799640640616
1782831434874835500,3.03683544921875,6.397313265678286,0.823650817670673,-0.010149345831573009
1782831434884764700,3.0467646484375,5.934377189743518,0.6652452394351362,-0.06977503555901349
1782831434894693600,3.056693603515625,6.054507543990016,0.5736892377659678,-0.2606517546147108
1782831434904622600,3.06662255859375,6.046583180731535,0.7436755098104476,-0.41692901558466255
1782831434914551600,3.076551513671875,5.219943556508421,0.8450203534357249,-0.3129528005424887
1782831434924480800,3.086480712890625,4.331459762790799,0.5360268849782646,-0.21114165457971393
1782831434934409700,3.09640966796875,3.577383270475268,0.28929084299132224,-0.17161884168237446
1782831434944338700,3.106338623046875,3.2612375921756027,0.5387149550184607,-0.5041974030625075
1782831434954267400,3.116267333984375,3.257236539840698,0.8999225948378443,-0.9561810000892728
1782831434964196600,3.126196533203125,3.0789708074897524,1.0369017925545572,-1.1615016203653066
1782831434974125600,3.13612548828125,2.614380534607172,0.7778224018231034,-1.118049285999313
1782831434984054500,3.146054443359375,1.8326345295995472,0.4207058307096362,-0.751642981558293
1782831434993983500,3.1559833984375,0.4203168313920498,0.09943477222025394,0.005420856004953384
1782831435003912700,3.16591259765625,-1.61528181848526,-0.38876799304857845,0.7143522385619581
1782831435013842700,3.1758427734375,-4.7883553895175455,-0.9548124151498079,1.0609868708886205
1782831435023771600,3.185771728515625,-8.625088684359193,-1.8371349097587166,0.8710779008865356
1782831435033700400,3.195700439453125,-12.385125693011283,-2.8653642971664666,0.8527304894216358
1782831435043630800,3.205630859375,-15.284548327124117,-3.1124352701961993,1.3727971503324805
1782831435053559800,3.215559814453125,-17.892413780748843,-2.397318330872059,1.6401996943816541
1782831435063488800,3.22548876953125,-19.48779613602161,-1.584448434934765,0.9860336289741098
1782831435073418000,3.23541796875,-19.91198133327961,-0.8285437042787671,0.11983283260464668
1782831435083347000,3.245346923828125,-19.867174223303795,-0.40417087549418207,-0.6764910752665251
1782831435093276000,3.25527587890625,-19.49248166348934,-0.8991254531107843,-0.7790555968798697
1782831435103204600,3.26520458984375,-19.047501515483855,-1.6786159342765807,-0.23399149203039704
1782831435113133800,3.2751337890625,-17.616818724024295,-1.9637761072039603,0.37212628952302035
1782831435123062800,3.285062744140625,-16.26902815078497,-1.9016827852539717,0.7748667668879031
1782831435132991700,3.29499169921875,-14.639485167235135,-2.22193078430593,0.9464131278559565
1782831435142920700,3.304920654296875,-12.01990472589731,-2.1697975692257283,1.0074795909762382
1782831435152850000,3.314849853515625,-9.432506306239961,-1.4812811981879175,0.9939753817588091
1782831435162779000,3.32477880859375,-7.321608377489447,-1.2188574654646218,0.8047950182922184
1782831435172707800,3.334707763671875,-5.28117456254065,-1.44054469865188,0.33955329576358195
1782831435182636800,3.34463671875,-3.1725515929847954,-1.5516858368873596,-0.017972586803138256
1782831435192566000,3.35456591796875,-1.3498422450721264,-1.6809768181890248,0.02439049102142453
1782831435202495700,3.364495849609375,0.6724953566938638,-1.8188775146648286,0.06259089620858431
1782831435212424700,3.3744248046875,2.4848732802063225,-1.9855904641270636,-0.17749620928317308
1782831435222354000,3.38435400390625,4.034434380024671,-1.9596224946558474,-0.30047479256764054
1782831435232283000,3.394282958984375,5.319558361470699,-1.6942533561304212,-0.15374723103567958
1782831435242211800,3.4042119140625,5.918481116953492,-1.39607821880728,-0.0019633359622210265
1782831435252140800,3.414140869140625,6.307755744349956,-1.1741658716272563,-0.04584843572229147
1782831435262070000,3.424070068359375,6.752059016007185,-1.1708223333530128,0.2001585613377392
1782831435271999000,3.4339990234375,7.109214165565371,-1.1347986876830458,0.6938410001266747
1782831435281928000,3.443927978515625,7.12269967008233,-0.6587132073178887,0.5502681762985885
1782831435291856600,3.453856689453125,7.335911628130078,-0.16584880691356957,0.13198482349552212
1782831435301785900,3.463785888671875,7.7999764158338305,0.11192710098139941,-0.29667824982888996
1782831435311714800,3.47371484375,8.338753622433543,0.3540557953033596,-0.6373408220086246
1782831435321643800,3.483643798828125,8.808346818169952,0.5232531819924712,-0.8621496212825178
1782831435331572700,3.49357275390625,9.147190650489925,0.6177431912869215,-0.6503562247958034
1782831435341502000,3.503501953125,9.383469595870375,0.5734116629336029,-0.5537883132487535
1782831435351431000,3.513430908203125,9.648500588482618,0.2645644710790366,-0.6005365473549813
1782831435361360000,3.52335986328125,9.740570384892822,0.0921948840945959,-0.6706091045558452
1782831435371288800,3.533288818359375,9.303243966510891,0.15040610391423107,-0.5518295803964137
1782831435381217800,3.5432177734375,8.567199974492192,0.12706848294660447,-0.4590846612036228
1782831435391147800,3.553147705078125,7.864856007501483,0.06547945725694299,-0.3495340070299804
1782831435401076700,3.56307666015625,7.529493003034591,-0.07077332588136195,-0.35490985484942794
1782831435411005700,3.573005615234375,7.682511481404304,-0.3184511787630617,-0.5789917280882597
1782831435420935000,3.582934814453125,7.9712419140338895,-0.4964569450035691,-0.7251511343434452
1782831435430864000,3.59286376953125,7.79736652559638,-0.20212883849740026,-0.5966157937146723
1782831435440792800,3.602792724609375,7.626476290449499,0.44473479494228957,-0.8978640548728406
1782831435450721800,3.6127216796875,7.772827712145447,1.0635383089371024,-1.4042116947717964
1782831435460651000,3.622651123046875,8.291439498072862,1.5644132165133953,-1.5166875887423752
1782831435470580000,3.632580078125,9.329760802036523,1.494134396150708,-1.6081307776868343
1782831435480509000,3.642509033203125,9.258546162128448,1.4422874506659804,-1.3791567484922707
1782831435490437600,3.652437744140625,8.133619172379374,1.4410155310340225,-1.2048021982356905
1782831435500366800,3.662366943359375,7.1587763611137865,1.3941530959635973,-1.365837832713872
1782831435510295800,3.6722958984375,6.15123773342669,1.4827011479884384,-1.354318805964291
1782831435520224800,3.682224853515625,5.2020478343337775,1.4496091718561948,-0.8873239561580121
1782831435530153700,3.69215380859375,4.582662721058726,1.340843384449929,-0.5916339136488735
1782831435540083000,3.7020830078125,3.94666958733201,1.7029422740206122,-0.9269941416367888
1782831435550012000,3.712011962890625,2.846392470192909,2.1720929866865277,-1.4927521480120718
1782831435559940900,3.72194091796875,0.3568476910442114,2.537784786182642,-1.9521067121982574
1782831435569870800,3.731870849609375,-3.0041134271651506,2.419518033850938,-1.7105802215531467
1782831435579799800,3.7417998046875,-5.32093724860847,1.0911604753561317,-0.8451344813346863
1782831435589728800,3.751728759765625,-7.360894093695283,-0.6854588831633329,0.632708705228567
1782831435599657700,3.76165771484375,-10.656315695023537,-1.971225838688016,1.922408908548951
1782831435609586700,3.771586669921875,-14.1416689165771,-2.628970493234694,3.0204028831869363
1782831435619516000,3.781515869140625,-16.433842280888555,-3.001122136394679,3.051387219515443
1782831435629444900,3.79144482421875,-17.629836026507615,-2.825821391329169,2.670278070656955
1782831435639373800,3.801373779296875,-19.3223203271389,-2.407625789874792,2.672191795323789
1782831435649302800,3.811302734375,-20.577419757199287,-2.6573569220244884,2.676878199574351
1782831435659232000,3.82123193359375,-21.041069534361363,-3.149064334413409,3.0107454125255346
1782831435669161000,3.831160888671875,-20.447099432849882,-3.213912361899018,3.483821774202585
1782831435679089700,3.841089599609375,-18.925929145735502,-2.906072739651799,3.6967034773826595
1782831435689018600,3.8510185546875,-16.700424010074137,-2.5614257740110156,3.3700685537725685
1782831435698947800,3.86094775390625,-14.013732272493838,-2.368797315917164,2.4882810428231954
1782831435708876800,3.870876708984375,-11.455601448374987,-2.3452923755586146,1.9035665531739592
1782831435718805800,3.8808056640625,-8.711409123462438,-2.393751870562136,1.769245176489651
1782831435728734700,3.890734619140625,-6.237112182328104,-2.3211491372965276,1.6002470386996865
1782831435738664000,3.900663818359375,-3.9596231769293544,-2.019798146416247,1.3914850457981227
1782831435748594000,3.910593994140625,-2.1773013689845797,-1.4837863128766418,1.1684605726577342
1782831435758522600,3.920522705078125,-0.8961509673446416,-1.030485276575759,1.106922254242003
1782831435768451800,3.930451904296875,0.30257366454303264,-0.6305589798487723,1.0909301737315953
1782831435778380800,3.940380859375,1.2517355065852402,-0.16672376311719417,0.916900325384736
1782831435788309800,3.950309814453125,2.2720272328615185,0.10830171355847269,0.5826964278250932
1782831435798238700,3.96023876953125,3.1620085716605186,0.2917268744992092,0.315828063717857
1782831435808168000,3.97016796875,3.9500966391712424,0.3608281024498865,0.13779526333995162
1782831435818097000,3.980096923828125,4.528987829494476,0.38836701103225346,0.12637209818027914
1782831435828025900,3.99002587890625,5.014259071356058,0.5758738152634352,0.318347645323351
1782831435837954800,3.999954833984375,5.562511377787589,0.6664847911674529,0.46273266231715676
1782831435847884000,4.009884033203125,5.633619634711742,0.5021357578249648,0.5860926461346447
1782831435857813000,4.01981298828125,5.5074470776915545,0.014529533677175641,0.5461342548316345
1782831435867741700,4.02974169921875,5.698390505307913,-0.39790710239168253,0.5565379042178392
1782831435877670700,4.039670654296875,6.071721129119396,-0.5504189829461276,0.5293154046408832
1782831435887599900,4.049599853515625,7.027581592017412,-0.3710738578606397,0.2726723376782611
1782831435897528800,4.05952880859375,7.602918304729461,0.022130473667569456,0.24529932371471075
1782831435907457800,4.069457763671875,8.058661838811636,0.22845460843034088,0.20223803449291736
1782831435917387800,4.0793876953125,8.436492112129926,0.30652302322331815,0.26307697246763856
1782831435927317000,4.08931689453125,8.35313870613873,0.2842397701468318,0.40281767078693953
1782831435937246000,4.099245849609375,8.160922189846634,0.16958331726677714,0.4395442040292546
1782831435947175000,4.1091748046875,7.907242612332105,0.2076821617756039,0.6221661222957074
1782831435957103600,4.119103515625,7.823039311513305,0.358805693244189,0.6313729265801609
1782831435967032800,4.12903271484375,7.959859519276023,0.4612329983439296,0.33594683223683386
1782831435976961800,4.1389619140625,7.738582328194379,0.5820194053463638,0.21203783623445777
1782831435986890800,4.148890869140625,7.680056489467621,0.4832905163731426,0.05940492311622947
1782831435996819700,4.15881982421875,7.79598588489294,0.3784454095419496,-0.07868329528830945
1782831436006749000,4.1687490234375,7.618627915036678,0.49063203824236984,0.11761756770797073
1782831436016678000,4.178677978515625,7.548377736246586,0.5169455332156271,0.09299268340878188
1782831436026606800,4.18860693359375,7.858720865747332,0.5502870271295309,-0.23115765684396028
1782831436036535800,4.198535888671875,7.875694796901941,0.760265994605422,-0.1114827912800014
1782831436046465300,4.20846533203125,7.606807128861546,0.6883214329876005,-0.041379181353747845
1782831436056394000,4.21839404296875,7.387540108558535,0.5497640261687338,-0.22969262579269706
1782831436066323200,4.2283232421875,7.1669707734853025,0.810987443191558,-0.233545794089511
1782831436076252200,4.238252197265625,7.032071304652095,1.1042939515650272,-0.5065688814342022
1782831436086181000,4.24818115234375,6.552854540523886,1.4095226606614888,-0.6067805563110857
1782831436096111000,4.258111083984375,5.47291469349265,1.5807232769317925,-0.3900364055491984
1782831436106040300,4.268040283203125,4.695106612455844,1.520136560152471,-0.4712896243907511
1782831436115969300,4.27796923828125,3.3628409406065938,1.553167599877715,-0.5053320331156254
1782831436125898200,4.287898193359375,1.2242629777699707,1.3516929875053465,-0.6083512396939098
1782831436135827000,4.297826904296875,-1.5584318040162324,0.7828574733808636,-0.5893294360987842
1782831436145756200,4.307756103515625,-4.700396535557508,-0.020808687011897562,-0.5135195773549378
1782831436155685000,4.31768505859375,-7.6089207600146525,-0.874399592655152,-0.12157193135693668
1782831436165614000,4.327614013671875,-9.543508182135223,-1.5802702724672852,0.21340324283614753
1782831436175543000,4.33754296875,-10.61417751199603,-1.8714238405905663,-0.23745419970490036
1782831436185472300,4.34747216796875,-11.63787758541107,-1.4795517440468071,-0.7810605800267308
1782831436195401200,4.357401123046875,-12.335546546328066,-1.3578433268286287,-0.5361401360943913
1782831436205330200,4.367330078125,-13.281688748288154,-1.6514559785418212,0.3676324121698737
1782831436215259100,4.377259033203125,-14.39221370319724,-2.1707870186544955,1.5198546744711696
1782831436225188400,4.387188232421875,-15.543804827988147,-2.844915967899561,2.5284675072610376
1782831436235117300,4.397117431640625,-15.829280642735958,-3.0339439172834157,2.7428713054418563
1782831436245046000,4.4070458984375,-15.864062033259868,-2.5034745203018187,2.3725090299166736
1782831436254975000,4.41697509765625,-15.764233877807854,-2.2761384675726295,1.861717270090431
1782831436264904200,4.426904296875,-15.636054072618483,-2.256630926287174,1.8280276203259824
1782831436274834200,4.436834228515625,-15.022112027180194,-2.2817200670972464,1.6823901921182869
1782831436284763100,4.44676318359375,-13.840143299782275,-2.384089431464672,1.2899899800471961
1782831436294692400,4.4566923828125,-12.120828275370597,-2.485252634912729,0.7851940265696495
1782831436304621300,4.466621337890625,-9.436443061167001,-2.3575357710599896,0.11428002078309654
1782831436314550300,4.47655029296875,-6.240073370221257,-1.947733903941512,-0.46111149085611103
1782831436324479000,4.48647900390625,-3.2277298748493193,-1.5743622174672782,-0.6518233016736805
1782831436334408200,4.496408203125,-0.4919283616632223,-1.4555670573472976,-0.6320788828924297
1782831436344337200,4.506337158203125,1.3875193570375441,-1.348932436750829,-0.13553528251871466
1782831436354266000,4.51626611328125,2.4878286228805777,-1.0939751674506812,0.3785675015516579
1782831436364195000,4.526195068359375,3.59088221899569,-0.5048970026992261,0.15258081760481
1782831436374124000,4.5361240234375,3.838759247711301,0.17469934510625898,0.259332415644452
1782831436384053200,4.54605322265625,3.899188289710879,0.34021548599936063,0.16598697327524423
1782831436393982200,4.555982177734375,4.363457660076022,0.3170702457986772,0.2534966221630573
1782831436403911200,4.5659111328125,4.652040793189406,0.283568154495582,0.6649224372215569
1782831436413840100,4.575840087890625,4.671569669523835,0.2945695871118456,0.935089769808948
1782831436423769300,4.585769287109375,4.965729141464829,0.19202713119983672,0.9632955813348293
1782831436433698300,4.5956982421875,5.422941579055786,0.3070416037373245,0.7233838324099778
1782831436443627000,4.605626953125,6.066466861853003,0.4265907970950007,0.41110114968139677
1782831436453557200,4.61555712890625,6.7601879619270555,0.31445524099469185,0.2614348678164184
1782831436463486200,4.625486328125,7.472350727620721,0.2545577485885471,0.3202081419656053
1782831436473415200,4.635415283203125,8.205472694712876,0.1529413214802742,0.18363193555921314
1782831436483344100,4.64534423828125,8.396452947208285,0.24114399413354692,0.36370124673340465
1782831436493273300,4.6552734375,8.310776066705584,0.48535007925145324,0.7631256218202411
1782831436503202300,4.665202392578125,8.295365731605887,0.44382666712142527,0.6211547532960772
1782831436513131300,4.67513134765625,8.429215399125217,0.3700610275562852,0.5488347094293683
1782831436523060000,4.68506005859375,8.685097455120086,0.42123423849791286,0.42178661168366666
1782831436532989200,4.6949892578125,8.68247645896673,0.8341074028205127,0.40717188394106923
1782831436542918100,4.704918212890625,8.652140941935777,1.1253953379131854,0.49371582960188387
1782831436552847000,4.71484716796875,8.683974004048109,1.0108515516273677,0.2716767142370343
1782831436562776000,4.724776123046875,8.5895637819916,0.9587795652151108,-0.17129961966536938
1782831436572705300,4.734705322265625,8.485856739279628,1.0969117323592306,-0.5465400226209313
1782831436582634200,4.74463427734375,8.491939274063705,1.1593358936987816,-0.7627035970158874
1782831436592563200,4.754563232421875,8.585427120578288,1.3749685030221939,-0.706323538146168
1782831436602492200,4.7644921875,8.377642448276282,1.6276320353619753,-0.6120406687963753
1782831436612422100,4.774422119140625,7.403801507529616,1.633207205145806,-0.5040011498380452
1782831436622351000,4.78435107421875,6.159900347831845,1.1843036000862717,-0.5494237613637
1782831436632280000,4.794280029296875,5.654279560902714,0.8421249242551624,-0.5870919593703001
1782831436642209000,4.804208984375,5.416893531063199,1.0874119364775716,-0.16780556700453161
1782831436652138200,4.81413818359375,4.859895023596287,1.6237091628298161,-0.2038970902789384
1782831436662067200,4.824067138671875,3.5217350330114363,1.5032589289791882,-0.7434278917249292
1782831436671996200,4.83399609375,2.1107366007089614,0.9182621152572333,-0.9172831141572445
1782831436681925000,4.843925048828125,1.4289555292755365,0.5037532394915819,-0.9246618992969393
1782831436691854300,4.853854248046875,1.2927695277631281,0.6878985314004122,-1.0694023786649107
1782831436701783300,4.863783203125,0.9809399590969086,1.3218033145457506,-1.0354986477583645
1782831436711712000,4.8737119140625,-1.1745873849749564,1.4952036328174172,-0.5391730740495025
1782831436721641000,4.883640869140625,-4.058229097110033,0.9584769290067255,-0.02913534746095538
1782831436731570200,4.893570068359375,-6.1426394164294,-0.4822342122532427,0.4856444590881467
1782831436741499100,4.9034990234375,-7.285847912800311,-2.0131454105287787,1.1696414530053734
1782831436751428000,4.913427978515625,-9.529897589933872,-2.5932979990899563,2.1590375441499052
1782831436761357000,4.923357177734375,-12.16901625995636,-2.1932576475292445,2.7689398126780986
1782831436771286300,4.933286376953125,-14.035476486790179,-1.401253575618565,2.695107099226117
1782831436781215200,4.94321533203125,-14.602957225304841,-0.3800659234158695,1.6080232256591318
1782831436791145000,4.95314501953125,-15.04412629058957,0.43953401142880316,0.5019770966645329
1782831436801074200,4.96307421875,-15.958849271935224,-0.027776772458851337,0.6293452932100743
1782831436811003100,4.973003173828125,-17.162910588675736,-1.408483380741626,1.0223048927295952
1782831436820932000,4.98293212890625,-17.408326780235765,-2.287929735392332,1.4007124544791876
1782831436830861000,4.992861083984375,-16.53892528812885,-2.546432787540555,1.8449129964143036
1782831436840790300,5.002790283203125,-15.107786569595335,-2.2163597061753273,2.3757727078877386
1782831436850719200,5.01271923828125,-13.447844940650462,-1.9191016836971044,2.6793381599470973
1782831436860648200,5.022648193359375,-11.66796058898568,-2.015498695656657,2.7421415298625824
1782831436870577200,5.0325771484375,-9.326704337075352,-1.8257132059037684,1.9803882193088531
1782831436880506400,5.04250634765625,-6.526509554433822,-0.9961094711780547,1.1271978572905064
1782831436890435300,5.052435302734375,-4.12919823782444,-0.38001594679430123,0.5403467940039932
1782831436900364300,5.0623642578125,-1.974959179997444,-0.31757841451652347,0.30318858157098294
1782831436910293000,5.07229296875,-0.1697206068456173,-0.18353322442509232,0.18597469929307697
1782831436920222200,5.08222216796875,0.316426248806715,0.05567669637333601,0.40053047316521406
1782831436930151200,5.092151123046875,0.5795218894422054,-0.22142142185792327,0.11054762932173907
1782831436940080000,5.102080078125,0.6827174755007028,-0.7920183926969766,-0.2131079862166196
1782831436950009000,5.112009033203125,0.5220686483830214,-1.4477841483861207,0.18700206957943735
1782831436959939300,5.121939208984375,1.0717764143198727,-1.8603152943380177,0.5424159284282475
1782831436969868300,5.131868408203125,1.8828835383683442,-1.9082374675944447,0.7233436465300619
1782831436979797200,5.14179736328125,2.56809458425045,-1.6015236345067618,1.067871296640113
1782831436989726000,5.151725830078125,3.651536301922798,-1.2776570065662265,1.0111006310176103
1782831436999655200,5.1616552734375,4.895338677421212,-1.0539882441729307,0.658164341263473
1782831437009584000,5.171584228515625,5.993920681080222,-0.8836765395663678,0.3448603891957551
1782831437019513000,5.18151318359375,6.757135004097223,-0.8122245837710798,0.1933142484009266
1782831437029442000,5.191442138671875,7.315657944652438,-0.7935108962770551,0.1037975705396384
1782831437039371300,5.201371337890625,7.796449410751461,-0.7328527947619558,-0.1543577641494572
1782831437049298700,5.211298583984375,7.779235825622082,-0.6000032441958785,-0.06407046724185347
1782831437059227600,5.2212275390625,7.374024793425202,-0.7045836356762796,0.09497392035387456
1782831437069156600,5.231156494140625,7.314566642284393,-0.8823964366279542,-0.011369973667711019
1782831437079085600,5.24108544921875,7.046237192648649,-0.9353757471434772,-0.08418466918356717
1782831437089014800,5.251014892578125,6.7297823022693395,-1.0806937341384588,-0.4830842532113194
1782831437098943700,5.26094384765625,6.7024915597617625,-1.1895680234204977,-0.8630945009171962
1782831437108872700,5.270872802734375,6.47330461846888,-0.9416466441065072,-0.7297456225268543
1782831437118801700,5.2808017578125,6.205157539662719,-0.8021552443731575,-0.5997584756545722
1782831437128731600,5.290731689453125,6.24648323726356,-0.7078547663014382,-0.5010488028384745
1782831437138660600,5.30066064453125,6.773627873736619,-0.367056877304241,-0.7311565122380852
1782831437148589600,5.310589599609375,7.376729960730671,0.037808738988451655,-1.0028034158587456
1782831437158518500,5.3205185546875,7.689369676735997,0.28642843929752704,-1.1702733211681247
1782831437168447700,5.33044775390625,7.858031714439392,0.46805575703606006,-1.0692438271023332
1782831437178376700,5.340376708984375,7.693767619433999,0.5683616130024194,-0.9714604753509163
1782831437188305700,5.3503056640625,7.74742146821022,0.49782662592157717,-1.0252987407833338
1782831437198234600,5.360234619140625,7.861707188081741,0.5120447555620223,-1.087600590917468
1782831437208163800,5.370163818359375,7.801343612533807,0.7044935462400317,-1.3014930785752832
1782831437218092800,5.3800927734375,7.684784687033295,0.9438831709869205,-1.515543825534731
1782831437228021500,5.390021484375,7.497142639049887,1.177610386057943,-1.6152688128732144
1782831437237950500,5.399950439453125,7.094579491013288,1.393525027193129,-1.700073002194613
1782831437247879700,5.409879638671875,6.061425945076346,1.6548266240186988,-1.5579031039670108
1782831437257808600,5.41980859375,4.533088835072517,1.8327241075791418,-1.2155645613990724
1782831437267737600,5.429737548828125,3.2842093024402854,1.7927824116826057,-1.2805562351390718
1782831437277666600,5.43966650390625,2.4160621943086382,1.8569538550809024,-1.3918977182522416
1782831437287596800,5.4495966796875,1.3480401640862225,1.8659978700190782,-1.1004254395686088
1782831437297525800,5.45952587890625,-0.4755979891091585,1.8120947226569055,-0.6864011324495076
1782831437307454500,5.469454345703125,-2.581505854487419,1.4129717782020568,-0.3002034282803535
1782831437317383700,5.4793837890625,-4.570839012274146,0.5915104333996772,0.3832717337198555
1782831437327312600,5.489312744140625,-6.837732389378547,-0.46932811505943534,1.0537168798856436
1782831437337241600,5.49924169921875,-9.634923314028978,-1.6228513769567012,1.5551359773412345
1782831437347170600,5.509170654296875,-12.734206841707229,-2.6649960386008025,2.3040395970635115
1782831437357099800,5.519099853515625,-15.039105247557162,-3.002649784353375,2.425330519521981
1782831437367028700,5.52902880859375,-15.894897901028394,-2.24189118392542,1.92525523789078
1782831437376957700,5.538957763671875,-16.941148828947544,-1.4214675116077065,1.466849791122973
1782831437386886700,5.54888671875,-18.531318418008087,-1.6477620924599468,1.3599918831646443
1782831437396816000,5.55881591796875,-19.392133283555506,-2.49912684648633,1.645399601112306
1782831437406744800,5.568744873046875,-19.032561135983467,-2.7197674932301044,1.895110859517753
1782831437416673500,5.578673583984375,-17.61973548825383,-2.2065305322088298,1.8359727341115473
1782831437426602500,5.5886025390625,-15.604272448432445,-1.884865505965799,1.2975270975537598
1782831437436531700,5.59853173828125,-12.644882544612884,-1.8860769275821745,0.5895021623171866
1782831437446460700,5.608460693359375,-9.36557212013006,-1.94307044217512,0.0079984514079988
1782831437456390700,5.618390625,-6.355746160537004,-1.9829700524955987,-0.14734744699597357
1782831437466319600,5.628319580078125,-3.945467225804925,-1.9442703194841742,0.26297128360345956
1782831437476248800,5.638248779296875,-1.9125234743505715,-1.9029416992738841,0.534549944293499
1782831437486177800,5.648177734375,-0.36013679571747775,-1.648119089204073,0.5777076796270907
1782831437496106800,5.658106689453125,0.8053384775191545,-1.0932567900482564,0.3238645821139216
1782831437506035500,5.668035400390625,0.9268670081257819,-0.3446617978837341,0.0988093337982893
1782831437515964700,5.677964599609375,0.4912000473886728,-0.3069761007530615,-0.07481982479318976
1782831437525893600,5.6878935546875,0.6396124932676553,-0.9069678371742367,-0.13755107932053506
1782831437535822600,5.697822509765625,0.9605056583553552,-1.0767312602482735,-0.022241496293991803
1782831437545751600,5.70775146484375,1.2659405575484037,-0.7697960394948721,-0.04017681982666254
1782831437555680800,5.7176806640625,1.8492963260650634,-0.4804452099446207,-0.08945230738818645
1782831437565609700,5.727609619140625,2.5803876641124486,-0.5780878015184775,0.22584406060576437
1782831437575538700,5.73753857421875,3.056139967000484,-0.8720968686707318,0.7194869711019098
1782831437585467600,5.747467529296875,3.215609813466668,-0.891608940000832,0.8829520246841013
1782831437595396900,5.75739697265625,3.8048721756786104,-0.8053346781268715,0.9003253304198384
1782831437605325800,5.767325927734375,5.125014863535761,-0.7172909223623574,0.6068023662840947
1782831437615254500,5.777254638671875,6.32874884801805,-0.37194735275954005,0.4878791593376547
1782831437625184800,5.787184814453125,7.168731353417039,-0.06423559467568993,0.38364166301079095
1782831437635113700,5.79711376953125,7.7529107132762665,0.04488616656139493,0.23712135102134196
1782831437645042700,5.807042724609375,7.847692106732725,0.025045082472637294,0.32466742292940615
1782831437654971600,5.8169716796875,8.028634364816545,0.001990808491036296,0.3173162929816171
1782831437664900900,5.82690087890625,8.21879979379773,0.05688070186823606,0.22255904758572578
1782831437674829800,5.836829833984375,8.151563409870862,0.15397650974690913,0.13476407895050943
1782831437684758800,5.8467587890625,7.966664523115754,0.16352913179434836,-0.05057407600469887
1782831437694687500,5.8566875,7.74236769195199,0.20161511682160196,-0.1428373491603881
1782831437704616700,5.86661669921875,7.685272178289294,0.36005832365378737,-0.27283684405758973
1782831437714545700,5.876545654296875,7.637080102050304,0.5199957876317203,-0.4096600474949926
1782831437724474600,5.886474609375,7.654787608176469,0.4910669955935329,-0.4802831512507051
1782831437734403600,5.896403564453125,7.678084897133708,0.40281310420967636,-0.46623804008960723
1782831437744332500,5.90633251953125,7.962586313891411,0.39621670161932704,-0.5490786742530763
1782831437754261800,5.91626171875,8.450212594446539,0.44474283211827276,-0.6166494047008454
1782831437764190700,5.926190673828125,8.69596430157125,0.4774418634101748,-0.6171264476280659
1782831437774119700,5.93611962890625,8.431501464235781,0.43544075076580047,-0.5714947233963757
1782831437784049700,5.946049560546875,8.200202060833574,0.2971706364557147,-0.6984769162990152
1782831437793978600,5.955978515625,8.16294405106306,0.23739479766786098,-0.866760110752657
1782831437803907600,5.965907470703125,8.156498528185486,0.3724256377957761,-0.7104061312846839
1782831437813836500,5.97583642578125,8.039381384280324,0.7176444119751453,-0.4528190980028361
1782831437823765800,5.985765869140625,7.670533458840847,0.988503380088508,-0.4947564246959984
1782831437833694700,5.99569482421875,6.799827313876151,1.0173812456570566,-0.6205096603255719
1782831437843623700,6.005623779296875,5.5312078925073145,0.794708946955204,-0.5429612873513251
1782831437853552600,6.015552734375,3.5516982095986602,0.4969574418716132,-0.5240223397340625
1782831437863481900,6.02548193359375,1.1628788270026444,0.5601373900145292,-0.8458995474230497
1782831437873410800,6.035410888671875,-1.3612339921802281,1.1082632935874164,-0.9733053725652396
1782831437883339500,6.045339599609375,-3.2514117792099713,1.3450073722615836,-0.9138657799944281
1782831437893268500,6.0552685546875,-4.586643315127492,1.5320914941012858,-0.8331856848657131
1782831437903197700,6.06519775390625,-7.6791195008784525,1.5458200135938822,0.14993023003078995
1782831437913126700,6.075126708984375,-13.983674987882376,-0.0643089521728456,1.288510116752982
1782831437923055600,6.0850556640625,-20.497183606445788,-2.2681167814195153,1.4741324954770505
1782831437932984600,6.094984619140625,-21.168348006796837,-3.8122055873066185,1.3153266658775509
1782831437942913800,6.104913818359375,-20.08253546833992,-2.9268127453416586,1.4796151646718383
1782831437952843800,6.11484375,-19.766910014522075,-1.4301177049227058,1.7985662557810544
1782831437962772500,6.1247724609375,-19.296325469660758,-1.0523037982173264,1.8207427240148186
1782831437972701400,6.134701416015625,-19.320894093728064,-0.9167087483353912,2.0183628529161215
1782831437982630700,6.144630615234375,-19.149916764819622,-0.7741971970632672,1.928335960510373
1782831437992559600,6.1545595703125,-17.528718415766953,-0.31409196064025163,1.5097218413829803
1782831438002488600,6.164488525390625,-14.793727634441852,0.32375805299952626,1.1542707923289388
1782831438012417500,6.17441748046875,-11.051868672037124,0.7391511642538011,0.6063631346166134
1782831438022346800,6.1843466796875,-6.843831290775537,1.0934459559448062,0.10244425623454152
1782831438032275700,6.194275634765625,-3.3882483535856007,1.438475345031917,0.16838760467618702
1782831438042204700,6.20420458984375,-1.3025813122034071,1.3632019312523305,0.4062112952806055
1782831438052134400,6.214134521484375,-0.7403916658341885,0.7727201102480292,0.8849255167141556
1782831438062063000,6.22406298828125,-0.5292822330236434,0.063034402192384,1.3190079847387968
1782831438071992000,6.233991943359375,-0.16494214039742947,-0.2760802098929882,1.2031243281513453
1782831438081921000,6.243921142578125,0.006827215671539306,-0.28798692078590393,1.0394620714966207
1782831438091850200,6.253850341796875,0.9139403065353632,-0.23987404726296663,0.6440781674396246
1782831438101779200,6.263779296875,2.2472230464726684,-0.12891513372659683,0.37694651275370267
1782831438111709200,6.273709228515625,3.329940541523695,-0.06878726663067937,0.3333474999260157
1782831438121638400,6.283638427734375,4.293181177800894,-0.3087962288523093,0.35588556801378723
1782831438131567400,6.2935673828125,5.358661706846952,-0.9141830292500555,0.4550206997003406
1782831438141496000,6.30349609375,6.20198417032361,-1.2318527022466064,0.7098775773659348
1782831438151425000,6.313425048828125,6.846864374861121,-1.0074180700473487,0.964880366308242
1782831438161354200,6.323354248046875,7.534737917950749,-0.505911038579978,0.9427214337311685
1782831438171283200,6.333283203125,8.051298616567253,-0.09375946653019636,0.7734593112427741
1782831438181212200,6.343212158203125,7.869791710337996,0.0016324965726584196,0.7859926296014338
1782831438191141000,6.35314111328125,7.472881473496556,-0.23292634701691567,0.6878995543137192
1782831438201070300,6.3630703125,7.262321491262316,-0.2896710379479453,0.5944917872980237
1782831438210999300,6.372999267578125,7.158684006655216,-0.11006572755631058,0.7749180586837232
1782831438220928300,6.38292822265625,7.145844398826361,-0.01767199642136693,0.5904399546239525
1782831438230857200,6.392857177734375,7.166950315219164,-0.04836856531705707,0.22053901300020515
1782831438240786400,6.402786376953125,7.0376645946145056,-0.09149155813083053,0.06736285985074937
1782831438250715100,6.412715087890625,6.848196500247717,-0.16744787614066153,0.0255527762664482
1782831438260644000,6.42264404296875,6.887345438331365,-0.16917696495559065,0.14625066473521292
1782831438270574000,6.432573974609375,7.174900397440791,-0.05711447409149259,0.3120843471448868
1782831438280503300,6.44250341796875,7.706376341116428,0.06126132810525596,0.29557531182197855
1782831438290432300,6.452432373046875,8.084674816468358,0.22369499281309543,0.419637982282415
1782831438300361200,6.462361328125,7.936069478365779,0.4869915628481656,0.7153735444337129
1782831438310290200,6.472290283203125,7.660358686307072,0.5863740203592926,0.7013738798495381
1782831438320219400,6.482219482421875,7.462711961659789,0.6230007464889437,0.5233862337876111
1782831438330148000,6.492148193359375,7.44422645689845,0.8702607392847538,0.6208998286869376
1782831438340077000,6.5020771484375,7.42662124210298,1.1887801609784363,0.7682601351644843
1782831438350006000,6.512006103515625,7.38436030947864,1.4581018365219234,0.837912567257136
1782831438359935200,6.521935302734375,7.204660160410404,1.6166332330942152,0.8008205617032945
1782831438369864200,6.5318642578125,6.70562810422182,1.60347140757367,0.7050723690412938
1782831438379793200,6.541793212890625,5.666703573668003,1.52996222698763,0.9839816648803651
1782831438389722000,6.55172216796875,3.6760248464912175,1.5243594385445116,0.9824607389234006
1782831438399651300,6.5616513671875,1.3163532324463127,1.769140839332342,0.8948561782937496
1782831438409580300,6.571580322265625,-0.516472435811162,2.031221457706392,0.6313954306729137
1782831438419509200,6.58150927734375,-1.1527356186509132,2.2674841826044023,0.05648152821650728
1782831438429439200,6.591439208984375,-1.3643290355861186,2.4054535604022442,-0.08695628932137042
1782831438439368200,6.6013681640625,-1.6851391985654829,2.4575211629003286,0.003349712286703288
1782831438449297200,6.611297119140625,-3.074251377752423,2.4986031148731707,-0.07997720755636692
1782831438459226000,6.62122607421875,-6.756891258469223,2.257884433479607,0.6710588210847228
1782831438469155300,6.6311552734375,-13.076811487865447,1.3997729816719888,1.5546024549864232
1782831438479084300,6.641084228515625,-15.286522842067479,-0.4026183853551745,2.075048032212257
1782831438489013200,6.65101318359375,-15.2800323110044,-1.2005417643122374,1.8655907505229115
1782831438498942200,6.660942138671875,-16.327185740721223,-0.693806440269947,1.1801380779046564
1782831438508871400,6.670871337890625,-16.17245578225851,0.8041160230521113,0.6380982893124222
1782831438518800400,6.68080029296875,-14.303187512266636,2.0161714803516864,-0.4401814424868673
1782831438528729000,6.69072900390625,-10.863666652083396,2.005619691199064,-1.7973010581508277
1782831438538658000,6.700657958984375,-7.994447433054447,0.7148368072085082,-3.096924689592421
1782831438548587300,6.710587158203125,-7.16132370750904,-0.43628056259080766,-2.2333147864989935
1782831438558516200,6.72051611328125,-5.866164654260873,-1.8056641050875186,-1.388871940690279
1782831438568445200,6.730445068359375,-3.775074418786168,-2.975883942502737,-0.4273210110656917
1782831438578374100,6.7403740234375,-2.672583717250824,-3.499668162631988,0.5810292252652347
1782831438588304400,6.750304443359375,-1.9517811335057018,-4.042984473966062,0.7443618846394121
1782831438598233300,6.7602333984375,-1.3104898933708666,-4.864018533267081,0.22102241260297595
1782831438608162000,6.770162109375,-1.2169582077145575,-5.416016748228669,-0.352093993711099
1782831438618091000,6.780091064453125,-1.692502420809865,-5.320113657265901,-1.0617654540456831
1782831438628020200,6.790020263671875,-1.273303195270896,-4.88890776759088,-1.6387611860111355
1782831438637949200,6.79994921875,0.04889291798472404,-4.61664594694227,-2.0552641582034528
1782831438647878100,6.809878173828125,2.078711815416813,-4.214532296238839,-1.8786267577067017
1782831438657807000,6.81980712890625,3.8037919792264696,-3.476521680322289,-0.7208205577932297
1782831438667736300,6.829736328125,4.115916146925091,-2.8304218708619473,0.3230879717182368
1782831438677665300,6.839665283203125,3.846155203181505,-2.524628075228631,0.5247043306488544
1782831438687594200,6.84959423828125,3.842943839919567,-2.1417786585740743,0.552437556226924
1782831438697523200,6.859523193359375,3.8826135870069263,-1.4091202173404396,0.6255769536525011
1782831438707452400,6.869452392578125,4.478880859544873,-0.8996201778251677,0.7718988569930195
1782831438717381000,6.879381103515625,5.080375511342287,-0.7360252873182296,1.084978425720334
1782831438727310000,6.88931005859375,5.0980917852967975,-0.4984668965864926,1.2980568205162881
1782831438737239000,6.899239013671875,4.637032024627923,0.09483626544885337,0.9571167465694248
1782831438747169300,6.909169189453125,4.379245596316457,0.2747277723707259,0.5185296240692958
1782831438757098200,6.91909814453125,4.227663872751593,0.020919453909993172,0.16241134327817708
1782831438767027200,6.929027099609375,4.115754818883538,-0.14088270796127617,-0.06365620561884716
1782831438776956400,6.938956298828125,3.8720945310801267,-0.050841056377813214,0.09635377560602501
1782831438786885400,6.948885498046875,3.589581073269248,0.03608472820743918,0.23006355973063036
1782831438796814000,6.95881396484375,3.565159748718142,0.10156345481202006,0.24847134134694931
1782831438806743000,6.968742919921875,3.6668642194360492,0.06520071338079869,0.39923119060229506
1782831438816672300,6.97867236328125,3.646089726954698,-0.26711875867173074,0.4492012728318572
1782831438826601200,6.988601318359375,2.9285248099565506,-0.2049881003860384,0.6207200151406228
1782831438836530200,6.9985302734375,2.156061012557149,0.03722513041421771,0.8492391401745378
1782831438846459100,7.008459228515625,2.2455887232691047,0.10836655895560979,0.6977565661352128
1782831438856388000,7.01838818359375,2.908272880044579,0.28739582302495836,0.2504902799539268
1782831438866317300,7.0283173828125,3.1467338456392286,0.49203072605915366,-0.07911357646435499
1782831438876246300,7.038246337890625,3.2293928396254774,0.17747553182132542,-0.20659350802237167
1782831438886175200,7.04817529296875,3.335952933681011,-0.1718801960323006,-0.19436295373626053
1782831438896104200,7.058104248046875,3.221298380497098,-0.3812367938261479,-0.30231136034503575
1782831438906034200,7.0680341796875,3.18973829010725,-0.5386513882629573,-0.6033783101195469
1782831438915963100,7.077963134765625,2.7747908767938614,-0.6962873703654855,-0.7514829686909914
1782831438925892000,7.08789208984375,1.747087412956357,-0.8516917209584265,-0.48022491825744507
1782831438935821300,7.0978212890625,0.14272913954555988,-0.8563825091231614,-0.12692311965916306
1782831438945750300,7.107750244140625,-2.3031208747833967,-0.7252860127694905,-0.029691775767318903
1782831438955679200,7.11767919921875,-5.805928504484892,-0.415302364230901,-0.5112702640581875
1782831438965608200,7.127608154296875,-8.946175326192378,-0.1203251461662352,-1.5794897896140814
1782831438975537400,7.137537353515625,-11.554017398941516,0.3917779154542833,-1.770485531939566
1782831438985466400,7.14746630859375,-13.64863756210804,0.7629783953692764,-1.2869111571237444
1782831438995395000,7.15739501953125,-15.284047976386546,0.2569311997216195,-0.28993089446052905
1782831439005324000,7.167323974609375,-17.366594255399704,-0.5692939984817057,1.1315130901411175
1782831439015253200,7.177253173828125,-18.863711466753482,-0.684386943082884,2.2922097507990897
1782831439025182200,7.18718212890625,-19.093103575229645,-0.3471854711424559,2.648839853569865
1782831439035111200,7.197111083984375,-18.61734718068838,-0.3473702531248331,2.142198491421342
1782831439045044000,7.2070439453125,-18.053664665412903,-0.5472437139108777,1.821447072891891
1782831439054974000,7.216973876953125,-16.617285123616455,-0.6668640728086233,1.434316179525852
1782831439064903000,7.22690283203125,-14.18109374899268,-0.8630206319633871,1.2804323164984583
1782831439074832000,7.236831787109375,-11.411023470979929,-1.1307480971179902,1.1610139099135994
1782831439084760800,7.2467607421875,-8.27124426678419,-1.3462886442437767,1.0152757247451691
1782831439094689800,7.256689697265625,-5.304390018433332,-1.5211384306713938,0.9407776061870157
1782831439104619000,7.266618896484375,-2.2627216443777085,-1.5218610458575188,0.7857084788978099
1782831439114548000,7.2765478515625,0.6292863295644522,-1.2902940775603056,0.5962826893027872
1782831439124477000,7.286476806640625,2.9264129323691126,-0.9895571999903767,0.5722026524700224
1782831439134406000,7.296406005859375,4.711935582181811,-0.7104153375044465,0.6654790481910109
1782831439144335000,7.306335205078125,5.966576162558794,-0.366778571819514,0.890482931645587
1782831439154264000,7.31626416015625,6.528690990126132,0.025975714386254546,1.0714392913199962
1782831439164193000,7.326193115234375,6.7411196888417,0.40211306618154047,1.10211361185126
1782831439174122000,7.3361220703125,7.064268523901701,0.5820135601274669,0.8414810003284364
1782831439184051000,7.346051025390625,7.500115517380833,0.46585693181753157,0.2671116713438183
1782831439193980000,7.35597998046875,7.499072145807743,0.4465247470989823,-0.22672084344029425
1782831439203908900,7.365908935546875,6.967724796947836,0.5283341385185718,-0.5920891100704669
1782831439213838800,7.3758388671875,6.845942583841085,0.5908822184987366,-0.5471484003102407
1782831439223768000,7.38576806640625,7.251622402593493,0.5311312949564307,-0.16876246587056665
1782831439233697000,7.395697021484375,7.762765167814493,0.41929742521643637,0.1122167315777391
1782831439243626000,7.4056259765625,7.913287737715244,0.5002114752314984,0.29248587617296723
1782831439253555000,7.415554931640625,7.950854375043511,0.842085615158081,0.23931860533729193
1782831439263484000,7.42548388671875,8.15561706917584,1.162544261286035,-0.049756622141972184
1782831439273412900,7.435412841796875,8.657458922088146,1.269549834086746,-0.4636280767869204
1782831439283341800,7.445341796875,8.982228051826358,1.3516964946366845,-0.681661171380803
1782831439293270800,7.455270751953125,9.225694278362393,1.3684247804671525,-0.5144314315028489
1782831439303200000,7.465199951171875,9.283902137181162,1.3595049764305351,-0.369049658556655
1782831439313129000,7.47512890625,9.299899332258105,1.451247148321569,-0.3766028504151851
1782831439323058000,7.485057861328125,9.298260917401313,1.5849917480312288,-0.36572614015713334
1782831439332987000,7.49498681640625,9.1888091935575,1.6753331132136284,-0.34070173514634366
1782831439342916000,7.504916015625,8.82686914781034,1.7395625704094766,-0.2700899565022439
1782831439352845000,7.514844970703125,8.037471166744828,1.7392732320740818,-0.06356047189310193
1782831439362774000,7.52477392578125,7.225875382396579,1.626705129775405,0.2989989478614181
1782831439372704000,7.5347041015625,7.08236006090939,1.665715243910253,-0.08837656791545451
1782831439382633000,7.544633056640625,7.540619377204775,2.2035990088015796,-0.6656495093870908
1782831439392562000,7.55456201171875,7.91228762076199,2.8292878983959553,-0.7610583870921284
1782831439402491000,7.564490966796875,8.000881850016116,3.1394068637520074,-0.9012081776689738
1782831439412420000,7.574420166015625,7.839974664223194,3.317810251007974,-0.9164337307862936
1782831439422349000,7.58434912109375,7.438516262558102,3.3214196736767887,-1.079044797887653
1782831439432278000,7.594278076171875,6.6401891251057386,3.202748870588839,-0.9768196642965078
1782831439442207000,7.60420703125,5.262398550400137,3.197840055759251,-0.29939883389919997
1782831439452135700,7.6141357421875,3.335327495259046,3.341971755579114,0.00934343627616763
1782831439462065000,7.62406494140625,1.7383002953886986,3.3961809001505374,-0.29675036521703
1782831439471993900,7.633993896484375,1.42575994810462,3.186331404273212,-0.5213597694613039
1782831439481922800,7.6439228515625,1.234759237343073,3.0252018079012633,-0.2802820454970002
1782831439491851800,7.653851806640625,0.6251531752824783,2.9103876802414654,0.32606231135390695
1782831439501781000,7.663781005859375,-0.76590195466578,2.4635955143779515,0.7300611912820488
1782831439511710000,7.6737099609375,-3.4946897896975275,1.2652353318884968,1.2901128757745026
1782831439521639000,7.683638916015625,-8.656864463326334,-0.2784977924287319,2.0201050204083324
1782831439531569000,7.69356884765625,-15.234499224841594,-2.1374711706385017,2.4197701089158654
1782831439541497900,7.703497802734375,-17.776568556475638,-3.7335271873891354,2.589697344249487
1782831439551426800,7.7134267578125,-18.339117099285126,-3.4036648261651394,2.3569576789110895
1782831439561355800,7.723355712890625,-19.485736280882357,-2.035554664605111,1.3369633281461895
1782831439571285000,7.733284912109375,-20.010702404272553,-1.1514987703323363,0.014043354170495877
1782831439581214000,7.7432138671875,-19.379682967305182,-1.3577761068113148,-1.1283926200330257
1782831439591143000,7.753142822265625,-18.092935184049605,-2.1431327035315335,-0.9663356796830892
1782831439601071900,7.76307177734375,-15.934971552741526,-2.3907864448852836,0.05503766781743616
1782831439611001000,7.7730009765625,-12.813949655985832,-2.511131172534823,0.6106605395495891
1782831439620930000,7.782929931640625,-10.409918675732612,-2.648246563851833,0.6023792526122183
1782831439630859000,7.79285888671875,-8.256021563211084,-2.8661235911011693,0.17796229242496192
1782831439640787700,7.80278759765625,-6.615042408889532,-2.7912290936365722,-0.3809755856066942
1782831439650717000,7.812717041015625,-5.90753769813478,-2.6037302535161375,-0.461989004343003
1782831439660646000,7.82264599609375,-5.30749032253623,-2.5480264864727853,-0.024245018136128782
1782831439670574800,7.832574951171875,-5.012050747656822,-2.4219106280758975,0.08513210610151291
1782831439680503800,7.84250390625,-3.9669840610861775,-2.1798180279806254,-0.024680486943945288
1782831439690434000,7.85243408203125,-2.807182741832733,-1.7314933918528257,-0.2402478855440393
1782831439700363000,7.862363037109375,-1.5506296058326958,-1.4511585932552813,-0.4328743343438953
1782831439710292000,7.8722919921875,-0.1582522873699665,-1.4757856695115565,-0.5966925852779299
1782831439720221000,7.882220947265625,0.8410609482854604,-1.6838007895685732,-0.49438876042738555
1782831439730150000,7.89214990234375,1.6104168427973984,-1.978628954551369,-0.33762159704864025
1782831439740078800,7.902078857421875,2.3208418249130247,-2.3704117653764785,-0.19209577598925678
1782831439750007800,7.9120078125,3.1599417022585867,-2.804601785428822,-0.11188103334996849
1782831439759936800,7.921936767578125,4.127872542178631,-3.116954793447256,-0.031930805132072415
1782831439769866000,7.931865966796875,4.526171018508077,-3.1773961104065176,0.24522660553837194
1782831439779795000,7.941794921875,4.950269706526399,-3.0610873602747914,0.43923546687364573
1782831439789724000,7.951723876953125,5.7753591786980625,-2.785160879638791,0.45713210236374285
1782831439799652900,7.96165283203125,6.624808600622415,-2.2035189293026924,0.35965602646321054
1782831439809582000,7.97158203125,7.232159577232599,-1.4948700169488787,0.29800659408951174
1782831439819511000,7.981510986328125,7.77867760721743,-0.876581247543171,0.24856596082784235
1782831439829440000,7.99143994140625,8.224213635540009,-0.5703679843887687,0.16302947517652064
1782831439839370000,8.001369873046874,8.313809735313058,-0.3314886472515762,0.1736680292971432
1782831439849299000,8.011298828125,8.02597946639359,-0.22025657932963222,0.251658300819993
1782831439859228000,8.021227783203125,7.6869421573281285,-0.3387930885134265,0.2867331578651443
1782831439869156900,8.031156982421875,7.360714060953259,-0.4543198944872245,0.32238844514675435
1782831439879086000,8.041086181640624,7.413749485570192,-0.5468068933961913,0.13686558127440512
1782831439889015000,8.05101513671875,7.9941879053354254,-0.5243314056832343,-0.030483547199517486
1782831439898944000,8.060944091796875,8.184269163164496,-0.48088513573184605,-0.11320990733355284
1782831439908873000,8.070873046875,7.968023536509275,-0.49207997202835974,-0.16346315388604998
1782831439918802000,8.080802001953124,7.667464718919992,-0.5191952118385583,-0.05883103221841156
1782831439928731000,8.09073095703125,7.479070975786447,-0.6313654008608311,-0.01788560263942927
1782831439938659800,8.100659912109375,7.520273339268565,-0.6248652982518077,-0.12590038901530207
1782831439948588800,8.1105888671875,7.463088978278637,-0.43730822513811285,-0.2829005574323237
1782831439958518000,8.12051806640625,7.237880877488851,-0.17611008868701755,-0.5545451229654252
1782831439968447000,8.130447021484375,7.1137377804696555,0.173573336751014,-0.7876565442256629
1782831439978376000,8.1403759765625,7.203512159419059,0.32762977986633773,-0.8958465775705874
1782831439988305000,8.150304931640624,6.9700506095469,0.458267864928022,-0.5966380786117166
1782831439998235000,8.16023486328125,6.109308809235691,0.8029679489955306,-0.43069151041209697
1782831440008163800,8.170163818359375,4.944640760728716,0.9888612536154687,-0.5022464881904423
1782831440018092800,8.1800927734375,3.7886522777616976,0.9860933963373303,-0.683464421410486
1782831440028021800,8.190021728515624,2.6377672554135323,0.8855062392115592,-0.8554718970842659
1782831440037951000,8.199950927734376,1.8743951114863155,0.9552690728761255,-0.7971198074892163
1782831440047876900,8.209876953125,1.1916203528404234,1.3865109106473623,-0.7606611314028501
1782831440057806000,8.21980615234375,-0.22842121761739254,1.8330524627506732,-0.8854439145650714
1782831440067735000,8.229735107421876,-2.8767992988944053,1.8634828184582293,-0.830646667907387
1782831440077664000,8.2396640625,-5.832709543904662,1.081728630144149,-0.5121735695734619
1782831440087593000,8.249593017578125,-8.666853357899189,-0.18973127534762024,0.06859963510408996
1782831440097522000,8.25952197265625,-12.355523166429995,-1.1049126679852603,0.7103239328939467
1782831440107451000,8.269450927734376,-16.278198130190372,-1.3270939682997762,1.727232373407483
1782831440117379800,8.2793798828125,-17.724931892740724,-0.9913045551143586,2.1309813702277838
1782831440127308800,8.289308837890625,-18.98033293609619,-0.4776199964560568,1.5439027817957103
1782831440137238000,8.299238037109374,-21.359173360991477,-0.409808881381154,0.6533668778538704
1782831440147168000,8.30916796875,-22.522133436536787,-0.850532248724997,0.1859198455669917
1782831440157097000,8.319096923828125,-21.847751827704904,-0.9177578189969062,0.3250999691277742
1782831440167026000,8.32902587890625,-20.516302148413658,-0.11131561801955103,0.3834924637984484
1782831440176955000,8.338954833984374,-17.8567275503397,0.28894962833821775,-0.19960321074360982
1782831440186883800,8.3488837890625,-14.011556682020425,-0.0075299571134150025,-0.6828386176623403
1782831440196812800,8.358812744140625,-9.734918642741441,-0.12259623290337622,-0.7170435965377837
1782831440206741800,8.36874169921875,-5.594475372803211,-0.2682534617900848,-0.26420066100163386
1782831440216671000,8.3786708984375,-2.2183716305196284,-0.5581810683149844,0.009615348552726208
1782831440226600000,8.388599853515625,0.2652344062298536,-0.7511522754319012,0.3581873786827549
1782831440236529000,8.39852880859375,1.611745461052656,-0.6859658828373998,1.2883490809723734
1782831440246457900,8.408457763671874,2.243027348348498,-0.48899618066884576,1.9201181672632692
1782831440256387000,8.418386962890626,2.846387209495902,-0.5019291658695787,1.7778904013685881
1782831440266316000,8.42831591796875,3.4338112503647804,-0.5672348739948123,1.4647158478341995
1782831440276245000,8.438244873046875,3.7769524876177307,-0.5127779652073979,1.1701073900166898
1782831440286173700,8.448173583984374,4.236707010906935,-0.5438417965129018,0.9962981986831873
1782831440296103000,8.45810302734375,4.497291545504331,-0.6155899587757885,0.8144362684711813
1782831440306033000,8.468032958984375,4.912622405177355,-0.8224114120688288,0.4989399209257215
1782831440315961900,8.4779619140625,5.759876362884044,-1.0126033637307583,0.3223881528858095
1782831440325891000,8.48789111328125,6.332949806839228,-1.0502871976979076,0.36460889963023363
1782831440335820000,8.497820068359376,6.816034352311491,-1.0841887366473675,0.7397624280199409
1782831440345749000,8.5077490234375,7.199434534716605,-1.1320336068838834,1.1735117185674606
1782831440355678000,8.517677978515625,7.3698402012169355,-1.129748126295209,1.511300781137496
1782831440365607000,8.52760693359375,7.551682038488984,-0.9210664320882409,1.6649334458827971
1782831440375535900,8.537535888671876,7.768879266780615,-0.567193519071117,1.6684858776673674
1782831440385464800,8.54746484375,7.888717944604158,-0.33423856701422483,1.862992989114672
1782831440395393800,8.557393798828125,7.9038395258903495,-0.08414769817404448,1.8050138244852423
1782831440405323000,8.567322998046874,7.960036629408598,0.14242701479382813,1.389636495321989
1782831440415252000,8.577251953125,8.032516759207844,0.22953056709878145,1.0459102977879344
1782831440425181000,8.587180908203125,8.335989418417215,0.12368315135724842,0.7928246675785631
1782831440435110000,8.59710986328125,8.80239989246428,-0.06366400533281266,0.5755553604314103
1782831440445039000,8.6070390625,9.133543233409524,-0.14346008416861294,0.48064781984463334
1782831440454968000,8.616968017578126,9.232236831873655,-0.09929061450920998,0.47221199993267654
1782831440464897800,8.626897705078125,9.070369861137866,-0.059581558324769135,0.37061665214505046
1782831440474826800,8.63682666015625,8.70446792602241,0.014848755694180727,0.30434856526106596
1782831440484756000,8.646755859375,8.675842135518788,0.09777947929389774,0.41952758071050045
1782831440494685000,8.656684814453126,8.785996454674004,0.23827026532813905,0.4975349129660055
1782831440504614000,8.66661376953125,8.182240287685394,0.40357027925252914,0.6474755547929555
1782831440514542800,8.67654296875,7.299417588469385,0.2515554249674082,0.5017354333957657
1782831440524472000,8.68647216796875,6.628744186505675,0.025464403863251207,-0.19635346996635197
1782831440534401000,8.696401123046876,5.81490208453536,0.12045739424377679,-0.44385245914980764
1782831440544330000,8.706330078125,5.03842495984137,0.21695903562158345,-0.18198696309747173
1782831440554259000,8.716259033203125,3.9363960305988788,0.24913214334324002,-0.2279196247708052
1782831440564188000,8.72618798828125,2.544097038069367,0.38985724959000945,-0.5075245016586035
1782831440574116900,8.736116943359375,1.2859779679268597,0.534257098826766,-1.09235699166432
1782831440584045800,8.7460458984375,-0.1871779376029968,0.5946487314254045,-1.692476117324829
1782831440593974800,8.755974853515625,-1.5469412727087735,0.51073184633255,-1.9738272533580659
1782831440603904000,8.765904052734374,-2.8019939410179853,0.55003444060795,-1.9802312751814721
1782831440613834000,8.775833984375,-3.9299733040750024,0.8623767811018973,-1.5134899617448447
1782831440623763000,8.785762939453125,-5.7679643922716375,0.9800975169233977,-0.807992353028804
1782831440633692000,8.79569189453125,-8.969737403565645,0.1654122421272099,-0.27150091927871106
1782831440643620900,8.805620849609374,-12.783996416270732,-1.223993367048353,0.17175868854448198
1782831440653549800,8.8155498046875,-15.888834070944785,-2.3938347265399993,0.910315832427889
1782831440663478800,8.825478759765625,-17.399530894839764,-2.642193547423184,1.9391836638696491
1782831440673408000,8.835407958984375,-17.671160555064677,-1.6161419424459338,1.6063115994356572
1782831440683337000,8.8453369140625,-18.601712389183042,-0.36875907811224456,0.8104546514891088
1782831440693266000,8.855265869140625,-19.945406633019445,0.14569960672371088,0.24461466591879724
1782831440703195000,8.86519482421875,-20.073463688611984,0.08114310953058301,0.3993072880458087
1782831440713124000,8.8751240234375,-19.573653049266337,0.2690276610329747,0.8121831557821482
1782831440723053000,8.885052978515626,-18.068990829360484,0.635952582520619,0.7750495030436665
1782831440732982000,8.89498193359375,-15.008966129881143,0.9793096544813364,0.25094313828796144
1782831440742911000,8.904910888671875,-11.579694276511669,1.1855888175912201,-0.218650495839864
1782831440752839700,8.914839599609374,-8.446681497710943,1.0841310881759971,-0.28749256139770146
1782831440762769000,8.924768798828126,-5.690404767251015,0.5888190754238516,0.03070245064720511
1782831440772699000,8.934698974609375,-3.8595454306304453,-0.09648410572111606,0.6312052418630569
1782831440782627800,8.9446279296875,-2.915125230157375,-0.8793217053577304,0.9219916571743786
1782831440792557000,8.95455712890625,-2.2654501925587653,-1.2733560945019124,1.2673428255617618
1782831440802486000,8.964486083984376,-1.3411831377983092,-1.529901582841575,1.2521052166804671
1782831440812415000,8.9744150390625,-0.09805880769193172,-1.4581760708019136,1.5472748885773122
1782831440822344000,8.984343994140625,0.7301888362497091,-1.0000638348270208,1.8798842104218898
1782831440832273000,8.99427294921875,1.7155699926644563,-0.5048990850584582,1.907664343881607
1782831440842201900,9.004201904296876,3.0019752460926767,-0.3017504750592634,1.7549384187176822
1782831440852130800,9.014130859375,4.280387747201323,-0.40695195758007463,1.4004241390570997
1782831440862059800,9.024059814453125,5.412057781469821,-0.6229478472579271,0.9035388856388628
1782831440871989000,9.033989013671874,6.254629718840122,-0.7450429987713694,0.6278807005502283
1782831440881918000,9.04391796875,6.907704920271039,-0.7966887956608086,0.41328232964538036
1782831440891847000,9.053846923828125,7.251334817823767,-0.8813720620162785,0.2879157187132165
1782831440901776000,9.06377587890625,7.4635501660495995,-0.9527027295194566,0.334793497483246
1782831440911705000,9.073705078125,7.6723524909615515,-0.9072661625336855,0.3212282787935808
1782831440921634800,9.083634765625,7.661522469389438,-0.7098607723616063,0.4623602853408083
1782831440931563800,9.093563720703125,7.490216054657101,-0.7222231180675327,0.604837788212858
1782831440941493000,9.103492919921875,7.526952086380124,-0.8446445058606564,0.4901731520263478
1782831440951422000,9.113421875,8.035318957147002,-1.0161934241119772,0.21624401922002434
1782831440961351000,9.123350830078126,8.496085872349143,-0.7860374185912311,0.1661461824249476
1782831440971280000,9.13327978515625,8.642285318353771,-0.34823198452070353,0.2758015756146982
1782831440981208800,9.143208740234375,8.33876005217433,0.0765469408467412,0.491094760383293
1782831440991138000,9.153137939453124,8.028592863762379,0.3703633715037256,0.45896541873812674
1782831441001067000,9.16306689453125,8.135856137651205,0.5318160623501986,0.25024689965210856
1782831441010996000,9.172995849609375,8.524435768520831,0.47866950550898907,-0.1200726327098906
1782831441020925000,9.182925048828125,8.530355221697688,0.34710853344872594,-0.43675095658153296
1782831441030854000,9.19285400390625,8.013640793824196,0.40178989864178,-0.253651082072407
1782831441040782800,9.202782958984375,7.7642428391516205,0.3661136781699955,-0.46929055952802295
1782831441050714400,9.21271435546875,7.588262002867459,0.41451033707037566,-0.6255254426609724
1782831441060643000,9.22264306640625,7.3180346106559035,0.5741840355455875,-0.6054287033107132
1782831441070573300,9.2325732421875,7.277039167922735,0.6492752246260642,-0.6289768982890993
1782831441080502300,9.242502197265624,7.41084382725656,0.7325625796437263,-0.6838234639812261
1782831441090431200,9.25243115234375,7.467929404047131,0.9633258303426205,-0.6598830548148602
1782831441100360400,9.2623603515625,7.331781980979442,1.239014556699991,-0.6278918795313686
1782831441110289400,9.272289306640625,6.722205145013332,1.374205117434263,-0.5111332667402922
1782831441120218400,9.28221826171875,5.368765752232075,1.302727881067246,-0.541359405112639
1782831441130147300,9.292147216796875,3.5072827292889355,1.3500314840339123,-0.6656288319252431
1782831441140076300,9.302076171875,2.492313659340143,1.378964879181981,-1.1306088347777723
1782831441150005200,9.312005126953125,2.0953718583166596,1.158114973601699,-1.427463391021639
1782831441159934200,9.321934326171874,1.482303088581562,0.43264395965412256,-0.7438217864133417
1782831441169863200,9.33186328125,1.5575345629155635,-0.20698606927022337,-1.1236379728518426
1782831441179792400,9.34179248046875,1.4728928706794977,0.9936842898577452,-1.3461970204375684
1782831441189721300,9.351721435546875,-0.5185749610483646,2.058312001466751,-0.32560178117007016
1782831441199650300,9.361650390625,-4.8509518386840815,0.5517759505130351,0.9074917149178683
1782831441209580300,9.371580322265626,-11.26584810732603,-1.3459518135048447,1.787960398353636
1782831441219509200,9.38150927734375,-16.08155327606201,-2.6013766761273143,1.4634016964957117
1782831441229438200,9.391438232421875,-17.751051837903262,-2.7538521336615083,0.45218291899114843
1782831441239367200,9.4013671875,-18.229167362791298,-0.7283265495091676,-0.36947391185071315
1782831441249296100,9.411296142578125,-17.85115004246831,2.0250971296072007,-1.0560507296606898
1782831441259225300,9.421225341796875,-15.992320164382457,3.0041803549215196,-2.5253257021039723
1782831441269154300,9.431154296875,-13.722607638204098,1.8613924220502376,-3.818383691419661
1782831441279083300,9.441083251953126,-13.27865624872446,-0.23562778799533843,-3.7886744895935056
1782831441289012200,9.45101220703125,-13.69520291392803,-1.4423168228909373,-2.3458098235614595
1782831441298941400,9.46094140625,-11.339486174988746,-2.6340818448990584,-1.0451881940584629
1782831441308870400,9.470870361328124,-8.320327738904952,-3.429208140483498,0.20557284147143362
1782831441318799400,9.48079931640625,-6.926240109393,-3.379084803920984,1.4605208803623915
1782831441328728300,9.490728271484375,-6.522359449017047,-2.400178981000185,2.742778074200451
1782831441338657300,9.5006572265625,-6.014988603550195,-1.826685119675845,2.158563350766897
1782831441348586200,9.510586181640624,-5.495382545888424,-1.356546272755414,1.4134483096726238
1782831441358516200,9.52051611328125,-4.955276136511564,-0.5272051710212603,0.9125672646164894
1782831441368445400,9.530445556640625,-4.083731202635168,0.09220277514010668,0.5810585974901914
1782831441378374400,9.54037451171875,-2.887203204008937,0.47083629113268105,0.4582935838911682
1782831441388303400,9.550303466796874,-1.9827187080830335,0.38720293568894265,-0.2976648497134447
1782831441398232300,9.560232421875,-0.7321832249373197,-0.22557552759638055,-1.4244257768914104
1782831441408161300,9.570161376953125,0.5319786325007677,-0.91967636596933,-1.686567770063877
1782831441418090200,9.58009033203125,1.2266308759450912,-0.900382029043138,-0.04804039280861616
1782831441428019200,9.590019287109374,1.3218839785665273,-0.8994705402214079,0.9195002056848257
1782831441437948200,9.5999482421875,0.9904974765151738,-1.2009270373027772,1.5669319213360546
1782831441447877400,9.60987744140625,1.5456465567231177,-1.5504004732519387,1.8003773968562482
1782831441457806300,9.619806396484375,2.771997446683049,-1.6500512263104319,1.551552565896511
1782831441467735300,9.6297353515625,4.118223254823684,-1.3842989336863158,1.3477338746160268
1782831441477664300,9.639664306640626,5.13807249802947,-0.9414079399798065,1.236002807663381
1782831441487593200,9.64959326171875,5.589090757155418,-0.7038412928763776,1.328924836988747
1782831441497522400,9.6595224609375,6.226375099736452,-0.7956736272688955,1.329473410782218
1782831441507452200,9.6694521484375,7.1648238245844835,-1.06766233006455,1.2588717882059515
1782831441517381000,9.679381103515626,7.685990555691719,-1.233940322175622,1.315083066380024
1782831441527310300,9.689310302734375,7.3957403661489485,-1.3203762043520808,1.4837468576490878
1782831441537239300,9.6992392578125,6.472164800783991,-1.1333307340223342,1.882009385882318
1782831441547168300,9.709168212890624,5.898587498959898,-0.7620280358418822,2.4455345186389983
1782831441557097200,9.71909716796875,6.37971857227683,-0.4893174850450828,2.2679078148439524
1782831441567026400,9.7290263671875,7.22029670548141,-0.4692539903772995,0.8492880938827991
1782831441576955400,9.738955322265625,7.3541948883175845,-0.23353867022898048,0.5129587286017835
1782831441586884400,9.74888427734375,7.408629658338427,-0.11952464343830943,0.23072142085116354
1782831441596813300,9.758813232421875,7.593382414621114,-0.10962686121501028,-0.23003683612048625
1782831441606742300,9.7687421875,7.433672329658269,0.05908230356574058,-0.44381256553083653
1782831441616671200,9.778671142578125,7.1028691804528234,0.22010427484475076,-0.5558204035982489
1782831441626600200,9.78860009765625,6.576662701612711,0.35066512995176014,-0.6244193080499768
1782831441636529200,9.798529052734375,5.8144876585155725,0.5824636419825255,-0.734446785955131
1782831441646458400,9.808458251953125,4.90692331675291,0.7336505940761416,-0.8075961202528327
1782831441656388400,9.818388427734375,4.361661424309015,0.7103457793995738,-0.8286139930360019
1782831441666317300,9.8283173828125,4.351797617420554,0.7567864819265901,-1.0701696367103606
1782831441676246500,9.83824658203125,4.369676388460397,0.9494434354625642,-1.2968779859952628
1782831441686175200,9.84817529296875,3.935418125477433,1.0002854416884481,-1.6385912362717092
1782831441696104200,9.858104248046875,3.552670854023099,0.944965997787565,-2.0187099127881227
1782831441706033200,9.868033203125,2.9746523548811674,0.8054507057219743,-2.34624733819589
1782831441715962400,9.87796240234375,2.113521262991428,0.6452832323804497,-2.2658928217597305
1782831441725891300,9.887891357421875,1.2053618779450654,0.49309462896361944,-1.6810813014768062
1782831441735820300,9.8978203125,0.04804243863523006,0.46733621058985586,-0.7208142741829157
1782831441745749200,9.907749267578126,-0.8196399745941162,0.4889245036721229,0.007031506071984768
1782831441755678200,9.91767822265625,-1.6914993812471628,0.3547068796232343,0.5440675680927932
1782831441765607400,9.927607421875,-5.060816239869594,0.060958326570689676,0.8821464073896408
1782831441775536400,9.937536376953124,-5.890034774670005,-0.04885419340953231,0.7836233431868255
1782831441785465300,9.94746533203125,-5.849381277242302,0.1244195758730173,0.6027239013314247
1782831441795394300,9.957394287109375,-6.1992263960480685,-0.04029708520546555,0.5338359508052468
1782831441805324300,9.96732421875,-6.432896035712957,-0.6090925595805049,0.06423880954608321
1782831441815253200,9.977253173828124,-6.617758097589015,-0.7773230739988386,-0.20076244551502168
1782831441825182200,9.98718212890625,-7.399217102348804,-0.8772785090923308,-0.07404971720352768
1782831441835111400,9.997111328125,-7.219850130757689,-0.9112602736711501,0.34536293189041317
1782831441845040400,10.007040283203125,-6.683953448030352,-0.6902199600853025,1.2708926269978285
1782831441854969300,10.01696923828125,-7.532931745311617,-0.18484394169747828,2.087256356400251
1782831441864898300,10.026898193359376,-8.011932236340641,0.16000789886564015,2.008617119449377
