time,seconds_elapsed,z,y,x
1782831431925909800,0.08790966796875,0.11265908926725388,-0.3361767828464508,0.41510725021362305
1782831431935838700,0.097838623046875,0.12223981320858002,-0.2935507595539093,0.2914537489414215
1782831431945767700,0.107767578125,0.11932317167520523,-0.2264050543308258,0.18276818096637726
1782831431955697000,0.11769677734375,0.09376880526542664,-0.1476609706878662,0.1047266498208046
1782831431965625900,0.1276259765625,0.058342162519693375,-0.08014295250177383,0.052531540393829346
1782831431975554800,0.137554931640625,0.029623962938785553,-0.029696021229028702,0.04862654581665993
1782831431985483500,0.1474833984375,0.005357010290026665,-0.017748462036252022,0.08330921083688736
1782831431995412700,0.157412841796875,-0.02211456000804901,-0.0425877645611763,0.1290322244167328
1782831432005341700,0.167341796875,-0.04875446483492851,-0.10076700150966644,0.16597872972488403
1782831432015270700,0.177270751953125,-0.0718078538775444,-0.15996374189853668,0.1788543164730072
1782831432025199600,0.18719970703125,-0.09459231793880463,-0.21722513437271118,0.17539308965206146
1782831432035128600,0.197128662109375,-0.10754992812871933,-0.2580506205558777,0.15268884599208832
1782831432045060900,0.207060791015625,-0.11734776198863983,-0.287855327129364,0.11358284205198288
1782831432054989800,0.21698974609375,-0.12387436628341675,-0.2903922498226166,0.08234449476003647
1782831432064919000,0.2269189453125,-0.14141644537448883,-0.2607896327972412,0.05710712820291519
1782831432074848800,0.236848876953125,-0.160417839884758,-0.19188034534454346,0.03959577530622482
1782831432084777700,0.24677783203125,-0.17276321351528168,-0.09922373294830322,0.013784900307655334
1782831432094707000,0.25670703125,-0.1693732738494873,-0.0013975715264678001,-0.018000192940235138
1782831432104636000,0.266635986328125,-0.1374172866344452,0.07136563956737518,-0.03931707888841629
1782831432114564900,0.27656494140625,-0.0975702628493309,0.1144300177693367,-0.03257794678211212
1782831432124493800,0.286493896484375,-0.06602806597948074,0.12824556231498718,0.016428614035248756
1782831432134423000,0.296423095703125,-0.05582176893949509,0.12264307588338852,0.10122872143983841
1782831432144352000,0.30635205078125,-0.07357820868492126,0.07669086754322052,0.1751987487077713
1782831432154281000,0.316281005859375,-0.08421434462070465,0.03624730557203293,0.2003091722726822
1782831432164210000,0.3262099609375,-0.0799340307712555,0.03466314449906349,0.17423582077026367
1782831432174139100,0.33613916015625,-0.08394155651330948,0.02297959104180336,0.12607601284980774
1782831432184067800,0.34606787109375,-0.0698774978518486,0.006383008323609829,0.08137039840221405
1782831432193996800,0.355996826171875,-0.056106023490428925,0.019336890429258347,0.06678879261016846
1782831432203925800,0.36592578125,-0.042932674288749695,0.02835606411099434,0.06729115545749664
1782831432213855000,0.37585498046875,-0.027482878416776657,0.034833937883377075,0.07954009622335434
1782831432223784000,0.385783935546875,-0.011882254853844643,0.04895913600921631,0.09517868608236313
1782831432233713000,0.395712890625,-0.004402501508593559,0.07086683064699173,0.08925847709178925
1782831432243641900,0.405641845703125,0.0113308010622859,0.10561419278383255,0.07614416629076004
1782831432253571000,0.415571044921875,0.022225525230169296,0.13954021036624908,0.04717163369059563
1782831432263500000,0.4255,0.01972554437816143,0.13020379841327667,0.01162819005548954
1782831432273429000,0.435428955078125,0.00046662893146276474,0.08384907245635986,-0.033227697014808655
1782831432283358000,0.44535791015625,-0.033811863511800766,0.008019248023629189,-0.061201706528663635
1782831432293287000,0.455286865234375,-0.0749068334698677,-0.08844950050115585,-0.0641157403588295
1782831432303217000,0.465216796875,-0.11848229169845581,-0.16053713858127594,-0.05231829360127449
1782831432313145900,0.475145751953125,-0.13971595466136932,-0.186705082654953,-0.047887589782476425
1782831432323074800,0.48507470703125,-0.11613079905509949,-0.18662136793136597,-0.05262305960059166
1782831432333004000,0.495004150390625,-0.07395245879888535,-0.15245354175567627,-0.06217208877205849
1782831432342933000,0.50493310546875,-0.02922145277261734,-0.10885179042816162,-0.07232040911912918
1782831432352862000,0.514862060546875,0.0024840114638209343,-0.07049854844808578,-0.08345508575439453
1782831432362791000,0.524791015625,0.026734113693237305,-0.026409920305013657,-0.09292357414960861
1782831432372720000,0.53472021484375,0.0579916350543499,0.01386107038706541,-0.09706079959869385
1782831432382648800,0.54464892578125,0.07360407710075378,0.03338506072759628,-0.07999909669160843
1782831432392577800,0.554577880859375,0.08750045299530029,0.04178573191165924,-0.045145776122808456
1782831432402506800,0.5645068359375,0.07760962843894958,0.04412079602479935,0.010598832741379738
1782831432412436000,0.57443603515625,0.04560561850667,0.04479777067899704,0.06498537212610245
1782831432422365000,0.584364990234375,-0.0008122939616441727,0.039491862058639526,0.09578774869441986
1782831432432294000,0.5942939453125,-0.033741746097803116,0.03643322363495827,0.1079069972038269
1782831432442222800,0.604222900390625,-0.0470280759036541,0.03574465215206146,0.11436484009027481
1782831432452152000,0.614152099609375,-0.05107075721025467,0.053393419831991196,0.1031515970826149
1782831432462081000,0.6240810546875,-0.03386925905942917,0.06107329577207565,0.07627575099468231
1782831432472010000,0.634010009765625,-0.007441912777721882,0.01748400554060936,0.052412763237953186
1782831432481939000,0.64393896484375,0.020404525101184845,-0.04775352403521538,0.05441748723387718
1782831432491868000,0.653867919921875,0.04314924776554108,-0.11410032212734222,0.09653352200984955
1782831432501796900,0.663796875,0.07078740000724792,-0.18415357172489166,0.16759145259857178
1782831432511725800,0.673725830078125,0.08324193209409714,-0.24262885749340057,0.2245711237192154
1782831432521654800,0.68365478515625,0.10548118501901627,-0.2831789255142212,0.26176780462265015
1782831432531584000,0.693583984375,0.1299082338809967,-0.262276291847229,0.28808408975601196
1782831432541514000,0.703513916015625,0.15154847502708435,-0.1969243884086609,0.29744043946266174
1782831432551443000,0.71344287109375,0.16012653708457947,-0.15519052743911743,0.26560741662979126
1782831432561372000,0.723371826171875,0.15073534846305847,-0.15920250117778778,0.18013101816177368
1782831432571300900,0.73330078125,0.14429901540279388,-0.19379882514476776,0.038199979811906815
1782831432581229800,0.743229736328125,0.13115175068378448,-0.24322505295276642,-0.11948131024837494
1782831432591158800,0.75315869140625,0.12231644988059998,-0.26841267943382263,-0.23822686076164246
1782831432601087700,0.763087646484375,0.1112675666809082,-0.23381175100803375,-0.2779388129711151
1782831432611017000,0.773016845703125,0.09770195931196213,-0.16414213180541992,-0.24964246153831482
1782831432620946000,0.78294580078125,0.06570693105459213,-0.03188759833574295,-0.2082253396511078
1782831432630875000,0.792875,0.044840265065431595,0.15353712439537048,-0.1894596517086029
1782831432640803800,0.802803955078125,0.048650357872247696,0.38078033924102783,-0.18161846697330475
1782831432650733000,0.812733154296875,0.08311192691326141,0.5635400414466858,-0.18038196861743927
1782831432660662000,0.822662109375,0.14790895581245422,0.664500892162323,-0.1838180273771286
1782831432670591000,0.832591064453125,0.2640904188156128,0.718526303768158,-0.1703014224767685
1782831432680520000,0.84252001953125,0.39817267656326294,0.6875016689300537,-0.147882342338562
1782831432690449000,0.852448974609375,0.4992481768131256,0.6288133263587952,-0.14625196158885956
1782831432700377900,0.8623779296875,0.5166312456130981,0.5118902325630188,-0.19089588522911072
1782831432710306800,0.872306884765625,0.45410606265068054,0.29882773756980896,-0.2949756681919098
1782831432720235800,0.88223583984375,0.36566445231437683,0.034344837069511414,-0.38514411449432373
1782831432730165000,0.8921650390625,0.3358277380466461,-0.25680339336395264,-0.4298679232597351
1782831432740094000,0.902093994140625,0.36077332496643066,-0.3384169042110443,-0.391162246465683
1782831432750023000,0.91202294921875,0.40683960914611816,-0.22092916071414948,-0.3176520764827728
1782831432759953000,0.921952880859375,0.4852077066898346,-0.011076652444899082,-0.2673663794994354
1782831432769881900,0.9318818359375,0.5981835126876831,0.1892402023077011,-0.2653959095478058
1782831432779810800,0.941810791015625,0.709000825881958,0.2924996018409729,-0.3295822739601135
1782831432789739800,0.95173974609375,0.7796212434768677,0.3286650776863098,-0.4076341986656189
1782831432799669000,0.9616689453125,0.7955588102340698,0.2701922357082367,-0.48837679624557495
1782831432809598000,0.971597900390625,0.7752473950386047,0.08797740936279297,-0.5946486592292786
1782831432819527000,0.98152685546875,0.7546132802963257,-0.193869486451149,-0.6944307088851929
1782831432829456000,0.991455810546875,0.7469572424888611,-0.5194406509399414,-0.705106794834137
1782831432839385000,1.001385009765625,0.6916678547859192,-0.7789888978004456,-0.565183699131012
1782831432849314000,1.01131396484375,0.5913627743721008,-0.8935943245887756,-0.3237215578556061
1782831432859243000,1.021242919921875,0.47511109709739685,-0.8862864375114441,-0.07195553928613663
1782831432869172000,1.031171875,0.3431439995765686,-0.7596549987792969,0.1054365485906601
1782831432879100700,1.0411005859375,0.18648996949195862,-0.5873342156410217,0.15574562549591064
1782831432889030000,1.05102978515625,-0.006384691223502159,-0.37054839730262756,0.10909849405288696
1782831432898958800,1.060958740234375,-0.17638003826141357,-0.12382259964942932,0.019736187532544136
1782831432908887800,1.0708876953125,-0.306464821100235,0.15449823439121246,-0.09132854640483856
1782831432918816800,1.080816650390625,-0.3856455087661743,0.3429654836654663,-0.22211770713329315
1782831432928746000,1.09074609375,-0.40201276540756226,0.3559710383415222,-0.37053778767585754
1782831432938675000,1.100675048828125,-0.35313305258750916,0.2981431484222412,-0.494032621383667
1782831432948604000,1.11060400390625,-0.2430262714624405,0.35368046164512634,-0.5499081611633301
1782831432958532900,1.120532958984375,-0.11704524606466293,0.4904850423336029,-0.5373663306236267
1782831432968462000,1.130462158203125,0.005176264327019453,0.5367236733436584,-0.4260445535182953
1782831432978391000,1.14039111328125,0.09101512283086777,0.5042349100112915,-0.22055229544639587
1782831432988320800,1.15032080078125,0.16417881846427917,0.4226689338684082,0.06784781813621521
1782831432998250000,1.16025,0.17349423468112946,0.334914892911911,0.333717405796051
1782831433008179000,1.170178955078125,0.126399964094162,0.26350516080856323,0.5486302375793457
1782831433018108000,1.18010791015625,0.029814820736646652,0.200555220246315,0.6635035872459412
1782831433028036900,1.190036865234375,-0.09624803811311722,0.15609535574913025,0.6740670204162598
1782831433037966000,1.199966064453125,-0.20509971678256989,0.13232895731925964,0.6056543588638306
1782831433047890400,1.209890380859375,-0.2572798430919647,0.1427898406982422,0.502886176109314
1782831433057819400,1.2198193359375,-0.2521299719810486,0.21290907263755798,0.3908464312553406
1782831433067748600,1.22974853515625,-0.1833203136920929,0.3771219849586487,0.2856787145137787
1782831433077677600,1.239677490234375,-0.06409766525030136,0.6000049710273743,0.23557080328464508
1782831433087606500,1.2496064453125,0.09225598722696304,0.7966293692588806,0.2678307294845581
1782831433097535500,1.259535400390625,0.23040027916431427,0.8540576696395874,0.3523005545139313
1782831433107464400,1.26946435546875,0.29064762592315674,0.7164486646652222,0.4753958582878113
1782831433117393400,1.279393310546875,0.25586849451065063,0.5826837420463562,0.6028802394866943
1782831433127322400,1.289322265625,0.18507182598114014,0.5838643312454224,0.7462355494499207
1782831433137251300,1.299251220703125,0.12680688500404358,0.6821221113204956,0.84739750623703
1782831433147180500,1.3091806640625,0.08839505165815353,0.7737135291099548,0.8777045607566833
1782831433157109500,1.319109619140625,0.06641416251659393,0.8051868677139282,0.8439711332321167
1782831433167038500,1.32903857421875,0.06672947108745575,0.7925394773483276,0.7839272022247314
1782831433176967400,1.338967529296875,0.06947116553783417,0.7462994456291199,0.7160472273826599
1782831433186896600,1.348896728515625,0.0724475085735321,0.625535249710083,0.6017142534255981
1782831433196825600,1.35882568359375,0.11346608400344849,0.46368998289108276,0.38331082463264465
1782831433206755300,1.36875537109375,0.21902793645858765,0.3605359196662903,0.11966374516487122
1782831433216684300,1.378684326171875,0.3729511499404907,0.34765705466270447,-0.11699514836072922
1782831433226613500,1.388613525390625,0.5007285475730896,0.471126526594162,-0.2502501308917999
1782831433236542500,1.39854248046875,0.529008150100708,0.668648898601532,-0.2517884075641632
1782831433246471400,1.408471435546875,0.3935917317867279,0.8151181936264038,-0.2099115401506424
1782831433256400400,1.418400390625,0.07944290339946747,0.6183955073356628,-0.3049814701080322
1782831433266329600,1.42832958984375,-0.3000546097755432,-0.09734126180410385,-0.5518274903297424
1782831433276258600,1.438258544921875,-0.5171787738800049,-0.8597614169120789,-0.8523326516151428
1782831433286187500,1.4481875,-0.4544123113155365,-1.0878028869628906,-1.0406290292739868
1782831433296116500,1.458116455078125,-0.22135311365127563,-0.749570906162262,-1.0358178615570068
1782831433306045400,1.46804541015625,0.03718336671590805,-0.19393806159496307,-0.8898270726203918
1782831433315974400,1.477974365234375,0.26690661907196045,0.3161872625350952,-0.6799606680870056
1782831433325903400,1.4879033203125,0.4348876476287842,0.6947630643844604,-0.5087971687316895
1782831433335832300,1.497832275390625,0.4962138533592224,0.8390195965766907,-0.40758830308914185
1782831433345761500,1.507761474609375,0.46161705255508423,0.757429301738739,-0.3692988157272339
1782831433355690500,1.5176904296875,0.3574449419975281,0.45499491691589355,-0.3811193108558655
1782831433365619500,1.527619384765625,0.21833766996860504,0.013745874166488647,-0.4046992063522339
1782831433375548400,1.53754833984375,0.18096700310707092,-0.4737480878829956,-0.37709352374076843
1782831433385477600,1.5474775390625,0.27817586064338684,-0.892956018447876,-0.27331891655921936
1782831433395406600,1.557406494140625,0.490291953086853,-1.1914712190628052,-0.08829814940690994
1782831433405335600,1.56733544921875,0.7842905521392822,-1.404086709022522,0.1566695272922516
1782831433415264300,1.57726416015625,1.1149729490280151,-1.4556121826171875,0.37115731835365295
1782831433425193500,1.587193359375,1.3899604082107544,-1.3302617073059082,0.47628533840179443
1782831433435123500,1.59712353515625,1.51752769947052,-1.1799485683441162,0.4671410322189331
1782831433445052400,1.607052490234375,1.453715443611145,-1.1108534336090088,0.34644657373428345
1782831433454981600,1.616981689453125,1.2636574506759644,-1.1765013933181763,0.14016248285770416
1782831433464910600,1.62691064453125,1.082948088645935,-1.3157204389572144,-0.043818797916173935
1782831433474839600,1.636839599609375,0.9058412313461304,-1.4243478775024414,-0.1754864752292633
1782831433484768500,1.6467685546875,0.7262845039367676,-1.5418386459350586,-0.23809285461902618
1782831433494697500,1.656697509765625,0.5469346642494202,-1.6955535411834717,-0.26144468784332275
1782831433504626400,1.66662646484375,0.37782102823257446,-1.7701934576034546,-0.28532469272613525
1782831433514555400,1.676555419921875,0.26112100481987,-1.7765374183654785,-0.31253892183303833
1782831433524484400,1.686484375,0.18109992146492004,-1.6821999549865723,-0.39421436190605164
1782831433534413600,1.69641357421875,0.13234034180641174,-1.419264316558838,-0.5439519882202148
1782831433544342500,1.706342529296875,0.14231733977794647,-0.9985561966896057,-0.6976464986801147
1782831433554271500,1.716271484375,0.1807767152786255,-0.4350450336933136,-0.7864141464233398
1782831433564200400,1.726200439453125,0.189459428191185,0.19467511773109436,-0.7906978726387024
1782831433574129400,1.73612939453125,0.1377624273300171,0.7757465839385986,-0.7003830075263977
1782831433584058600,1.74605859375,0.026679325848817825,1.2102237939834595,-0.5401179790496826
1782831433593987600,1.755987548828125,-0.12866783142089844,1.4619112014770508,-0.3360021114349365
1782831433603916300,1.765916259765625,-0.2759917676448822,1.4829972982406616,-0.1330910623073578
1782831433613845200,1.77584521484375,-0.39423418045043945,1.2741879224777222,-0.023645391687750816
1782831433623774500,1.7857744140625,-0.4407942295074463,0.8821094036102295,0.0352323055267334
1782831433633703400,1.795703369140625,-0.41080760955810547,0.37546688318252563,0.08299288898706436
1782831433643633400,1.80563330078125,-0.33204972743988037,-0.040978800505399704,0.15353870391845703
1782831433653562600,1.815562744140625,-0.3060958981513977,-0.18403446674346924,0.27325502038002014
1782831433663491600,1.82549169921875,-0.34440305829048157,-0.102386474609375,0.36351513862609863
1782831433673420500,1.835420654296875,-0.40019482374191284,0.12955829501152039,0.37000584602355957
1782831433683349200,1.845349365234375,-0.43183794617652893,0.40863704681396484,0.3101864457130432
1782831433693278500,1.855278564453125,-0.434879869222641,0.647501528263092,0.22555123269557953
1782831433703207400,1.86520751953125,-0.44578099250793457,0.8056711554527283,0.18075473606586456
1782831433713136400,1.875136474609375,-0.4577830731868744,0.8503290414810181,0.20688791573047638
1782831433723065300,1.8850654296875,-0.5052246451377869,0.8139297366142273,0.2991262376308441
1782831433732994600,1.89499462890625,-0.6263679265975952,0.7557266354560852,0.3447715640068054
1782831433742923500,1.904923583984375,-0.7732939720153809,0.6514771580696106,0.2754092514514923
1782831433752852500,1.9148525390625,-0.8640451431274414,0.599610447883606,0.18801429867744446
1782831433762781400,1.924781494140625,-0.862215518951416,0.6332722902297974,0.12331093102693558
1782831433772710700,1.934710693359375,-0.7941720485687256,0.7347092032432556,0.08282244205474854
1782831433782639600,1.9446396484375,-0.6986735463142395,0.8322178721427917,0.07040279358625412
1782831433792568300,1.954568359375,-0.6081892251968384,0.8827664852142334,0.06544345617294312
1782831433802497300,1.964497314453125,-0.5166779160499573,0.8932607173919678,0.11334812641143799
1782831433812426500,1.974426513671875,-0.3850089907646179,0.8487667441368103,0.3017932176589966
1782831433822355500,1.98435546875,-0.18723277747631073,0.7893596291542053,0.6189863681793213
1782831433832284400,1.994284423828125,0.07601769268512726,0.7420552372932434,0.9467465281486511
1782831433842213400,2.00421337890625,0.37067970633506775,0.6611827611923218,1.1175004243850708
1782831433852143600,2.0141435546875,0.5338247418403625,0.6170461177825928,0.9780386090278625
1782831433862072600,2.024072509765625,0.5285567045211792,0.5983342528343201,0.5247288942337036
1782831433872001500,2.03400146484375,0.44494131207466125,0.40385517477989197,-0.048909664154052734
1782831433881930200,2.04393017578125,0.4159879684448242,0.11434558779001236,-0.4070371687412262
1782831433891859500,2.053859375,0.45297935605049133,-0.003338601440191269,-0.34915998578071594
1782831433901788400,2.063788330078125,0.48882684111595154,0.1781608909368515,0.07940440624952316
1782831433911717400,2.07371728515625,0.5453726649284363,0.6337904930114746,0.6399492621421814
1782831433921646300,2.083646240234375,0.6321677565574646,0.9657503366470337,1.0146450996398926
1782831433931575600,2.093575439453125,0.7850549221038818,0.9725143909454346,1.0217992067337036
1782831433941504500,2.10350439453125,0.9294219613075256,0.6901088356971741,0.6810764670372009
1782831433951433500,2.11343359375,0.917547345161438,0.12595735490322113,0.10243137180805206
1782831433961362400,2.123362548828125,0.8356221318244934,-0.501419186592102,-0.4888457953929901
1782831433971291600,2.133291748046875,0.7023002505302429,-0.8752498626708984,-0.8894086480140686
1782831433981220600,2.143220703125,0.47781383991241455,-1.0279685258865356,-1.103684663772583
1782831433991149300,2.1531494140625,0.24263252317905426,-0.9817025065422058,-1.244149923324585
1782831434001078300,2.163078369140625,0.06495068967342377,-0.834123432636261,-1.3916246891021729
1782831434011007500,2.173007568359375,-0.040146604180336,-0.5959864854812622,-1.5541846752166748
1782831434020936400,2.1829365234375,-0.13272634148597717,-0.3235265016555786,-1.6742594242095947
1782831434030865400,2.192865478515625,-0.24658651649951935,-0.2175990492105484,-1.6987849473953247
1782831434040794600,2.202794677734375,-0.37178415060043335,-0.2606450617313385,-1.5801845788955688
1782831434050724600,2.212724609375,-0.5152325630187988,-0.32272717356681824,-1.3563733100891113
1782831434060653600,2.222653564453125,-0.6692817807197571,-0.36987417936325073,-1.0702259540557861
1782831434070582500,2.23258251953125,-0.7673264741897583,-0.40741246938705444,-0.8096674084663391
1782831434080511500,2.242511474609375,-0.7718527913093567,-0.5666851997375488,-0.6318247318267822
1782831434090440400,2.2524404296875,-0.6777084469795227,-0.7788556218147278,-0.5406357645988464
1782831434100369700,2.26236962890625,-0.5069116950035095,-0.9345051646232605,-0.4637543261051178
1782831434110298600,2.272298583984375,-0.2940951883792877,-0.9738718271255493,-0.34744948148727417
1782831434120227600,2.2822275390625,-0.0573582760989666,-0.8433758616447449,-0.183248832821846
1782831434130156500,2.292156494140625,0.17100265622138977,-0.565584659576416,-0.009092316962778568
1782831434140085800,2.302085693359375,0.31922435760498047,-0.22468805313110352,0.11746934801340103
1782831434150014700,2.3120146484375,0.35595226287841797,0.11429236084222794,0.19159330427646637
1782831434159943700,2.321943603515625,0.29937902092933655,0.39573976397514343,0.23341186344623566
1782831434169872600,2.33187255859375,0.18913868069648743,0.5649054050445557,0.2570502460002899
1782831434179801600,2.341801513671875,0.050955772399902344,0.5972526669502258,0.26008862257003784
1782831434189730600,2.35173046875,-0.09575769305229187,0.4807419180870056,0.23981276154518127
1782831434199659500,2.361659423828125,-0.24827000498771667,0.25436100363731384,0.17442522943019867
1782831434209588500,2.37158837890625,-0.3891187310218811,-0.03889806568622589,0.0373254269361496
1782831434219517400,2.381517333984375,-0.4680878520011902,-0.28466254472732544,-0.133042573928833
1782831434229446700,2.39144677734375,-0.4672344923019409,-0.26318359375,-0.23703216016292572
1782831434239375600,2.401375732421875,-0.3911578357219696,0.007968009449541569,-0.2393648326396942
1782831434249305600,2.4113056640625,-0.2880810797214508,0.34742093086242676,-0.1674944907426834
1782831434259234600,2.421234619140625,-0.1606922447681427,0.5711221694946289,-0.027190640568733215
1782831434269163500,2.43116357421875,-0.062295474112033844,0.7261906862258911,0.190079003572464
1782831434279092500,2.441092529296875,-0.07491965591907501,0.8438227772712708,0.4046347141265869
1782831434289021400,2.451021484375,-0.21147646009922028,0.7505606412887573,0.5213871002197266
1782831434298950700,2.46095068359375,-0.35976576805114746,0.4606715440750122,0.5199177861213684
1782831434308879600,2.470879638671875,-0.43069949746131897,0.16382378339767456,0.5184155702590942
1782831434318808600,2.48080859375,-0.40878862142562866,-0.027483049780130386,0.6229100227355957
1782831434328737500,2.490737548828125,-0.3545258939266205,-0.035534054040908813,0.8306275010108948
1782831434338666800,2.500666748046875,-0.2889389097690582,0.029429767280817032,1.0756564140319824
1782831434348595700,2.510595703125,-0.23433935642242432,0.18484018743038177,1.2461239099502563
1782831434358524700,2.520524658203125,-0.11393172293901443,0.4696556627750397,1.3143993616104126
1782831434368453400,2.530453369140625,0.07792524993419647,0.7484692931175232,1.2731990814208984
1782831434378382600,2.540382568359375,0.23704220354557037,0.8933976888656616,1.1433846950531006
1782831434388311600,2.5503115234375,0.32431870698928833,0.8600150346755981,0.9731501340866089
1782831434398240500,2.560240478515625,0.3578367233276367,0.7497055530548096,0.822500467300415
1782831434408169500,2.57016943359375,0.3025491237640381,0.5367090106010437,0.6834943890571594
1782831434418098700,2.5800986328125,0.20647503435611725,0.18120604753494263,0.5237140655517578
1782831434428027600,2.590027587890625,0.1914035826921463,-0.07345771789550781,0.327301949262619
1782831434437956600,2.59995654296875,0.2665659785270691,-0.39346370100975037,0.10953021794557571
1782831434447886600,2.609886474609375,0.372573584318161,-0.9290438294410706,-0.1075022742152214
1782831434457815600,2.619815673828125,0.4545656740665436,-1.3212497234344482,-0.2723034918308258
1782831434467744500,2.62974462890625,0.5636560916900635,-1.2244744300842285,-0.2659531533718109
1782831434477673500,2.639673583984375,0.6905618906021118,-0.522689700126648,-0.062233325093984604
1782831434487602400,2.6496025390625,0.737835705280304,0.40732547640800476,0.14381562173366547
1782831434497531600,2.65953173828125,0.6739949584007263,0.8532715439796448,0.14930306375026703
1782831434507460600,2.669460693359375,0.5294367074966431,0.633973240852356,-0.0705937072634697
1782831434517389600,2.6793896484375,0.3263896107673645,0.031525176018476486,-0.4064449667930603
1782831434527318500,2.689318603515625,0.08186353743076324,-0.5353525280952454,-0.7462858557701111
1782831434537247700,2.699247802734375,-0.11641520261764526,-0.6840461492538452,-0.8943592309951782
1782831434547176700,2.7091767578125,-0.21705001592636108,-0.3586268424987793,-0.8853896260261536
1782831434557105700,2.719105712890625,-0.20726370811462402,0.12680138647556305,-0.844403862953186
1782831434567034400,2.729034423828125,-0.13369391858577728,0.5037877559661865,-0.8127833604812622
1782831434576963600,2.738963623046875,-0.07551450282335281,0.621597170829773,-0.8123775124549866
1782831434586892500,2.748892578125,-0.04724254831671715,0.46477776765823364,-0.8203268051147461
1782831434596821500,2.758821533203125,-0.00865467730909586,0.12550996243953705,-0.8073177933692932
1782831434606750500,2.76875048828125,0.04090212285518646,-0.3283315896987915,-0.7783699631690979
1782831434616679700,2.7786796875,0.0863495022058487,-0.8208544850349426,-0.7179396748542786
1782831434626608600,2.788608642578125,0.07723330706357956,-1.172692060470581,-0.6265453100204468
1782831434636538600,2.79853857421875,0.001675705425441265,-1.2935527563095093,-0.5476028323173523
1782831434646467600,2.808467529296875,-0.09394507855176926,-1.2233214378356934,-0.4742338955402374
1782831434656396500,2.818396484375,-0.19037333130836487,-1.0005384683609009,-0.39014750719070435
1782831434666325500,2.828325439453125,-0.2873137593269348,-0.6841137409210205,-0.28463155031204224
1782831434676254500,2.83825439453125,-0.3696533739566803,-0.34727925062179565,-0.19524654746055603
1782831434686183700,2.84818359375,-0.41632014513015747,-0.0687536969780922,-0.15926393866539001
1782831434696112600,2.858112548828125,-0.40498092770576477,0.18242792785167694,-0.13301075994968414
1782831434706041600,2.86804150390625,-0.3714773952960968,0.3904266059398651,-0.050717439502477646
1782831434715970600,2.877970458984375,-0.34441009163856506,0.46896588802337646,0.10011228173971176
1782831434725899800,2.887899658203125,-0.3301975131034851,0.4386836886405945,0.3019082546234131
1782831434735828700,2.897828857421875,-0.32814714312553406,0.3685336112976074,0.5138149261474609
1782831434745757700,2.9077578125,-0.3490987718105316,0.29867932200431824,0.6950415968894958
1782831434755686400,2.917686279296875,-0.3815579116344452,0.23841464519500732,0.8437748551368713
1782831434765615600,2.92761572265625,-0.4120553135871887,0.1995265930891037,0.9389116168022156
1782831434775544600,2.937544677734375,-0.4284742474555969,0.17812062799930573,0.9676164984703064
1782831434785473500,2.9474736328125,-0.4452131688594818,0.18332979083061218,0.8803733587265015
1782831434795402500,2.957402587890625,-0.449418306350708,0.18638230860233307,0.6550624966621399
1782831434805331500,2.96733154296875,-0.38555556535720825,0.14150020480155945,0.3841002583503723
1782831434815260700,2.9772607421875,-0.22238925099372864,0.1514796018600464,0.18303507566452026
1782831434825190700,2.987190673828125,-0.024844428524374962,0.099942147731781,0.043975431472063065
1782831434835119400,2.997119384765625,0.13414841890335083,-0.025924963876605034,-0.032806165516376495
1782831434845048600,3.007048583984375,0.251030296087265,-0.022011827677488327,-0.01882893778383732
1782831434854977500,3.0169775390625,0.3088451325893402,0.06734122335910797,0.051893699914216995
1782831434864906500,3.026906494140625,0.2954007387161255,0.08448323607444763,0.14761514961719513
1782831434874835500,3.03683544921875,0.2416645586490631,0.0017316360026597977,0.28134098649024963
1782831434884764700,3.0467646484375,0.15935394167900085,-0.037473488599061966,0.4722982943058014
1782831434894693600,3.056693603515625,0.03946588933467865,-0.018683023750782013,0.6690582036972046
1782831434904622600,3.06662255859375,-0.13774588704109192,-0.005929727107286453,0.7260902523994446
1782831434914551600,3.076551513671875,-0.28683602809906006,0.028175512328743935,0.6155920028686523
1782831434924480800,3.086480712890625,-0.37485188245773315,0.1235041543841362,0.38497069478034973
1782831434934409700,3.09640966796875,-0.38558652997016907,0.33785054087638855,0.15988512337207794
1782831434944338700,3.106338623046875,-0.33443304896354675,0.64141845703125,0.05028912425041199
1782831434954267400,3.116267333984375,-0.2735513150691986,0.9127295613288879,0.11338447034358978
1782831434964196600,3.126196533203125,-0.23238512873649597,1.0053346157073975,0.31360793113708496
1782831434974125600,3.13612548828125,-0.24673956632614136,0.9127334952354431,0.5678521394729614
1782831434984054500,3.146054443359375,-0.29028257727622986,0.7309086322784424,0.6924586892127991
1782831434993983500,3.1559833984375,-0.3032364547252655,0.5571011304855347,0.5929142236709595
1782831435003912700,3.16591259765625,-0.2605394423007965,0.3896248936653137,0.1762642115354538
1782831435013842700,3.1758427734375,-0.14144766330718994,0.09185793995857239,-0.49607929587364197
1782831435023771600,3.185771728515625,0.023217592388391495,-0.3604463040828705,-1.1015249490737915
1782831435033700400,3.195700439453125,0.1257663369178772,-0.6890345215797424,-1.4012571573257446
1782831435043630800,3.205630859375,0.15115800499916077,-0.8316503167152405,-1.3568137884140015
1782831435053559800,3.215559814453125,0.2274239957332611,-0.7891574501991272,-1.0198289155960083
1782831435063488800,3.22548876953125,0.35848405957221985,-0.4970035254955292,-0.5545132756233215
1782831435073418000,3.23541796875,0.4895704388618469,-0.10118323564529419,-0.1341671496629715
1782831435083347000,3.245346923828125,0.5852234363555908,0.23885129392147064,0.12322656810283661
1782831435093276000,3.25527587890625,0.5857642889022827,0.4033145606517792,0.1802419275045395
1782831435103204600,3.26520458984375,0.47159823775291443,0.5852579474449158,0.0663466528058052
1782831435113133800,3.2751337890625,0.3234151601791382,0.5911552906036377,-0.25573283433914185
1782831435123062800,3.285062744140625,0.27234023809432983,0.34622129797935486,-0.6427499651908875
1782831435132991700,3.29499169921875,0.3400849401950836,0.15018387138843536,-0.8591592311859131
1782831435142920700,3.304920654296875,0.4118402898311615,0.0969068706035614,-0.8672630786895752
1782831435152850000,3.314849853515625,0.4586479961872101,0.1311977356672287,-0.775901198387146
1782831435162779000,3.32477880859375,0.5499634742736816,0.17882072925567627,-0.6780892610549927
1782831435172707800,3.334707763671875,0.6616522073745728,0.17110475897789001,-0.5854331254959106
1782831435182636800,3.34463671875,0.742099940776825,0.05298086628317833,-0.49411168694496155
1782831435192566000,3.35456591796875,0.7592669725418091,-0.0692845955491066,-0.3897605240345001
1782831435202495700,3.364495849609375,0.6793910264968872,-0.18139290809631348,-0.2837415933609009
1782831435212424700,3.3744248046875,0.5125711560249329,-0.2974846363067627,-0.17649127542972565
1782831435222354000,3.38435400390625,0.26509228348731995,-0.3888460099697113,-0.08984024077653885
1782831435232283000,3.394282958984375,-0.013325750827789307,-0.48365962505340576,-0.07074564695358276
1782831435242211800,3.4042119140625,-0.26002368330955505,-0.5714499354362488,-0.13340526819229126
1782831435252140800,3.414140869140625,-0.4573791027069092,-0.5921703577041626,-0.22666437923908234
1782831435262070000,3.424070068359375,-0.5708910822868347,-0.49700623750686646,-0.26299089193344116
1782831435271999000,3.4339990234375,-0.6131543517112732,-0.4007564187049866,-0.23267558217048645
1782831435281928000,3.443927978515625,-0.5694980025291443,-0.30716773867607117,-0.09823454916477203
1782831435291856600,3.453856689453125,-0.44588199257850647,-0.17094971239566803,0.10395636409521103
1782831435301785900,3.463785888671875,-0.2689068913459778,0.03629690408706665,0.32825544476509094
1782831435311714800,3.47371484375,-0.07371611148118973,0.27365460991859436,0.5423304438591003
1782831435321643800,3.483643798828125,0.04163646697998047,0.556351900100708,0.7161918878555298
1782831435331572700,3.49357275390625,0.07669857889413834,0.8126260638237,0.8527593016624451
1782831435341502000,3.503501953125,0.0745854526758194,0.9758480191230774,0.9766636490821838
1782831435351431000,3.513430908203125,0.06153516471385956,1.0242632627487183,1.1114603281021118
1782831435361360000,3.52335986328125,0.005467697512358427,0.9592415690422058,1.1875882148742676
1782831435371288800,3.533288818359375,-0.08356630057096481,0.7744261622428894,1.1631033420562744
1782831435381217800,3.5432177734375,-0.18748758733272552,0.5031622052192688,1.0294326543807983
1782831435391147800,3.553147705078125,-0.2718221843242645,0.2501579225063324,0.8099520206451416
1782831435401076700,3.56307666015625,-0.28311687707901,0.10387179255485535,0.5647087097167969
1782831435411005700,3.573005615234375,-0.19931863248348236,0.07304410636425018,0.387337863445282
1782831435420935000,3.582934814453125,-0.04764503613114357,0.1728174090385437,0.2872766852378845
1782831435430864000,3.59286376953125,0.10998374223709106,0.34406107664108276,0.3063928782939911
1782831435440792800,3.602792724609375,0.2322935312986374,0.4429708421230316,0.4403526782989502
1782831435450721800,3.6127216796875,0.30898699164390564,0.5219433903694153,0.6221770644187927
1782831435460651000,3.622651123046875,0.3501776456832886,0.5767415761947632,0.8335167765617371
1782831435470580000,3.632580078125,0.32752904295921326,0.6067719459533691,0.9953333735466003
1782831435480509000,3.642509033203125,0.23599004745483398,0.49307045340538025,1.0310730934143066
1782831435490437600,3.652437744140625,0.13002686202526093,0.23430068790912628,0.9947593212127686
1782831435500366800,3.662366943359375,0.03424685448408127,-0.06823300570249557,0.8882153630256653
1782831435510295800,3.6722958984375,-0.0653228759765625,-0.3143463730812073,0.7044503092765808
1782831435520224800,3.682224853515625,-0.11426869034767151,-0.3483320474624634,0.5133051872253418
1782831435530153700,3.69215380859375,-0.07295960187911987,-0.18888753652572632,0.3618778586387634
1782831435540083000,3.7020830078125,0.048170603811740875,0.1508389413356781,0.2113618552684784
1782831435550012000,3.712011962890625,0.15652798116207123,0.35510632395744324,0.015079697594046593
1782831435559940900,3.72194091796875,0.1440320611000061,0.18209563195705414,-0.19999365508556366
1782831435569870800,3.731870849609375,0.08411652594804764,-0.07265463471412659,-0.3858295679092407
1782831435579799800,3.7417998046875,-0.0001650797203183174,-0.0664217621088028,-0.48560699820518494
1782831435589728800,3.751728759765625,-0.1210763230919838,-0.00011410843580961227,-0.5911307334899902
1782831435599657700,3.76165771484375,-0.256025493144989,0.02787308394908905,-0.7707693576812744
1782831435609586700,3.771586669921875,-0.3175376057624817,-0.023846834897994995,-0.9881035089492798
1782831435619516000,3.781515869140625,-0.32834580540657043,-0.00822509452700615,-1.1503582000732422
1782831435629444900,3.79144482421875,-0.3725236654281616,-0.0312206894159317,-1.2594321966171265
1782831435639373800,3.801373779296875,-0.35029998421669006,-0.12150757014751434,-1.2522468566894531
1782831435649302800,3.811302734375,-0.24308112263679504,-0.2084624469280243,-1.1193805932998657
1782831435659232000,3.82123193359375,-0.11139557510614395,-0.21121197938919067,-0.8980951309204102
1782831435669161000,3.831160888671875,-0.020358340814709663,-0.1458854377269745,-0.6279195547103882
1782831435679089700,3.841089599609375,0.002209053374826908,0.017743263393640518,-0.41266128420829773
1782831435689018600,3.8510185546875,0.011606017127633095,0.23212294280529022,-0.3577173352241516
1782831435698947800,3.86094775390625,0.021157637238502502,0.28390416502952576,-0.46915048360824585
1782831435708876800,3.870876708984375,-0.012179279699921608,0.12641337513923645,-0.6566292643547058
1782831435718805800,3.8808056640625,-0.11141639202833176,-0.17074760794639587,-0.854647696018219
1782831435728734700,3.890734619140625,-0.22193197906017303,-0.44536665081977844,-0.9926740527153015
1782831435738664000,3.900663818359375,-0.2860959470272064,-0.6615030765533447,-1.070809245109558
1782831435748594000,3.910593994140625,-0.2977169156074524,-0.8355315923690796,-1.1436376571655273
1782831435758522600,3.920522705078125,-0.2563122808933258,-0.9511420130729675,-1.175069808959961
1782831435768451800,3.930451904296875,-0.16696321964263916,-1.059365153312683,-1.148395299911499
1782831435778380800,3.940380859375,-0.016579702496528625,-1.1751480102539062,-1.040039300918579
1782831435788309800,3.950309814453125,0.17426827549934387,-1.3184863328933716,-0.8535128235816956
1782831435798238700,3.96023876953125,0.38128578662872314,-1.4605673551559448,-0.6012304425239563
1782831435808168000,3.97016796875,0.5668007731437683,-1.5569347143173218,-0.31866559386253357
1782831435818097000,3.980096923828125,0.6879011988639832,-1.50716233253479,-0.0984208956360817
1782831435828025900,3.99002587890625,0.7503861784934998,-1.2903698682785034,0.05529036372900009
1782831435837954800,3.999954833984375,0.7171656489372253,-1.0048136711120605,0.12483774870634079
1782831435847884000,4.009884033203125,0.6192670464515686,-0.7442800402641296,0.13861986994743347
1782831435857813000,4.01981298828125,0.45225459337234497,-0.46342039108276367,0.11528321355581284
1782831435867741700,4.02974169921875,0.23271292448043823,-0.19764675199985504,0.051689326763153076
1782831435877670700,4.039670654296875,0.05066376551985741,0.07728441059589386,0.05123845487833023
1782831435887599900,4.049599853515625,-0.09049028158187866,0.25717678666114807,0.10291517525911331
1782831435897528800,4.05952880859375,-0.16367027163505554,0.3168526887893677,0.19332027435302734
1782831435907457800,4.069457763671875,-0.17341424524784088,0.3051241338253021,0.30372801423072815
1782831435917387800,4.0793876953125,-0.1700003296136856,0.2481636106967926,0.37771376967430115
1782831435927317000,4.08931689453125,-0.15099841356277466,0.15195345878601074,0.4212697744369507
1782831435937246000,4.099245849609375,-0.11766854673624039,0.03795979171991348,0.46961644291877747
1782831435947175000,4.1091748046875,-0.06027023494243622,0.011166260577738285,0.5524148941040039
1782831435957103600,4.119103515625,-0.007687645964324474,0.06883347034454346,0.6679293513298035
1782831435967032800,4.12903271484375,0.006352272350341082,0.17669709026813507,0.7341923117637634
1782831435976961800,4.1389619140625,0.015504260547459126,0.2786613702774048,0.7331904172897339
1782831435986890800,4.148890869140625,0.0575752817094326,0.3746741712093353,0.6984923481941223
1782831435996819700,4.15881982421875,0.08308979123830795,0.39269503951072693,0.6377725601196289
1782831436006749000,4.1687490234375,0.08604882657527924,0.35580864548683167,0.5648935437202454
1782831436016678000,4.178677978515625,0.12594468891620636,0.3357374966144562,0.5461061596870422
1782831436026606800,4.18860693359375,0.1266602724790573,0.31429532170295715,0.5497288703918457
1782831436036535800,4.198535888671875,0.083583764731884,0.25157591700553894,0.5198653340339661
1782831436046465300,4.20846533203125,0.07191458344459534,0.19042202830314636,0.46650412678718567
1782831436056394000,4.21839404296875,0.07362905144691467,0.20100907981395721,0.41411706805229187
1782831436066323200,4.2283232421875,0.11469791829586029,0.2953563332557678,0.40629109740257263
1782831436076252200,4.238252197265625,0.17964664101600647,0.3762773871421814,0.455645352602005
1782831436086181000,4.24818115234375,0.18934746086597443,0.35820144414901733,0.5127046704292297
1782831436096111000,4.258111083984375,0.17904090881347656,0.34967052936553955,0.5525906085968018
1782831436106040300,4.268040283203125,0.15419627726078033,0.29139256477355957,0.4963001608848572
1782831436115969300,4.27796923828125,0.13306301832199097,0.1280752718448639,0.29666030406951904
1782831436125898200,4.287898193359375,0.16755922138690948,-0.08429531008005142,0.009188588708639145
1782831436135827000,4.297826904296875,0.21628877520561218,-0.29811474680900574,-0.2942497730255127
1782831436145756200,4.307756103515625,0.22004330158233643,-0.34731292724609375,-0.5502575635910034
1782831436155685000,4.31768505859375,0.10146518051624298,0.013778898864984512,-0.693655252456665
1782831436165614000,4.327614013671875,-0.11286469548940659,0.7474814057350159,-0.6879933476448059
1782831436175543000,4.33754296875,-0.37010496854782104,1.397048830986023,-0.5720599889755249
1782831436185472300,4.34747216796875,-0.553009033203125,1.7064403295516968,-0.3929605484008789
1782831436195401200,4.357401123046875,-0.5743199586868286,1.5187361240386963,-0.23243682086467743
1782831436205330200,4.367330078125,-0.4482611119747162,0.8804020285606384,-0.1904161274433136
1782831436215259100,4.377259033203125,-0.3062112331390381,0.04537729173898697,-0.25437161326408386
1782831436225188400,4.387188232421875,-0.20458608865737915,-0.5290473699569702,-0.3195711374282837
1782831436235117300,4.397117431640625,-0.1943986564874649,-0.7216691970825195,-0.3669274151325226
1782831436245046000,4.4070458984375,-0.1451813131570816,-0.7408487796783447,-0.4345719814300537
1782831436254975000,4.41697509765625,-0.08312686532735825,-0.762607991695404,-0.539699137210846
1782831436264904200,4.426904296875,-0.048201367259025574,-0.7090560793876648,-0.6558321714401245
1782831436274834200,4.436834228515625,-0.042639829218387604,-0.5411757826805115,-0.7107168436050415
1782831436284763100,4.44676318359375,-0.07166481763124466,-0.28585878014564514,-0.6776022911071777
1782831436294692400,4.4566923828125,-0.10387974232435226,0.11892170459032059,-0.5107533931732178
1782831436304621300,4.466621337890625,-0.12230934202671051,0.5022081136703491,-0.22397571802139282
1782831436314550300,4.47655029296875,-0.16458848118782043,0.6095798015594482,0.09207424521446228
1782831436324479000,4.48647900390625,-0.24554643034934998,0.46001991629600525,0.3427586853504181
1782831436334408200,4.496408203125,-0.3466828167438507,0.17746081948280334,0.4554389715194702
1782831436344337200,4.506337158203125,-0.42537468671798706,-0.19148525595664978,0.4101979732513428
1782831436354266000,4.51626611328125,-0.3641209602355957,-0.5184803605079651,0.2550739347934723
1782831436364195000,4.526195068359375,-0.2511368989944458,-0.8736307621002197,0.01268766075372696
1782831436374124000,4.5361240234375,-0.10823599994182587,-1.2891920804977417,-0.2447425276041031
1782831436384053200,4.54605322265625,0.059530097991228104,-1.5531576871871948,-0.4552297294139862
1782831436393982200,4.555982177734375,0.14746327698230743,-1.5784237384796143,-0.5800124406814575
1782831436403911200,4.5659111328125,0.14310528337955475,-1.463695764541626,-0.5892312526702881
1782831436413840100,4.575840087890625,0.0546281561255455,-1.1986278295516968,-0.4919266104698181
1782831436423769300,4.585769287109375,-0.060410816222429276,-0.8129677772521973,-0.32772061228752136
1782831436433698300,4.5956982421875,-0.14101119339466095,-0.38603606820106506,-0.13066335022449493
1782831436443627000,4.605626953125,-0.16838528215885162,-0.004773934371769428,0.08642742037773132
1782831436453557200,4.61555712890625,-0.1964743286371231,0.2555106282234192,0.29264622926712036
1782831436463486200,4.625486328125,-0.21239444613456726,0.3586292862892151,0.4885917603969574
1782831436473415200,4.635415283203125,-0.23124803602695465,0.3574318289756775,0.6232051253318787
1782831436483344100,4.64534423828125,-0.3205944299697876,0.3579578399658203,0.6059654355049133
1782831436493273300,4.6552734375,-0.3967655301094055,0.36727985739707947,0.5067539811134338
1782831436503202300,4.665202392578125,-0.4268352687358856,0.4357675611972809,0.3721621036529541
1782831436513131300,4.67513134765625,-0.40080395340919495,0.5417519211769104,0.2849580943584442
1782831436523060000,4.68506005859375,-0.3692502975463867,0.5762571692466736,0.2493380606174469
1782831436532989200,4.6949892578125,-0.3710104525089264,0.5371000170707703,0.2570840120315552
1782831436542918100,4.704918212890625,-0.3535861670970917,0.44262275099754333,0.3172980844974518
1782831436552847000,4.71484716796875,-0.2877308428287506,0.2974357008934021,0.4200972318649292
1782831436562776000,4.724776123046875,-0.19079843163490295,0.20582082867622375,0.5199375152587891
1782831436572705300,4.734705322265625,-0.0638890489935875,0.19110965728759766,0.6099108457565308
1782831436582634200,4.74463427734375,0.06364014744758606,0.21353372931480408,0.7087225914001465
1782831436592563200,4.754563232421875,0.16434472799301147,0.24718590080738068,0.8171730637550354
1782831436602492200,4.7644921875,0.13921965658664703,0.264588862657547,0.886925220489502
1782831436612422100,4.774422119140625,0.030220741406083107,0.23533162474632263,0.919728696346283
1782831436622351000,4.78435107421875,-0.03945234417915344,0.32867276668548584,0.9477936625480652
1782831436632280000,4.794280029296875,-0.020843902602791786,0.5357259511947632,0.9739279747009277
1782831436642209000,4.804208984375,0.04015526920557022,0.6279040575027466,0.976730465888977
1782831436652138200,4.81413818359375,0.12677940726280212,0.47850748896598816,0.9660832285881042
1782831436662067200,4.824067138671875,0.17364278435707092,0.24253518879413605,0.9877909421920776
1782831436671996200,4.83399609375,0.12941217422485352,0.19029822945594788,0.9983710050582886
1782831436681925000,4.843925048828125,0.04648160934448242,0.3730930685997009,0.9422518610954285
1782831436691854300,4.853854248046875,0.05464376509189606,0.6330057978630066,0.8053001761436462
1782831436701783300,4.863783203125,0.12366544455289841,0.653013288974762,0.5647775530815125
1782831436711712000,4.8737119140625,0.24611321091651917,0.40911778807640076,0.12499149143695831
1782831436721641000,4.883640869140625,0.3586970269680023,0.09613005816936493,-0.4545744061470032
1782831436731570200,4.893570068359375,0.37605011463165283,-0.07607627660036087,-0.9717966318130493
1782831436741499100,4.9034990234375,0.2593357563018799,-0.3530268967151642,-1.3621149063110352
1782831436751428000,4.913427978515625,0.09502489864826202,-0.8442553281784058,-1.5530519485473633
1782831436761357000,4.923357177734375,0.01491009071469307,-1.195284128189087,-1.4697843790054321
1782831436771286300,4.933286376953125,0.05374009162187576,-1.0696839094161987,-1.1004592180252075
1782831436781215200,4.94321533203125,0.14481806755065918,-0.5698363184928894,-0.6017866134643555
1782831436791145000,4.95314501953125,0.13863995671272278,0.05146384984254837,-0.16721200942993164
1782831436801074200,4.96307421875,0.057732582092285156,0.4769826829433441,0.003925915341824293
1782831436811003100,4.973003173828125,-0.10674817860126495,0.7634090781211853,-0.12873397767543793
1782831436820932000,4.98293212890625,-0.30270567536354065,0.96958327293396,-0.4361541271209717
1782831436830861000,4.992861083984375,-0.5505857467651367,1.0626181364059448,-0.80203777551651
1782831436840790300,5.002790283203125,-0.7943507432937622,1.0495766401290894,-1.2030198574066162
1782831436850719200,5.01271923828125,-0.9722553491592407,0.9366692900657654,-1.5563677549362183
1782831436860648200,5.022648193359375,-0.9721147418022156,0.7191771864891052,-1.701895833015442
1782831436870577200,5.0325771484375,-0.8547206521034241,0.4264470934867859,-1.5983527898788452
1782831436880506400,5.04250634765625,-0.6428941488265991,-0.05416480451822281,-1.3296427726745605
1782831436890435300,5.052435302734375,-0.33988314867019653,-0.677639901638031,-0.9793601036071777
1782831436900364300,5.0623642578125,0.00714590260758996,-1.2803844213485718,-0.598883330821991
1782831436910293000,5.07229296875,0.1991155445575714,-1.646349310874939,-0.34280648827552795
1782831436920222200,5.08222216796875,0.20266607403755188,-1.654563307762146,-0.3022526800632477
1782831436930151200,5.092151123046875,0.032372117042541504,-1.3439455032348633,-0.47746989130973816
1782831436940080000,5.102080078125,-0.3064810633659363,-0.8668631911277771,-0.7984231114387512
1782831436950009000,5.112009033203125,-0.6706480979919434,-0.3415999710559845,-1.1133408546447754
1782831436959939300,5.121939208984375,-0.9075937867164612,0.06167291849851608,-1.2680583000183105
1782831436969868300,5.131868408203125,-1.0298908948898315,0.26943492889404297,-1.215105414390564
1782831436979797200,5.14179736328125,-1.0296192169189453,0.39860621094703674,-0.9942524433135986
1782831436989726000,5.151725830078125,-0.9038863778114319,0.4958983063697815,-0.6894081234931946
1782831436999655200,5.1616552734375,-0.6657798290252686,0.5326893329620361,-0.35493797063827515
1782831437009584000,5.171584228515625,-0.3508223593235016,0.4723236560821533,-0.011435825377702713
1782831437019513000,5.18151318359375,-0.04306428134441376,0.3277033567428589,0.32682159543037415
1782831437029442000,5.191442138671875,0.2280673086643219,0.09644224494695663,0.648505449295044
1782831437039371300,5.201371337890625,0.3976443409919739,-0.12891525030136108,0.907850444316864
1782831437049298700,5.211298583984375,0.40162110328674316,-0.21793656051158905,0.9816208481788635
1782831437059227600,5.2212275390625,0.2876910865306854,-0.11273744702339172,0.8870117664337158
1782831437069156600,5.231156494140625,0.10485205799341202,0.12054115533828735,0.6449943780899048
1782831437079085600,5.24108544921875,-0.03647364675998688,0.3586850166320801,0.33642512559890747
1782831437089014800,5.251014892578125,-0.03888045251369476,0.4955570697784424,0.09458249062299728
1782831437098943700,5.26094384765625,-0.01792270690202713,0.5138503313064575,-0.04112394526600838
1782831437108872700,5.270872802734375,-0.0024443063884973526,0.39543309807777405,-0.030491186305880547
1782831437118801700,5.2808017578125,0.01622338779270649,0.2436419576406479,0.1350056231021881
1782831437128731600,5.290731689453125,0.07202634960412979,0.19356516003608704,0.3883306086063385
1782831437138660600,5.30066064453125,0.18641230463981628,0.18900874257087708,0.6885855197906494
1782831437148589600,5.310589599609375,0.31649303436279297,0.22506718337535858,0.9971964359283447
1782831437158518500,5.3205185546875,0.3906570076942444,0.30552446842193604,1.2657724618911743
1782831437168447700,5.33044775390625,0.3509258031845093,0.3799732029438019,1.4304518699645996
1782831437178376700,5.340376708984375,0.2341400533914566,0.44740578532218933,1.5179880857467651
1782831437188305700,5.3503056640625,0.08474641293287277,0.5268604159355164,1.526073932647705
1782831437198234600,5.360234619140625,-0.05910556763410568,0.614679753780365,1.433828353881836
1782831437208163800,5.370163818359375,-0.1525280922651291,0.7031771540641785,1.260865569114685
1782831437218092800,5.3800927734375,-0.18919315934181213,0.8196622133255005,1.0416946411132812
1782831437228021500,5.390021484375,-0.1452556550502777,0.8837981820106506,0.8366929888725281
1782831437237950500,5.399950439453125,-0.05845257267355919,0.7549089193344116,0.684650719165802
1782831437247879700,5.409879638671875,0.01982012577354908,0.43671390414237976,0.5838572978973389
1782831437257808600,5.41980859375,0.14934588968753815,0.028470482677221298,0.5761146545410156
1782831437267737600,5.429737548828125,0.29917508363723755,-0.321157306432724,0.6347760558128357
1782831437277666600,5.43966650390625,0.4343835115432739,-0.5466117262840271,0.7258638739585876
1782831437287596800,5.4495966796875,0.5136006474494934,-0.6801424622535706,0.7746724486351013
1782831437297525800,5.45952587890625,0.5618137717247009,-0.6771764755249023,0.7033836245536804
1782831437307454500,5.469454345703125,0.5875653028488159,-0.41551288962364197,0.47784027457237244
1782831437317383700,5.4793837890625,0.5588455200195312,-0.11500845104455948,0.11118132621049881
1782831437327312600,5.489312744140625,0.46573787927627563,-0.13424965739250183,-0.3158271312713623
1782831437337241600,5.49924169921875,0.30891019105911255,-0.4997323155403137,-0.7033125758171082
1782831437347170600,5.509170654296875,0.17481200397014618,-0.8697048425674438,-0.9362097382545471
1782831437357099800,5.519099853515625,0.11240695416927338,-0.7946476340293884,-0.9826614260673523
1782831437367028700,5.52902880859375,0.0687653198838234,-0.45320096611976624,-0.9210363626480103
1782831437376957700,5.538957763671875,0.009779494255781174,-0.2412429004907608,-0.832300066947937
1782831437386886700,5.54888671875,-0.05933541804552078,-0.12034987658262253,-0.7400946021080017
1782831437396816000,5.55881591796875,-0.14402687549591064,0.14731885492801666,-0.6344369053840637
1782831437406744800,5.568744873046875,-0.25594180822372437,0.6135625839233398,-0.5313619375228882
1782831437416673500,5.578673583984375,-0.33743056654930115,1.062227725982666,-0.48834946751594543
1782831437426602500,5.5886025390625,-0.3544556200504303,1.3787809610366821,-0.5067474246025085
1782831437436531700,5.59853173828125,-0.368382066488266,1.487810492515564,-0.5768975019454956
1782831437446460700,5.608460693359375,-0.43394914269447327,1.3701838254928589,-0.661680281162262
1782831437456390700,5.618390625,-0.5772240161895752,0.9892610311508179,-0.74737149477005
1782831437466319600,5.628319580078125,-0.7026835680007935,0.3690149784088135,-0.7796846628189087
1782831437476248800,5.638248779296875,-0.6804996728897095,-0.3614107370376587,-0.7780672907829285
1782831437486177800,5.648177734375,-0.46492549777030945,-1.0530084371566772,-0.7697041034698486
1782831437496106800,5.658106689453125,-0.17741729319095612,-1.7297395467758179,-0.8001589179039001
1782831437506035500,5.668035400390625,0.053321920335292816,-2.2997026443481445,-0.8823467493057251
1782831437515964700,5.677964599609375,0.21330146491527557,-2.5470664501190186,-0.9311896562576294
1782831437525893600,5.6878935546875,0.2887442409992218,-2.458932876586914,-0.9014664888381958
1782831437535822600,5.697822509765625,0.2832344174385071,-2.175727605819702,-0.7812303304672241
1782831437545751600,5.70775146484375,0.25606030225753784,-1.827323079109192,-0.5679160356521606
1782831437555680800,5.7176806640625,0.24552752077579498,-1.4056583642959595,-0.3163868486881256
1782831437565609700,5.727609619140625,0.24035117030143738,-0.9100210666656494,-0.07110965996980667
1782831437575538700,5.73753857421875,0.2067447304725647,-0.4860439896583557,0.10870084911584854
1782831437585467600,5.747467529296875,0.1211654469370842,-0.1350380778312683,0.2166581153869629
1782831437595396900,5.75739697265625,0.05633984133601189,0.18754024803638458,0.3268730342388153
1782831437605325800,5.767325927734375,0.00467922817915678,0.4251426160335541,0.45050153136253357
1782831437615254500,5.777254638671875,-0.027525048702955246,0.5179460644721985,0.5842172503471375
1782831437625184800,5.787184814453125,-0.040981944650411606,0.5017566680908203,0.7098299264907837
1782831437635113700,5.79711376953125,-0.0690372884273529,0.42002421617507935,0.7666844129562378
1782831437645042700,5.807042724609375,-0.10916052758693695,0.324872225522995,0.7675716280937195
1782831437654971600,5.8169716796875,-0.1356153041124344,0.24958519637584686,0.7209455370903015
1782831437664900900,5.82690087890625,-0.14511345326900482,0.21294833719730377,0.6407710313796997
1782831437674829800,5.836829833984375,-0.11610710620880127,0.18416409194469452,0.5561501383781433
1782831437684758800,5.8467587890625,-0.07186724245548248,0.1846921145915985,0.4962042272090912
1782831437694687500,5.8566875,-0.02088528871536255,0.22060057520866394,0.4781818389892578
1782831437704616700,5.86661669921875,0.039526645094156265,0.28908082842826843,0.47182992100715637
1782831437714545700,5.876545654296875,0.10477276146411896,0.3825511336326599,0.476002037525177
1782831437724474600,5.886474609375,0.14880579710006714,0.45487987995147705,0.5016117691993713
1782831437734403600,5.896403564453125,0.15588288009166718,0.4718545973300934,0.5793134570121765
1782831437744332500,5.90633251953125,0.13053369522094727,0.44521740078926086,0.706189751625061
1782831437754261800,5.91626171875,0.07068793475627899,0.41037285327911377,0.8162254095077515
1782831437764190700,5.926190673828125,-0.028254706412553787,0.334938645362854,0.8226707577705383
1782831437774119700,5.93611962890625,-0.11426256597042084,0.24543674290180206,0.7315980792045593
1782831437784049700,5.946049560546875,-0.17490071058273315,0.17105181515216827,0.6039322018623352
1782831437793978600,5.955978515625,-0.21083767712116241,0.11814546585083008,0.4927779734134674
1782831437803907600,5.965907470703125,-0.2414253205060959,0.07846095412969589,0.4288567900657654
1782831437813836500,5.97583642578125,-0.2518859803676605,0.010982314124703407,0.399072527885437
1782831437823765800,5.985765869140625,-0.25409018993377686,-0.09791240096092224,0.3154524862766266
1782831437833694700,5.99569482421875,-0.23558256030082703,-0.22809384763240814,0.1790437549352646
1782831437843623700,6.005623779296875,-0.1522134393453598,-0.3198038637638092,0.060503024607896805
1782831437853552600,6.015552734375,0.03083893656730652,-0.4769311547279358,0.04166009649634361
1782831437863481900,6.02548193359375,0.2404520958662033,-0.6412822604179382,0.13207970559597015
1782831437873410800,6.035410888671875,0.34960946440696716,-0.6912133097648621,0.32759007811546326
1782831437883339500,6.045339599609375,0.3138499855995178,-0.38961541652679443,0.5399504899978638
1782831437893268500,6.0552685546875,0.2167215645313263,0.31580933928489685,0.508996307849884
1782831437903197700,6.06519775390625,0.15100687742233276,0.7511151432991028,0.1268204152584076
1782831437913126700,6.075126708984375,0.12476994097232819,0.20388561487197876,-0.6136350631713867
1782831437923055600,6.0850556640625,0.20536375045776367,-0.16901902854442596,-1.293251872062683
1782831437932984600,6.094984619140625,0.15382759273052216,0.1163376197218895,-1.5835853815078735
1782831437942913800,6.104913818359375,-0.0850539430975914,0.3934452533721924,-1.467604637145996
1782831437952843800,6.11484375,-0.3117012083530426,0.343563437461853,-1.0740107297897339
1782831437962772500,6.1247724609375,-0.4727987051010132,0.11951016634702682,-0.6683271527290344
1782831437972701400,6.134701416015625,-0.5101058483123779,-0.020191267132759094,-0.48202648758888245
1782831437982630700,6.144630615234375,-0.4190080463886261,0.1567547768354416,-0.5042237639427185
1782831437992559600,6.1545595703125,-0.3096567988395691,0.5224736332893372,-0.589288592338562
1782831438002488600,6.164488525390625,-0.18847429752349854,0.8063857555389404,-0.5850486755371094
1782831438012417500,6.17441748046875,-0.02206721156835556,0.8036227822303772,-0.41992050409317017
1782831438022346800,6.1843466796875,0.14754518866539001,0.3120341897010803,-0.1723286509513855
1782831438032275700,6.194275634765625,0.2919721305370331,-0.6575024127960205,0.06483490020036697
1782831438042204700,6.20420458984375,0.3734818994998932,-1.7598628997802734,0.13295866549015045
1782831438052134400,6.214134521484375,0.3610002100467682,-2.4691715240478516,-0.06331949681043625
1782831438062063000,6.22406298828125,0.2910926043987274,-2.553175449371338,-0.4584209620952606
1782831438071992000,6.233991943359375,0.1434842348098755,-2.200481653213501,-0.9244235754013062
1782831438081921000,6.243921142578125,-0.025012170895934105,-1.5773868560791016,-1.2685117721557617
1782831438091850200,6.253850341796875,-0.19638073444366455,-0.8137132525444031,-1.3972105979919434
1782831438101779200,6.263779296875,-0.35456913709640503,-0.12991294264793396,-1.3189654350280762
1782831438111709200,6.273709228515625,-0.4597557485103607,0.32897183299064636,-1.0845556259155273
1782831438121638400,6.283638427734375,-0.4665822386741638,0.5581762194633484,-0.7479357719421387
1782831438131567400,6.2935673828125,-0.41254109144210815,0.5877386331558228,-0.35347098112106323
1782831438141496000,6.30349609375,-0.3516615033149719,0.4870167076587677,0.048287246376276016
1782831438151425000,6.313425048828125,-0.31392157077789307,0.31924182176589966,0.40569013357162476
1782831438161354200,6.323354248046875,-0.2885406017303467,0.14400994777679443,0.6682427525520325
1782831438171283200,6.333283203125,-0.29346877336502075,-0.023337233811616898,0.7661738395690918
1782831438181212200,6.343212158203125,-0.29992547631263733,-0.1595923900604248,0.6926562786102295
1782831438191141000,6.35314111328125,-0.2889154553413391,-0.19895444810390472,0.5056536197662354
1782831438201070300,6.3630703125,-0.29129260778427124,-0.08802711963653564,0.24800078570842743
1782831438210999300,6.372999267578125,-0.2865857183933258,0.09527772665023804,0.006753015797585249
1782831438220928300,6.38292822265625,-0.25246959924697876,0.21101608872413635,-0.13452601432800293
1782831438230857200,6.392857177734375,-0.21086837351322174,0.22135713696479797,-0.17104221880435944
1782831438240786400,6.402786376953125,-0.17846053838729858,0.12058556824922562,-0.10410846024751663
1782831438250715100,6.412715087890625,-0.15286225080490112,0.013663114979863167,0.05425241217017174
1782831438260644000,6.42264404296875,-0.14617374539375305,-0.01661287248134613,0.2653970718383789
1782831438270574000,6.432573974609375,-0.1259547621011734,0.017299288883805275,0.520775318145752
1782831438280503300,6.44250341796875,-0.09703797847032547,0.08664103597402573,0.7868970632553101
1782831438290432300,6.452432373046875,-0.11055005341768265,0.10994555801153183,1.0209110975265503
1782831438300361200,6.462361328125,-0.12193296104669571,0.07237610220909119,1.1848444938659668
1782831438310290200,6.472290283203125,-0.07213850319385529,0.018923532217741013,1.2640681266784668
1782831438320219400,6.482219482421875,0.006153049413114786,-0.004297850653529167,1.2566393613815308
1782831438330148000,6.492148193359375,0.07285325229167938,0.007683178409934044,1.2019212245941162
1782831438340077000,6.5020771484375,0.12633417546749115,0.0831085667014122,1.1089890003204346
1782831438350006000,6.512006103515625,0.12950414419174194,0.17269010841846466,0.9934341311454773
1782831438359935200,6.521935302734375,0.11067652702331543,0.17654836177825928,0.8922321796417236
1782831438369864200,6.5318642578125,0.06913094967603683,0.12934036552906036,0.7961514592170715
1782831438379793200,6.541793212890625,0.07333800941705704,-0.026420261710882187,0.7272108197212219
1782831438389722000,6.55172216796875,0.15073160827159882,-0.24273978173732758,0.6560019254684448
1782831438399651300,6.5616513671875,0.3125606179237366,-0.34433478116989136,0.6082763671875
1782831438409580300,6.571580322265625,0.5219942927360535,-0.18576429784297943,0.6861695647239685
1782831438419509200,6.58150927734375,0.6531512141227722,0.23780187964439392,0.8398674726486206
1782831438429439200,6.591439208984375,0.5648009181022644,0.8433318734169006,0.9257662296295166
1782831438439368200,6.6013681640625,0.387941837310791,1.2687207460403442,0.7680367827415466
1782831438449297200,6.611297119140625,0.2051137089729309,1.1337007284164429,0.24217136204242706
1782831438459226000,6.62122607421875,0.01708901673555374,-0.24765974283218384,-0.7662216424942017
1782831438469155300,6.6311552734375,-0.03587353602051735,-1.8729506731033325,-1.8436063528060913
1782831438479084300,6.641084228515625,0.00891046691685915,-2.519512176513672,-2.4863147735595703
1782831438489013200,6.65101318359375,0.07470172643661499,-2.50495982170105,-2.557526111602783
1782831438498942200,6.660942138671875,0.055682435631752014,-1.9392768144607544,-2.1502439975738525
1782831438508871400,6.670871337890625,-0.040986318141222,-0.9434401988983154,-1.4523009061813354
1782831438518800400,6.68080029296875,-0.0956362783908844,0.45766204595565796,-0.6597824096679688
1782831438528729000,6.69072900390625,0.03692682832479477,1.8749079704284668,-0.029669972136616707
1782831438538658000,6.700657958984375,0.056596219539642334,2.69807767868042,0.17241476476192474
1782831438548587300,6.710587158203125,-0.04223262146115303,2.7036943435668945,0.028781438246369362
1782831438558516200,6.72051611328125,-0.2589246332645416,2.2687931060791016,-0.30649176239967346
1782831438568445200,6.730445068359375,-0.608607828617096,1.63054358959198,-0.7709686160087585
1782831438578374100,6.7403740234375,-0.9689662456512451,0.9988445043563843,-1.2555663585662842
1782831438588304400,6.750304443359375,-1.0044249296188354,0.5262567400932312,-1.583957552909851
1782831438598233300,6.7602333984375,-0.6757227778434753,0.11057393252849579,-1.7120684385299683
1782831438608162000,6.770162109375,-0.12718509137630463,-0.52884840965271,-1.6528149843215942
1782831438618091000,6.780091064453125,0.34687167406082153,-1.1196788549423218,-1.3468626737594604
1782831438628020200,6.790020263671875,0.6047844290733337,-1.3137791156768799,-0.8125316500663757
1782831438637949200,6.79994921875,0.5837436318397522,-0.9481254816055298,-0.1292864978313446
1782831438647878100,6.809878173828125,0.29984989762306213,-0.19408519566059113,0.5466325879096985
1782831438657807000,6.81980712890625,-0.11080726236104965,0.44425320625305176,1.0708240270614624
1782831438667736300,6.829736328125,-0.4336332380771637,0.6918949484825134,1.3434717655181885
1782831438677665300,6.839665283203125,-0.5823259949684143,0.64023756980896,1.3524118661880493
1782831438687594200,6.84959423828125,-0.6014333367347717,0.3476938009262085,1.1474344730377197
1782831438697523200,6.859523193359375,-0.5194194316864014,-0.01633499749004841,0.8575438261032104
1782831438707452400,6.869452392578125,-0.3544510304927826,-0.2807120680809021,0.5723863840103149
1782831438717381000,6.879381103515625,-0.13654015958309174,-0.455713152885437,0.3345010280609131
1782831438727310000,6.88931005859375,0.07940998673439026,-0.6740276217460632,0.11029963195323944
1782831438737239000,6.899239013671875,0.2690111994743347,-0.8575326204299927,-0.08275322616100311
1782831438747169300,6.909169189453125,0.4421691298484802,-0.9010353088378906,-0.23518723249435425
1782831438757098200,6.91909814453125,0.5823060870170593,-0.8417195081710815,-0.3055330514907837
1782831438767027200,6.929027099609375,0.6069970726966858,-0.7208173274993896,-0.3040693700313568
1782831438776956400,6.938956298828125,0.4686053395271301,-0.5963577628135681,-0.22283558547496796
1782831438786885400,6.948885498046875,0.21787351369857788,-0.45180752873420715,-0.08281563967466354
1782831438796814000,6.95881396484375,-0.08389323949813843,-0.24730035662651062,0.07579649239778519
1782831438806743000,6.968742919921875,-0.2788635492324829,0.02066345140337944,0.20058289170265198
1782831438816672300,6.97867236328125,-0.33205851912498474,0.11865372955799103,0.2278054654598236
1782831438826601200,6.988601318359375,-0.29056885838508606,0.05741248279809952,0.1683243066072464
1782831438836530200,6.9985302734375,-0.1519380658864975,0.04005444794893265,0.07277164608240128
1782831438846459100,7.008459228515625,0.061042919754981995,0.19850507378578186,-0.008739194832742214
1782831438856388000,7.01838818359375,0.22985881567001343,0.3992793560028076,-0.08351045846939087
1782831438866317300,7.0283173828125,0.3550366759300232,0.5140685439109802,-0.13310836255550385
1782831438876246300,7.038246337890625,0.430852472782135,0.5540173053741455,-0.11029204726219177
1782831438886175200,7.04817529296875,0.45140382647514343,0.505039632320404,-0.022695083171129227
1782831438896104200,7.058104248046875,0.42669203877449036,0.44328099489212036,0.11157626658678055
1782831438906034200,7.0680341796875,0.3514454662799835,0.36295631527900696,0.2808617055416107
1782831438915963100,7.077963134765625,0.19552460312843323,0.28520914912223816,0.4324212074279785
1782831438925892000,7.08789208984375,-0.03705111891031265,0.2990533411502838,0.48001164197921753
1782831438935821300,7.0978212890625,-0.2581404447555542,0.43324559926986694,0.32960471510887146
1782831438945750300,7.107750244140625,-0.3395223915576935,0.6447077393531799,-0.03529602661728859
1782831438955679200,7.11767919921875,-0.16159391403198242,0.9297227263450623,-0.39450719952583313
1782831438965608200,7.127608154296875,0.15754759311676025,1.310736894607544,-0.549596905708313
1782831438975537400,7.137537353515625,0.4562194347381592,1.6173255443572998,-0.4776811897754669
1782831438985466400,7.14746630859375,0.6787177920341492,1.656089425086975,-0.2522169053554535
1782831438995395000,7.15739501953125,0.752882719039917,1.2421292066574097,0.016186855733394623
1782831439005324000,7.167323974609375,0.608893871307373,0.501114547252655,0.26424434781074524
1782831439015253200,7.177253173828125,0.2878809869289398,-0.15767914056777954,0.4306148588657379
1782831439025182200,7.18718212890625,0.029280327260494232,-0.5160572528839111,0.4880819022655487
1782831439035111200,7.197111083984375,-0.1092817485332489,-0.6349003911018372,0.38971760869026184
1782831439045044000,7.2070439453125,-0.12761521339416504,-0.552064061164856,0.19662407040596008
1782831439054974000,7.216973876953125,-0.0774332582950592,-0.30483391880989075,0.009326187893748283
1782831439064903000,7.22690283203125,0.005738064646720886,-0.10456474125385284,-0.07887957245111465
1782831439074832000,7.236831787109375,0.10646301507949829,-0.029244884848594666,-0.04062766209244728
1782831439084760800,7.2467607421875,0.17963309586048126,-0.16335928440093994,0.10133480280637741
1782831439094689800,7.256689697265625,0.21961039304733276,-0.4126378893852234,0.3278794288635254
1782831439104619000,7.266618896484375,0.2339477837085724,-0.6935041546821594,0.5949177742004395
1782831439114548000,7.2765478515625,0.18128837645053864,-0.9418634176254272,0.8478705286979675
1782831439124477000,7.286476806640625,0.020311478525400162,-1.0920052528381348,1.040325403213501
1782831439134406000,7.296406005859375,-0.26566454768180847,-1.0671840906143188,1.095025897026062
1782831439144335000,7.306335205078125,-0.6108885407447815,-0.8779862523078918,0.9357139468193054
1782831439154264000,7.31626416015625,-0.9410577416419983,-0.5764249563217163,0.5551143288612366
1782831439164193000,7.326193115234375,-1.1926286220550537,-0.21716031432151794,0.08803848177194595
1782831439174122000,7.3361220703125,-1.2903058528900146,0.12990903854370117,-0.33666566014289856
1782831439184051000,7.346051025390625,-1.236324429512024,0.3339734971523285,-0.6319471001625061
1782831439193980000,7.35597998046875,-1.0894381999969482,0.20068901777267456,-0.7601174116134644
1782831439203908900,7.365908935546875,-0.8989188075065613,-0.11321990191936493,-0.7205281853675842
1782831439213838800,7.3758388671875,-0.7026254534721375,-0.3331488072872162,-0.5550202131271362
1782831439223768000,7.38576806640625,-0.5405758023262024,-0.3239574134349823,-0.30186358094215393
1782831439233697000,7.395697021484375,-0.43347543478012085,-0.14652717113494873,0.0030628410167992115
1782831439243626000,7.4056259765625,-0.37758713960647583,0.07572615146636963,0.31589558720588684
1782831439253555000,7.415554931640625,-0.33338662981987,0.2656383812427521,0.6023111343383789
1782831439263484000,7.42548388671875,-0.25147631764411926,0.3940853178501129,0.8675816655158997
1782831439273412900,7.435412841796875,-0.13614459335803986,0.43475836515426636,1.091762900352478
1782831439283341800,7.445341796875,-0.02898431196808815,0.4280325472354889,1.2695475816726685
1782831439293270800,7.455270751953125,0.027912572026252747,0.42834195494651794,1.3808293342590332
1782831439303200000,7.465199951171875,0.04808894544839859,0.45890146493911743,1.4340296983718872
1782831439313129000,7.47512890625,0.0421159528195858,0.5010130405426025,1.451789379119873
1782831439323058000,7.485057861328125,0.023321226239204407,0.5314297676086426,1.4469420909881592
1782831439332987000,7.49498681640625,0.01676970347762108,0.5004472732543945,1.446550726890564
1782831439342916000,7.504916015625,0.03186370059847832,0.3213523328304291,1.45956289768219
1782831439352845000,7.514844970703125,0.05951766297221184,0.12241382151842117,1.460343360900879
1782831439362774000,7.52477392578125,0.08645980060100555,0.09422080218791962,1.4083327054977417
1782831439372704000,7.5347041015625,0.12553949654102325,0.19443055987358093,1.3425277471542358
1782831439382633000,7.544633056640625,0.1613696664571762,0.4170261025428772,1.2837018966674805
1782831439392562000,7.55456201171875,0.2191213220357895,0.6213794946670532,1.202398657798767
1782831439402491000,7.564490966796875,0.26874586939811707,0.7577046155929565,1.1069639921188354
1782831439412420000,7.574420166015625,0.295958936214447,0.7995261549949646,1.0007914304733276
1782831439422349000,7.58434912109375,0.30766913294792175,0.7467958331108093,0.8706442713737488
1782831439432278000,7.594278076171875,0.2909528613090515,0.5872030854225159,0.7170287370681763
1782831439442207000,7.60420703125,0.2921305000782013,0.2955361008644104,0.482997864484787
1782831439452135700,7.6141357421875,0.36452752351760864,-0.15235261619091034,0.19310003519058228
1782831439462065000,7.62406494140625,0.5295952558517456,-0.49515286087989807,-0.02237153984606266
1782831439471993900,7.633993896484375,0.6953707933425903,-0.495613694190979,-0.18840013444423676
1782831439481922800,7.6439228515625,0.7567393183708191,-0.2372300773859024,-0.30724796652793884
1782831439491851800,7.653851806640625,0.6869606375694275,0.07938675582408905,-0.4937380850315094
1782831439501781000,7.663781005859375,0.564532995223999,0.22511306405067444,-0.8149967789649963
1782831439511710000,7.6737099609375,0.4057517647743225,-0.20152324438095093,-1.2502424716949463
1782831439521639000,7.683638916015625,0.2687545120716095,-1.5665898323059082,-1.7911661863327026
1782831439531569000,7.69356884765625,0.2938630282878876,-2.917128086090088,-2.118882894515991
1782831439541497900,7.703497802734375,0.2853845953941345,-3.2286481857299805,-2.0537469387054443
1782831439551426800,7.7134267578125,0.1253514289855957,-2.6503171920776367,-1.7970073223114014
1782831439561355800,7.723355712890625,-0.07421334832906723,-1.3957515954971313,-1.5653144121170044
1782831439571285000,7.733284912109375,-0.12933261692523956,0.18038758635520935,-1.4081294536590576
1782831439581214000,7.7432138671875,-0.0010444195941090584,1.5345724821090698,-1.3450615406036377
1782831439591143000,7.753142822265625,0.13623127341270447,2.2335329055786133,-1.3331820964813232
1782831439601071900,7.76307177734375,0.1927105188369751,2.390104293823242,-1.3570029735565186
1782831439611001000,7.7730009765625,0.12495774030685425,2.1212611198425293,-1.4995222091674805
1782831439620930000,7.782929931640625,-0.014870734885334969,1.628193736076355,-1.7173378467559814
1782831439630859000,7.79285888671875,-0.13407371938228607,0.9938812851905823,-1.913082242012024
1782831439640787700,7.80278759765625,-0.21336482465267181,0.15763221681118011,-2.0165374279022217
1782831439650717000,7.812717041015625,-0.2363966703414917,-0.7106835246086121,-1.9365822076797485
1782831439660646000,7.82264599609375,-0.19655604660511017,-1.4844481945037842,-1.6751985549926758
1782831439670574800,7.832574951171875,-0.0989106297492981,-1.8528716564178467,-1.2783899307250977
1782831439680503800,7.84250390625,0.010023044422268867,-1.7829645872116089,-0.8583168387413025
1782831439690434000,7.85243408203125,0.08597641438245773,-1.4029808044433594,-0.5036985874176025
1782831439700363000,7.862363037109375,0.11994875967502594,-0.8734332919120789,-0.262069433927536
1782831439710292000,7.8722919921875,0.08722744882106781,-0.37362906336784363,-0.18043704330921173
1782831439720221000,7.882220947265625,0.016490695998072624,-0.04667385295033455,-0.24251452088356018
1782831439730150000,7.89214990234375,-0.054471828043460846,0.08417211472988129,-0.3729263246059418
1782831439740078800,7.902078857421875,-0.09155102074146271,0.07474798709154129,-0.5046036839485168
1782831439750007800,7.9120078125,-0.10100595653057098,-0.0114385224878788,-0.5418437719345093
1782831439759936800,7.921936767578125,-0.1737520694732666,-0.1489385962486267,-0.49321016669273376
1782831439769866000,7.931865966796875,-0.32138949632644653,-0.22821088135242462,-0.3802754580974579
1782831439779795000,7.941794921875,-0.49145975708961487,-0.13063772022724152,-0.20667250454425812
1782831439789724000,7.951723876953125,-0.6466907858848572,0.12115460634231567,-0.014577938243746758
1782831439799652900,7.96165283203125,-0.7438106536865234,0.3906441330909729,0.1690044105052948
1782831439809582000,7.97158203125,-0.770868718624115,0.5721942782402039,0.33568936586380005
1782831439819511000,7.981510986328125,-0.7063818573951721,0.6581313014030457,0.49080997705459595
1782831439829440000,7.99143994140625,-0.5766918659210205,0.679379403591156,0.6020416021347046
1782831439839370000,8.001369873046874,-0.4147605001926422,0.6221861839294434,0.6392225027084351
1782831439849299000,8.011298828125,-0.2204659879207611,0.5112882852554321,0.6141275763511658
1782831439859228000,8.021227783203125,-0.04337695240974426,0.354510098695755,0.5368357300758362
1782831439869156900,8.031156982421875,0.06464770436286926,0.1744643896818161,0.49316996335983276
1782831439879086000,8.041086181640624,0.09600349515676498,0.09916510432958603,0.5130975842475891
1782831439889015000,8.05101513671875,0.06531038135290146,0.07369202375411987,0.5726171135902405
1782831439898944000,8.060944091796875,0.012699898332357407,0.01349978893995285,0.6320970058441162
1782831439908873000,8.070873046875,-0.08177696168422699,-0.07033037394285202,0.6694223880767822
1782831439918802000,8.080802001953124,-0.20198699831962585,-0.09465035796165466,0.6807887554168701
1782831439928731000,8.09073095703125,-0.3140673339366913,-0.018975013867020607,0.6895166635513306
1782831439938659800,8.100659912109375,-0.3932415246963501,0.102623850107193,0.6974371671676636
1782831439948588800,8.1105888671875,-0.4326881468296051,0.15899008512496948,0.7098057270050049
1782831439958518000,8.12051806640625,-0.43849197030067444,0.1353028565645218,0.7281213402748108
1782831439968447000,8.130447021484375,-0.38717520236968994,0.10540320724248886,0.7571893334388733
1782831439978376000,8.1403759765625,-0.30257484316825867,0.09402618557214737,0.7943055629730225
1782831439988305000,8.150304931640624,-0.21138796210289001,0.024855006486177444,0.79377281665802
1782831439998235000,8.16023486328125,-0.125520721077919,-0.12433447688817978,0.7513510584831238
1782831440008163800,8.170163818359375,-0.06978699564933777,-0.24785590171813965,0.6875887513160706
1782831440018092800,8.1800927734375,-0.047986362129449844,-0.3291693925857544,0.645862340927124
1782831440028021800,8.190021728515624,-0.05134853720664978,-0.32526326179504395,0.6817768812179565
1782831440037951000,8.199950927734376,-0.061605699360370636,-0.19816657900810242,0.7830150723457336
1782831440047876900,8.209876953125,-0.06005893647670746,0.0035218065604567528,0.8769634366035461
1782831440057806000,8.21980615234375,-0.07496118545532227,0.1898815631866455,0.8533206582069397
1782831440067735000,8.229735107421876,-0.06790589541196823,0.41738471388816833,0.6383835077285767
1782831440077664000,8.2396640625,0.013010790571570396,0.5625858306884766,0.30839845538139343
1782831440087593000,8.249593017578125,0.16236360371112823,0.21379315853118896,-0.05695464462041855
1782831440097522000,8.25952197265625,0.30524352192878723,-0.619770348072052,-0.4737987518310547
1782831440107451000,8.269450927734376,0.3880184590816498,-1.259303331375122,-0.8434009552001953
1782831440117379800,8.2793798828125,0.3986615240573883,-1.562840223312378,-1.0696934461593628
1782831440127308800,8.289308837890625,0.33239543437957764,-1.8686301708221436,-1.1557790040969849
1782831440137238000,8.299238037109374,0.2341271936893463,-2.021456718444824,-1.0612062215805054
1782831440147168000,8.30916796875,0.08882860839366913,-1.6926076412200928,-0.7872185707092285
1782831440157097000,8.319096923828125,-0.1404663771390915,-0.9825099110603333,-0.5336249470710754
1782831440167026000,8.32902587890625,-0.30843937397003174,-0.04029327630996704,-0.5051199793815613
1782831440176955000,8.338954833984374,-0.31137311458587646,0.8940083384513855,-0.6304115653038025
1782831440186883800,8.3488837890625,-0.23757900297641754,1.5242353677749634,-0.7427516579627991
1782831440196812800,8.358812744140625,-0.19669735431671143,1.7745118141174316,-0.743425190448761
1782831440206741800,8.36874169921875,-0.17389975488185883,1.5904490947723389,-0.6235649585723877
1782831440216671000,8.3786708984375,-0.12674716114997864,1.1028410196304321,-0.45075586438179016
1782831440226600000,8.388599853515625,-0.1119038462638855,0.4031555652618408,-0.28300973773002625
1782831440236529000,8.39852880859375,-0.11495423316955566,-0.37488508224487305,-0.2007652074098587
1782831440246457900,8.408457763671874,-0.05627797544002533,-1.0470315217971802,-0.2135450839996338
1782831440256387000,8.418386962890626,0.0862373560667038,-1.41555655002594,-0.2680847644805908
1782831440266316000,8.42831591796875,0.2298583835363388,-1.4588392972946167,-0.3488442003726959
1782831440276245000,8.438244873046875,0.31227707862854004,-1.2741189002990723,-0.40243712067604065
1782831440286173700,8.448173583984374,0.30444228649139404,-1.000667929649353,-0.44072261452674866
1782831440296103000,8.45810302734375,0.2641441226005554,-0.7104283571243286,-0.48167669773101807
1782831440306033000,8.468032958984375,0.22680503129959106,-0.37174445390701294,-0.4864332973957062
1782831440315961900,8.4779619140625,0.1835068166255951,-0.08700994402170181,-0.4699946641921997
1782831440325891000,8.48789111328125,0.09890204668045044,0.09210482984781265,-0.4063645303249359
1782831440335820000,8.497820068359376,-0.02432640828192234,0.1636756956577301,-0.30383923649787903
1782831440345749000,8.5077490234375,-0.13606463372707367,0.09964847564697266,-0.13886229693889618
1782831440355678000,8.517677978515625,-0.18460260331630707,-0.03390372171998024,0.07182490080595016
1782831440365607000,8.52760693359375,-0.18538455665111542,-0.13745363056659698,0.29944100975990295
1782831440375535900,8.537535888671876,-0.17468690872192383,-0.08761443942785263,0.4950070083141327
1782831440385464800,8.54746484375,-0.17453943192958832,0.15988090634346008,0.5893352627754211
1782831440395393800,8.557393798828125,-0.15939563512802124,0.484758585691452,0.6024489402770996
1782831440405323000,8.567322998046874,-0.11855953186750412,0.8042390942573547,0.5237962007522583
1782831440415252000,8.577251953125,-0.056435707956552505,1.0392506122589111,0.44434666633605957
1782831440425181000,8.587180908203125,0.012340793386101723,1.1434704065322876,0.42954033613204956
1782831440435110000,8.59710986328125,0.06513077020645142,1.106541395187378,0.4769909381866455
1782831440445039000,8.6070390625,0.07238417863845825,0.9501891732215881,0.5530557036399841
1782831440454968000,8.616968017578126,0.06218826025724411,0.7042776942253113,0.6248827576637268
1782831440464897800,8.626897705078125,0.05574600398540497,0.3511494994163513,0.6878618597984314
1782831440474826800,8.63682666015625,0.02716922014951706,-0.015756336972117424,0.7359998226165771
1782831440484756000,8.646755859375,-0.01496064756065607,-0.28314676880836487,0.761560320854187
1782831440494685000,8.656684814453126,-0.12237872183322906,-0.48345938324928284,0.687974214553833
1782831440504614000,8.66661376953125,-0.25279709696769714,-0.5294337272644043,0.5067088007926941
1782831440514542800,8.67654296875,-0.33170175552368164,-0.4157828092575073,0.26326391100883484
1782831440524472000,8.68647216796875,-0.3663322329521179,-0.16579633951187134,0.007250889670103788
1782831440534401000,8.696401123046876,-0.40751534700393677,0.19315169751644135,-0.19071519374847412
1782831440544330000,8.706330078125,-0.47140535712242126,0.5675786733627319,-0.31078505516052246
1782831440554259000,8.716259033203125,-0.556711733341217,0.9246031045913696,-0.39090704917907715
1782831440564188000,8.72618798828125,-0.6498026251792908,1.2245430946350098,-0.45110470056533813
1782831440574116900,8.736116943359375,-0.6759055852890015,1.3328540325164795,-0.44935205578804016
1782831440584045800,8.7460458984375,-0.6120313405990601,1.2102084159851074,-0.3196128308773041
1782831440593974800,8.755974853515625,-0.4587472081184387,1.01498544216156,-0.06428971886634827
1782831440603904000,8.765904052734374,-0.26801180839538574,1.043441891670227,0.23639826476573944
1782831440613834000,8.775833984375,-0.08153168857097626,1.3294414281845093,0.4631001055240631
1782831440623763000,8.785762939453125,0.08936836570501328,1.5140269994735718,0.5201923847198486
1782831440633692000,8.79569189453125,0.24602961540222168,1.3141943216323853,0.33744552731513977
1782831440643620900,8.805620849609374,0.3255269527435303,0.7309297919273376,-0.06469190120697021
1782831440653549800,8.8155498046875,0.26825833320617676,0.08896947652101517,-0.517122745513916
1782831440663478800,8.825478759765625,0.170185387134552,-0.3753185272216797,-0.7460632920265198
1782831440673408000,8.835407958984375,0.10022841393947601,-0.8354565501213074,-0.686122477054596
1782831440683337000,8.8453369140625,0.1306813359260559,-1.3099309206008911,-0.461881548166275
1782831440693266000,8.855265869140625,0.21599677205085754,-1.4752767086029053,-0.17859578132629395
1782831440703195000,8.86519482421875,0.2564915120601654,-1.2940597534179688,0.03537462279200554
1782831440713124000,8.8751240234375,0.2817707657814026,-0.9117738604545593,0.11000358313322067
1782831440723053000,8.885052978515626,0.33964404463768005,-0.3146956264972687,0.10065186023712158
1782831440732982000,8.89498193359375,0.42288461327552795,0.2541012465953827,0.02698616497218609
1782831440742911000,8.904910888671875,0.45442473888397217,0.542538046836853,-0.039424922317266464
1782831440752839700,8.914839599609374,0.3693455457687378,0.5914704203605652,-0.09649673104286194
1782831440762769000,8.924768798828126,0.1456252932548523,0.5504159927368164,-0.20938773453235626
1782831440772699000,8.934698974609375,-0.1403321474790573,0.4243967831134796,-0.42445558309555054
1782831440782627800,8.9446279296875,-0.47666218876838684,0.2661602199077606,-0.7359262704849243
1782831440792557000,8.95455712890625,-0.7545976042747498,0.07583741843700409,-1.089200735092163
1782831440802486000,8.964486083984376,-0.8784326314926147,-0.051104836165905,-1.3457136154174805
1782831440812415000,8.9744150390625,-0.867135226726532,-0.26438167691230774,-1.4363048076629639
1782831440822344000,8.984343994140625,-0.7481108903884888,-0.5067608952522278,-1.346248745918274
1782831440832273000,8.99427294921875,-0.5591950416564941,-0.6639566421508789,-1.114993929862976
1782831440842201900,9.004201904296876,-0.3422393798828125,-0.747711181640625,-0.7988283634185791
1782831440852130800,9.014130859375,-0.09087157249450684,-0.7832283973693848,-0.44115281105041504
1782831440862059800,9.024059814453125,0.16079269349575043,-0.7637858390808105,-0.07820592075586319
1782831440871989000,9.033989013671874,0.3674526810646057,-0.7053547501564026,0.27529728412628174
1782831440881918000,9.04391796875,0.47989922761917114,-0.6080622673034668,0.5923048853874207
1782831440891847000,9.053846923828125,0.44207727909088135,-0.4491775333881378,0.8017681241035461
1782831440901776000,9.06377587890625,0.30973801016807556,-0.26843032240867615,0.8926612734794617
1782831440911705000,9.073705078125,0.13021695613861084,-0.11493955552577972,0.858184814453125
1782831440921634800,9.083634765625,-0.07280254364013672,-0.043114691972732544,0.7148047089576721
1782831440931563800,9.093563720703125,-0.24743400514125824,-0.03850902244448662,0.5191108584403992
1782831440941493000,9.103492919921875,-0.3257255256175995,-0.0042990874499082565,0.3764188885688782
1782831440951422000,9.113421875,-0.3177666664123535,0.1243041604757309,0.3057290017604828
1782831440961351000,9.123350830078126,-0.27402371168136597,0.290934681892395,0.30381155014038086
1782831440971280000,9.13327978515625,-0.23010720312595367,0.3994219899177551,0.36332258582115173
1782831440981208800,9.143208740234375,-0.18032324314117432,0.4021631181240082,0.5016610622406006
1782831440991138000,9.153137939453124,-0.11812059581279755,0.3486517071723938,0.6769205331802368
1782831441001067000,9.16306689453125,-0.04588095098733902,0.29603850841522217,0.8715588450431824
1782831441010996000,9.172995849609375,0.024310655891895294,0.22743600606918335,1.0145509243011475
1782831441020925000,9.182925048828125,0.003686044365167618,0.1123971939086914,1.044525146484375
1782831441030854000,9.19285400390625,-0.021284285932779312,-0.0366215817630291,1.020975947380066
1782831441040782800,9.202782958984375,-0.01326513197273016,-0.16417299211025238,0.980674684047699
1782831441050714400,9.21271435546875,-0.012017973698675632,-0.18784210085868835,0.9202890992164612
1782831441060643000,9.22264306640625,-0.040320608764886856,-0.09127452969551086,0.887989342212677
1782831441070573300,9.2325732421875,-0.09974851459264755,0.1157713308930397,0.9059808850288391
1782831441080502300,9.242502197265624,-0.18722720444202423,0.42052653431892395,0.9454463720321655
1782831441090431200,9.25243115234375,-0.2888616919517517,0.7609301805496216,0.9546465277671814
1782831441100360400,9.2623603515625,-0.369076132774353,1.0542231798171997,0.9087038636207581
1782831441110289400,9.272289306640625,-0.38167956471443176,1.2318496704101562,0.815977931022644
1782831441120218400,9.28221826171875,-0.29608988761901855,1.2315247058868408,0.6472750902175903
1782831441130147300,9.292147216796875,-0.11633317917585373,0.9360001683235168,0.4958389699459076
1782831441140076300,9.302076171875,0.11255498230457306,0.5020621418952942,0.43530696630477905
1782831441150005200,9.312005126953125,0.25353315472602844,0.21506020426750183,0.42823201417922974
1782831441159934200,9.321934326171874,0.35738614201545715,0.1093473955988884,0.5350046753883362
1782831441169863200,9.33186328125,0.3637564182281494,0.16099832952022552,0.6151517033576965
1782831441179792400,9.34179248046875,0.23482708632946014,0.22804458439350128,0.4103783071041107
1782831441189721300,9.351721435546875,0.09928737580776215,-0.02383611351251602,-0.11308252811431885
1782831441199650300,9.361650390625,-0.05893070995807648,-1.108477234840393,-0.9910629391670227
1782831441209580300,9.371580322265626,-0.07076659053564072,-2.7437376976013184,-2.0333480834960938
1782831441219509200,9.38150927734375,0.12740935385227203,-3.6702256202697754,-2.6981558799743652
1782831441229438200,9.391438232421875,0.26351845264434814,-3.5794761180877686,-2.695237159729004
1782831441239367200,9.4013671875,0.1453055441379547,-2.7702958583831787,-2.183659553527832
1782831441249296100,9.411296142578125,-0.049332112073898315,-1.4560623168945312,-1.4045952558517456
1782831441259225300,9.421225341796875,-0.1260354369878769,0.31891319155693054,-0.6689559817314148
1782831441269154300,9.431154296875,0.008185748010873795,1.9174572229385376,-0.3133419454097748
1782831441279083300,9.441083251953126,0.025767378509044647,2.5280306339263916,-0.43129611015319824
1782831441289012200,9.45101220703125,-0.11172071099281311,2.3594939708709717,-0.7182884216308594
1782831441298941400,9.46094140625,-0.3491024971008301,1.794495940208435,-0.9145892262458801
1782831441308870400,9.470870361328124,-0.6127453446388245,0.9077815413475037,-0.9647338390350342
1782831441318799400,9.48079931640625,-0.9426624774932861,0.001536366529762745,-1.0252643823623657
1782831441328728300,9.490728271484375,-1.100193977355957,-0.6924892663955688,-1.1592251062393188
1782831441338657300,9.5006572265625,-1.0248498916625977,-1.0321215391159058,-1.3345239162445068
1782831441348586200,9.510586181640624,-0.7821629643440247,-1.232372522354126,-1.4671109914779663
1782831441358516200,9.52051611328125,-0.43814802169799805,-1.5463699102401733,-1.4418336153030396
1782831441368445400,9.530445556640625,-0.06327372789382935,-1.926109790802002,-1.2094142436981201
1782831441378374400,9.54037451171875,0.30586177110671997,-2.413982391357422,-0.8027209043502808
1782831441388303400,9.550303466796874,0.6820740103721619,-2.767596483230591,-0.3192479610443115
1782831441398232300,9.560232421875,0.9610562324523926,-2.7264482975006104,0.15384142100811005
1782831441408161300,9.570161376953125,0.8777493834495544,-2.069425582885742,0.4393914043903351
1782831441418090200,9.58009033203125,0.5137569308280945,-1.196051836013794,0.46387994289398193
1782831441428019200,9.590019287109374,0.04537186771631241,-0.3953716456890106,0.213835209608078
1782831441437948200,9.5999482421875,-0.3583954870700836,0.28487175703048706,-0.13830658793449402
1782831441447877400,9.60987744140625,-0.5986472368240356,0.8885589838027954,-0.408565491437912
1782831441457806300,9.619806396484375,-0.6840531826019287,1.4305191040039062,-0.5035465955734253
1782831441467735300,9.6297353515625,-0.6629540324211121,1.7511311769485474,-0.40804776549339294
1782831441477664300,9.639664306640626,-0.5466831922531128,1.7250092029571533,-0.14666122198104858
1782831441487593200,9.64959326171875,-0.331110417842865,1.481593132019043,0.20557326078414917
1782831441497522400,9.6595224609375,-0.05847455561161041,1.234400987625122,0.5934937596321106
1782831441507452200,9.6694521484375,0.18754614889621735,1.0701349973678589,0.9451340436935425
1782831441517381000,9.679381103515626,0.3460455536842346,0.9303804039955139,1.1787612438201904
1782831441527310300,9.689310302734375,0.3753291368484497,0.7975267767906189,1.2131227254867554
1782831441537239300,9.6992392578125,0.25897952914237976,0.6940277814865112,1.0726730823516846
1782831441547168300,9.709168212890624,0.06369523704051971,0.6885973215103149,0.8901761770248413
1782831441557097200,9.71909716796875,-0.0015105465427041054,0.7115060091018677,0.806289553642273
1782831441567026400,9.7290263671875,-0.035299934446811676,0.7712377905845642,0.7540394067764282
1782831441576955400,9.738955322265625,-0.08340245485305786,0.8145041465759277,0.7197315692901611
1782831441586884400,9.74888427734375,-0.11891543865203857,0.8062270283699036,0.7436294555664062
1782831441596813300,9.758813232421875,-0.1285996288061142,0.7328224182128906,0.8149030804634094
1782831441606742300,9.7687421875,-0.0991852730512619,0.6259830594062805,0.9265952706336975
1782831441616671200,9.778671142578125,-0.04153028875589371,0.5520464777946472,1.0328090190887451
1782831441626600200,9.78860009765625,0.008095319382846355,0.5471670031547546,1.059136986732483
1782831441636529200,9.798529052734375,0.03167376294732094,0.5734051465988159,1.0026007890701294
1782831441646458400,9.808458251953125,0.04546787589788437,0.6510815620422363,0.887874960899353
1782831441656388400,9.818388427734375,0.06804728507995605,0.7649033665657043,0.7930705547332764
1782831441666317300,9.8283173828125,0.120015949010849,0.8590551614761353,0.7486018538475037
1782831441676246500,9.83824658203125,0.16825628280639648,0.8593418002128601,0.7543513178825378
1782831441686175200,9.84817529296875,0.2188611477613449,0.8021690249443054,0.7760805487632751
1782831441696104200,9.858104248046875,0.28760281205177307,0.751279354095459,0.7901617288589478
1782831441706033200,9.868033203125,0.3306996822357178,0.6460583806037903,0.7645493149757385
1782831441715962400,9.87796240234375,0.35884469747543335,0.5200353860855103,0.7308153510093689
1782831441725891300,9.887891357421875,0.354841947555542,0.37561723589897156,0.65533047914505
1782831441735820300,9.8978203125,0.3540767729282379,0.2579074203968048,0.5294468998908997
1782831441745749200,9.907749267578126,0.3390682637691498,0.18060117959976196,0.5287627577781677
1782831441755678200,9.91767822265625,0.2980528771877289,-0.31683608889579773,0.4117003381252289
1782831441765607400,9.927607421875,0.28658583760261536,-0.8272777795791626,0.30656754970550537
1782831441775536400,9.937536376953124,0.2524910867214203,-1.2193981409072876,0.29053378105163574
1782831441785465300,9.94746533203125,0.1831628978252411,-1.4497554302215576,0.24134492874145508
1782831441795394300,9.957394287109375,0.10158078372478485,-1.4447119235992432,0.04010549560189247
1782831441805324300,9.96732421875,-0.004933405667543411,-1.188970923423767,-0.32690685987472534
1782831441815253200,9.977253173828124,-0.14111950993537903,-0.960974395275116,-0.8758813738822937
1782831441825182200,9.98718212890625,-0.25883254408836365,-0.7578622698783875,-1.3436899185180664
1782831441835111400,9.997111328125,-0.3960919678211212,-0.5830882787704468,-1.4682899713516235
1782831441845040400,10.007040283203125,-0.5309485793113708,-0.8493601679801941,-1.2180150747299194
1782831441854969300,10.01696923828125,-0.5649369359016418,-1.3557437658309937,-0.7078210711479187
1782831441864898300,10.026898193359376,-0.4884885847568512,-1.4314606189727783,-0.17306096851825714
