time,seconds_elapsed,z,y,x
1782836756422578400,0.081578369140625,0.5372738162994385,-0.22318273244202136,0.38484091926533726
1782836756432507400,0.09150732421875,0.5505939011216163,-0.24850195568092165,0.24965386566240338
1782836756442436400,0.101436279296875,0.6401163511365652,-0.2342598606429994,0.2260022468421608
1782836756452366300,0.111366455078125,0.7035182714670896,-0.19112404488027096,0.3384805154329166
1782836756462295300,0.12129541015625,0.693866061502695,-0.18271124051772056,0.47727056196387857
1782836756472224500,0.131224609375,0.5607938080966473,-0.24454401183538138,0.47559630860872565
1782836756482154500,0.141154541015625,0.565346649095416,-0.3001026713196188,0.38462607093825935
1782836756492083200,0.151083251953125,0.5454746584117413,-0.2770147873293608,0.3557030510537326
1782836756502012400,0.161012451171875,0.4986877727955579,-0.23446210521683095,0.3205493200860917
1782836756511942400,0.1709423828125,0.5898042140036821,-0.22423837897479532,0.27856307621728627
1782836756521871400,0.180871337890625,0.5510515817612409,-0.2528145581830293,0.22249752665683625
1782836756531800600,0.190800537109375,0.478116693931818,-0.2721328605066985,0.20971923882747068
1782836756541729500,0.2007294921875,0.5593143831938505,-0.3059055854447186,0.15037192764999344
1782836756551659300,0.2106591796875,0.6939128232538699,-0.29890469370670614,0.011489800655096768
1782836756561588200,0.220588134765625,0.8087737126648425,-0.20716938994787631,-0.1319146626024507
1782836756571517400,0.230517333984375,1.0875637660384176,-0.12022526598833501,-0.2227636667797342
1782836756581447400,0.240447509765625,1.5190636702239513,-0.05018266553431749,-0.27018369920030233
1782836756591376400,0.25037646484375,1.8932693233042954,0.023691622037068007,-0.3495954548936337
1782836756601305600,0.2603056640625,2.277644488221407,0.13896006933562458,-0.3813394870156422
1782836756611235300,0.2702353515625,2.620332136487961,0.17836415122412144,-0.3207062276808545
1782836756621168000,0.280168212890625,2.8774072016596794,0.13029518990814684,-0.2943620087757706
1782836756631097000,0.29009716796875,3.0979180845439434,0.07147555586658418,-0.2474118954218924
1782836756641026000,0.300026123046875,3.254345494574308,0.014522007957845926,-0.24226868731454013
1782836756650956000,0.3099560546875,3.4090339519828556,0.00026829554736614226,-0.20853256805986164
1782836756660885000,0.319885009765625,3.5370442458242177,0.06548734830245376,-0.16295125884115694
1782836756670814000,0.32981396484375,3.379588661789894,0.12744491504356265,-0.06862016643546522
1782836756680744000,0.339743896484375,2.928462266114354,0.14797916902825237,0.045577655956894156
1782836756690673200,0.349673095703125,2.354219193857908,0.11530571056902408,0.05097805369570851
1782836756700602000,0.35960205078125,1.618435314080119,0.10944120244979857,-0.06441533515676856
1782836756710531800,0.36953173828125,0.740368284958601,0.13795900253430007,-0.18730850518010556
1782836756720461000,0.3794609375,-0.45137014130353925,0.1617640948832035,-0.25233503103777766
1782836756730390000,0.38939013671875,-2.524628952011466,0.1337729490213096,-0.19853125239685177
1782836756740319000,0.399319091796875,-5.3860564942508935,-0.0002272328846156597,0.021950915849581358
1782836756750249000,0.4092490234375,-8.130539911064504,-0.16209193859808146,0.3663146806348115
1782836756760178200,0.41917822265625,-10.236154346454143,-0.19071144549138844,0.413464846605435
1782836756770107100,0.429107177734375,-11.515095255351065,0.1429771229572594,0.22535576563216744
1782836756780036900,0.439036865234375,-12.512200751829146,0.8596523976393043,0.05870404483787715
1782836756789966000,0.448966064453125,-12.810040373587608,1.4896639727383851,0.09910086409077047
1782836756799895000,0.45889501953125,-12.497618099725246,1.6041668424919246,0.21307846786119042
1782836756809825000,0.468824951171875,-11.885728895163535,1.2801564221665263,0.20751937242932617
1782836756819754200,0.478754150390625,-11.527316439020632,0.8531995682381093,0.413951095752418
1782836756829683000,0.488682861328125,-11.092891587299109,0.4109521331321448,0.9231073633313178
1782836756839612000,0.49861181640625,-10.633384901291132,0.1213262495001778,1.6744332417644558
1782836756849542100,0.508542236328125,-9.45716728476584,-0.18160455791745334,2.262375315158069
1782836756859471000,0.51847119140625,-7.297275900265574,-0.3431445617211982,2.2106844370178877
1782836756869400000,0.528400146484375,-4.622049559551477,-0.11875833524093031,1.5502471823863684
1782836756879329800,0.538329833984375,-1.7308277675509451,0.2906581127565354,0.7740648028552531
1782836756889259000,0.548259033203125,0.7734609917432069,0.6351862012580036,0.17482187550738454
1782836756899188000,0.55818798828125,2.840186016768217,0.7851356474459171,-0.13667115468084812
1782836756909118000,0.568117919921875,3.707033148217201,0.6596420126006007,-0.33220117943510413
1782836756919047200,0.578047119140625,3.664069035759568,0.4069552455157041,-0.08293854157999157
1782836756928976100,0.58797607421875,3.2494898712366815,0.09016746992021799,0.09405103335529565
1782836756938905000,0.597905029296875,3.0793320420175787,-0.30653270436711605,-0.36431291235834357
1782836756948835000,0.6078349609375,3.1664345714092255,-0.6478346704289317,-0.7930589877910912
1782836756958764000,0.617763916015625,3.707805301633477,-0.7152299712445587,-0.8729105231411755
1782836756968693000,0.62769287109375,4.359108817216754,-0.42585327660068867,-0.548494590754807
1782836756978623000,0.637623046875,5.2173874422848225,0.02767696534618735,-0.06429828464835882
1782836756988552200,0.64755224609375,6.166403153854608,0.5373019829479977,0.39004648855179547
1782836756998481200,0.657481201171875,6.530130083018541,0.9409944638080895,0.6045604691088199
1782836757008411000,0.667410888671875,6.941144833058118,0.63629810802266,-0.17436375647634267
1782836757018340000,0.677340087890625,7.641076478210091,-0.04977377420617267,-0.7218032852202654
1782836757028269000,0.68726904296875,7.8169193673282855,-0.5294778286609798,-0.901314341457188
1782836757038199000,0.697198974609375,7.198519173437356,-0.5459434084346517,-1.2984915586717427
1782836757048128300,0.707128173828125,6.431943265032768,-0.37086638912241904,-1.0930006963953376
1782836757058057000,0.717056884765625,6.290857216519117,-0.6322997591014952,-1.2221446704417467
1782836757067986000,0.72698583984375,6.436543452304601,-1.0891943629149348,-1.410821029908955
1782836757077916200,0.736916259765625,6.547894872289896,-1.325583125345409,-1.2050741470448671
1782836757087845000,0.74684521484375,6.788239751935005,-1.3700292930543423,-0.9292137173824012
1782836757097774000,0.756774169921875,7.047691483110189,-1.152196981729567,-0.9266422594591974
1782836757107703800,0.766703857421875,7.210860768616199,-0.8177193087298422,-0.8932697128199041
1782836757117633000,0.776633056640625,7.15028384257853,-0.5739874900601803,-1.2092181149818002
1782836757127562000,0.78656201171875,7.036466324740648,-0.28898113772133366,-1.5027582859806716
1782836757137492000,0.796491943359375,7.60976422510147,0.09628011671476996,-1.5589781858526168
1782836757147421200,0.806421142578125,7.843705667445063,0.3545344456657767,-1.7328899607777595
1782836757157350100,0.81635009765625,7.422790285637975,0.20234087381288407,-2.0283903259336946
1782836757167279000,0.826279052734375,6.665222444075345,-0.0889335076784715,-2.259938881791383
1782836757177209000,0.836208984375,6.061873104321957,-0.07421480810474604,-2.2202809712722895
1782836757187138000,0.846137939453125,5.490723321905731,0.17720957436151802,-1.7600180600695312
1782836757197067000,0.85606689453125,4.44820748886168,0.21147658562250435,-1.472996623314917
1782836757206997000,0.8659970703125,3.362913421320915,-0.10871095194648951,-1.437757990542799
1782836757216926200,0.87592626953125,2.7050135762125254,-0.10499982246886938,-0.860048411219567
1782836757226855000,0.88585498046875,1.675250841757655,0.2384180580346845,-0.23511092451438306
1782836757236785000,0.895784912109375,-1.3235767539590597,0.5312104246072471,0.14049334331750868
1782836757246714000,0.905714111328125,-5.558693280804157,0.5607060202153399,0.5655671599783003
1782836757256643000,0.91564306640625,-9.140402013263106,0.5856502726620063,1.2531909660905598
1782836757266572000,0.925572021484375,-11.415284635555743,0.7682515865318477,2.252142090435326
1782836757276502000,0.935501953125,-14.074966785657406,1.3530334423288701,3.5014895328402518
1782836757286431000,0.945430908203125,-16.838462361454962,1.6058847523257136,3.711885556684434
1782836757296360000,0.95535986328125,-17.839685230123997,1.0885273503735662,2.8461937327504154
1782836757306290000,0.9652900390625,-17.354688713550566,0.3516751837771386,2.6023572115972637
1782836757316219100,0.97521923828125,-16.626799970936773,-0.11364073649886995,2.9530121854811906
1782836757326148000,0.985148193359375,-16.065788720697164,-0.4311710740899667,3.108998573745787
1782836757336077800,0.995077880859375,-15.901202554130553,-0.8505688544083386,3.1028911967813966
1782836757346007000,1.005007080078125,-14.992444034147262,-1.4638811505757272,3.201284350994229
1782836757355936000,1.01493603515625,-12.108133628970384,-1.704660183854401,2.9393513243973253
1782836757365865000,1.024864990234375,-9.01747004559934,-0.7452989462938159,2.3018406257145108
1782836757375795200,1.034795166015625,-5.614878109362721,0.3622074645116925,1.4042371214739977
1782836757385724200,1.04472412109375,-2.591153388276696,0.8050184517845511,0.433918801895529
1782836757395653000,1.054653076171875,-0.6498720214754342,0.688782182367146,-0.11491612672954797
1782836757405583000,1.0645830078125,0.604808306390047,0.2537864354224875,-0.22634163486436007
1782836757415512000,1.074511962890625,1.0175170008659362,-0.045111773744504896,-0.2471675652720034
1782836757425441000,1.08444091796875,1.1722265010625124,-0.3248061007477343,-0.45801630131974813
1782836757435371000,1.09437109375,2.0080249987751246,-0.8103212343677878,-0.6861768221743404
1782836757445300200,1.10430029296875,3.2631706060647963,-1.219506723153591,-0.7346120595194399
1782836757455229000,1.11422900390625,4.157617107579112,-1.4385979484982787,-0.47020650532916186
1782836757465158000,1.124157958984375,4.982971368166804,-1.5046926150441169,-0.15761581609733402
1782836757475088100,1.134088134765625,6.142196348837017,-1.3931336897879838,0.029470789960399268
1782836757485017000,1.14401708984375,7.475889423140883,-1.17711237340793,-0.020783552570641038
1782836757494946000,1.153946044921875,8.38355722527802,-0.9395803592264652,-0.08282784774713217
1782836757504876000,1.1638759765625,8.613389478737115,-0.7460774563856423,-0.025949776227399704
1782836757514805000,1.173804931640625,8.336549390387535,-0.7647844949431717,-0.09647102704383433
1782836757524734000,1.18373388671875,7.7188126288414,-1.0032396883841603,-0.26236557279527184
1782836757534664000,1.193663818359375,7.16854138380289,-1.2954223803594707,-0.5750762351449579
1782836757544593200,1.20359326171875,7.081331302383542,-1.5358992158211766,-0.934166517484188
1782836757554522000,1.213522216796875,7.443587574473023,-1.5976811337344348,-1.1593014069072902
1782836757564451000,1.223451171875,7.8859724452883,-1.5208850404322147,-1.0842051032602786
1782836757574381000,1.233381103515625,8.131510217401384,-1.4428047525383532,-0.7694451802305877
1782836757584310000,1.24331005859375,8.340284485262632,-1.3992992266803979,-0.5609335088282823
1782836757594239000,1.253239013671875,8.141426046738028,-1.355485657786578,-0.729476596327126
1782836757604169200,1.263169189453125,7.833131081938743,-1.1927003300968557,-0.5630873258613049
1782836757614098200,1.27309814453125,7.566466935166716,-1.0598113973684609,-0.3274592456050217
1782836757624023600,1.2830234375,7.242354808032513,-0.9737227942597121,-0.7696407028026878
1782836757633953500,1.29295361328125,7.236254737591743,-0.6911628669586032,-1.576945511958748
1782836757643882500,1.302882568359375,7.1148495411038395,-0.2971578865719959,-1.7964225217506289
1782836757653811500,1.3128115234375,6.632496817037463,-0.17259537683064116,-1.6559525593087077
1782836757663741700,1.32274169921875,6.604329291695356,-0.4151500232134014,-1.6705075927533208
1782836757673670700,1.332670654296875,6.4793836461216205,-0.6643103697378188,-1.703354654213786
1782836757683599400,1.342599365234375,5.662673295238614,-0.6418215476192534,-1.4020885651379822
1782836757693528600,1.352528564453125,4.106139433798194,-0.6369993150945753,-0.8165395243607461
1782836757703458600,1.36245849609375,1.6376444569408892,-0.6788045398406684,-0.4288873835995793
1782836757713387500,1.372387451171875,-1.4523071787685156,-0.5134930912068113,-0.1168883035853505
1782836757723316700,1.382316650390625,-4.013365288510919,-0.23947061756122856,-0.24168416542485355
1782836757733246500,1.39224658203125,-6.994700482156873,0.19189915743861347,0.17793299326524137
1782836757743175400,1.402175537109375,-9.172530843451618,0.3802863247008994,0.45657311677411194
1782836757753104600,1.412104736328125,-9.654317165806889,0.5435228302242234,1.0594771969780326
1782836757763034600,1.42203466796875,-10.02629228335619,0.3747966047108173,1.8818803526751695
1782836757772963600,1.431963623046875,-12.166456054079532,-0.5152696358926594,2.8451462695240974
1782836757782892500,1.441892578125,-14.925083731579779,-1.5188418441668152,3.8063837492853403
1782836757792821800,1.45182177734375,-16.07583197580576,-1.9687699699684977,4.060521299700439
1782836757802751500,1.46175146484375,-15.994015277862548,-1.581075305239856,4.025174384248256
1782836757812680400,1.471680419921875,-15.682373925244807,-1.0936667590886353,3.70659680262655
1782836757822609700,1.481609619140625,-15.35593715455532,-1.1795361664887516,3.1903532071352
1782836757832539600,1.49153955078125,-14.747538714718818,-1.4714669295296072,2.773254168745875
1782836757842468600,1.501468505859375,-14.026509921002388,-1.4274059617459773,2.896630373045802
1782836757852397600,1.5113974609375,-13.2153583732903,-1.0416765326756983,2.871516390055418
1782836757862327600,1.52132763671875,-11.766506303411722,-0.6730401310950517,1.86372846378237
1782836757872256500,1.531256591796875,-8.864886451515554,-0.29154980089925225,0.8037804344221949
1782836757882185500,1.541185546875,-5.209376569786667,0.3397318672008812,0.12987740288749336
1782836757892114700,1.55111474609375,-1.9577298127770422,0.8414055239394307,-0.15336042367517946
1782836757902044400,1.56104443359375,0.19513269599974153,0.785919199039042,-0.1531567177966237
1782836757911973400,1.570973388671875,1.5694693308591843,0.3747418788488954,-0.3390134897984564
1782836757921902600,1.580902587890625,2.3109365169703957,0.11211020246334373,-0.2881112778179347
1782836757931832600,1.59083251953125,2.6587814018696543,0.01140299915447831,0.06741100984141231
1782836757941761500,1.600761474609375,3.050185442510247,-0.004637267879210412,0.39400983922481536
1782836757951690800,1.610690673828125,3.8427129537731406,0.09552808363791554,0.245997060187906
1782836757961620500,1.620620361328125,4.969795660251378,0.3057400926847011,-0.04405000799819827
1782836757971549400,1.630549560546875,6.194102477163076,0.41477640412803735,-0.21922873411923646
1782836757981478400,1.640478515625,7.290860772526264,0.24589677815120667,-0.39377033138051626
1782836757991407600,1.65040771484375,8.354392505592108,-0.0791339251326397,-0.4968924138113856
1782836758001337600,1.660337646484375,8.767569986623526,-0.33126587134636937,-0.505245962267369
1782836758011266600,1.6702666015625,8.686922332459687,-0.4145125655600801,-0.29093203432708975
1782836758021195800,1.68019580078125,8.702351372259855,-0.4491670052360743,-0.26352073417976496
1782836758031125500,1.69012548828125,8.653506385070084,-0.4115693882476538,-0.29736674354970455
1782836758041054500,1.700054443359375,8.41994312838912,-0.36465361555479464,-0.24738866067677734
1782836758050983700,1.709983642578125,8.45263426863551,-0.41655294881388544,-0.4270008392006159
1782836758060913700,1.71991357421875,8.497781570351123,-0.4411546714331954,-0.5627870277404785
1782836758070842600,1.729842529296875,8.582378838923573,-0.11346329757273196,-0.42192675080671904
1782836758080771600,1.739771484375,8.326668047842382,0.164481391017884,-0.46517567155510187
1782836758090701600,1.74970166015625,8.21141903589666,0.2452800710249692,-0.40327889509052034
1782836758100630500,1.759630615234375,8.653973418059945,0.07827975598871707,-0.3288289265230298
1782836758110559500,1.7695595703125,8.915266977709532,-0.0700667850472033,-0.47975817752853034
1782836758120488700,1.77948876953125,8.47971692135036,0.03552504849806428,-0.5211877738952636
1782836758130418400,1.78941845703125,8.066901843890546,0.39823125631213185,-0.2573966983415186
1782836758140347400,1.799347412109375,7.247068392550945,0.818245305365324,-0.10030191044360398
1782836758150276600,1.809276611328125,6.315764863282442,1.0462160027362406,-0.024872721580415962
1782836758160206600,1.81920654296875,5.612253021556139,1.0601491779554635,-0.18669936030581594
1782836758170135600,1.829135498046875,5.198207525518536,0.9646053487591445,-0.3718025374613702
1782836758180064800,1.839064697265625,4.040626804924011,0.9165167328946292,-0.5291856407813728
1782836758189994500,1.848994384765625,1.9584885221898554,0.6360375573903322,-0.5933658520080148
1782836758199923500,1.85892333984375,-0.5238812507629395,0.18305954249873757,-0.4020366399444639
1782836758209852400,1.868852294921875,-2.929452446195483,0.2835298683118075,0.5344019141249359
1782836758219782700,1.87878271484375,-4.572655706307292,0.7237276774115861,1.428832341287285
1782836758229711600,1.888711669921875,-6.142995390260219,0.994778368704766,2.1368715973101553
1782836758239640600,1.898640625,-8.824469685453176,0.8713950770769268,3.1643583496570584
1782836758249569500,1.908569580078125,-13.524543564927578,0.09727708272971212,3.7619998331576583
1782836758259499500,1.91849951171875,-17.49526856610775,-0.551154896005243,2.8583348369210957
1782836758269428500,1.928428466796875,-18.643221626657247,0.2703198928005993,1.7252352082408964
1782836758279357700,1.938357666015625,-17.72602494867444,2.17311414642781,1.7804469539836048
1782836758289287700,1.94828759765625,-16.92985118986368,2.835689289870858,2.6056495311409233
1782836758299216400,1.95821630859375,-16.520052245354652,1.4367004443138838,3.0721319013804194
1782836758309145300,1.968145263671875,-15.931874755769966,-0.4425866769976914,3.0040222417503593
1782836758319075600,1.97807568359375,-15.069399848055838,-1.269694357123971,3.079435794652998
1782836758329004500,1.988004638671875,-13.377542154890298,-1.0053895598944276,2.9452555800050497
1782836758338933500,1.99793359375,-10.712125845050812,-0.34345315274633464,2.1132475606165824
1782836758348862700,2.00786279296875,-7.285581955340504,-0.03475048392899334,1.0594919561557472
1782836758358792400,2.01779248046875,-3.8494986683905124,-0.015313158335536717,0.338421734450385
1782836758368721400,2.027721435546875,-1.130163721358776,0.02609466459080577,0.024219006912037728
1782836758378650600,2.037650634765625,1.0523650268852711,0.06369301223158837,-0.07080386715009808
1782836758388580600,2.04758056640625,2.7805829041987655,-0.09293101634941994,-0.053189957591518754
1782836758398509600,2.057509521484375,3.885726750591397,-0.44241650806255634,-0.2177978245332837
1782836758408438800,2.067438720703125,4.7080736460566515,-0.8054254251502454,-0.6031096127133816
1782836758418368500,2.077368408203125,5.7351329667717215,-0.8444093819305301,-0.8173066362757235
1782836758428297500,2.08729736328125,6.7124471365869045,-0.5695751900432631,-0.8920919012121856
1782836758438226400,2.097226318359375,7.205311317795514,-0.2311200282473117,-0.8656199277415871
1782836758448156700,2.10715673828125,7.438421570011973,-0.0025532372799236328,-0.5909359945125877
1782836758458085600,2.117085693359375,7.873525636169314,-0.0038453400417405646,-0.4362229871846735
1782836758468014600,2.1270146484375,7.967638336583971,-0.06570804641500581,-0.3159913645207882
1782836758477943600,2.136943603515625,7.850707070639729,-0.13460998436734078,-0.6510657613046467
1782836758487873500,2.14687353515625,7.860191522821784,-0.1964360336832702,-1.176416792359203
1782836758497802500,2.156802490234375,7.82293409757316,-0.3202279061120003,-1.4446768300205468
1782836758507731700,2.166731689453125,7.963549605965614,-0.661399596857652,-1.8721264359019696
1782836758517661700,2.17666162109375,8.424525195482373,-1.0525308119062333,-2.0699891413874925
1782836758527590400,2.18659033203125,8.618338625577092,-1.3363672619491815,-1.8621306731969116
1782836758537519400,2.196519287109375,8.592349613317847,-1.6386980576470493,-1.6503439256466925
1782836758547449600,2.20644970703125,7.948510442265868,-1.7148454777821898,-1.5839654737234115
1782836758557378600,2.216378662109375,7.684837294003367,-1.5531844048820436,-1.61914682335034
1782836758567307500,2.2263076171875,7.658674094220996,-1.3879255997508764,-1.9892298435427247
1782836758577237500,2.236237548828125,7.363484694710373,-0.9711470254875719,-2.1388675934329626
1782836758587166500,2.24616650390625,7.441616566661,-0.4407243171919137,-2.2969717045038935
1782836758597095400,2.256095458984375,7.635674326905607,0.153718260669522,-2.5721982201769946
1782836758607024600,2.266024658203125,7.105809910079836,0.6101079106355085,-2.2337200062990186
1782836758616954600,2.27595458984375,6.178859899845719,0.474811441841349,-2.12561239054054
1782836758626883800,2.2858837890625,5.399073212212324,0.12394512676168233,-2.0888912641257047
1782836758636812800,2.295812744140625,4.77180406768918,-0.06536386805325746,-1.7223492775410412
1782836758646742500,2.305742431640625,4.032557480236887,-0.10906075176484882,-1.4875360207989812
1782836758656671700,2.315671630859375,3.038687896940112,-0.09185081989727914,-1.3120946982190012
1782836758666600700,2.3256005859375,1.2728753252476452,0.0687848554778844,-0.8777958109647035
1782836758676530700,2.33553076171875,-1.164852757424116,0.2583870245531201,-0.6411661524504423
1782836758686459600,2.345459716796875,-3.481266829022765,0.5074471986386925,-0.4499108824059367
1782836758696388600,2.355388671875,-5.058015795496106,0.9033733928788453,-0.0003264554753899574
1782836758706318600,2.365318603515625,-7.21412240076065,1.0853606299709528,1.3077502392739058
1782836758716247600,2.37524755859375,-10.003764809727668,0.3960835036937147,2.901042636530101
1782836758726176800,2.3851767578125,-13.612856639152765,-0.3380012440159917,3.340997357589006
1782836758736105700,2.395105712890625,-16.537954981791973,-0.008698343305662274,2.8737492636740205
1782836758746035500,2.405035400390625,-18.3397986518085,0.9557946311201899,2.262305318661779
1782836758755964700,2.414964599609375,-19.470171632003783,1.1396082068566231,2.248233392558992
1782836758765893600,2.4248935546875,-19.518940631347892,0.3605195114247501,3.3915985407963394
1782836758775823600,2.43482373046875,-18.627655808734893,-0.3480954986594617,3.4963092075929043
1782836758785752600,2.444752685546875,-16.453496244907377,-0.12937836732417343,2.0272291731998324
1782836758795681800,2.454681884765625,-12.784129687261581,0.6316700828958303,0.7048503237884491
1782836758805611500,2.464611572265625,-8.3165447132349,1.0485053557824342,0.23300876460336148
1782836758815540500,2.47454052734375,-4.001905152341723,0.9993928767628967,0.2502816787045449
1782836758825469700,2.4844697265625,-0.4087473896294832,0.6334492944628,0.1676570984445512
1782836758835399700,2.494399658203125,0.8953016570389271,0.17793372391760348,0.1656236198555678
1782836758845328600,2.50432861328125,1.2912404184997082,-0.12676029378026724,0.49644138210825617
1782836758855257900,2.5142578125,1.6267624129205942,-0.06183752055801451,1.0989238758992403
1782836758865186800,2.524186767578125,0.9007248511314392,0.0019581483304500578,1.5762059456378221
1782836758875116500,2.534116455078125,0.7575567356467247,-0.20299097175206987,1.0597891855366528
1782836758885045800,2.544045654296875,2.311007244119048,-0.16619528226368127,0.3037422699309885
1782836758894974700,2.553974609375,4.2927714279562235,0.19695404794169588,-0.06054017422385513
1782836758904904700,2.56390478515625,6.573575256991386,0.3008710436099209,-0.030138387023657558
1782836758914833700,2.573833740234375,8.374675415164232,-0.07378876471240073,0.641594753126055
1782836758924762600,2.5837626953125,9.176153710123897,-0.7346297413066029,0.8299717643205076
1782836758934692600,2.593692626953125,9.377692766034603,-1.3123890049904585,0.3542063827551901
1782836758944621600,2.60362158203125,9.321738823622464,-1.389242819829285,-0.06039703942611813
1782836758954550800,2.61355078125,8.93632554782927,-1.0842061992388219,-0.1449124018687755
1782836758964480500,2.62348046875,8.261520160627365,-0.9031190527915954,-0.18368227750696242
1782836758974409500,2.633409423828125,7.520787134009599,-0.8717734819352626,-0.13052987544685601
1782836758984338700,2.643338623046875,6.704234019514918,-0.8057709506522863,-0.03411452411301434
1782836758994267600,2.653267578125,6.692769791692495,-0.8115930809345095,-0.2193763258963823
1782836759004197600,2.66319775390625,6.825338771751523,-0.7566887937057762,-0.38522666717991233
1782836759014126600,2.673126708984375,6.418889137670398,-0.7148088232230395,-0.33239049146212635
1782836759024055800,2.683055908203125,6.331155909159779,-0.8178689463336021,-0.22237134299390016
1782836759033985500,2.692985595703125,6.7188207632720465,-0.8713119288381188,-0.2271086737141013
1782836759043914500,2.70291455078125,6.9589008545011275,-0.6683950817681849,-0.19834069826081394
1782836759053843700,2.71284375,6.739286043673753,-0.4072109373098239,-0.09956709336303174
1782836759063773700,2.722773681640625,6.545384350773692,-0.32396870007552203,-0.029456249978393315
1782836759073702700,2.73270263671875,6.457411468288302,-0.3291904533118009,-0.3717806909557432
1782836759083631900,2.7426318359375,5.948067861443758,-0.1904357338225469,-0.6967653631407768
1782836759093561600,2.7525615234375,5.173780355748534,0.030879816508106884,-0.859881384089589
1782836759103490600,2.762490478515625,4.277958474227786,0.22718648819066584,-1.1088681276127694
1782836759113419500,2.77241943359375,2.815694549590349,0.3019672596151009,-1.0846711133368312
1782836759123349800,2.782349853515625,1.0836463003337382,0.28248777538035064,-0.7932853438928723
1782836759133278700,2.79227880859375,-1.003953170415759,0.6213776022665203,-0.1601081443697214
1782836759143207400,2.80220751953125,-4.139829521954059,1.3023673771917819,-0.09199220112934708
1782836759153136600,2.81213671875,-7.077052017629146,1.8852905995100735,-0.7319470780938864
1782836759163066600,2.822066650390625,-8.716133813896775,2.145201618760079,-0.2768411112628877
1782836759172995600,2.83199560546875,-9.953624522030353,1.8659531540945171,1.0664414830327034
1782836759182924800,2.8419248046875,-13.116435057723521,1.0457258080665022,1.9063431782804428
1782836759192854500,2.8518544921875,-16.812829907548426,0.47622613094486294,1.518969708330184
1782836759202783500,2.861783447265625,-17.32937423955202,0.5919077621541917,0.06964154537245631
1782836759212712700,2.871712646484375,-16.097827534514664,1.3403326584488153,-0.788730603197962
1782836759222642700,2.881642578125,-15.491438680934905,1.569522960742563,-0.4776125438019633
1782836759232571600,2.891571533203125,-14.508410809648035,0.47642742567062374,0.2591594702303409
1782836759242500600,2.90150048828125,-12.906654827690124,-0.7119905509319155,0.5851055347934365
1782836759252430600,2.9114306640625,-12.149871999025343,-0.9602445232011377,1.180871287550032
1782836759262359600,2.921359619140625,-11.080818872189521,-0.9202044814966619,1.5285456381879745
1782836759272288500,2.93128857421875,-8.775252942341565,-0.8356226296890527,0.7452429052576423
1782836759282218800,2.94121875,-6.41929362681806,-0.20376710722371935,0.20308599309176206
1782836759292147700,2.951147705078125,-3.8571816241085526,0.37587161353118714,0.05419496991559863
1782836759302076700,2.96107666015625,-1.2876070304334164,0.6407732076101005,0.018290128319710493
1782836759312005600,2.971005615234375,0.5400117168307305,0.5143215413875878,-0.41216143585667014
1782836759321935600,2.980935546875,1.5787269885480404,-0.059021312359813595,-0.8303453468732536
1782836759331864600,2.990864501953125,2.3348481384336948,-0.6581942249450832,-0.594198357309401
1782836759341793500,3.00079345703125,3.012909897083044,-1.019589057899639,-0.1521973712451756
1782836759351723800,3.010723876953125,3.831750245732069,-1.177234684613347,0.07162877366691828
1782836759361652700,3.02065283203125,4.633310373756289,-1.197290434366092,-0.03969795026853681
1782836759371581400,3.03058154296875,5.302967292153835,-1.0902207102879882,-0.3404790323063731
1782836759381511700,3.04051171875,6.126428870862722,-0.9028989803001284,-0.5468642130739987
1782836759391440600,3.050440673828125,6.809725607556104,-0.7286581195510924,-0.3939186538100242
1782836759401369600,3.06036962890625,7.323283032703399,-0.6460894341968,-0.27703575705215333
1782836759411299600,3.070299560546875,7.575211967158317,-0.6829320680994541,-0.4157325723417103
1782836759421228500,3.080228515625,7.529600555062293,-0.8275752245727926,-0.6412552920386195
1782836759431157500,3.090157470703125,7.3746321116685865,-0.9473720360159873,-0.8122409503839909
1782836759441087700,3.100087646484375,7.435049463230371,-0.9745949009191244,-0.8412503333777189
1782836759451016700,3.1100166015625,7.85872378835678,-0.9226667799569666,-0.9107228057935833
1782836759460945700,3.119945556640625,8.14772602366507,-0.7611169123463333,-0.9617008594892918
1782836759470874600,3.12987451171875,8.075334156671166,-0.5903328409876674,-1.029955042156577
1782836759480804600,3.1398046875,8.25949303871393,-0.45805743704773483,-1.068644546034932
1782836759490733600,3.149733642578125,8.371215630099178,-0.40836153211705384,-1.1043316532269118
1782836759500662500,3.15966259765625,8.204974097540974,-0.390059165370278,-1.1102823783248663
1782836759510592800,3.1695927734375,7.873549017044901,-0.3568132773179561,-1.244779403837025
1782836759520521700,3.179521728515625,7.703931286051869,-0.33453437162302435,-1.499673910099268
1782836759530450700,3.18945068359375,8.05921304295361,-0.2602914699349552,-1.5310172889985143
1782836759540380700,3.199380615234375,7.958020613411068,-0.05166884897146374,-1.4049915931031107
1782836759550309600,3.2093095703125,7.285995212316513,0.1255017085539177,-1.2467429589949548
1782836759560238600,3.219238525390625,6.3802475645869965,0.21779391554314642,-1.1996354631222783
1782836759570168800,3.2291689453125,5.361770778778195,0.33715452752616254,-1.3763945903025567
1782836759580097800,3.239097900390625,3.86388199853003,0.6473063357058912,-1.0938106976039708
1782836759590026500,3.249026611328125,1.398144795948267,1.0194514760598539,-0.13477365049645304
1782836759599956700,3.258956787109375,-0.8370435293376445,0.8343567014064639,0.150298990277946
1782836759609885700,3.2688857421875,-3.685432726305723,0.3861817759476602,-0.1984220929339528
1782836759619814700,3.278814697265625,-6.607158377641439,0.09556677168048917,-0.13598185724243522
1782836759629743600,3.28874365234375,-8.225672017654777,0.12952347488328814,0.3256440128766
1782836759639673300,3.29867333984375,-9.955479794508218,0.410751203732565,1.2677128279179335
1782836759649602300,3.308602294921875,-12.463856115376949,-0.04610942474603653,2.0929013765498996
1782836759659531500,3.318531494140625,-16.105906796073914,-1.0813654959201813,2.05776883450076
1782836759669461500,3.32846142578125,-18.98603553165197,-1.908303810828924,1.5967606578886508
1782836759679390500,3.338390380859375,-19.628191279661653,-2.1069439304277298,1.172014611877501
1782836759689319700,3.348319580078125,-19.728752425563336,-1.75874716335088,1.6028407084546983
1782836759699249400,3.35824951171875,-19.258413379895686,-1.632238506244123,1.9736019201695918
1782836759709178400,3.368178466796875,-18.09763006386757,-1.879108988265693,1.8922109002925454
1782836759719107600,3.378107666015625,-16.721555645430087,-2.0765283338978886,1.8529956189744174
1782836759729037600,3.38803759765625,-14.599522574681043,-2.219343544291705,1.8182275263234973
1782836759738966500,3.397966552734375,-11.817477781236171,-2.0539599437370897,1.9048203526273368
1782836759748895700,3.407895751953125,-8.31399035257697,-1.588458255098015,1.5927219038918614
1782836759758825500,3.417825439453125,-4.557280442520976,-1.0343808957748115,0.9892954072490334
1782836759768754400,3.42775439453125,-1.164724162608385,-0.617888591106981,0.650326268048957
1782836759778683400,3.437683349609375,1.5147534058094023,-0.4814343671124428,0.5385111760746687
1782836759788612600,3.447612548828125,3.1960914585262534,-0.5669914936929941,0.6290959946241229
1782836759798542600,3.45754248046875,4.1765369121044875,-0.7082257915709167,0.8767268665589392
1782836759808471600,3.467471435546875,4.91777788824439,-0.7184463029425591,0.9127939860444515
1782836759818400500,3.477400390625,5.725469066369533,-0.5236852167341858,0.693199268157035
1782836759828330500,3.48733056640625,6.6598202927708625,-0.21655469260439275,0.1415431446313858
1782836759838259500,3.497259521484375,7.290109661898017,0.031121370179019867,-0.39773280527070165
1782836759848188700,3.507188720703125,7.796697248032689,0.09496365468818693,-0.7485883432280271
1782836759858118700,3.51711865234375,8.22719294361174,0.04034512559827417,-0.9268285758115351
1782836759868047400,3.52704736328125,8.668526259547471,-0.1398231159057468,-1.0654464806459842
1782836759877976300,3.536976318359375,9.075183983421326,-0.35814036120325327,-1.0625705598834903
1782836759887906600,3.546906494140625,9.033933689144254,-0.5141320832300931,-0.7724124325383455
1782836759897835500,3.55683544921875,8.882250843292475,-0.6713388801351189,-0.3834484785262495
1782836759907764500,3.566764404296875,8.872752947106957,-0.811280288658291,-0.29222981905266643
1782836759917694500,3.576694580078125,9.061328476548194,-0.7867150986570864,-0.5113127880256623
1782836759927623400,3.58662353515625,8.812739500170945,-0.535733162728697,-0.6657933017719536
1782836759937552400,3.596552490234375,8.53206494822502,-0.4775071837313473,-1.1057460500694811
1782836759947482600,3.606482666015625,8.700001009741426,-0.5510087290002033,-1.529347017698735
1782836759957411600,3.61641162109375,8.418111236786842,-0.3890219678096473,-1.6183235242687164
1782836759967340500,3.626340576171875,8.102143837663531,-0.14436678721737115,-1.6719449320800601
1782836759977269500,3.63626953125,8.079470818084477,-0.05012154646422714,-1.8154091079019008
1782836759987199500,3.646199462890625,7.858924279364943,-0.09027925973162054,-1.7009299112848937
1782836759997128400,3.65612841796875,7.760753827992081,-0.14477975193243472,-1.5001155163869262
1782836760007057400,3.666057373046875,8.289099656948446,-0.12996756538897752,-1.3853139559477567
1782836760016987600,3.675987548828125,8.249166875010728,0.12501264639534054,-1.1910437219962478
1782836760026916600,3.68591650390625,7.426544085213542,0.43485622887611386,-1.2278121946841478
1782836760036845600,3.695845458984375,6.745711108285188,0.5959372368659824,-1.5667624099880455
1782836760046775600,3.705775634765625,5.681269859158992,0.747394676464051,-1.5249232099071144
1782836760056704500,3.71570458984375,4.166701162266731,0.8209927043773233,-1.5900427478104828
1782836760066633500,3.725633544921875,2.336874675825238,0.7530513139862567,-1.8342467871017754
1782836760076563700,3.735563720703125,-0.047075054907798765,0.5332531824812293,-1.8960550085000694
1782836760086492400,3.745492431640625,-2.70644039414525,0.3416423039320856,-1.2692799311041831
1782836760096421400,3.75542138671875,-5.314909658882022,0.19888576492294668,-0.41842648760080337
1782836760106351600,3.7653515625,-7.795913988700509,0.25233510410301385,0.16385127642080186
1782836760116280600,3.775280517578125,-9.987919590342043,0.4370412447649985,0.6636871963381767
1782836760126209500,3.78520947265625,-12.12567045470476,0.838237634493038,1.0775710720732807
1782836760136139500,3.795139404296875,-15.674059685885906,1.0945908881962298,1.5987841265402734
1782836760146068500,3.805068359375,-18.144983351194856,0.6599401918295771,1.7598744138151405
1782836760155997400,3.81499755859375,-17.886612985515594,0.12695683926567433,1.2438166962847113
1782836760165926400,3.824926513671875,-16.944616212797165,0.1657107136171311,0.9091966191396117
1782836760175856600,3.834856689453125,-16.16501131147146,0.0732140700969845,1.2817124194368719
1782836760185785600,3.84478564453125,-15.78033745586872,-0.5168244641192257,1.8883245603784917
1782836760195714600,3.854714599609375,-15.862109730148315,-1.1739067822996527,2.46290870115757
1782836760205644500,3.86464453125,-15.001328766870499,-1.3626152174055575,2.3162322852909565
1782836760215573500,3.874573486328125,-12.124723529243468,-0.6459938648678362,1.4230433826223015
1782836760225502500,3.88450244140625,-8.669887026506661,0.35870391337014734,0.5742104120958597
1782836760235432700,3.8944326171875,-5.118296953457594,0.5703249489646405,0.1920783499304205
1782836760245361700,3.904361572265625,-2.0095985317021605,0.2464350132137537,0.2595280112817883
1782836760255290600,3.91429052734375,0.2065069074511528,-0.09826843185462057,0.9606775077909231
1782836760265220600,3.924220703125,1.8295833253353833,-0.18460319174416362,1.466130683068186
1782836760275149600,3.934149658203125,2.966137624514103,-0.10454385886229574,1.0271576665230095
1782836760285078500,3.94407861328125,3.798786133763194,-0.0664726330127567,0.15166899998951702
1782836760295008500,3.954008544921875,4.753437805393338,-0.039235593453794716,-0.3650603331921622
1782836760304937700,3.963937744140625,5.6781292230457066,-0.028514840942434967,-0.4528777693875134
1782836760314866400,3.973866455078125,6.4619046880543225,-0.09154116942621766,-0.06364632354564964
1782836760324796400,3.98379638671875,7.258724343553185,-0.2531286656334996,0.37521548771001395
1782836760334725600,3.9937255859375,7.886281072846055,-0.34229864894896744,0.8037009394451975
1782836760344654600,4.003654541015625,8.118964039561153,-0.3142363375470042,1.262001172272861
1782836760354583600,4.01358349609375,8.38473094523251,-0.28806038788091387,1.18310598779954
1782836760364513500,4.023513427734375,8.526649352917074,-0.2571063736254349,0.6481367951806635
1782836760374442500,4.0334423828125,8.395459844517708,-0.26809224334638565,0.2675334769524634
1782836760384371500,4.043371337890625,8.46930950910449,-0.35563703661281615,0.11835830307267606
1782836760394301400,4.053301513671875,8.611464648154378,-0.4115726396506652,0.10997238671705126
1782836760404230700,4.063230712890625,8.565513044318557,-0.36575489132758227,0.160033837024495
1782836760414159600,4.07315966796875,8.248168511623144,-0.3465899894673377,0.11749262615405022
1782836760424089300,4.08308935546875,8.251267646682262,-0.3749060929672792,-0.4283529844619334
1782836760434018600,4.0930185546875,8.409219489800929,-0.20038645180948078,-0.7590046694327145
1782836760443947500,4.102947509765625,8.072275938144326,0.06230400555860251,-0.30622955670207735
1782836760453877500,4.11287744140625,7.786757453298568,0.021295155354589222,-0.06591492606475949
1782836760463806700,4.122806640625,7.245439914566278,-0.05159815835542977,-0.10928937288895249
1782836760473735700,4.132735595703125,6.769484198060631,-0.029650530441477894,-0.3838144622944295
1782836760483665400,4.14266552734375,6.988892088139057,0.01936930185854435,-0.8598491623204201
1782836760493594400,4.152594482421875,7.070979419717192,0.3411879842933267,-1.0643894458737224
1782836760503523600,4.162523681640625,6.774853031617402,0.5892020103268325,-0.9146494046527892
1782836760513453600,4.17245361328125,6.020908056727051,0.42589083213210105,-0.8883232693936676
1782836760523382500,4.182382568359375,4.740167989453673,0.21459026066362857,-0.9998591060351579
1782836760533311500,4.1923115234375,2.8540386010318994,0.2451894701320678,-1.102687831542641
1782836760543240400,4.202240478515625,0.8186889574795961,0.45017325966916977,-1.134864957852289
1782836760553170400,4.21217041015625,-2.042972393515706,0.6889410992559045,-0.6670672672305256
1782836760563099600,4.222099609375,-5.292817069539428,0.7402087104827165,-0.4969067345976829
1782836760573028600,4.232028564453125,-7.474768310156464,0.7690458787146955,-0.4334549837760627
1782836760582958300,4.241958251953125,-9.398370812404155,1.18353714575842,-0.1650816219333559
1782836760592887600,4.251887451171875,-12.325574602890013,1.222403686704114,0.5411303455971181
1782836760602816500,4.26181640625,-15.572868425387144,0.3612279519550502,1.536953985571116
1782836760612746500,4.27174658203125,-17.09632302404642,-0.3228004600137472,1.8199468974620103
1782836760622675200,4.28167529296875,-16.927174079608918,0.222348765835911,1.697575924681872
1782836760632604200,4.291604248046875,-16.303157214879988,1.2456285680122672,1.5479567333616315
1782836760642534100,4.3015341796875,-15.96554906183481,1.3883888333484529,1.591785645955056
1782836760652462800,4.311462890625,-15.974697998452186,0.5630350842174142,1.7046289119333027
1782836760662392000,4.32139208984375,-15.760108322310447,-0.31764556146860123,1.9707514991745352
1782836760672322000,4.331322021484375,-14.803248326981066,-0.59057980148606,2.4055200497671962
1782836760682251000,4.3412509765625,-13.171293606114387,-0.283776098157838,2.3519436501413584
1782836760692180200,4.35118017578125,-10.597010104095935,0.16057283927202223,1.5709256671473384
1782836760702110000,4.36110986328125,-7.232107554784417,0.42643045543413605,0.599545271295309
1782836760712039000,4.371038818359375,-3.263380449423194,0.4628794503767043,-0.014235299970954655
1782836760721968000,4.380968017578125,-0.001900280663371086,0.2707680749595165,0.07581358507089317
1782836760731898000,4.390898193359375,2.0603940684378146,-0.1265838777674362,0.7074510808713734
1782836760741827000,4.4008271484375,3.4645758064627645,-0.6356681395560503,0.9795466050423681
1782836760751756000,4.410756103515625,4.216124826127291,-1.0889815969470888,0.9438613244812935
1782836760761685200,4.420685302734375,4.84133119290173,-1.451888368834555,0.6672407241012901
1782836760771615000,4.430614990234375,5.320746694472432,-1.6174359277792274,0.6291777546234428
1782836760781544000,4.4405439453125,5.614961695992946,-1.5191810129933059,0.8577467101484537
1782836760791473200,4.45047314453125,6.134272570100427,-1.2133445472620428,0.985985186722502
1782836760801403100,4.460403076171875,6.744643771314621,-0.8460396865461021,0.9993805287379771
1782836760811332000,4.47033203125,7.349938984438777,-0.6690151864279061,0.5397800269667059
1782836760821261000,4.480260986328125,7.617102897426485,-0.6348572615645826,-0.2057677064564079
1782836760831191000,4.49019091796875,7.607771589979529,-0.6631677025087177,-0.722571493113786
1782836760841120000,4.5001201171875,7.9446362311810255,-0.6868979760557413,-1.0400373141013086
1782836760851049200,4.51004931640625,8.4652453284055,-0.6524883414536714,-0.9749415954649447
1782836760860979200,4.519979248046875,8.6298490306288,-0.5980954012805596,-0.7090167958181351
1782836760870908000,4.529907958984375,8.47865367603302,-0.6594808306895196,-0.6739565883528441
1782836760880836900,4.5398369140625,8.071663943725824,-0.7613911992430686,-0.5670716462571174
1782836760890767000,4.54976708984375,7.628671754667162,-0.8088768807783723,-0.3174969467781484
1782836760900696000,4.559696044921875,7.3337360376566645,-0.7890066436603664,-0.7124087032787502
1782836760910625000,4.569625,7.183940028464794,-0.6840426596898586,-1.1201780416563152
1782836760920555000,4.579554931640625,7.241958502191305,-0.6353915876369923,-1.3677870670855043
1782836760930484000,4.58948388671875,7.530553325742483,-0.6116600719809532,-1.5954405152007936
1782836760940413000,4.599412841796875,7.79535167864263,-0.50248968582917,-1.700403257062286
1782836760950343200,4.60934326171875,7.741675618034601,-0.1884935137135908,-1.5205901491388678
1782836760960272100,4.619272216796875,7.7122297433197495,0.13033099187389016,-1.237898558282107
1782836760970201000,4.629201171875,7.454721547427773,0.17642850698642432,-1.1248485176853835
1782836760980131000,4.639131103515625,6.727688544860482,0.011095321444794535,-1.1738283833011984
1782836760990060000,4.64906005859375,5.744623264172673,-0.08402114918492734,-1.0092631133921444
1782836760999989000,4.658989013671875,4.456747353670001,-0.08432115504480898,-0.7725622893378138
1782836761009919200,4.668919189453125,3.2494074536502358,0.02962371549978852,-0.42341903519108887
1782836761019848200,4.67884814453125,2.0961872663527727,0.23840273260138928,-0.15727540516182778
1782836761029777200,4.688777099609375,-0.16892974872887134,0.4753146421231329,-0.1847973260767758
1782836761039706000,4.6987060546875,-3.3836382294416425,0.44661337523050604,-0.16575900973826646
1782836761049636000,4.708635986328125,-6.574692862844467,-0.08335041031651198,0.16467238354533908
1782836761059565000,4.71856494140625,-8.582320971256493,-0.4879878073439002,0.9039718702286481
1782836761069494000,4.728493896484375,-10.183258622568845,-0.5353666675038635,1.5357216672971843
1782836761079424300,4.73842431640625,-12.809489753967522,-0.3756308635778725,1.3704998331755398
1782836761089353000,4.74835302734375,-15.282921018183231,-0.33492461304962634,0.9923049643285572
1782836761099282000,4.758281982421875,-16.362628810024262,-0.3480108891159296,0.3328234760519117
1782836761109212200,4.768212158203125,-16.82429355084896,-0.11100874402746558,-0.08174553240314125
1782836761119141000,4.77814111328125,-16.889021166825295,0.002329758121818304,0.10843969725705682
1782836761129070000,4.788070068359375,-16.271200234127043,-0.23402327540814874,0.31913748052679003
1782836761139000000,4.798,-15.449306343126295,-0.34146205199435353,0.3775544520515948
1782836761148929000,4.807928955078125,-14.693996509623526,-0.38529900176376103,0.763422558940202
1782836761158858000,4.81785791015625,-13.12492465364933,-0.5920832648515701,1.0146979979224502
1782836761168788000,4.8277880859375,-11.063505333817005,-0.5286189468093216,0.7545384107388555
1782836761178717200,4.83771728515625,-8.738309405347705,-0.17374080227240918,0.3883705546962097
1782836761188646100,4.847646240234375,-5.845311251324415,0.02461436290517449,0.11522387750446796
1782836761198575900,4.857575927734375,-2.6137825687140226,0.25383652164191006,0.1112370728906244
1782836761208505000,4.867505126953125,0.06040741468966007,0.40227980105057354,0.24214257671684025
1782836761218434000,4.87743408203125,1.8372201038241385,0.2231276412539184,0.5280736974840984
1782836761228364000,4.887364013671875,2.6884014641076326,-0.21156652892827987,0.8562630474619567
1782836761238293200,4.897293212890625,2.9401620562583206,-0.7511570977374911,0.7825288990136235
1782836761248222200,4.90722216796875,3.229657043519616,-1.240964667854458,0.3124173784915358
1782836761258151200,4.917151123046875,3.957067062705755,-1.5395612454600631,0.16121778611205517
1782836761268081000,4.927080810546875,4.939103000345826,-1.6864442898146808,0.39692777249813077
1782836761278010000,4.937010009765625,5.655047038143873,-1.693095418266952,0.7531048708043993
1782836761287939000,4.94693896484375,6.576116173645854,-1.6538260686740278,0.8514615654643625
1782836761297869000,4.956869140625,7.49905928632617,-1.549425636870414,0.6540867165610194
1782836761307798300,4.96679833984375,8.118032311668992,-1.2971682011134922,0.2665259073451161
1782836761317727000,4.97672705078125,8.609708159875868,-1.0361920368500053,-0.2660411195028573
1782836761327657000,4.986656982421875,8.90818315692842,-0.8702459801070391,-0.5350786443427205
1782836761337586200,4.996586181640625,8.87323342410028,-0.8259650859624147,-0.6549376343019306
1782836761347515100,5.00651513671875,8.930905276346206,-0.8694523455113172,-0.5766056366693229
1782836761357445000,5.016445068359375,8.633757143983244,-0.9468483044028282,-0.3714041127283126
1782836761367374000,5.0263740234375,8.17090874633193,-1.109955484458059,-0.2119846812751144
1782836761377303000,5.036302978515625,8.067875657358766,-1.2642004358828067,-0.25119097556918857
1782836761387233000,5.04623291015625,8.039363264101743,-1.172802108993381,-0.4976822490148246
1782836761397162000,5.056161865234375,7.962659963649511,-0.8187778778720647,-0.46443267116807396
1782836761407091200,5.06609130859375,8.092108765861392,-0.5224029218386859,-0.3357614291999489
1782836761417021000,5.07602099609375,8.394594752120971,-0.5137138578180224,-0.5779373236645012
1782836761426950000,5.085949951171875,8.121535935875773,-0.43573049095999444,-0.6043754679307342
1782836761436879000,5.095879150390625,7.699350972524285,-0.31777145287059244,-0.412487526005879
1782836761446809000,5.10580908203125,7.219487727186084,-0.29964170274436475,-0.3683191523250192
1782836761456738000,5.115738037109375,6.923326852294802,-0.2532816642381251,-0.4201866291411221
1782836761466667300,5.125667236328125,6.951844506248832,0.009382964568957685,-0.6507014580368995
1782836761476597000,5.135596923828125,6.1780912535607815,0.35332485068030656,-0.659052595340088
1782836761486526000,5.14552587890625,4.521851986265182,0.37069742576368153,-0.5313544361878186
1782836761496455000,5.155454833984375,2.598048993009329,0.20050437910072505,-0.12107538001164793
1782836761506384100,5.165384033203125,-0.7422013456046581,-0.12607516106031835,0.15125643713325262
1782836761516314000,5.175314208984375,-4.943554134535789,-0.6258288095217198,0.15863609905578197
1782836761526243000,5.1852431640625,-7.844292527422309,-0.9706474784675985,-0.35642416840251534
1782836761536172000,5.195172119140625,-9.188906808713078,-0.2756689987435937,-1.2862436331257223
1782836761546102000,5.20510205078125,-10.643405944567919,0.9701242583110928,-1.7420061641693114
1782836761556031000,5.215031005859375,-11.438069298815726,1.3228671443849802,-1.4552935011029242
1782836761565960200,5.224960205078125,-12.331712082731723,0.825529909415543,-0.4457193490002304
1782836761575890200,5.23489013671875,-13.804604368889331,0.25815365418866276,0.567426085717976
1782836761585819000,5.24481884765625,-14.518855046772956,0.11616145061552524,1.1006668471090495
1782836761595748000,5.254748046875,-14.18594644972086,0.3198632375180721,1.2742320005536079
1782836761605678000,5.264677978515625,-13.954107532614469,0.5776330069556832,1.357944302985072
1782836761615607000,5.27460693359375,-13.784006986540556,0.6512671290956438,1.2012594841275364
1782836761625536300,5.284536376953125,-13.715232141000032,0.48571650141105055,0.9819077081505209
1782836761635466000,5.294466064453125,-13.424884920823573,0.12773849116265773,0.9562755465049296
1782836761645395000,5.30439501953125,-11.083500658619403,0.19034246604852378,1.0001922835122794
1782836761655324200,5.31432421875,-8.561203364425896,0.9646590517077595,0.6232220610894262
1782836761665254100,5.324254150390625,-6.314387145188451,1.5548882861904798,-0.042648233175184576
1782836761675182000,5.33418212890625,-3.7573996458858248,1.4863453497096895,-0.55316535904482
1782836761685111000,5.344111083984375,-1.6217355246692895,1.0053919710472226,-0.7105963931597769
1782836761695040300,5.354040283203125,-0.11091770474314688,0.5819887179471552,-0.4594207978228107
1782836761704970200,5.36397021484375,1.0473252791523933,0.30568332099616524,-0.2174599160821177
1782836761714899000,5.37389892578125,2.070449598506093,-0.04510507000908255,-0.09821071031801402
1782836761724828200,5.383828125,2.8592841004699467,-0.47432848062999544,0.021510661268793044
1782836761734758100,5.393758056640625,3.879979146850109,-0.9059820410072803,0.14485015028752385
1782836761744687000,5.40368701171875,4.633769223439693,-1.1305227639295161,0.8494744102351367
1782836761754616300,5.4136162109375,5.123222719421983,-1.2605062575399875,1.5672680214226244
1782836761764546000,5.423546142578125,5.721030207139253,-1.2619985419243573,1.7826758820794522
1782836761774475000,5.43347509765625,6.5101686604857445,-1.1376778963811696,1.1440336951486765
1782836761784404000,5.443404052734375,7.03224783026278,-0.964675199124962,0.638605215921253
1782836761794334200,5.453334228515625,7.174256838840246,-0.9201045282535254,0.28390920475190506
1782836761804263200,5.46326318359375,7.469169174975156,-0.8587955616142601,-0.02088189837858081
1782836761814192000,5.473192138671875,8.054750218325854,-0.6251878812696784,-0.08059625277016312
1782836761824122000,5.4831220703125,8.428482993197441,-0.3637336511656642,0.027705734782945364
1782836761834051000,5.493051025390625,8.387875088477134,-0.16338051710389553,0.052486996953934426
1782836761843980000,5.50297998046875,8.3035659891963,-0.11107552565336226,0.057245078201219435
1782836761853910300,5.51291015625,8.147291139379144,-0.1142142620705068,0.2654125027431175
1782836761863839200,5.522839111328125,7.906593793034553,-0.215503283855319,0.4786710398789495
1782836761873768200,5.532768310546875,7.800006810972094,-0.3641718233872205,0.3599751388823613
1782836761883698200,5.5426982421875,7.974015470400452,-0.3207813752762973,0.01815963380783796
1782836761893627100,5.552627197265625,8.136232569748163,-0.12795724847987294,-0.22473120399303734
1782836761903556000,5.56255615234375,7.830427668198943,0.04786182137131691,-0.3979411873243749
1782836761913486300,5.572486328125,7.82164814941585,0.10881612935401498,-0.47531018514372403
1782836761923415300,5.582415283203125,8.078350289621948,0.14752331501953303,-0.3317676833886653
1782836761933344000,5.592343994140625,7.619624524858594,0.19694580983631313,-0.09452632271684705
1782836761943273000,5.60227294921875,6.264622120544314,0.20858912055268883,0.13621668891161678
1782836761953203200,5.612203125,4.524978009331226,0.17138444840461015,0.10430924638882279
1782836761963132200,5.622132080078125,3.379233857002854,0.09324819253981113,-0.3508260926671326
1782836761973061000,5.63206103515625,2.403627075627446,0.1804087357290089,-0.7431102040778845
1782836761982991000,5.6419912109375,0.3768675657659769,0.410988592685014,-0.6893052563931793
1782836761992920000,5.651920166015625,-2.2217624420017,0.4248188189864158,-0.23910861584842202
1782836762002849000,5.66184912109375,-4.599916053676605,0.2884210744194686,0.12186083130091428
1782836762012779300,5.671779296875,-6.572292231443524,0.1927757576100528,0.4313607879757881
1782836762022708200,5.681708251953125,-7.782668722680211,0.38319969139695165,0.8810304820369929
1782836762032637200,5.69163720703125,-9.373710418400169,0.42301571508720515,1.2568502192504702
1782836762042567200,5.701567138671875,-11.386752953076362,-0.04048530125394463,1.3877441057041286
1782836762052496100,5.71149609375,-12.913269277393818,-0.5836224566288292,1.2445739443928003
1782836762062425000,5.721425048828125,-13.524410293936729,-0.6615928544074297,1.0966276547208427
1782836762072355300,5.731355224609375,-14.147784184587001,-0.4070870552018285,1.0450737008333206
1782836762082284300,5.7412841796875,-14.84115807865858,-0.54598509215191,0.629441520126164
1782836762092213200,5.751213134765625,-15.29407369583845,-1.1668242036275565,0.5906466561771929
1782836762102143000,5.76114306640625,-14.889930585134028,-1.5249635419175027,1.2974779977150261
1782836762112072200,5.771072265625,-13.965821351283788,-1.0744227641101927,1.6778154315486549
1782836762122001200,5.781001220703125,-12.255394566726684,-0.1426024444259703,0.7575891035463661
1782836762131931100,5.79093115234375,-9.533846619820594,0.8367696808323264,-0.4194263853583485
1782836762141860400,5.8008603515625,-6.695542763537168,1.083168965145573,-1.3526605173632502
1782836762151789300,5.810789306640625,-4.304135702535509,0.7966052090305834,-1.2775070767015217
1782836762161719000,5.820718994140625,-2.47909645037055,0.30990941425859925,-0.43989612273946405
1782836762171648300,5.830648193359375,-1.336159172156453,-0.1877144556324929,0.28297340347282585
1782836762181577200,5.8405771484375,-0.5116460385680198,-0.7461320361170918,0.36393399604335425
1782836762191506200,5.850506103515625,0.43435587813854215,-1.251456397382915,0.14418781392127275
1782836762201436200,5.860436279296875,1.5377315458148717,-1.4707272170782089,0.35440716602429745
1782836762211365000,5.870365234375,2.520561848703027,-1.5374427920013665,0.8757282109104096
1782836762221294000,5.880294189453125,3.515649575617909,-1.5684505092054604,1.0926124277301132
1782836762231224000,5.89022412109375,4.818471126317978,-1.3474682094171642,0.9257276288323104
1782836762241153300,5.9001533203125,6.134108903971314,-0.8956455020405352,0.6105807523116469
1782836762251082200,5.910082275390625,7.212753450495004,-0.48483354456406086,0.4679238012194633
1782836762261012000,5.920011962890625,7.78457075690925,-0.30457634613495316,0.4762918165922165
1782836762270941200,5.929941162109375,7.852394000813365,-0.4682636276330799,0.46699046589210624
1782836762280870100,5.9398701171875,7.884412940886616,-0.823650087018311,0.21072386755906045
1782836762290800000,5.949800048828125,8.099967662668227,-1.0030863244533539,-0.007849544456601142
1782836762300729000,5.95972900390625,7.940954912319779,-0.908109189229086,0.03524564703479409
1782836762310661000,5.9696611328125,7.586883115729689,-0.8267164157863706,0.21906777140386402
1782836762320590300,5.97959033203125,7.515124285942315,-0.8530688545305282,0.09163491212427616
1782836762330519300,5.989519287109375,7.819338118907809,-0.6966765888787806,-0.17290683566629886
1782836762340449000,5.999448974609375,8.072226838305593,-0.3077317048933357,-0.0903472104012966
1782836762350378000,6.0093779296875,8.01709999436736,0.025358897662162778,-0.06365173037312924
1782836762360307200,6.01930712890625,7.885958416762947,0.23316315144747493,-0.04461071062088012
1782836762370237200,6.0292373046875,7.964110162457823,0.31707660247422753,-0.16565620695091782
1782836762380166100,6.039166259765625,8.160421254587172,0.429744000428915,-0.5362143703743815
1782836762390095400,6.049095458984375,7.780708820784091,0.6277239025533199,-0.6275141322601586
1782836762400025000,6.059025146484375,7.074592349517345,0.7713956567112356,-0.43141565996818243
1782836762409954000,6.0689541015625,6.612451223352551,0.7584006391249597,-0.2759416782051325
1782836762419883300,6.07888330078125,6.169732006016373,0.6531772005006671,-0.2529131231866777
1782836762429813200,6.088813232421875,5.493641255179047,0.6379302392691374,-0.17636062938198446
1782836762439742200,6.0987421875,4.106346354547143,0.6837552941158413,-0.10536503905206918
1782836762449671200,6.108671142578125,2.4841198314905166,0.5423557957388461,-0.08129471989572047
1782836762459600100,6.11860009765625,0.9515800090998411,0.3221362970165908,-0.12113573189675807
1782836762469530000,6.128530029296875,-1.0029022000581025,0.4508383725143969,-0.37628362839817997
1782836762479459000,6.138458984375,-2.9508745889306067,0.8059095554053783,-0.676383596304059
1782836762489388300,6.14838818359375,-4.684012386989593,0.9156634770661592,-0.6396988563768565
1782836762499318000,6.158318115234375,-6.2794011720031495,0.6088955757036805,0.1895519732579589
1782836762509247000,6.1682470703125,-8.4299589109689,-0.39604806705415246,1.2494117398127913
1782836762519176200,6.17817626953125,-11.093056422472,-1.8423919535040854,1.9430093596376476
1782836762529106200,6.188106201171875,-13.646197767740487,-2.7161042945474385,2.0955073212645945
1782836762539035100,6.19803515625,-15.677508365035056,-2.5560323905348774,2.0005263135828075
1782836762548964400,6.20796435546875,-15.73328110566139,-2.1192643366880715,1.6169753245301544
1782836762558894000,6.21789404296875,-15.403673888242244,-1.730521331950277,1.751225535674393
1782836762568823000,6.227822998046875,-15.323224971520899,-1.7034978620767591,1.8920406582921743
1782836762578752000,6.237751953125,-15.150669433510302,-2.0712074311360715,1.9167453298293053
1782836762588682200,6.24768212890625,-14.603192203104495,-2.2524618239089844,2.2994717046260833
1782836762598611200,6.257611083984375,-13.09154143948555,-1.8998555698268114,2.4792706378936766
1782836762608540200,6.2675400390625,-11.238763701045512,-0.9834908126235008,2.17196219991371
1782836762618470100,6.27747021484375,-8.773228743037581,-0.05841492569819092,1.3845768738448618
1782836762628399000,6.287399169921875,-5.801899979621171,0.46429479706734417,0.17589651900157333
1782836762638328000,6.297328125,-3.0763240923732518,0.5232509900353849,-0.6573883153896778
1782836762648258000,6.307258056640625,-0.5706669673353433,0.28524704749323426,-0.800324448749423
1782836762658187000,6.31718701171875,1.4836936661571263,0.037193127840757366,-0.6528000377513468
1782836762668116000,6.327115966796875,3.0435382595807314,-0.17864494092687963,-0.4425567202508449
1782836762678046000,6.3370458984375,3.9396547401338813,-0.4628936980977654,-0.31670806142278013
1782836762687975000,6.346974853515625,4.4972962216794485,-0.737480673758313,-0.18817535114251077
1782836762697904000,6.356904052734375,5.014396434000134,-0.959109600887075,0.0669593936163932
1782836762707834000,6.366834228515625,5.587161834919453,-0.9826780349358916,0.6453485527016222
1782836762717763000,6.37676318359375,6.241097452571988,-0.798419345780462,0.9171715435415506
1782836762727692000,6.386692138671875,6.7926692588150495,-0.5194738826494664,0.7311177145976573
1782836762737621000,6.39662109375,7.1298249919176095,-0.2481972005806863,0.5313877174029127
1782836762747551000,6.406551025390625,7.4390113525986665,-0.1335412591572851,0.23044907018318772
1782836762757480200,6.416480224609375,7.812390491726994,-0.1541800694949925,-0.1648425890130922
1782836762767409200,6.4264091796875,8.322872747212648,-0.15299780090786516,-0.48974429562240834
1782836762777339000,6.4363388671875,8.903412289264798,-0.13615516798272728,-0.5972074759975076
1782836762787267800,6.446267822265625,9.27327552922666,-0.10274616179056464,-0.3655065791223198
1782836762797197000,6.456197021484375,9.266330240133405,-0.10458302182890475,0.14968253888003527
1782836762807127000,6.466126953125,9.075367523294688,-0.15447328028790652,0.5073584243766963
1782836762817056000,6.476055908203125,8.785748617392779,-0.10475772080868483,0.4942672529395669
1782836762826985200,6.485985107421875,8.254928507277368,0.15417663542889057,0.351532560436055
1782836762836915000,6.4959150390625,7.74391609043777,0.39973808067850763,0.28750607846640047
1782836762846844000,6.505843994140625,7.859486589422821,0.3396809407312423,-0.11973689794950186
1782836762856773000,6.515773193359375,8.266443003982305,0.09001257161945105,-0.8125902022130786
1782836762866703000,6.525703125,7.898470692333579,0.16866232996433972,-1.0729955808512865
1782836762876632000,6.535632080078125,7.073121107921004,0.269487314433977,-0.5842211531743406
1782836762886561000,6.54556103515625,7.086956741049885,-0.04844049804210662,-0.22722448211349547
1782836762896491000,6.555490966796875,7.239487728163599,-0.2551345255631953,0.03084799659773707
1782836762906420000,6.565419921875,6.42013475381732,-0.07320764035619795,0.17937025952674449
1782836762916349000,6.575348876953125,4.561116075161099,0.20467012047804892,0.23222813561968503
1782836762926279200,6.585279052734375,2.088803001320362,0.33789763751104473,0.329585224783048
1782836762936208100,6.5952080078125,0.04692483278214931,0.31286826406419277,-0.17213723953329027
1782836762946136800,6.60513671875,-2.0983225248157975,0.6573612081870436,-0.8973670651361346
1782836762956067000,6.615067138671875,-4.80000257269144,1.1819330715626477,-1.1364455781072378
1782836762965996000,6.62499609375,-7.22380208325386,1.1698228009216487,-1.147426479392126
1782836762975925000,6.634925048828125,-8.970944441267848,0.5126183907315135,-0.9870995046399533
1782836762985855000,6.64485498046875,-10.030068294763565,-0.4370914405822754,-0.16045666554644702
1782836762995784000,6.654783935546875,-11.202020655059814,-1.2187122117750346,1.0414663239911197
1782836763005713000,6.664712890625,-12.891527401185035,-1.386338476689905,1.4327110824167728
1782836763015643100,6.67464306640625,-14.556243404924869,-0.9360117800246923,1.1813042721398175
1782836763025572000,6.684572021484375,-15.08310571732521,-0.46298583336062726,0.747412358251214
1782836763035501000,6.6945009765625,-15.420090770035982,-0.05996083996593952,0.6090706400096416
1782836763045431000,6.70443115234375,-16.056312451821565,0.028748613165691494,0.7852570818684995
1782836763055360000,6.714360107421875,-16.37088927336931,-0.2910655975788832,1.3798713265024125
1782836763065289000,6.7242890625,-15.708528941720724,-0.3424759052120149,1.9861657797969876
1782836763075218000,6.734218017578125,-13.92251178638935,0.08482055593430995,2.0258016246147452
1782836763085148200,6.744148193359375,-11.409441754746437,0.5734288332641124,1.2419821743339299
1782836763095077000,6.7540771484375,-8.20548496967256,0.6278822349201888,0.2548088738054037
1782836763105006000,6.764006103515625,-4.649987367790938,0.32285167874433096,-0.14705708574727178
1782836763114936000,6.77393603515625,-1.5184621971994638,-0.018542422580346465,0.061525605064630506
1782836763124865000,6.783864990234375,1.2203139478832483,-0.3179575500272214,0.3397274832867086
1782836763134794000,6.7937939453125,3.154105251190066,-0.6061182199448347,0.4338764971237629
1782836763144724200,6.80372412109375,4.135383063939213,-0.8106454248208552,0.3979667601570487
1782836763154653200,6.813653076171875,4.43580451888442,-1.0327218034561723,0.4194355185128748
1782836763164582000,6.823581787109375,4.776652092242241,-1.2987407111272216,0.4803202683907002
1782836763174511900,6.833511962890625,5.485310649207234,-1.431552267770469,0.37590065696258096
1782836763184441000,6.843441162109375,6.26856472069025,-1.250709962929785,0.2293655857954174
1782836763194370000,6.8533701171875,6.8024184994131325,-0.979929174619168,0.248623718897067
1782836763204300000,6.863300048828125,7.428052151688933,-0.8510288000702857,0.2808706590399146
1782836763214229000,6.87322900390625,7.903395289254188,-0.7977775407455862,0.2781940602418035
1782836763224158000,6.883157958984375,8.175973628506064,-0.7516717692613601,0.2842697268936783
1782836763234088000,6.893087890625,8.564062845510243,-0.740934613604471,0.1765789483077824
1782836763244017200,6.90301708984375,8.881954490694403,-0.716010600228235,0.0283746652867645
1782836763253946000,6.912946044921875,8.62783359915316,-0.6444569376241416,0.09132372728325426
1782836763263875800,6.922875732421875,7.807407442617416,-0.602078333436884,0.38398229314200577
1782836763273805000,6.93280517578125,7.400870130252838,-0.6777037389919162,0.38286943652927874
1782836763283734000,6.942734130859375,7.404602887040376,-0.8375000409334897,-0.02955284222066402
1782836763293664000,6.9526640625,7.517761064186692,-0.8534239515785127,-0.5039368524301797
1782836763303593000,6.962593017578125,7.664042343255877,-0.7128887418806552,-0.6827963859558105
1782836763313522200,6.972522216796875,7.654549123245477,-0.5909080835923552,-0.538818999914825
1782836763323452000,6.982451904296875,7.7410104321241375,-0.6678143592707813,-0.32831279369443656
1782836763333380900,6.992380859375,7.803268443116545,-0.8143599883645772,-0.23554010971188544
1782836763343310000,7.00231005859375,7.765317190384865,-0.9379946244049817,-0.18966916989684104
1782836763353240000,7.012239990234375,7.9229294262856245,-1.0075915269181133,-0.363581090952456
1782836763363169000,7.0221689453125,7.929750796738267,-0.7900052993088961,-0.45474612054266034
1782836763373098200,7.03209814453125,6.934339829218387,-0.45342992337755855,-0.18660656745582818
1782836763383027200,7.042027099609375,5.502621264970302,-0.4397198163244873,-0.17390687955431638
1782836763392957000,7.05195703125,4.073916495585442,-0.5805380076821893,-0.424784916716814
1782836763402886000,7.061885986328125,3.0461843901753425,-0.49421113883815704,-0.7423077285885811
1782836763412815000,7.071815185546875,2.0963158611685038,-0.21274572877548634,-0.9148149704780429
1782836763422745000,7.0817451171875,-0.2923281648606062,-0.016990955354645846,-0.7388684017896652
1782836763432674000,7.091674072265625,-3.65776146004796,-0.36300752884820103,-0.5249792751327157
1782836763442603000,7.10160302734375,-6.630248161327838,-0.9597018676918,-0.2632772808127105
1782836763452533000,7.111532958984375,-7.871395638403296,-0.7103601732511073,0.340140740262717
1782836763462462000,7.1214619140625,-8.624208394393325,0.5146582990612835,0.798069655559957
1782836763472391200,7.13139111328125,-9.493718023049832,1.1806448583830147,0.9879705883860588
1782836763482321000,7.14132080078125,-11.980115151822567,0.37967107887938617,1.4209209836408494
1782836763492249900,7.151249755859375,-15.419745902121067,-0.7875852325551211,1.9105415067531166
1782836763502179000,7.161178955078125,-17.275488335585592,-1.2889317031659184,1.8956340066090225
1782836763512109000,7.171109130859375,-17.504894472587107,-0.9746619017407298,1.600994057674706
1782836763522038000,7.1810380859375,-17.748354853904246,-0.10757080546803771,1.6408694103367625
1782836763531967000,7.190967041015625,-17.86029079577923,0.18586787791773676,1.5138848062813282
1782836763541897000,7.20089697265625,-17.88447129731178,-0.0787809104438871,1.6236211922854185
1782836763551826000,7.210825927734375,-17.504624423474073,-0.2528879156801849,2.1520937163613736
1782836763561755000,7.2207548828125,-15.958419063824413,-0.09854702960029244,1.8641513653695583
1782836763571685000,7.23068505859375,-12.686207073169946,0.46134705317765473,0.37001499645747243
1782836763581614000,7.240614013671875,-8.71198546204567,1.055961736202985,-0.772554398292303
1782836763591543000,7.25054296875,-4.7639182828754185,1.1496215052183716,-0.8249708142280578
1782836763601473000,7.26047314453125,-1.6709440844744443,0.8514267133466898,-0.3445326916113496
1782836763611402000,7.270402099609375,0.5435843146204948,0.41665589773170647,0.1489692395115271
1782836763621331000,7.2803310546875,1.9165292028605936,-0.21697518303878605,0.20135083986222743
1782836763631260000,7.290260009765625,2.8198633597075937,-0.8520972330193967,0.08416302360733971
1782836763641190100,7.300190185546875,3.6255817764550446,-1.1892363803133368,0.17579906824277713
1782836763651119000,7.310119140625,4.105869384685159,-1.2362918537378311,0.534595354337804
1782836763661047800,7.3200478515625,4.318025696200132,-1.1930089576546101,1.1816127535670995
1782836763670977800,7.329977783203125,4.8931098954558365,-1.0803900019515305,1.5310478302672506
1782836763680907000,7.339906982421875,6.057188161376119,-0.874793998800218,1.3139455867826937
1782836763690836000,7.3498359375,7.2984239012569185,-0.6108027975644916,0.6482629788435995
1782836763700766000,7.359765869140625,7.928131671103834,-0.4177302124323323,0.05491289066029712
1782836763710695000,7.36969482421875,8.398011867088078,-0.41638628701008856,-0.19890571173243224
1782836763720623900,7.379623779296875,8.642727801424265,-0.5284191864535213,-0.08251567652542144
1782836763730553900,7.389553955078125,8.418360827633737,-0.6886888049952685,0.4192545724553987
1782836763740483000,7.399483154296875,8.064046454459428,-0.8511177935279906,0.7901447077795862
1782836763750412000,7.409412109375,7.783194207859039,-0.973411901679635,0.7008992480751126
1782836763760341800,7.419341796875,7.837561757862567,-1.031188821735233,0.5540204049715772
1782836763770270700,7.429270751953125,7.895155284175276,-0.9296043241351842,0.4955582791307941
1782836763780200000,7.439199951171875,7.65023593622148,-0.850270236787945,0.24469290052047
1782836763790130000,7.4491298828125,7.542957464763521,-0.7336782858006655,0.3612758096847683
1782836763800059000,7.459058837890625,7.771827595192193,-0.6994187271937727,0.513231334998086
1782836763809988000,7.468988037109375,8.067122208642958,-0.8234294300049543,0.4104450603928417
1782836763819917800,7.478917724609375,8.157976784044504,-0.8518326637990772,0.10242834627935662
1782836763829846800,7.4888466796875,8.28042301401794,-0.624091902726516,-0.08288478383244946
1782836763839776000,7.49877587890625,8.411392742186784,-0.1765615222489461,-0.05550325776888057
1782836763849706000,7.5087060546875,8.334180907690525,0.07605027990359813,0.10560905867470427
1782836763859635000,7.518635009765625,8.075303177011012,-0.048836986546404657,0.1486285819808487
1782836763869564200,7.528564208984375,7.7798881520509715,-0.33739290285930035,0.2093278283570893
1782836763879494000,7.538493896484375,7.655072270336746,-0.5683498494993895,0.3029812224306166
1782836763889422800,7.5484228515625,7.534999783757328,-0.5987499561991543,0.3053535958514549
1782836763899351800,7.558351806640625,7.565697119837999,-0.47417146343737837,0.23928373495331032
1782836763909281000,7.568281005859375,8.33774999834895,-0.28946152338311076,0.0962326151780784
1782836763919211000,7.5782109375,8.650515386560558,-0.03938829979747534,0.029673911317065357
1782836763929140000,7.588139892578125,7.876248923653364,0.19121625320836902,0.27185196120608596
1782836763939069000,7.59806884765625,6.30504531634748,0.28323052003905175,0.6850401462946086
1782836763948999000,7.6079990234375,4.5712668822973965,0.21549415070079267,0.7684913866370916
1782836763958928000,7.617927978515625,3.1252059044420717,0.29033384923823174,0.5503368210880085
1782836763968857000,7.627857177734375,1.6806255205333231,0.9368239731904119,-0.03351944429669529
1782836763978787000,7.637787109375,-0.10726619649827479,1.9783533524803816,-0.5603778842395171
1782836763988715800,7.6477158203125,-2.2142016513586045,2.3941652736686168,-0.7852691376324743
1782836763998644700,7.657644775390625,-4.176696486580371,1.4982245880737899,-0.46370735256820916
1782836764008575000,7.667574951171875,-6.29102088264823,-0.20623853883855042,0.1696564921008423
1782836764018504000,7.67750390625,-8.620576175370813,-1.4203775244139134,0.7411319628074765
1782836764028433000,7.687432861328125,-10.793491292095183,-1.5231059313520787,1.0808644145302473
1782836764038363000,7.69736279296875,-13.523800053083896,-0.8030109844196587,1.116119267784804
1782836764048291800,7.707291748046875,-15.679102940750122,-0.09169277979135512,0.827361508756876
1782836764058220800,7.717220703125,-17.663164295613765,0.14263473926037548,0.7502446590676903
1782836764068151000,7.727151123046875,-19.449169760507345,-0.10593640919923782,0.6648343936119229
1782836764078080000,7.737080078125,-19.615624059033394,-0.4680168863303959,0.665463485295698
1782836764088009000,7.747009033203125,-18.550826251554486,-0.06538089225329459,0.4849710898712277
1782836764097939000,7.75693896484375,-16.566128936874865,0.8349751255657524,-0.5104328268533572
1782836764107868000,7.766867919921875,-14.153295056962966,1.526676775576174,-1.550421369909495
1782836764117796900,7.776796875,-12.21401509311199,1.4098872561901807,-1.5727314013950526
1782836764127727000,7.78672705078125,-11.125324368870258,0.8289034775018691,-0.6463429705664515
1782836764137656000,7.796656005859375,-11.255445955777168,-0.013673282174021004,0.23814813678581268
1782836764147585000,7.8065849609375,-11.188181514799595,-0.909365545965731,1.0022663133073597
1782836764157515000,7.816514892578125,-10.582551370632649,-1.1926688389800488,1.273609630871564
1782836764167444000,7.82644384765625,-10.050755693483351,-0.49810295864492654,1.045936747403443
1782836764177373000,7.836373046875,-8.62612153453827,0.47172414335049684,0.7301192781448363
1782836764187303000,7.846302978515625,-6.832040315216779,0.822205952624604,0.23863628562893718
1782836764197232000,7.856232177734375,-4.459219881263375,0.4393242411356419,-0.38315289311315864
1782836764207160800,7.866160888671875,-1.9949644416719674,-0.09978822530042379,-0.6390406847290694
1782836764217089800,7.87608984375,-0.16873393389582633,-0.25023356524650003,-0.42213809200245883
1782836764227020000,7.88602001953125,0.9915478623509406,-0.45722157074548303,-0.030518454116117207
1782836764236949000,7.895948974609375,1.9155244097322224,-0.9233388339996338,0.31491222751457243
1782836764246878000,7.9058779296875,2.4446394694954154,-1.4046306508362292,0.5805621922753751
1782836764256808000,7.915807861328125,2.55923557049036,-1.8234543210610745,0.8317305176213383
1782836764266737000,7.92573681640625,3.017676673093438,-2.1678085873655975,1.0206995764248072
1782836764276665900,7.935665771484375,3.8510517430514093,-2.2410933115459977,1.109560055399686
1782836764286596000,7.94559619140625,4.71600210096836,-1.9315671975165605,1.103888731765002
1782836764296525000,7.955525146484375,5.645025994867086,-1.3499331382259725,0.7978706989217549
1782836764306454000,7.9654541015625,6.300715178188681,-0.854459943562746,0.5846764226611704
1782836764316383700,7.9753837890625,6.963227485528588,-0.671407196130976,0.43070426029581577
1782836764326313000,7.98531298828125,7.457651171138882,-0.5320247366648168,0.6117637880837544
1782836764336242000,7.995241943359375,7.771167085456848,-0.456721804529801,0.7209077976852655
1782836764346172000,8.005171875,8.168247418168187,-0.5313672226041555,0.6904087606556714
1782836764356101000,8.01510107421875,8.27760386494398,-0.6807368230774998,0.35655385919678956
1782836764366030000,8.025030029296875,8.260560960206389,-0.8710325273748487,-0.312375877437368
1782836764375959800,8.034959716796875,7.843698653182387,-0.920058277959004,-0.3557657775590196
1782836764385889000,8.044888916015625,7.4361372584670775,-0.8914134904939681,-0.07182754764202982
1782836764395818000,8.05481787109375,7.473305836388469,-0.96745540442802,0.07258231153208762
1782836764405748000,8.064748046875,7.521600788480043,-1.027574430630356,0.1498030234545469
1782836764415677000,8.074677001953125,7.573749493390321,-1.0058190373528748,0.2554991941571236
1782836764425606000,8.08460595703125,7.408439688724279,-0.9748282712835818,-0.0014554595053195953
1782836764435536000,8.094535888671874,7.0808631003499025,-0.9198827021963893,-0.3368403104778379
1782836764445464800,8.10446484375,7.062282318520546,-0.7259365125674754,-0.29345402708537877
1782836764455394000,8.11439404296875,7.558472429281473,-0.3334640755103901,-0.11081000658497214
1782836764465324000,8.124323974609375,7.664232897391915,-0.03515289985057898,-0.11306151183880865
1782836764475253000,8.1342529296875,7.969509391152858,-0.09108805536385625,-0.2160391442976892
1782836764485182000,8.144181884765626,8.544676592516899,-0.3128122960932553,-0.5656335762780159
1782836764495111000,8.15411083984375,8.965299128857254,-0.23679902373179793,-0.9228110107332468
1782836764505041000,8.164041015625,9.023826136627793,0.02038322814144194,-1.1922430147834122
1782836764514969900,8.173969970703125,8.07296041327715,0.2654728180956095,-1.2771451115213335
1782836764524899000,8.183899169921874,5.208018725436926,0.4485723272785544,-0.7332556764744221
1782836764534828800,8.193828857421876,0.7114946571737527,0.5359115880355239,0.22240356476306913
1782836764544757800,8.2037578125,1.3459703720748424,0.04975450325012207,-0.027438772676140068
1782836764554687000,8.21368701171875,0.7149199554473161,-0.20460940326675772,-0.37836525697782636
1782836764564617000,8.223616943359374,-1.9729940174043177,0.7598353481031954,-0.35280499152466654
1782836764574546000,8.2335458984375,-5.4954462587743995,1.3753589636445045,-0.5880947797372937
1782836764584475100,8.24347509765625,-7.889817430278659,1.1896508063331246,-0.4831653556235134
1782836764594404900,8.25340478515625,-9.130696027284861,0.6603912235327064,-0.32246509057953954
1782836764604333800,8.263333740234375,-11.032372528928517,0.10636413309201598,0.01700783342421055
1782836764614263000,8.273262939453126,-13.30323539418578,-0.5756824574097991,0.7470501008100807
1782836764624193500,8.283193603515626,-13.943584969556332,-1.2254705999940634,1.386192638478428
1782836764634122500,8.29312255859375,-13.316790456807613,-1.2778608585752547,1.5385557216793297
1782836764644051500,8.303051513671875,-13.437185599470137,-0.9816944307260215,1.4867891479544342
1782836764653981400,8.3129814453125,-14.000969821554422,-1.0173698474802075,1.4470026426196096
1782836764663910700,8.32291064453125,-14.272638060224056,-1.082433563543111,1.9323004802271722
1782836764673839600,8.332839599609375,-13.994674520802498,-0.6279270969752222,2.459913026472926
1782836764683769300,8.342769287109375,-12.82387483767271,0.291600288977474,1.549900122514367
1782836764693698600,8.352698486328125,-10.694273377496003,1.3695011775270103,-0.2749533978201449
1782836764703627500,8.36262744140625,-8.107599764981865,1.8694395349055528,-1.772660245630145
1782836764713557500,8.3725576171875,-5.194352019134164,1.2791060363307594,-2.3800603220790624
1782836764723486500,8.382486572265625,-2.461232292377949,0.2640935656316578,-1.8943103567898272
1782836764733415700,8.392415771484375,-0.202101365968585,-0.19396076614353805,-0.8187955596592277
1782836764743345400,8.402345458984374,1.2146288879841565,-0.7668467612352222,0.18656404348835348
1782836764753274400,8.4122744140625,2.0075527050882576,-1.4183365201056002,0.2595022192534059
1782836764763203600,8.42220361328125,2.3418799367666243,-1.8198000363372264,0.2483929423484951
1782836764773132500,8.432132568359375,2.4538100334227084,-2.0709823902085422,0.807998928900063
1782836764783062500,8.4420625,3.3064591281712055,-2.06626339886263,1.1121608855478464
1782836764792991700,8.45199169921875,4.303810123842954,-1.6867675304196774,1.0324258892495184
1782836764802920700,8.461920654296875,5.132834012854099,-1.3002208666823805,0.7530974181503057
1782836764812850400,8.471850341796875,5.875352753844857,-1.1389619448423385,0.35160752536840734
1782836764822779400,8.481779296875,6.7917346083134404,-1.3381088449195027,-0.17044545052144675
1782836764832708600,8.49170849609375,7.5035349704355,-1.532782983496785,-0.2973789454441517
1782836764842638600,8.501638671875,7.537282341736555,-1.5687413088455795,0.12654508012700824
1782836764852567600,8.511567626953125,7.422214531576633,-1.6750651099272071,0.3220096749622375
1782836764862496500,8.52149658203125,7.5843270015060895,-1.8584386868111789,0.41007779798302796
1782836764872426500,8.531426513671875,7.728310525026917,-1.9145938508838414,0.5442469432476907
1782836764882355500,8.54135546875,7.689799884846806,-1.9221262922152875,0.7017798303019255
1782836764892284700,8.55128466796875,7.533824894759059,-1.9749021891131997,0.5679148556156084
1782836764902214400,8.56121435546875,7.350092713695764,-1.8661391781859098,0.36528880818579346
1782836764912143400,8.571143310546875,7.48490391972363,-1.6048478104934096,0.20478728058431298
1782836764922072300,8.581072265625,7.39254829210937,-1.2940206968680024,-0.0227923351097852
1782836764932002600,8.59100244140625,7.148626138499378,-0.9889391411572694,-0.1368892544109374
1782836764941931500,8.600931640625,6.741076434221863,-0.6804268072802573,-0.4179739945929497
1782836764951860500,8.610860595703125,6.58763067035079,-0.5302860032387078,-0.39549715517312284
1782836764961790500,8.62079052734375,6.898503961205482,-0.5648693869724869,-0.3445782843187451
1782836764971719400,8.630719482421876,7.086041964292526,-0.5722831703603267,-0.253556827917695
1782836764981648400,8.6406484375,6.960652666604519,-0.489000418452546,0.015645824356004596
1782836764991578600,8.65057861328125,6.069169106549024,-0.3907867124598473,0.08714651466384529
1782836765001507600,8.660507568359375,5.1835143987774845,-0.4141722642224282,0.2623639653600752
1782836765011436500,8.6704365234375,4.594731929036975,-0.5843927834141999,0.32800716181136663
1782836765021365800,8.68036572265625,3.6498143004357813,-0.6360729940298945,0.02846497391872108
1782836765031295500,8.69029541015625,1.7025369080901145,-0.2842313676446676,0.09186470229215919
1782836765041224400,8.700224365234375,-1.496803323099017,0.12200111655443906,0.03499327970892191
1782836765051153400,8.7101533203125,-5.2513575164258475,0.49485878909192976,-0.7527001624610274
1782836765061083600,8.720083740234376,-7.616638202524185,1.3422291397199033,-2.201806426296383
1782836765071012600,8.7300126953125,-8.691687939426302,2.7565228141754865,-2.919875931815803
1782836765080941300,8.73994140625,-9.926127443295716,3.3345454049706458,-2.3141244993567467
1782836765090871600,8.74987158203125,-12.08439853311777,2.4661720868676897,-1.3503518020294605
1782836765100800500,8.759800537109374,-14.10211198221445,1.0864612116239964,-0.6180801681563258
1782836765110729500,8.7697294921875,-15.035945322221517,0.22044643934592603,-0.5287195576395839
1782836765120659700,8.77965966796875,-14.780311688029766,0.0786059922683984,-0.413980541042611
1782836765130588400,8.78958837890625,-14.134513199603557,0.22985000831149516,-0.22145196312665938
1782836765140517400,8.799517333984374,-13.300982646822929,0.3587305091161281,-0.39236864788904785
1782836765150447600,8.809447509765626,-12.886857071286439,0.5171947587363421,-0.15374021677300334
1782836765160376600,8.81937646484375,-11.612104846251011,0.6601673516489565,0.2581092305250466
1782836765170305500,8.829305419921875,-9.923258609861135,1.0142988425370305,-0.3388450378963724
1782836765180235500,8.839235595703125,-8.235748005989194,1.4277321249604225,-1.3988582049146294
1782836765190164500,8.84916455078125,-6.173178931599855,1.3971438022121787,-1.716024312303215
1782836765200093400,8.859093505859375,-4.385080293819308,1.0235016282334923,-1.208414689644426
1782836765210023700,8.869023681640625,-3.5253918019533157,0.610392572795786,-0.22794760875627398
1782836765219952600,8.87895263671875,-3.072813453903794,0.1672459238277748,0.5010968797639012
1782836765229881600,8.888881591796874,-2.2307453744024035,-0.6389931923255324,0.8791716293625533
1782836765239811300,8.898811279296876,-1.1823527582794426,-1.4298041089288889,1.2147376090556383
1782836765249740500,8.908740478515625,-0.03922492592930794,-1.6857130529306827,1.777778465426713
1782836765259669500,8.91866943359375,1.302449210256338,-1.5488982519954442,2.3687400327719748
1782836765269599500,8.928599609375,2.70528479436934,-1.451784031677246,2.6444600310504436
1782836765279528700,8.93852880859375,3.893494461983442,-1.4823822912976146,2.61664088075459
1782836765289457700,8.948457763671875,4.817363457337022,-1.338550158946216,2.229790704026073
1782836765299386600,8.95838671875,5.5284851895451546,-1.0952278709255159,1.54382430973202
1782836765309316600,8.968316650390625,6.088581663027405,-0.9541369270410388,0.9741373664099723
1782836765319245600,8.97824560546875,6.490031881386042,-0.9928086760669946,0.9714276690598577
1782836765329174500,8.988174560546875,6.555875934171676,-1.256546852389723,1.265068304758519
1782836765339104500,8.9981044921875,6.969089071038365,-1.5428078261658549,1.3406678817525506
1782836765349033500,9.008033447265625,7.2491259096026415,-1.5028855656221507,1.4490011229604483
1782836765358962400,9.01796240234375,6.855325913736224,-1.2091576900314538,1.3344725342437624
1782836765368892400,9.027892333984376,6.620587183535099,-0.9256411195926367,1.0544048621498048
1782836765378821600,9.037821533203125,7.051549912104011,-0.766651238663122,0.8427301966719329
1782836765388750600,9.04775048828125,7.438588743272423,-0.758925101390481,0.3709456649037078
1782836765398680600,9.0576806640625,7.272971480092406,-0.7022968399133532,-0.010238503686059266
1782836765408609500,9.067609619140624,6.9270040795028205,-0.6286557035107165,-0.12811028361711652
1782836765418538500,9.07753857421875,7.1861740711271755,-0.5598253283906728,-0.018423691571503878
1782836765428468500,9.087468505859375,7.431070622727274,-0.36569987320471553,0.22185265288203954
1782836765438397700,9.097397705078125,7.310714058509468,-0.0346097602840513,0.21754213273916392
1782836765448326700,9.10732666015625,7.152079493823647,0.25177871232926846,-0.051252450190298254
1782836765458256400,9.11725634765625,6.994488300710916,0.38855025864467024,-0.13600224244333803
1782836765468185300,9.127185302734375,7.00982966222763,0.3127146809376776,-0.16716558860056102
1782836765478114600,9.137114501953125,7.045479067757725,0.19579642060548066,-0.27038280196897685
1782836765488044500,9.14704443359375,6.285587167161703,0.17691906698234378,-0.2600835262726992
1782836765497973500,9.156973388671876,4.801751462185383,0.0812402132295072,-0.30236046018376944
1782836765507902700,9.16690283203125,3.513805993577838,-0.08511822370663284,-0.8531832746904343
1782836765517831700,9.176831787109375,1.8999024777084588,-0.051557461018860336,-1.54471921274513
1782836765527761400,9.186761474609375,-0.49027767184674736,0.20220957558341324,-1.8445868331998585
1782836765537690600,9.196690673828124,-2.1600240709692238,0.46108226476162667,-1.4986568420112132
1782836765547619600,9.20661962890625,-2.2575573934823274,0.6466081973738969,-1.0925828363094479
1782836765557549600,9.216549560546875,-1.7711428268045186,0.9106380501195788,-0.7718008034460246
1782836765567478500,9.226478515625,-2.5761206543177364,1.191159895721823,-0.5681624371685088
1782836765577407500,9.236407470703124,-2.77087691822052,1.0753754617251454,-0.0064845397137105465
1782836765587337500,9.24633740234375,-4.9384986047118895,0.7044383089214563,1.2063560035489498
1782836765597266400,9.256266357421875,-6.700979401633143,-0.39714667594581843,0.929441680919379
1782836765607195600,9.266195556640625,-7.882104663944244,-1.0268513770528138,0.4748379645220935
1782836765617125600,9.276125732421875,-9.457522089552878,-0.6308962489791214,1.1191180112093686
1782836765627058200,9.28605810546875,-11.149866104930638,0.04064487572982907,1.3568513931818305
1782836765636987100,9.295987060546874,-13.493140710926054,0.4128497103817761,0.9367778690263628
1782836765646917000,9.305917236328124,-14.672745631802082,0.37256826113685965,0.7992612034320831
1782836765656846000,9.31584619140625,-14.127017290890215,0.5376426496118307,0.9658565178640186
1782836765666775300,9.325775390625,-12.681786918640135,1.0174876286409795,0.15661467623077333
1782836765676705000,9.335705078125,-11.06230004968047,1.3182479601517318,-0.7313251468032598
1782836765686634000,9.345634033203124,-9.495953234755993,0.9813700210772455,-0.8614410346217453
