time,seconds_elapsed,z,y,x
1782836756422578400,0.081578369140625,-0.05914100259542465,-0.27148374915122986,-0.07408503443002701
1782836756432507400,0.09150732421875,-0.0037499116733670235,-0.2929094135761261,-0.053723037242889404
1782836756442436400,0.101436279296875,0.0385812371969223,-0.2748546600341797,-0.0200628824532032
1782836756452366300,0.111366455078125,0.06260614842176437,-0.24540220201015472,0.03299820423126221
1782836756462295300,0.12129541015625,0.0793483778834343,-0.23523284494876862,0.06382875144481659
1782836756472224500,0.131224609375,0.10822663456201553,-0.22941090166568756,0.07011035084724426
1782836756482154500,0.141154541015625,0.1324833333492279,-0.20921690762043,0.052164558321237564
1782836756492083200,0.151083251953125,0.12760841846466064,-0.17503871023654938,0.006213046610355377
1782836756502012400,0.161012451171875,0.10004457831382751,-0.10844901949167252,-0.055222488939762115
1782836756511942400,0.1709423828125,0.062142468988895416,-0.027081191539764404,-0.12329981476068497
1782836756521871400,0.180871337890625,0.026751898229122162,0.024246487766504288,-0.19093769788742065
1782836756531800600,0.190800537109375,-0.00010501500219106674,0.06259813904762268,-0.23931507766246796
1782836756541729500,0.2007294921875,-0.010505943559110165,0.13147330284118652,-0.254408061504364
1782836756551659300,0.2106591796875,0.0003008982166647911,0.21972966194152832,-0.22971577942371368
1782836756561588200,0.220588134765625,0.0264899805188179,0.338459849357605,-0.15563513338565826
1782836756571517400,0.230517333984375,0.0596841499209404,0.4653719961643219,-0.021595578640699387
1782836756581447400,0.240447509765625,0.09236745536327362,0.552347719669342,0.14827947318553925
1782836756591376400,0.25037646484375,0.1180533766746521,0.5836936831474304,0.3036307096481323
1782836756601305600,0.2603056640625,0.1303425282239914,0.5749040842056274,0.39894649386405945
1782836756611235300,0.2702353515625,0.140568807721138,0.5436210036277771,0.42151597142219543
1782836756621168000,0.280168212890625,0.14381490647792816,0.5165117383003235,0.38106971979141235
1782836756631097000,0.29009716796875,0.15153993666172028,0.5040689706802368,0.31105417013168335
1782836756641026000,0.300026123046875,0.15068575739860535,0.5193458199501038,0.23556871712207794
1782836756650956000,0.3099560546875,0.136964350938797,0.5568212866783142,0.16843734681606293
1782836756660885000,0.319885009765625,0.10168825089931488,0.5528504848480225,0.10348421335220337
1782836756670814000,0.32981396484375,0.057368453592061996,0.4869856834411621,0.04729444906115532
1782836756680744000,0.339743896484375,0.01659773662686348,0.4060523211956024,0.013183141127228737
1782836756690673200,0.349673095703125,-0.00988100841641426,0.3186710774898529,0.017397327348589897
1782836756700602000,0.35960205078125,-0.031987980008125305,0.2118954062461853,0.04709556698799133
1782836756710531800,0.36953173828125,-0.0349065363407135,0.10179818421602249,0.06017674505710602
1782836756720461000,0.3794609375,-0.03792639449238777,-0.09273987263441086,-0.047387342900037766
1782836756730390000,0.38939013671875,-0.09454626590013504,-0.3739635646343231,-0.31266269087791443
1782836756740319000,0.399319091796875,-0.17759063839912415,-0.626640796661377,-0.6418946385383606
1782836756750249000,0.4092490234375,-0.2228023260831833,-0.6760451197624207,-0.9081652164459229
1782836756760178200,0.41917822265625,-0.18445920944213867,-0.4092382788658142,-0.9879101514816284
1782836756770107100,0.429107177734375,-0.07891814410686493,0.03872724995017052,-0.8751782178878784
1782836756780036900,0.439036865234375,0.03506772965192795,0.5866907238960266,-0.6746220588684082
1782836756789966000,0.448966064453125,0.12961740791797638,1.195459246635437,-0.5376673936843872
1782836756799895000,0.45889501953125,0.22682614624500275,1.7128268480300903,-0.48437249660491943
1782836756809825000,0.468824951171875,0.3190431594848633,1.882820963859558,-0.5189533829689026
1782836756819754200,0.478754150390625,0.40278804302215576,1.614717721939087,-0.581368088722229
1782836756829683000,0.488682861328125,0.43306073546409607,1.067198395729065,-0.6419796943664551
1782836756839612000,0.49861181640625,0.42962440848350525,0.5055844783782959,-0.6540312170982361
1782836756849542100,0.508542236328125,0.44145551323890686,0.24216212332248688,-0.5051954388618469
1782836756859471000,0.51847119140625,0.5157139897346497,0.2083968073129654,-0.16553230583667755
1782836756869400000,0.528400146484375,0.6412085294723511,0.2241821587085724,0.3262086510658264
1782836756879329800,0.538329833984375,0.7713568210601807,0.1405390202999115,0.8468935489654541
1782836756889259000,0.548259033203125,0.8376269340515137,-0.03249109163880348,1.2595975399017334
1782836756899188000,0.55818798828125,0.7490620613098145,-0.1490643471479416,1.424542784690857
1782836756909118000,0.568117919921875,0.46729084849357605,-0.1572818011045456,1.2484849691390991
1782836756919047200,0.578047119140625,0.03560476005077362,0.034007638692855835,0.7278538942337036
1782836756928976100,0.58797607421875,-0.3984108567237854,0.28793445229530334,-0.008547940291464329
1782836756938905000,0.597905029296875,-0.6798151135444641,0.4071847200393677,-0.7639002203941345
1782836756948835000,0.6078349609375,-0.7616351246833801,0.28000280261039734,-1.3516592979431152
1782836756958764000,0.617763916015625,-0.7110392451286316,-0.07725425809621811,-1.656092882156372
1782836756968693000,0.62769287109375,-0.5810785889625549,-0.5477474927902222,-1.6649545431137085
1782836756978623000,0.637623046875,-0.4395398795604706,-0.8596741557121277,-1.4347949028015137
1782836756988552200,0.64755224609375,-0.35216689109802246,-0.9239982962608337,-1.0853064060211182
1782836756998481200,0.657481201171875,-0.27526721358299255,-0.8569006323814392,-0.7069442868232727
1782836757008411000,0.667410888671875,-0.11175232380628586,-0.6641995906829834,-0.2761780023574829
1782836757018340000,0.677340087890625,0.015599467791616917,-0.2675372064113617,0.13324116170406342
1782836757028269000,0.68726904296875,0.0930042415857315,0.1288769692182541,0.42969146370887756
1782836757038199000,0.697198974609375,0.0715886726975441,0.3609759211540222,0.5209529995918274
1782836757048128300,0.707128173828125,-0.021868839859962463,0.5164387226104736,0.4317648112773895
1782836757058057000,0.717056884765625,-0.1096181645989418,0.6560931205749512,0.23333221673965454
1782836757067986000,0.72698583984375,-0.22449174523353577,0.7420926690101624,-0.009613598696887493
1782836757077916200,0.736916259765625,-0.384242445230484,0.7911785840988159,-0.242514967918396
1782836757087845000,0.74684521484375,-0.5631880164146423,0.8311885595321655,-0.4483424127101898
1782836757097774000,0.756774169921875,-0.7231064438819885,0.8469927906990051,-0.6287127137184143
1782836757107703800,0.766703857421875,-0.8158568739891052,0.7634702324867249,-0.6738114953041077
1782836757117633000,0.776633056640625,-0.7775349617004395,0.5288727879524231,-0.5403835773468018
1782836757127562000,0.78656201171875,-0.6761462688446045,0.348998099565506,-0.21021708846092224
1782836757137492000,0.796491943359375,-0.5467134118080139,0.33116430044174194,0.2164444476366043
1782836757147421200,0.806421142578125,-0.3902502954006195,0.33250173926353455,0.6148983240127563
1782836757157350100,0.81635009765625,-0.19271603226661682,0.21999001502990723,0.9058710336685181
1782836757167279000,0.826279052734375,-0.00221905205398798,0.015879768878221512,1.0241559743881226
1782836757177209000,0.836208984375,0.09867697954177856,-0.10942569375038147,0.9085483551025391
1782836757187138000,0.846137939453125,0.10129300504922867,-0.08551982790231705,0.547431468963623
1782836757197067000,0.85606689453125,0.08454243838787079,0.006259364075958729,0.02174307219684124
1782836757206997000,0.8659970703125,0.06798209995031357,0.23657433688640594,-0.45832446217536926
1782836757216926200,0.87592626953125,-0.0068303439766168594,0.6081223487854004,-0.8583759069442749
1782836757226855000,0.88585498046875,-0.07600115984678268,0.7044587135314941,-1.13577401638031
1782836757236785000,0.895784912109375,-0.015657171607017517,0.13941724598407745,-1.186992883682251
1782836757246714000,0.905714111328125,0.19533470273017883,-0.7002609372138977,-0.961726188659668
1782836757256643000,0.91564306640625,0.4469989538192749,-1.1763441562652588,-0.42914801836013794
1782836757266572000,0.925572021484375,0.5821346640586853,-1.1671050786972046,0.2719174325466156
1782836757276502000,0.935501953125,0.5275583863258362,-0.8118799328804016,0.7746374011039734
1782836757286431000,0.945430908203125,0.4519864022731781,-0.41350483894348145,1.0033999681472778
1782836757296360000,0.95535986328125,0.4639044404029846,-0.02712509036064148,1.0366888046264648
1782836757306290000,0.9652900390625,0.524677574634552,0.24208533763885498,0.9096383452415466
1782836757316219100,0.97521923828125,0.5672698616981506,0.2318066954612732,0.597495973110199
1782836757326148000,0.985148193359375,0.5130804181098938,-0.13247592747211456,0.15596486628055573
1782836757336077800,0.995077880859375,0.33205875754356384,-0.6610338687896729,-0.35517939925193787
1782836757346007000,1.005007080078125,0.16055120527744293,-0.8457520604133606,-0.6687567830085754
1782836757355936000,1.01493603515625,0.06734126806259155,-0.6982665061950684,-0.7026470303535461
1782836757365865000,1.024864990234375,0.06463629752397537,-0.5079940557479858,-0.5376010537147522
1782836757375795200,1.034795166015625,0.15167877078056335,-0.438009113073349,-0.24262838065624237
1782836757385724200,1.04472412109375,0.2797858715057373,-0.4903985559940338,0.03362584486603737
1782836757395653000,1.054653076171875,0.37973615527153015,-0.5351678729057312,0.16926249861717224
1782836757405583000,1.0645830078125,0.4240487515926361,-0.5124063491821289,0.08331749588251114
1782836757415512000,1.074511962890625,0.43623411655426025,-0.4374730587005615,-0.24661704897880554
1782836757425441000,1.08444091796875,0.44324275851249695,-0.26870375871658325,-0.6757329702377319
1782836757435371000,1.09437109375,0.4339282810688019,-0.09038093686103821,-1.007493495941162
1782836757445300200,1.10430029296875,0.38521960377693176,-0.06481379270553589,-1.142553687095642
1782836757455229000,1.11422900390625,0.34134501218795776,-0.24800686538219452,-1.0327929258346558
1782836757465158000,1.124157958984375,0.32522648572921753,-0.45902031660079956,-0.7260996699333191
1782836757475088100,1.134088134765625,0.3169514834880829,-0.5608118176460266,-0.26483431458473206
1782836757485017000,1.14401708984375,0.27734121680259705,-0.5097184777259827,0.24831901490688324
1782836757494946000,1.153946044921875,0.16185405850410461,-0.2688184082508087,0.6524273157119751
1782836757504876000,1.1638759765625,-0.01097949966788292,0.1003417894244194,0.8537106513977051
1782836757514805000,1.173804931640625,-0.16765572130680084,0.4741551876068115,0.8224762082099915
1782836757524734000,1.18373388671875,-0.2583613693714142,0.7433719635009766,0.597389280796051
1782836757534664000,1.193663818359375,-0.252621054649353,0.918779194355011,0.2522488236427307
1782836757544593200,1.20359326171875,-0.17413128912448883,1.045284628868103,-0.10662919282913208
1782836757554522000,1.213522216796875,-0.07534727454185486,1.0842523574829102,-0.37336358428001404
1782836757564451000,1.223451171875,-0.024268638342618942,0.9795955419540405,-0.5143364071846008
1782836757574381000,1.233381103515625,-0.016795795410871506,0.7917734980583191,-0.513970136642456
1782836757584310000,1.24331005859375,-0.028784815222024918,0.5397958159446716,-0.4147242605686188
1782836757594239000,1.253239013671875,-0.06501380354166031,0.20210246741771698,-0.23774294555187225
1782836757604169200,1.263169189453125,-0.11215708404779434,-0.04270648956298828,-0.014202793128788471
1782836757614098200,1.27309814453125,-0.110786072909832,-0.14225435256958008,0.24165889620780945
1782836757624023600,1.2830234375,-0.018157334998250008,-0.05118035897612572,0.4771060347557068
1782836757633953500,1.29295361328125,0.13389916718006134,0.18154191970825195,0.6488634943962097
1782836757643882500,1.302882568359375,0.2603047788143158,0.3267925977706909,0.7285252809524536
1782836757653811500,1.3128115234375,0.32456472516059875,0.4271628260612488,0.6889681816101074
1782836757663741700,1.32274169921875,0.35940712690353394,0.4987339675426483,0.6073982119560242
1782836757673670700,1.332670654296875,0.3389907479286194,0.4728114902973175,0.5052304267883301
1782836757683599400,1.342599365234375,0.22477363049983978,0.34383007884025574,0.33247968554496765
1782836757693528600,1.352528564453125,0.053377751260995865,0.1632823944091797,0.11918135732412338
1782836757703458600,1.36245849609375,-0.07464092969894409,0.11498197913169861,-0.14698907732963562
1782836757713387500,1.372387451171875,-0.03828776627779007,0.29982510209083557,-0.3442096710205078
1782836757723316700,1.382316650390625,0.21516260504722595,0.45978814363479614,-0.3510076701641083
1782836757733246500,1.39224658203125,0.5931878089904785,0.5130779147148132,-0.08547227084636688
1782836757743175400,1.402175537109375,0.9049933552742004,0.687260627746582,0.3564486801624298
1782836757753104600,1.412104736328125,1.0183203220367432,1.2118324041366577,0.7628219723701477
1782836757763034600,1.42203466796875,0.9317364692687988,1.5670347213745117,0.9579195380210876
1782836757772963600,1.431963623046875,0.7664485573768616,1.2802625894546509,0.9416593313217163
1782836757782892500,1.441892578125,0.6249004602432251,0.6073161363601685,0.7726423740386963
1782836757792821800,1.45182177734375,0.5388603210449219,0.016531355679035187,0.4825565218925476
1782836757802751500,1.46175146484375,0.48360320925712585,-0.33622270822525024,0.1358020305633545
1782836757812680400,1.471680419921875,0.4224103093147278,-0.5933237075805664,-0.2152618169784546
1782836757822609700,1.481609619140625,0.36543598771095276,-0.8716293573379517,-0.4817507565021515
1782836757832539600,1.49153955078125,0.28456032276153564,-1.1955288648605347,-0.6140389442443848
1782836757842468600,1.501468505859375,0.14075548946857452,-1.456863284111023,-0.6718612313270569
1782836757852397600,1.5113974609375,0.0334588997066021,-1.6712621450424194,-0.6847152709960938
1782836757862327600,1.52132763671875,0.023996422067284584,-1.65031898021698,-0.5479736924171448
1782836757872256500,1.531256591796875,0.034142620861530304,-1.3235492706298828,-0.2580244243144989
1782836757882185500,1.541185546875,-0.028507709503173828,-0.9285233020782471,0.06857579946517944
1782836757892114700,1.55111474609375,-0.19902975857257843,-0.6902182698249817,0.282257080078125
1782836757902044400,1.56104443359375,-0.38634374737739563,-0.6011267304420471,0.34240779280662537
1782836757911973400,1.570973388671875,-0.5268897414207458,-0.5490041375160217,0.22088471055030823
1782836757921902600,1.580902587890625,-0.5857027173042297,-0.4777294099330902,-0.051345206797122955
1782836757931832600,1.59083251953125,-0.5209637880325317,-0.33434155583381653,-0.36736032366752625
1782836757941761500,1.600761474609375,-0.33495235443115234,-0.14355187118053436,-0.5980550050735474
1782836757951690800,1.610690673828125,-0.09401944279670715,0.0013559963554143906,-0.637312114238739
1782836757961620500,1.620620361328125,0.11804300546646118,0.07501503825187683,-0.46423351764678955
1782836757971549400,1.630549560546875,0.2564713656902313,0.07591993361711502,-0.1670755296945572
1782836757981478400,1.640478515625,0.3239137828350067,0.0650358647108078,0.20491613447666168
1782836757991407600,1.65040771484375,0.3193553388118744,0.028239719569683075,0.5856975317001343
1782836758001337600,1.660337646484375,0.22442002594470978,-0.01783136837184429,0.8601064682006836
1782836758011266600,1.6702666015625,0.10256341844797134,0.0016844114288687706,1.0058836936950684
1782836758021195800,1.68019580078125,-0.012897669337689877,0.11393345892429352,0.9906030893325806
1782836758031125500,1.69012548828125,-0.12496672570705414,0.26371297240257263,0.8156322240829468
1782836758041054500,1.700054443359375,-0.17259442806243896,0.42723822593688965,0.539309561252594
1782836758050983700,1.709983642578125,-0.1450958251953125,0.5670576691627502,0.24736127257347107
1782836758060913700,1.71991357421875,-0.09172581136226654,0.7061684131622314,-0.026847099885344505
1782836758070842600,1.729842529296875,-0.0474715381860733,0.7450937628746033,-0.24657395482063293
1782836758080771600,1.739771484375,-0.03121507354080677,0.6233180165290833,-0.3603380620479584
1782836758090701600,1.74970166015625,-0.03850950673222542,0.495524138212204,-0.3769214451313019
1782836758100630500,1.759630615234375,-0.02926674112677574,0.3855888843536377,-0.23936116695404053
1782836758110559500,1.7695595703125,0.015017334371805191,0.13652403652668,0.028203576803207397
1782836758120488700,1.77948876953125,0.09164659678936005,-0.20604157447814941,0.39185500144958496
1782836758130418400,1.78941845703125,0.179127499461174,-0.48449936509132385,0.7464873790740967
1782836758140347400,1.799347412109375,0.2619222402572632,-0.5199190974235535,0.9485451579093933
1782836758150276600,1.809276611328125,0.3457716703414917,-0.22900165617465973,0.8859052062034607
1782836758160206600,1.81920654296875,0.46517741680145264,0.23490634560585022,0.6169033050537109
1782836758170135600,1.829135498046875,0.5984413623809814,0.6049312949180603,0.18762192130088806
1782836758180064800,1.839064697265625,0.6580226421356201,0.6231915354728699,-0.31639784574508667
1782836758189994500,1.848994384765625,0.7071988582611084,0.20892158150672913,-0.650364875793457
1782836758199923500,1.85892333984375,0.7856835722923279,-0.35140910744667053,-0.6655214428901672
1782836758209852400,1.868852294921875,0.8795594573020935,-0.5975980758666992,-0.37885791063308716
1782836758219782700,1.87878271484375,0.8919306397438049,-0.5138179659843445,0.12009676545858383
1782836758229711600,1.888711669921875,0.6967955827713013,-0.10713465511798859,0.5027905702590942
1782836758239640600,1.898640625,0.38415002822875977,0.19465234875679016,0.5009956359863281
1782836758249569500,1.908569580078125,0.3062354624271393,0.1394333839416504,0.16096891462802887
1782836758259499500,1.91849951171875,0.6517457365989685,0.08929086476564407,-0.19777512550354004
1782836758269428500,1.928428466796875,1.1127699613571167,0.2752244770526886,-0.31985169649124146
1782836758279357700,1.938357666015625,1.371190071105957,0.42471224069595337,-0.2754932940006256
1782836758289287700,1.94828759765625,1.409621000289917,0.1913301944732666,-0.19821026921272278
1782836758299216400,1.95821630859375,1.3993688821792603,-0.34749069809913635,-0.1257334053516388
1782836758309145300,1.968145263671875,1.4065227508544922,-0.959948718547821,-0.11232306063175201
1782836758319075600,1.97807568359375,1.4306455850601196,-1.368514060974121,-0.1955159604549408
1782836758329004500,1.988004638671875,1.4604475498199463,-1.463040828704834,-0.37532564997673035
1782836758338933500,1.99793359375,1.4208983182907104,-1.2636674642562866,-0.6034706234931946
1782836758348862700,2.00786279296875,1.3164281845092773,-0.8793768286705017,-0.7862489819526672
1782836758358792400,2.01779248046875,1.1443573236465454,-0.4723994731903076,-0.913207471370697
1782836758368721400,2.027721435546875,0.9055866003036499,-0.10754504799842834,-0.9865934252738953
1782836758378650600,2.037650634765625,0.6062970757484436,0.27110105752944946,-1.034502387046814
1782836758388580600,2.04758056640625,0.241921529173851,0.6918728351593018,-1.1512925624847412
1782836758398509600,2.057509521484375,-0.14217953383922577,0.9976380467414856,-1.2975291013717651
1782836758408438800,2.067438720703125,-0.46725746989250183,1.1564821004867554,-1.3832824230194092
1782836758418368500,2.077368408203125,-0.6891040802001953,1.1868882179260254,-1.3361045122146606
1782836758428297500,2.08729736328125,-0.7782015800476074,1.0559403896331787,-1.1459897756576538
1782836758438226400,2.097226318359375,-0.7501949667930603,0.8088989853858948,-0.8600124716758728
1782836758448156700,2.10715673828125,-0.6053246259689331,0.6309201121330261,-0.5390886664390564
1782836758458085600,2.117085693359375,-0.368694543838501,0.5545411705970764,-0.23849976062774658
1782836758468014600,2.1270146484375,-0.06047721579670906,0.508270800113678,0.01914370059967041
1782836758477943600,2.136943603515625,0.27986329793930054,0.5361756682395935,0.19735604524612427
1782836758487873500,2.14687353515625,0.5605836510658264,0.6797053813934326,0.27396053075790405
1782836758497802500,2.156802490234375,0.7422120571136475,0.8460152745246887,0.27717044949531555
1782836758507731700,2.166731689453125,0.7855878472328186,1.0218745470046997,0.262182354927063
1782836758517661700,2.17666162109375,0.6539009213447571,1.1455552577972412,0.21209070086479187
1782836758527590400,2.18659033203125,0.4432506263256073,1.181111216545105,0.17157095670700073
1782836758537519400,2.196519287109375,0.18055109679698944,1.1230775117874146,0.0928894653916359
1782836758547449600,2.20644970703125,-0.12695975601673126,0.96196049451828,0.034692198038101196
1782836758557378600,2.216378662109375,-0.3473387360572815,0.8290375471115112,0.07449579983949661
1782836758567307500,2.2263076171875,-0.48008808493614197,0.7592889070510864,0.1810218095779419
1782836758577237500,2.236237548828125,-0.4923279881477356,0.8124314546585083,0.36171144247055054
1782836758587166500,2.24616650390625,-0.33569657802581787,0.9768528342247009,0.5985034108161926
1782836758597095400,2.256095458984375,-0.08234795928001404,1.0908347368240356,0.7790180444717407
1782836758607024600,2.266024658203125,0.17593814432621002,1.0008184909820557,0.8406727313995361
1782836758616954600,2.27595458984375,0.43069693446159363,0.7235303521156311,0.7708007097244263
1782836758626883800,2.2858837890625,0.6138172149658203,0.452083021402359,0.5901185274124146
1782836758636812800,2.295812744140625,0.6709108948707581,0.24555166065692902,0.3339506983757019
1782836758646742500,2.305742431640625,0.6353312730789185,0.08083968609571457,0.09445130079984665
1782836758656671700,2.315671630859375,0.515820324420929,-0.04842989146709442,-0.13223111629486084
1782836758666600700,2.3256005859375,0.4454275667667389,-0.1485608071088791,-0.31628021597862244
1782836758676530700,2.33553076171875,0.5526778697967529,-0.33044591546058655,-0.315376341342926
1782836758686459600,2.345459716796875,0.8137742877006531,-0.5675131678581238,-0.0883358046412468
1782836758696388600,2.355388671875,1.1016290187835693,-0.8899955749511719,0.26576822996139526
1782836758706318600,2.365318603515625,1.2941820621490479,-1.1212519407272339,0.5370089411735535
1782836758716247600,2.37524755859375,1.4112343788146973,-1.2445623874664307,0.5591014623641968
1782836758726176800,2.3851767578125,1.575103998184204,-1.3777539730072021,0.3200366795063019
1782836758736105700,2.395105712890625,1.7504417896270752,-1.64638352394104,-0.057506196200847626
1782836758746035500,2.405035400390625,1.8356093168258667,-2.183074712753296,-0.4487572908401489
1782836758755964700,2.414964599609375,1.8000640869140625,-2.5651447772979736,-0.7289964556694031
1782836758765893600,2.4248935546875,1.6738253831863403,-2.4026598930358887,-0.9102292060852051
1782836758775823600,2.43482373046875,1.5854613780975342,-1.8012975454330444,-1.0057075023651123
1782836758785752600,2.444752685546875,1.523873209953308,-1.0161919593811035,-0.9889340400695801
1782836758795681800,2.454681884765625,1.4191169738769531,-0.38182249665260315,-0.8150597214698792
1782836758805611500,2.464611572265625,1.2767828702926636,-0.1550469696521759,-0.5220199227333069
1782836758815540500,2.47454052734375,1.1685924530029297,-0.30015888810157776,-0.1613650918006897
1782836758825469700,2.4844697265625,1.0581566095352173,-0.818320095539093,0.12428177893161774
1782836758835399700,2.494399658203125,0.8626807928085327,-1.414483904838562,0.23258987069129944
1782836758845328600,2.50432861328125,0.565713107585907,-1.472641944885254,0.07608456164598465
1782836758855257900,2.5142578125,0.23395778238773346,-1.0226417779922485,-0.4125008285045624
1782836758865186800,2.524186767578125,0.09919296205043793,-0.39096999168395996,-1.0810002088546753
1782836758875116500,2.534116455078125,0.2967108488082886,0.33965200185775757,-1.620185136795044
1782836758885045800,2.544045654296875,0.6452588438987732,0.8118823170661926,-1.7795844078063965
1782836758894974700,2.553974609375,0.9667114615440369,0.8256149291992188,-1.5142207145690918
1782836758904904700,2.56390478515625,1.11587655544281,0.5729144215583801,-0.9637091159820557
1782836758914833700,2.573833740234375,1.0642756223678589,0.2933322787284851,-0.3238535523414612
1782836758924762600,2.5837626953125,0.9174565076828003,0.08035010099411011,0.24115988612174988
1782836758934692600,2.593692626953125,0.768800675868988,-0.014599044807255268,0.6523244976997375
1782836758944621600,2.60362158203125,0.5993181467056274,0.03203405812382698,0.8620496988296509
1782836758954550800,2.61355078125,0.41352489590644836,0.12967753410339355,0.8138539791107178
1782836758964480500,2.62348046875,0.27070921659469604,0.2503671944141388,0.5573874115943909
1782836758974409500,2.633409423828125,0.2070769965648651,0.35931873321533203,0.14796259999275208
1782836758984338700,2.643338623046875,0.24167400598526,0.5007522702217102,-0.3021005690097809
1782836758994267600,2.653267578125,0.34439265727996826,0.6717138886451721,-0.6510615348815918
1782836759004197600,2.66319775390625,0.4153822064399719,0.7070817947387695,-0.8671923279762268
1782836759014126600,2.673126708984375,0.4611355662345886,0.5324740409851074,-0.8813678026199341
1782836759024055800,2.683055908203125,0.5243160128593445,0.2634398937225342,-0.6226910948753357
1782836759033985500,2.692985595703125,0.5876172184944153,-0.014473476447165012,-0.13156157732009888
1782836759043914500,2.70291455078125,0.5812738537788391,-0.2316606044769287,0.4505317211151123
1782836759053843700,2.71284375,0.48003724217414856,-0.24828459322452545,0.954808235168457
1782836759063773700,2.722773681640625,0.3543214797973633,0.021123312413692474,1.243391752243042
1782836759073702700,2.73270263671875,0.26274949312210083,0.413916677236557,1.2282660007476807
1782836759083631900,2.7426318359375,0.19839684665203094,0.7529824376106262,0.9602286219596863
1782836759093561600,2.7525615234375,0.1832706183195114,1.0051926374435425,0.5220001339912415
1782836759103490600,2.762490478515625,0.17173661291599274,1.1219403743743896,0.012820069678127766
1782836759113419500,2.77241943359375,0.1560724377632141,1.0545514822006226,-0.4212954044342041
1782836759123349800,2.782349853515625,0.15074042975902557,0.8669796586036682,-0.6879786849021912
1782836759133278700,2.79227880859375,0.2252434343099594,0.4912462830543518,-0.7153182029724121
1782836759143207400,2.80220751953125,0.4319513440132141,-0.005195067264139652,-0.41257214546203613
1782836759153136600,2.81213671875,0.6841191649436951,-0.3017204999923706,0.21721193194389343
1782836759163066600,2.822066650390625,0.7734463214874268,-0.09560712426900864,0.9336830973625183
1782836759172995600,2.83199560546875,0.6553031802177429,0.21741417050361633,1.3063645362854004
1782836759182924800,2.8419248046875,0.46840402483940125,0.05807138979434967,1.1614412069320679
1782836759192854500,2.8518544921875,0.4309099316596985,-0.06485293805599213,0.6895671486854553
1782836759202783500,2.861783447265625,0.517897367477417,0.2842961549758911,0.20622789859771729
1782836759212712700,2.871712646484375,0.5066990256309509,0.6384714841842651,-0.21129290759563446
1782836759222642700,2.881642578125,0.3802427649497986,0.6513414978981018,-0.4922317862510681
1782836759232571600,2.891571533203125,0.2848890721797943,0.4223644733428955,-0.568530797958374
1782836759242500600,2.90150048828125,0.1872967630624771,0.03415220230817795,-0.6287513971328735
1782836759252430600,2.9114306640625,0.018213197588920593,-0.3467341661453247,-0.8546191453933716
1782836759262359600,2.921359619140625,-0.07469221949577332,-0.5589046478271484,-1.1532615423202515
1782836759272288500,2.93128857421875,-0.07760012894868851,-0.7216424345970154,-1.3331159353256226
1782836759282218800,2.94121875,-0.06376899033784866,-0.9021652340888977,-1.2499750852584839
1782836759292147700,2.951147705078125,-0.0738258883357048,-0.9446882009506226,-0.9054752588272095
1782836759302076700,2.96107666015625,-0.12327676266431808,-0.8017763495445251,-0.4816702902317047
1782836759312005600,2.971005615234375,-0.18746985495090485,-0.6294986009597778,-0.15672576427459717
1782836759321935600,2.980935546875,-0.2794215679168701,-0.4516183137893677,-0.025348424911499023
1782836759331864600,2.990864501953125,-0.40914812684059143,-0.2715052664279938,-0.05879027023911476
1782836759341793500,3.00079345703125,-0.5169435143470764,-0.10266858339309692,-0.18046312034130096
1782836759351723800,3.010723876953125,-0.5414142608642578,0.04664819687604904,-0.2920871078968048
1782836759361652700,3.02065283203125,-0.48083919286727905,0.07866126298904419,-0.3288540542125702
1782836759371581400,3.03058154296875,-0.3868458569049835,0.0060847969725728035,-0.27092576026916504
1782836759381511700,3.04051171875,-0.308656245470047,-0.05735015124082565,-0.1361347734928131
1782836759391440600,3.050440673828125,-0.277538537979126,-0.03925290331244469,0.009259703569114208
1782836759401369600,3.06036962890625,-0.2516816258430481,0.04805612564086914,0.11983223259449005
1782836759411299600,3.070299560546875,-0.2202880084514618,0.12928466498851776,0.1692676991224289
1782836759421228500,3.080228515625,-0.19674302637577057,0.12227456271648407,0.17011615633964539
1782836759431157500,3.090157470703125,-0.16804799437522888,0.03778285160660744,0.18571561574935913
1782836759441087700,3.100087646484375,-0.1427394598722458,-0.018517574295401573,0.2519287168979645
1782836759451016700,3.1100166015625,-0.13788850605487823,0.003937933593988419,0.3449838161468506
1782836759460945700,3.119945556640625,-0.14588014781475067,0.00292180385440588,0.4153256118297577
1782836759470874600,3.12987451171875,-0.16234594583511353,0.038718681782484055,0.42829254269599915
1782836759480804600,3.1398046875,-0.2048909068107605,0.12281123548746109,0.3972434401512146
1782836759490733600,3.149733642578125,-0.2544872462749481,0.2051745504140854,0.3714379370212555
1782836759500662500,3.15966259765625,-0.329037070274353,0.3091399669647217,0.3597019612789154
1782836759510592800,3.1695927734375,-0.39076462388038635,0.38530850410461426,0.3732960522174835
1782836759520521700,3.179521728515625,-0.42616716027259827,0.46963202953338623,0.4769691526889801
1782836759530450700,3.18945068359375,-0.4621880054473877,0.5010208487510681,0.6248656511306763
1782836759540380700,3.199380615234375,-0.5159378051757812,0.42252227663993835,0.7391306161880493
1782836759550309600,3.2093095703125,-0.5458126068115234,0.2958042621612549,0.7521066069602966
1782836759560238600,3.219238525390625,-0.4980590343475342,0.2084571272134781,0.6654222011566162
1782836759570168800,3.2291689453125,-0.365078330039978,0.14593754708766937,0.5570803284645081
1782836759580097800,3.239097900390625,-0.2529076933860779,0.030574116855859756,0.439940869808197
1782836759590026500,3.249026611328125,-0.17341259121894836,-0.007712819613516331,0.2964779734611511
1782836759599956700,3.258956787109375,-0.019376195967197418,0.006139611825346947,0.14006783068180084
1782836759609885700,3.2688857421875,0.23029889166355133,-0.18416987359523773,0.0418403297662735
1782836759619814700,3.278814697265625,0.5239351391792297,-0.3577902317047119,0.14795657992362976
1782836759629743600,3.28874365234375,0.7547881007194519,-0.4833276569843292,0.500185489654541
1782836759639673300,3.29867333984375,0.8165728449821472,-0.5183836221694946,0.9359357357025146
1782836759649602300,3.308602294921875,0.6847692728042603,-0.5446165800094604,1.1647005081176758
1782836759659531500,3.318531494140625,0.422512024641037,-0.6217590570449829,1.0653083324432373
1782836759669461500,3.32846142578125,0.1996973156929016,-0.466301292181015,0.7806984186172485
1782836759679390500,3.338390380859375,0.02816220000386238,-0.21413074433803558,0.42982596158981323
1782836759689319700,3.348319580078125,-0.11177120357751846,-0.08447102457284927,0.041655853390693665
1782836759699249400,3.35824951171875,-0.1506931036710739,-0.05716944858431816,-0.2695070505142212
1782836759709178400,3.368178466796875,-0.1344803124666214,-0.05043751001358032,-0.525202751159668
1782836759719107600,3.378107666015625,-0.0871257409453392,-0.07050380855798721,-0.7031123042106628
1782836759729037600,3.38803759765625,-0.05256163328886032,-0.03779912739992142,-0.7843778729438782
1782836759738966500,3.397966552734375,-0.03253395855426788,0.05747035890817642,-0.7829449772834778
1782836759748895700,3.407895751953125,-0.023999061435461044,0.09957839548587799,-0.6848402619361877
1782836759758825500,3.417825439453125,-0.02756357192993164,-0.013473638333380222,-0.5216419696807861
1782836759768754400,3.42775439453125,-0.06880554556846619,-0.2783671021461487,-0.3400695025920868
1782836759778683400,3.437683349609375,-0.15613460540771484,-0.6195976734161377,-0.21477347612380981
1782836759788612600,3.447612548828125,-0.289114773273468,-0.8936665654182434,-0.2118658423423767
1782836759798542600,3.45754248046875,-0.409313827753067,-1.0244228839874268,-0.28096550703048706
1782836759808471600,3.467471435546875,-0.49482470750808716,-0.9226574301719666,-0.3641197681427002
1782836759818400500,3.477400390625,-0.5289642214775085,-0.622465193271637,-0.41484084725379944
1782836759828330500,3.48733056640625,-0.5173693895339966,-0.26087290048599243,-0.42421942949295044
1782836759838259500,3.497259521484375,-0.4744493365287781,0.05484776198863983,-0.39132294058799744
1782836759848188700,3.507188720703125,-0.422642320394516,0.32945457100868225,-0.3282875120639801
1782836759858118700,3.51711865234375,-0.37203437089920044,0.5687922835350037,-0.2870132625102997
1782836759868047400,3.52704736328125,-0.3060801029205322,0.7000352740287781,-0.19376210868358612
1782836759877976300,3.536976318359375,-0.26895347237586975,0.6660993099212646,-0.05196013301610947
1782836759887906600,3.546906494140625,-0.2782185971736908,0.5132085084915161,0.10531444102525711
1782836759897835500,3.55683544921875,-0.3165504038333893,0.3666900396347046,0.27292054891586304
1782836759907764500,3.566764404296875,-0.35473719239234924,0.32048580050468445,0.41889718174934387
1782836759917694500,3.576694580078125,-0.4188882112503052,0.3674316108226776,0.4812632203102112
1782836759927623400,3.58662353515625,-0.5010381937026978,0.45681875944137573,0.3572840094566345
1782836759937552400,3.596552490234375,-0.5133146047592163,0.6166990399360657,0.1669491082429886
1782836759947482600,3.606482666015625,-0.44844743609428406,0.7818642854690552,-0.022871162742376328
1782836759957411600,3.61641162109375,-0.37488505244255066,0.8740423321723938,-0.18499790132045746
1782836759967340500,3.626340576171875,-0.29117551445961,0.8410439491271973,-0.26261118054389954
1782836759977269500,3.63626953125,-0.23580586910247803,0.6152076125144958,-0.19145673513412476
1782836759987199500,3.646199462890625,-0.207326278090477,0.23823289573192596,0.02768867090344429
1782836759997128400,3.65612841796875,-0.19299930334091187,-0.053608763962984085,0.38091975450515747
1782836760007057400,3.666057373046875,-0.2179991900920868,-0.21588234603405,0.8223919868469238
1782836760016987600,3.675987548828125,-0.33500921726226807,-0.28089243173599243,1.1562573909759521
1782836760026916600,3.68591650390625,-0.4410594701766968,-0.21586334705352783,1.2567126750946045
1782836760036845600,3.695845458984375,-0.4917517900466919,0.018826160579919815,1.0844476222991943
1782836760046775600,3.705775634765625,-0.4798058867454529,0.2074650526046753,0.6775302290916443
1782836760056704500,3.71570458984375,-0.3832559585571289,0.20432323217391968,0.21423748135566711
1782836760066633500,3.725633544921875,-0.28877153992652893,-0.05522125959396362,-0.1967889368534088
1782836760076563700,3.735563720703125,-0.27931463718414307,-0.42102402448654175,-0.4709233045578003
1782836760086492400,3.745492431640625,-0.34478339552879333,-0.7494492530822754,-0.5516817569732666
1782836760096421400,3.75542138671875,-0.43740540742874146,-0.874700665473938,-0.4207601547241211
1782836760106351600,3.7653515625,-0.5082220435142517,-0.6799359917640686,-0.08242738991975784
1782836760116280600,3.775280517578125,-0.5225874185562134,-0.27374356985092163,0.4268772304058075
1782836760126209500,3.78520947265625,-0.5411075353622437,-0.06035938858985901,0.8164625763893127
1782836760136139500,3.795139404296875,-0.5871030688285828,-0.19329261779785156,0.8461360931396484
1782836760146068500,3.805068359375,-0.5824987292289734,-0.1825731247663498,0.6364283561706543
1782836760155997400,3.81499755859375,-0.5645217299461365,0.07931271940469742,0.29280173778533936
1782836760165926400,3.824926513671875,-0.6419704556465149,0.2042626440525055,-0.07238076627254486
1782836760175856600,3.834856689453125,-0.8101503252983093,0.008797049522399902,-0.3806806802749634
1782836760185785600,3.84478564453125,-1.0032929182052612,-0.4651939570903778,-0.6262201070785522
1782836760195714600,3.854714599609375,-1.1050282716751099,-1.0058999061584473,-0.7809028625488281
1782836760205644500,3.86464453125,-1.0356113910675049,-1.2620360851287842,-0.7208541631698608
1782836760215573500,3.874573486328125,-0.9569970369338989,-1.2509243488311768,-0.4698556661605835
1782836760225502500,3.88450244140625,-0.9624618291854858,-1.1033220291137695,-0.13313408195972443
1782836760235432700,3.8944326171875,-1.0290992259979248,-0.9629714488983154,0.19253188371658325
1782836760245361700,3.904361572265625,-1.1270979642868042,-0.9655882716178894,0.4505293369293213
1782836760255290600,3.91429052734375,-1.2839561700820923,-0.8839630484580994,0.4687507450580597
1782836760265220600,3.924220703125,-1.3897483348846436,-0.6752532720565796,0.24015618860721588
1782836760275149600,3.934149658203125,-1.3657934665679932,-0.3998042941093445,-0.1244196817278862
1782836760285078500,3.94407861328125,-1.2333147525787354,-0.10068283975124359,-0.483083575963974
1782836760295008500,3.954008544921875,-1.030677080154419,0.13592290878295898,-0.7226821780204773
1782836760304937700,3.963937744140625,-0.8199163675308228,0.2065025269985199,-0.7910082340240479
1782836760314866400,3.973866455078125,-0.662464439868927,0.12904192507266998,-0.6809889078140259
1782836760324796400,3.98379638671875,-0.5503293871879578,-0.014071561396121979,-0.43303292989730835
1782836760334725600,3.9937255859375,-0.4909553825855255,-0.13949428498744965,-0.11589141935110092
1782836760344654600,4.003654541015625,-0.4658678472042084,-0.12909677624702454,0.2069830447435379
1782836760354583600,4.01358349609375,-0.44003403186798096,0.04768488183617592,0.4589516222476959
1782836760364513500,4.023513427734375,-0.4479422867298126,0.2742895185947418,0.5364187359809875
1782836760374442500,4.0334423828125,-0.47116905450820923,0.47130224108695984,0.45321527123451233
1782836760384371500,4.043371337890625,-0.47750231623649597,0.5809440612792969,0.3145180940628052
1782836760394301400,4.053301513671875,-0.4658181071281433,0.579870343208313,0.1821819245815277
1782836760404230700,4.063230712890625,-0.4412853419780731,0.43508946895599365,0.0873507559299469
1782836760414159600,4.07315966796875,-0.37482795119285583,0.1973663866519928,0.058345288038253784
1782836760424089300,4.08308935546875,-0.25914183259010315,-0.01539861224591732,0.1086590588092804
1782836760434018600,4.0930185546875,-0.1829056739807129,-0.19060464203357697,0.1818150132894516
1782836760443947500,4.102947509765625,-0.1507440060377121,-0.31793996691703796,0.25765490531921387
1782836760453877500,4.11287744140625,-0.10731738060712814,-0.3282724618911743,0.30598583817481995
1782836760463806700,4.122806640625,-0.08961135149002075,-0.18453019857406616,0.29571375250816345
1782836760473735700,4.132735595703125,-0.08961264044046402,0.10790907591581345,0.2952393889427185
1782836760483665400,4.14266552734375,-0.1362302005290985,0.43096035718917847,0.3458372950553894
1782836760493594400,4.152594482421875,-0.23222163319587708,0.6763302683830261,0.40987253189086914
1782836760503523600,4.162523681640625,-0.34798017144203186,0.7828695178031921,0.4331544041633606
1782836760513453600,4.17245361328125,-0.4497307538986206,0.7200748920440674,0.42104199528694153
1782836760523382500,4.182382568359375,-0.5196722745895386,0.5147465467453003,0.3821891248226166
1782836760533311500,4.1923115234375,-0.5331794023513794,0.33336833119392395,0.2790229320526123
1782836760543240400,4.202240478515625,-0.46806037425994873,0.15268243849277496,0.14063680171966553
1782836760553170400,4.21217041015625,-0.2766720652580261,-0.1438862830400467,0.10763080418109894
1782836760563099600,4.222099609375,-0.02705371007323265,-0.1381807178258896,0.20244333148002625
1782836760573028600,4.232028564453125,0.1767432540655136,0.2567193806171417,0.39557337760925293
1782836760582958300,4.241958251953125,0.24318619072437286,0.7826244235038757,0.4869895875453949
1782836760592887600,4.251887451171875,0.1923200786113739,0.9456917643547058,0.35364019870758057
1782836760602816500,4.26181640625,0.1925986409187317,0.6485639214515686,0.13216456770896912
1782836760612746500,4.27174658203125,0.27494844794273376,0.25980544090270996,-0.025908533483743668
1782836760622675200,4.28167529296875,0.32423025369644165,-0.0052544549107551575,-0.09459012001752853
1782836760632604200,4.291604248046875,0.3485184907913208,-0.18828615546226501,-0.12859280407428741
1782836760642534100,4.3015341796875,0.36564767360687256,-0.46547165513038635,-0.2329128235578537
1782836760652462800,4.311462890625,0.37731942534446716,-0.9178144335746765,-0.4581955671310425
1782836760662392000,4.32139208984375,0.36522307991981506,-1.2823539972305298,-0.7395262718200684
1782836760672322000,4.331322021484375,0.3420249819755554,-1.410925269126892,-1.0050984621047974
1782836760682251000,4.3412509765625,0.3275112807750702,-1.2947275638580322,-1.1343733072280884
1782836760692180200,4.35118017578125,0.3180560767650604,-0.8736947774887085,-1.062302827835083
1782836760702110000,4.36110986328125,0.2817145884037018,-0.2451155185699463,-0.8077619075775146
1782836760712039000,4.371038818359375,0.20112605392932892,0.31837978959083557,-0.4873689115047455
1782836760721968000,4.380968017578125,0.018533075228333473,0.6510938405990601,-0.2703167498111725
1782836760731898000,4.390898193359375,-0.22531621158123016,0.7403703331947327,-0.20769241452217102
1782836760741827000,4.4008271484375,-0.4399547278881073,0.6503711938858032,-0.29294684529304504
1782836760751756000,4.410756103515625,-0.5709498524665833,0.4367915093898773,-0.472245454788208
1782836760761685200,4.420685302734375,-0.6054404377937317,0.11131219565868378,-0.6373662352561951
1782836760771615000,4.430614990234375,-0.5771949887275696,-0.3348982632160187,-0.7122139930725098
1782836760781544000,4.4405439453125,-0.5108726620674133,-0.7122109532356262,-0.6672958135604858
1782836760791473200,4.45047314453125,-0.43746334314346313,-0.7519620656967163,-0.5358050465583801
1782836760801403100,4.460403076171875,-0.3781707286834717,-0.42668917775154114,-0.36500319838523865
1782836760811332000,4.47033203125,-0.34160473942756653,0.04777636379003525,-0.20136509835720062
1782836760821261000,4.480260986328125,-0.3098667860031128,0.3587406277656555,-0.05184433236718178
1782836760831191000,4.49019091796875,-0.25510886311531067,0.46278178691864014,0.1502375304698944
1782836760841120000,4.5001201171875,-0.18597400188446045,0.47566723823547363,0.3880668580532074
1782836760851049200,4.51004931640625,-0.14890021085739136,0.40739455819129944,0.6364520192146301
1782836760860979200,4.519979248046875,-0.14138635993003845,0.2859072685241699,0.8028743267059326
1782836760870908000,4.529907958984375,-0.1368802785873413,0.16030588746070862,0.8470856547355652
1782836760880836900,4.5398369140625,-0.12758558988571167,0.07672736048698425,0.7660512924194336
1782836760890767000,4.54976708984375,-0.09634177386760712,0.06270302087068558,0.608123779296875
1782836760900696000,4.559696044921875,-0.06658654659986496,0.07895016670227051,0.4165292978286743
1782836760910625000,4.569625,-0.07514166831970215,0.150957390666008,0.2296246737241745
1782836760920555000,4.579554931640625,-0.08251515030860901,0.317487508058548,0.11925369501113892
1782836760930484000,4.58948388671875,-0.0712909996509552,0.4547899663448334,0.14920014142990112
1782836760940413000,4.599412841796875,-0.07933241128921509,0.42138832807540894,0.3207359313964844
1782836760950343200,4.60934326171875,-0.11397450417280197,0.28621745109558105,0.5660887956619263
1782836760960272100,4.619272216796875,-0.159745454788208,0.24127529561519623,0.7837531566619873
1782836760970201000,4.629201171875,-0.21992605924606323,0.2523072361946106,0.9108939170837402
1782836760980131000,4.639131103515625,-0.30858853459358215,0.20559409260749817,0.9231172800064087
1782836760990060000,4.64906005859375,-0.4333575963973999,0.025977589190006256,0.856286346912384
1782836760999989000,4.658989013671875,-0.5376566052436829,-0.20909911394119263,0.7429054975509644
1782836761009919200,4.668919189453125,-0.5436936020851135,-0.26088085770606995,0.5976830720901489
1782836761019848200,4.67884814453125,-0.4217599630355835,-0.23625248670578003,0.4757286608219147
1782836761029777200,4.688777099609375,-0.24370650947093964,-0.2815306782722473,0.35282793641090393
1782836761039706000,4.6987060546875,-0.10309559106826782,-0.49634045362472534,0.3000158667564392
1782836761049636000,4.708635986328125,-0.036686889827251434,-0.7064616680145264,0.3938438594341278
1782836761059565000,4.71856494140625,-0.037607546895742416,-0.7424236536026001,0.6908214688301086
1782836761069494000,4.728493896484375,-0.07339323312044144,-0.8201851844787598,1.0300493240356445
1782836761079424300,4.73842431640625,-0.12852226197719574,-0.9966105818748474,1.118939995765686
1782836761089353000,4.74835302734375,-0.17417387664318085,-0.8938455581665039,0.9092094302177429
1782836761099282000,4.758281982421875,-0.18939650058746338,-0.4609452784061432,0.47300174832344055
1782836761109212200,4.768212158203125,-0.18104541301727295,0.014088482595980167,-0.0705135315656662
1782836761119141000,4.77814111328125,-0.10689875483512878,0.2693817615509033,-0.5021946430206299
1782836761129070000,4.788070068359375,0.046475253999233246,0.1654381901025772,-0.692534863948822
1782836761139000000,4.798,0.19087424874305725,-0.2752923369407654,-0.7168870568275452
1782836761148929000,4.807928955078125,0.2517906129360199,-0.6054052710533142,-0.6909178495407104
1782836761158858000,4.81785791015625,0.21469517052173615,-0.6652313470840454,-0.6874152421951294
1782836761168788000,4.8277880859375,0.0994892492890358,-0.5585843324661255,-0.744145929813385
1782836761178717200,4.83771728515625,0.0022937264293432236,-0.39027759432792664,-0.7627704739570618
1782836761188646100,4.847646240234375,-0.028734629973769188,-0.20072714984416962,-0.6565172076225281
1782836761198575900,4.857575927734375,-0.04076599329710007,-0.12243154644966125,-0.4558691084384918
1782836761208505000,4.867505126953125,-0.057457949966192245,-0.18012720346450806,-0.2654813826084137
1782836761218434000,4.87743408203125,-0.12221057713031769,-0.217699334025383,-0.23069359362125397
1782836761228364000,4.887364013671875,-0.2203497290611267,-0.17647512257099152,-0.413388192653656
1782836761238293200,4.897293212890625,-0.28119948506355286,-0.09414402395486832,-0.7146588563919067
1782836761248222200,4.90722216796875,-0.2714514434337616,0.016469882801175117,-1.0335942506790161
1782836761258151200,4.917151123046875,-0.24148103594779968,0.13744983077049255,-1.2565580606460571
1782836761268081000,4.927080810546875,-0.24037262797355652,0.17266879975795746,-1.2851482629776
1782836761278010000,4.937010009765625,-0.27574464678764343,0.17652496695518494,-1.1183860301971436
1782836761287939000,4.94693896484375,-0.317584753036499,0.2761024534702301,-0.7975925207138062
1782836761297869000,4.956869140625,-0.34553515911102295,0.39589276909828186,-0.3942679464817047
1782836761307798300,4.96679833984375,-0.31680065393447876,0.48899969458580017,0.019300084561109543
1782836761317727000,4.97672705078125,-0.24238288402557373,0.5414839386940002,0.36735206842422485
1782836761327657000,4.986656982421875,-0.14785534143447876,0.5158035159111023,0.601963996887207
1782836761337586200,4.996586181640625,-0.08117350935935974,0.45667144656181335,0.7030719518661499
1782836761347515100,5.00651513671875,-0.08468174934387207,0.3852691352367401,0.6581677198410034
1782836761357445000,5.016445068359375,-0.1404603272676468,0.2741950750350952,0.4884945750236511
1782836761367374000,5.0263740234375,-0.19364111125469208,0.20959948003292084,0.2306680828332901
1782836761377303000,5.036302978515625,-0.2045843005180359,0.1698392778635025,-0.02959812432527542
1782836761387233000,5.04623291015625,-0.2058034986257553,0.05034751445055008,-0.1773788034915924
1782836761397162000,5.056161865234375,-0.2214844524860382,-0.054382361471652985,-0.18708814680576324
1782836761407091200,5.06609130859375,-0.22722084820270538,-0.05465076491236687,-0.0605231411755085
1782836761417021000,5.07602099609375,-0.20807591080665588,-0.07037513703107834,0.1820271760225296
1782836761426950000,5.085949951171875,-0.22092624008655548,-0.07524605840444565,0.4434150755405426
1782836761436879000,5.095879150390625,-0.25267457962036133,-0.05787745118141174,0.6652260422706604
1782836761446809000,5.10580908203125,-0.2555791437625885,-0.06013243645429611,0.8606977462768555
1782836761456738000,5.115738037109375,-0.17860551178455353,-0.07067456096410751,1.0697636604309082
1782836761466667300,5.125667236328125,-0.09137891232967377,-0.0967993214726448,1.220522165298462
1782836761476597000,5.135596923828125,-0.11286263912916183,-0.2557181417942047,1.1407849788665771
1782836761486526000,5.14552587890625,-0.21425943076610565,-0.39684826135635376,0.8454564809799194
1782836761496455000,5.155454833984375,-0.3069204092025757,-0.48662763833999634,0.3829946219921112
1782836761506384100,5.165384033203125,-0.31831783056259155,-0.6632220149040222,-0.11506326496601105
1782836761516314000,5.175314208984375,-0.15672306716442108,-0.7273938059806824,-0.437040239572525
1782836761526243000,5.1852431640625,0.06294647604227066,-0.42361873388290405,-0.44379690289497375
1782836761536172000,5.195172119140625,0.13397352397441864,0.08996017277240753,-0.17346687614917755
1782836761546102000,5.20510205078125,-0.05440054461359978,0.771008312702179,0.19521716237068176
1782836761556031000,5.215031005859375,-0.3992769718170166,1.3480892181396484,0.5600502490997314
1782836761565960200,5.224960205078125,-0.6679180860519409,1.414052128791809,0.738538384437561
1782836761575890200,5.23489013671875,-0.7200457453727722,0.9504317045211792,0.7148301601409912
1782836761585819000,5.24481884765625,-0.5415354371070862,0.4246087670326233,0.5538768768310547
1782836761595748000,5.254748046875,-0.21781165897846222,0.06931006163358688,0.2834371328353882
1782836761605678000,5.264677978515625,0.13811437785625458,-0.28198811411857605,-0.03115003928542137
1782836761615607000,5.27460693359375,0.4493076801300049,-0.7606624960899353,-0.26746776700019836
1782836761625536300,5.284536376953125,0.6294150352478027,-1.4087797403335571,-0.4312319755554199
1782836761635466000,5.294466064453125,0.6768874526023865,-1.7553914785385132,-0.43297287821769714
1782836761645395000,5.30439501953125,0.6487292647361755,-1.694130539894104,-0.30573490262031555
1782836761655324200,5.31432421875,0.5464593768119812,-1.454058289527893,-0.23198291659355164
1782836761665254100,5.324254150390625,0.36972835659980774,-1.0217571258544922,-0.28229790925979614
1782836761675182000,5.33418212890625,0.13486820459365845,-0.47995907068252563,-0.42816615104675293
1782836761685111000,5.344111083984375,-0.14866326749324799,-0.008791309781372547,-0.6224042177200317
1782836761695040300,5.354040283203125,-0.45577844977378845,0.2962324917316437,-0.8443076014518738
1782836761704970200,5.36397021484375,-0.6885061264038086,0.46381041407585144,-1.0413413047790527
1782836761714899000,5.37389892578125,-0.7859448194503784,0.4553181231021881,-1.1540443897247314
1782836761724828200,5.383828125,-0.7139630317687988,0.2581445574760437,-1.100876808166504
1782836761734758100,5.393758056640625,-0.5520814657211304,-0.052385613322257996,-0.8916754126548767
1782836761744687000,5.40368701171875,-0.4150242209434509,-0.3565772771835327,-0.6131656765937805
1782836761754616300,5.4136162109375,-0.3585606813430786,-0.47244343161582947,-0.30174094438552856
1782836761764546000,5.423546142578125,-0.3295796811580658,-0.32096803188323975,0.00834818184375763
1782836761774475000,5.43347509765625,-0.3048112094402313,-0.07585414499044418,0.2839992046356201
1782836761784404000,5.443404052734375,-0.30936089158058167,0.05852723866701126,0.5201177597045898
1782836761794334200,5.453334228515625,-0.32478246092796326,0.06427513808012009,0.7092978358268738
1782836761804263200,5.46326318359375,-0.3354548215866089,0.0817277580499649,0.8316452503204346
1782836761814192000,5.473192138671875,-0.3404269516468048,0.15931230783462524,0.8673268556594849
1782836761824122000,5.4831220703125,-0.35185205936431885,0.2477368861436844,0.8083660006523132
1782836761834051000,5.493051025390625,-0.357294499874115,0.33211007714271545,0.6358248591423035
1782836761843980000,5.50297998046875,-0.3675921559333801,0.42717087268829346,0.3926311731338501
1782836761853910300,5.51291015625,-0.3927196264266968,0.5357085466384888,0.12239035964012146
1782836761863839200,5.522839111328125,-0.4154992997646332,0.6085590720176697,-0.09211921691894531
1782836761873768200,5.532768310546875,-0.4086296856403351,0.6690661311149597,-0.18945321440696716
1782836761883698200,5.5426982421875,-0.39775076508522034,0.7356557846069336,-0.19020143151283264
1782836761893627100,5.552627197265625,-0.3780550956726074,0.7069485187530518,-0.07907971739768982
1782836761903556000,5.56255615234375,-0.3569088578224182,0.6044288873672485,0.14023414254188538
1782836761913486300,5.572486328125,-0.3425576090812683,0.5613109469413757,0.41584762930870056
1782836761923415300,5.582415283203125,-0.3485991954803467,0.5396950244903564,0.6594875454902649
1782836761933344000,5.592343994140625,-0.3743721842765808,0.3870066702365875,0.7937784790992737
1782836761943273000,5.60227294921875,-0.3928314745426178,0.11126124113798141,0.8196592330932617
1782836761953203200,5.612203125,-0.35394346714019775,-0.039541322737932205,0.7683531641960144
1782836761963132200,5.622132080078125,-0.22899144887924194,0.11303272843360901,0.668239176273346
1782836761973061000,5.63206103515625,-0.09438010305166245,0.29829153418540955,0.5315178036689758
1782836761982991000,5.6419912109375,-0.006270182318985462,0.37417539954185486,0.3454050123691559
1782836761992920000,5.651920166015625,0.0767943486571312,0.37901541590690613,0.17367292940616608
1782836762002849000,5.66184912109375,0.17408236861228943,0.32805877923965454,0.15226927399635315
1782836762012779300,5.671779296875,0.21952921152114868,0.42572301626205444,0.30442899465560913
1782836762022708200,5.681708251953125,0.20067106187343597,0.652787446975708,0.5101540684700012
1782836762032637200,5.69163720703125,0.16250157356262207,0.7812290191650391,0.5828831791877747
1782836762042567200,5.701567138671875,0.1435517966747284,0.7430683374404907,0.46458739042282104
1782836762052496100,5.71149609375,0.13691173493862152,0.6268330812454224,0.22859403491020203
1782836762062425000,5.721425048828125,0.11556802690029144,0.3893101215362549,-0.09417299926280975
1782836762072355300,5.731355224609375,0.13076454401016235,-0.17911843955516815,-0.4710792601108551
1782836762082284300,5.7412841796875,0.2279936969280243,-0.9402004480361938,-0.7978631854057312
1782836762092213200,5.751213134765625,0.2875062823295593,-1.4526456594467163,-1.02637779712677
1782836762102143000,5.76114306640625,0.21666498482227325,-1.4943344593048096,-1.1794499158859253
1782836762112072200,5.771072265625,0.13965995609760284,-1.282773494720459,-1.243941307067871
1782836762122001200,5.781001220703125,0.16589689254760742,-1.0164496898651123,-1.1442946195602417
1782836762131931100,5.79093115234375,0.27924448251724243,-0.9097748398780823,-0.9024782180786133
1782836762141860400,5.8008603515625,0.3519846796989441,-0.9100160002708435,-0.6268145442008972
1782836762151789300,5.810789306640625,0.2526589035987854,-0.8078457117080688,-0.43242695927619934
1782836762161719000,5.820718994140625,-0.04653997719287872,-0.5693176984786987,-0.4045776128768921
1782836762171648300,5.830648193359375,-0.4462655484676361,-0.22334825992584229,-0.5708627700805664
1782836762181577200,5.8405771484375,-0.7762042880058289,0.14616897702217102,-0.8099492192268372
1782836762191506200,5.850506103515625,-0.9426358938217163,0.4506298005580902,-0.9843176007270813
1782836762201436200,5.860436279296875,-0.9625692367553711,0.6305026412010193,-1.0361912250518799
1782836762211365000,5.870365234375,-0.829882800579071,0.5744175910949707,-0.9206118583679199
1782836762221294000,5.880294189453125,-0.5592027306556702,0.3962431252002716,-0.6388813853263855
1782836762231224000,5.89022412109375,-0.23202966153621674,0.16792820394039154,-0.23689503967761993
1782836762241153300,5.9001533203125,0.045052334666252136,-0.03700856491923332,0.22732970118522644
1782836762251082200,5.910082275390625,0.19638299942016602,-0.14887331426143646,0.6404147148132324
1782836762261012000,5.920011962890625,0.20606476068496704,-0.10690314322710037,0.8999589681625366
1782836762270941200,5.929941162109375,0.1306014358997345,0.021808497607707977,0.9968522191047668
1782836762280870100,5.9398701171875,0.02545352652668953,0.18413197994232178,0.9826927185058594
1782836762290800000,5.949800048828125,-0.11541757732629776,0.32103899121284485,0.8544215559959412
1782836762300729000,5.95972900390625,-0.28800004720687866,0.37867221236228943,0.6127976179122925
1782836762310661000,5.9696611328125,-0.4278266429901123,0.4194777011871338,0.32270610332489014
1782836762320590300,5.97959033203125,-0.5118770003318787,0.4789876341819763,0.0939006507396698
1782836762330519300,5.989519287109375,-0.5553514957427979,0.5271828174591064,-0.00994771160185337
1782836762340449000,5.999448974609375,-0.5890235900878906,0.512795090675354,0.016835201531648636
1782836762350378000,6.0093779296875,-0.6162117719650269,0.4441465139389038,0.1493048369884491
1782836762360307200,6.01930712890625,-0.6215073466300964,0.390720933675766,0.37165749073028564
1782836762370237200,6.0292373046875,-0.578042209148407,0.4199390113353729,0.6384620666503906
1782836762380166100,6.039166259765625,-0.49738964438438416,0.41471612453460693,0.8818449378013611
1782836762390095400,6.049095458984375,-0.4267095923423767,0.3452419936656952,1.01176118850708
1782836762400025000,6.059025146484375,-0.38142770528793335,0.31376054883003235,0.9932236671447754
1782836762409954000,6.0689541015625,-0.3518570363521576,0.3617943823337555,0.8418344259262085
1782836762419883300,6.07888330078125,-0.3708968758583069,0.445194274187088,0.6120976805686951
1782836762429813200,6.088813232421875,-0.4669099450111389,0.47522595524787903,0.3426015079021454
1782836762439742200,6.0987421875,-0.5848973393440247,0.4222247898578644,0.11618639528751373
1782836762449671200,6.108671142578125,-0.6298714876174927,0.43692731857299805,0.007136072963476181
1782836762459600100,6.11860009765625,-0.5730834007263184,0.5573465824127197,-0.023008525371551514
1782836762469530000,6.128530029296875,-0.43076783418655396,0.6879056692123413,-0.042689017951488495
1782836762479459000,6.138458984375,-0.22804652154445648,0.6537896394729614,0.0037550637498497963
1782836762489388300,6.14838818359375,-0.0658983588218689,0.4864831864833832,0.10695867985486984
1782836762499318000,6.158318115234375,0.03198150172829628,0.30632516741752625,0.19193482398986816
1782836762509247000,6.1682470703125,0.08385695517063141,0.13798624277114868,0.1353011131286621
1782836762519176200,6.17817626953125,0.12093894928693771,0.037811167538166046,-0.0812731385231018
1782836762529106200,6.188106201171875,0.12058528512716293,0.03162544220685959,-0.4713394045829773
1782836762539035100,6.19803515625,0.09563159942626953,0.25381752848625183,-0.852172315120697
1782836762548964400,6.20796435546875,0.0832604169845581,0.551287829875946,-1.0608506202697754
1782836762558894000,6.21789404296875,0.10495232790708542,0.5784874558448792,-1.1109681129455566
1782836762568823000,6.227822998046875,0.1661621481180191,0.21835267543792725,-1.044463872909546
1782836762578752000,6.237751953125,0.2021825760602951,-0.4148913025856018,-0.900172233581543
1782836762588682200,6.24768212890625,0.18756501376628876,-0.9815728068351746,-0.7001374363899231
1782836762598611200,6.257611083984375,0.1533035784959793,-1.3141100406646729,-0.4727325737476349
1782836762608540200,6.2675400390625,0.09297631680965424,-1.4579676389694214,-0.23860421776771545
1782836762618470100,6.27747021484375,0.09905505925416946,-1.4127075672149658,0.019136670976877213
1782836762628399000,6.287399169921875,0.15771543979644775,-1.3164079189300537,0.26362311840057373
1782836762638328000,6.297328125,0.19298982620239258,-1.244972825050354,0.4503821134567261
1782836762648258000,6.307258056640625,0.14270322024822235,-1.1504404544830322,0.5003674626350403
1782836762658187000,6.31718701171875,0.0214926078915596,-1.0379670858383179,0.39070960879325867
1782836762668116000,6.327115966796875,-0.085242360830307,-0.9609657526016235,0.17415998876094818
1782836762678046000,6.3370458984375,-0.1192789077758789,-0.9897981286048889,-0.08272076398134232
1782836762687975000,6.346974853515625,-0.0858309417963028,-1.1141406297683716,-0.27367714047431946
1782836762697904000,6.356904052734375,-0.05934932455420494,-1.1453099250793457,-0.365835964679718
1782836762707834000,6.366834228515625,-0.11344078183174133,-0.962651252746582,-0.35452044010162354
1782836762717763000,6.37676318359375,-0.22578798234462738,-0.5833161473274231,-0.2693791687488556
1782836762727692000,6.386692138671875,-0.3959008753299713,-0.06954440474510193,-0.17446225881576538
1782836762737621000,6.39662109375,-0.5679063200950623,0.4549869894981384,-0.1057022362947464
1782836762747551000,6.406551025390625,-0.6634607911109924,0.8328794240951538,-0.057951491326093674
1782836762757480200,6.416480224609375,-0.6605586409568787,1.013925313949585,-0.00462187547236681
1782836762767409200,6.4264091796875,-0.6005373597145081,1.0141212940216064,0.0829673632979393
1782836762777339000,6.4363388671875,-0.5470830798149109,0.8978415727615356,0.18970076739788055
1782836762787267800,6.446267822265625,-0.5429399609565735,0.6838698983192444,0.31345227360725403
1782836762797197000,6.456197021484375,-0.5403046011924744,0.454793781042099,0.41765621304512024
1782836762807127000,6.466126953125,-0.4797302186489105,0.3076629340648651,0.47638291120529175
1782836762817056000,6.476055908203125,-0.37526729702949524,0.18373838067054749,0.4643249213695526
1782836762826985200,6.485985107421875,-0.28356611728668213,0.0856245830655098,0.3517879843711853
1782836762836915000,6.4959150390625,-0.19939199090003967,0.18134453892707825,0.17091359198093414
1782836762846844000,6.505843994140625,-0.08670272678136826,0.4911785423755646,0.029372982680797577
1782836762856773000,6.515773193359375,0.039410293102264404,0.6842467784881592,-0.030305005609989166
1782836762866703000,6.525703125,0.11821882426738739,0.492306649684906,-0.012306565418839455
1782836762876632000,6.535632080078125,0.1490228772163391,0.044631391763687134,0.09191473573446274
1782836762886561000,6.54556103515625,0.16978755593299866,-0.3456636369228363,0.28798091411590576
1782836762896491000,6.555490966796875,0.14533163607120514,-0.5305755138397217,0.47433775663375854
1782836762906420000,6.565419921875,0.06456594169139862,-0.6197727918624878,0.5844283103942871
1782836762916349000,6.575348876953125,-0.04605443775653839,-0.6811327934265137,0.6409018635749817
1782836762926279200,6.585279052734375,-0.11772383749485016,-0.47883373498916626,0.6428608894348145
1782836762936208100,6.5952080078125,-0.08062611520290375,0.0045648859813809395,0.6191418766975403
1782836762946136800,6.60513671875,0.014866849407553673,0.49862468242645264,0.4929240345954895
1782836762956067000,6.615067138671875,0.15100379288196564,0.8284767270088196,0.27631479501724243
1782836762965996000,6.62499609375,0.25166943669319153,0.9895033836364746,0.026972895488142967
1782836762975925000,6.634925048828125,0.22342978417873383,1.1390289068222046,-0.15793472528457642
1782836762985855000,6.64485498046875,0.03997979313135147,1.3239539861679077,-0.2644723355770111
1782836762995784000,6.654783935546875,-0.22801195085048676,1.2981725931167603,-0.3354918360710144
1782836763005713000,6.664712890625,-0.45735883712768555,0.9017997980117798,-0.430046021938324
1782836763015643100,6.67464306640625,-0.5294744372367859,0.49509334564208984,-0.5616069436073303
1782836763025572000,6.684572021484375,-0.46808168292045593,0.21909134089946747,-0.7368860840797424
1782836763035501000,6.6945009765625,-0.34623292088508606,-0.13225910067558289,-0.9118791222572327
1782836763045431000,6.70443115234375,-0.18826298415660858,-0.5562117099761963,-1.0224498510360718
1782836763055360000,6.714360107421875,0.011551082134246826,-0.8965047001838684,-0.9720420241355896
1782836763065289000,6.7242890625,0.2449023276567459,-1.0279154777526855,-0.7800824642181396
1782836763075218000,6.734218017578125,0.49082067608833313,-1.0743578672409058,-0.5056330561637878
1782836763085148200,6.744148193359375,0.7405809760093689,-1.1037354469299316,-0.2199922800064087
1782836763095077000,6.7540771484375,0.9568610787391663,-1.0640602111816406,0.04235684126615524
1782836763105006000,6.764006103515625,1.027485966682434,-1.0675326585769653,0.21823440492153168
1782836763114936000,6.77393603515625,0.928968608379364,-1.102258563041687,0.29126715660095215
1782836763124865000,6.783864990234375,0.7127656936645508,-1.091157078742981,0.24896682798862457
1782836763134794000,6.7937939453125,0.4288519322872162,-1.0119593143463135,0.04642355442047119
1782836763144724200,6.80372412109375,0.1399383693933487,-0.8739631175994873,-0.2982582151889801
1782836763154653200,6.813653076171875,-0.1293395608663559,-0.6478350162506104,-0.7046861052513123
1782836763164582000,6.823581787109375,-0.355676531791687,-0.30307310819625854,-1.0265072584152222
1782836763174511900,6.833511962890625,-0.5214148163795471,0.10747883468866348,-1.188431739807129
1782836763184441000,6.843441162109375,-0.6347399950027466,0.38433414697647095,-1.16728675365448
1782836763194370000,6.8533701171875,-0.7112211585044861,0.46180233359336853,-0.9935289621353149
1782836763204300000,6.863300048828125,-0.7193568348884583,0.4078957140445709,-0.7063118815422058
1782836763214229000,6.87322900390625,-0.6720679402351379,0.2922499179840088,-0.36073583364486694
1782836763224158000,6.883157958984375,-0.59786456823349,0.26102569699287415,-0.03309272229671478
1782836763234088000,6.893087890625,-0.5064228177070618,0.27575787901878357,0.24680565297603607
1782836763244017200,6.90301708984375,-0.4412296712398529,0.2567564845085144,0.4366336464881897
1782836763253946000,6.912946044921875,-0.43025344610214233,0.1341308206319809,0.49342745542526245
1782836763263875800,6.922875732421875,-0.4342697858810425,-0.011149406433105469,0.4165712594985962
1782836763273805000,6.93280517578125,-0.41404253244400024,-0.007327146362513304,0.21735264360904694
1782836763283734000,6.942734130859375,-0.33903220295906067,0.15813931822776794,-0.04250902682542801
1782836763293664000,6.9526640625,-0.2511298656463623,0.3593466281890869,-0.27258944511413574
1782836763303593000,6.962593017578125,-0.19278083741664886,0.4881879389286041,-0.3835258185863495
1782836763313522200,6.972522216796875,-0.1737239509820938,0.554949939250946,-0.32288452982902527
1782836763323452000,6.982451904296875,-0.1744360774755478,0.5725094676017761,-0.08827387541532516
1782836763333380900,6.992380859375,-0.21839703619480133,0.5612195134162903,0.2601334750652313
1782836763343310000,7.00231005859375,-0.2684737741947174,0.4862307608127594,0.6824471354484558
1782836763353240000,7.012239990234375,-0.3144061267375946,0.3621431291103363,1.0954053401947021
1782836763363169000,7.0221689453125,-0.41072094440460205,0.20161470770835876,1.3656812906265259
1782836763373098200,7.03209814453125,-0.5137917995452881,0.0466323122382164,1.342916488647461
1782836763383027200,7.042027099609375,-0.5004919767379761,-0.006929985247552395,1.0570615530014038
1782836763392957000,7.05195703125,-0.35589972138404846,0.1818493902683258,0.6290116310119629
1782836763402886000,7.061885986328125,-0.1523655205965042,0.5400744080543518,0.23109404742717743
1782836763412815000,7.071815185546875,-0.02557140775024891,0.7818083167076111,-0.05654391646385193
1782836763422745000,7.0817451171875,0.0030663637444376945,0.8167822360992432,-0.28077489137649536
1782836763432674000,7.091674072265625,0.05992645025253296,0.6581625938415527,-0.289488822221756
1782836763442603000,7.10160302734375,0.13673441112041473,0.6694374084472656,0.03209959343075752
1782836763452533000,7.111532958984375,0.15551523864269257,0.8524201512336731,0.6336119771003723
1782836763462462000,7.1214619140625,0.05986647307872772,1.0657100677490234,1.2503397464752197
1782836763472391200,7.13139111328125,-0.12830913066864014,1.0203349590301514,1.5758320093154907
1782836763482321000,7.14132080078125,-0.2850683927536011,0.46419215202331543,1.4103410243988037
1782836763492249900,7.151249755859375,-0.32912716269493103,-0.19429126381874084,0.7924028635025024
1782836763502179000,7.161178955078125,-0.20335540175437927,-0.4965728223323822,-0.007734287995845079
1782836763512109000,7.171109130859375,-0.03721322491765022,-0.6278440356254578,-0.7218675017356873
1782836763522038000,7.1810380859375,0.11715956777334213,-0.8681210875511169,-1.176413893699646
1782836763531967000,7.190967041015625,0.2701985538005829,-1.2760157585144043,-1.3145511150360107
1782836763541897000,7.20089697265625,0.3847706615924835,-1.6890568733215332,-1.2516225576400757
1782836763551826000,7.210825927734375,0.4783030152320862,-1.8915337324142456,-1.0633126497268677
1782836763561755000,7.2207548828125,0.6296328902244568,-1.8217599391937256,-0.701667308807373
1782836763571685000,7.23068505859375,0.8034205436706543,-1.5479990243911743,-0.22969093918800354
1782836763581614000,7.240614013671875,0.8938106298446655,-1.2129228115081787,0.1979067325592041
1782836763591543000,7.25054296875,0.8493475914001465,-0.9665302038192749,0.4265393614768982
1782836763601473000,7.26047314453125,0.6872668266296387,-0.8521910905838013,0.3420335352420807
1782836763611402000,7.270402099609375,0.4641674757003784,-0.8708406090736389,-0.04055067151784897
1782836763621331000,7.2803310546875,0.26675131916999817,-0.9441483616828918,-0.6098106503486633
1782836763631260000,7.290260009765625,0.14359650015830994,-0.9777788519859314,-1.1875022649765015
1782836763641190100,7.300190185546875,0.06646949052810669,-0.9799314737319946,-1.6187649965286255
1782836763651119000,7.310119140625,-0.0015857266262173653,-0.9753954410552979,-1.7793924808502197
1782836763661047800,7.3200478515625,-0.05826365575194359,-0.842311680316925,-1.6355899572372437
1782836763670977800,7.329977783203125,-0.07129702717065811,-0.5872182250022888,-1.203440546989441
1782836763680907000,7.339906982421875,-0.04932328313589096,-0.255820631980896,-0.5796754956245422
1782836763690836000,7.3498359375,-0.00003192014992237091,0.022602876648306847,0.07088200002908707
1782836763700766000,7.359765869140625,0.0423288531601429,0.16889803111553192,0.6473317742347717
1782836763710695000,7.36969482421875,0.07758944481611252,0.21858426928520203,1.0664771795272827
1782836763720623900,7.379623779296875,0.08326144516468048,0.13867665827274323,1.3010708093643188
1782836763730553900,7.389553955078125,0.030200891196727753,0.02126339264214039,1.31827712059021
1782836763740483000,7.399483154296875,-0.040908440947532654,-0.06902815401554108,1.1023905277252197
1782836763750412000,7.409412109375,-0.07660610228776932,-0.04221509397029877,0.7078204154968262
1782836763760341800,7.419341796875,-0.04857473075389862,0.09583784639835358,0.23621878027915955
1782836763770270700,7.429270751953125,0.0007128743454813957,0.17168109118938446,-0.2129523754119873
1782836763780200000,7.439199951171875,0.0017850631847977638,0.08564713597297668,-0.5635412931442261
1782836763790130000,7.4491298828125,-0.03710710257291794,-0.001994924619793892,-0.7621554136276245
1782836763800059000,7.459058837890625,-0.06293363869190216,0.025528844445943832,-0.7566112279891968
1782836763809988000,7.468988037109375,-0.05262294411659241,0.062355831265449524,-0.5266976356506348
1782836763819917800,7.478917724609375,-0.0086758928373456,0.09222341328859329,-0.12369740009307861
1782836763829846800,7.4888466796875,0.0002874135971069336,0.13763293623924255,0.3623924255371094
1782836763839776000,7.49877587890625,-0.0701151192188263,0.24251221120357513,0.7927843332290649
1782836763849706000,7.5087060546875,-0.18807412683963776,0.37471482157707214,1.0681397914886475
1782836763859635000,7.518635009765625,-0.2915706932544708,0.45689064264297485,1.1540073156356812
1782836763869564200,7.528564208984375,-0.3568571209907532,0.5230013132095337,1.0558151006698608
1782836763879494000,7.538493896484375,-0.40316763520240784,0.6068075299263,0.8273290395736694
1782836763889422800,7.5484228515625,-0.485850989818573,0.7195174098014832,0.4884359836578369
1782836763899351800,7.558351806640625,-0.587390661239624,0.8464037179946899,0.19813625514507294
1782836763909281000,7.568281005859375,-0.7260984778404236,0.9676439166069031,0.02873293310403824
1782836763919211000,7.5782109375,-0.8823983669281006,0.9241941571235657,-0.0465272031724453
1782836763929140000,7.588139892578125,-0.9867229461669922,0.5717487335205078,-0.03783083334565163
1782836763939069000,7.59806884765625,-0.9642187356948853,0.03868481516838074,0.01612241379916668
1782836763948999000,7.6079990234375,-0.7649701237678528,-0.3935123085975647,0.14204822480678558
1782836763958928000,7.617927978515625,-0.39532285928726196,-0.4319435954093933,0.4065619111061096
1782836763968857000,7.627857177734375,0.028649713844060898,-0.15143071115016937,0.7188295125961304
1782836763978787000,7.637787109375,0.3232928216457367,0.13870498538017273,0.8651635646820068
1782836763988715800,7.6477158203125,0.38913530111312866,0.25200796127319336,0.7720308303833008
1782836763998644700,7.657644775390625,0.3223336338996887,0.1862555891275406,0.518271803855896
1782836764008575000,7.667574951171875,0.19404318928718567,0.06599593907594681,0.18030384182929993
1782836764018504000,7.67750390625,0.046634823083877563,0.15227676928043365,-0.1973867267370224
1782836764028433000,7.687432861328125,-0.047272514551877975,0.3256950080394745,-0.5523219704627991
1782836764038363000,7.69736279296875,-0.0009755883365869522,0.35787320137023926,-0.8205326199531555
1782836764048291800,7.707291748046875,0.19231045246124268,-0.007278900593519211,-0.9694401025772095
1782836764058220800,7.717220703125,0.4086235761642456,-0.8645957112312317,-1.0089272260665894
1782836764068151000,7.727151123046875,0.5852923393249512,-1.6654130220413208,-0.8877724409103394
1782836764078080000,7.737080078125,0.633420467376709,-1.712414026260376,-0.631049394607544
1782836764088009000,7.747009033203125,0.5641661882400513,-0.9956185817718506,-0.2723846137523651
1782836764097939000,7.75693896484375,0.45346760749816895,0.06909141689538956,0.06832316517829895
1782836764107868000,7.766867919921875,0.32484564185142517,0.946085512638092,0.2582665979862213
1782836764117796900,7.776796875,0.146449014544487,1.300411581993103,0.22974893450737
1782836764127727000,7.78672705078125,-0.13982942700386047,1.0749783515930176,-0.08947157114744186
1782836764137656000,7.796656005859375,-0.4816426634788513,0.5695968866348267,-0.6714559197425842
1782836764147585000,7.8065849609375,-0.7766963839530945,0.25445589423179626,-1.3016661405563354
1782836764157515000,7.816514892578125,-0.9587434530258179,0.12068106234073639,-1.8050613403320312
1782836764167444000,7.82644384765625,-1.0600464344024658,0.06133207306265831,-2.068275213241577
1782836764177373000,7.836373046875,-0.99033522605896,-0.046170953661203384,-2.0281190872192383
1782836764187303000,7.846302978515625,-0.6991560459136963,-0.22901654243469238,-1.6997185945510864
1782836764197232000,7.856232177734375,-0.2648176848888397,-0.486484557390213,-1.1128753423690796
1782836764207160800,7.866160888671875,0.11210593581199646,-0.7552964091300964,-0.4400922954082489
1782836764217089800,7.87608984375,0.3013744056224823,-1.0042213201522827,0.14389045536518097
1782836764227020000,7.88602001953125,0.29382675886154175,-1.1325855255126953,0.5561922788619995
1782836764236949000,7.895948974609375,0.13577985763549805,-1.0721272230148315,0.7385527491569519
1782836764246878000,7.9058779296875,-0.15344969928264618,-0.8334835767745972,0.6019808053970337
1782836764256808000,7.915807861328125,-0.5094791650772095,-0.4335334897041321,0.22348138689994812
1782836764266737000,7.92573681640625,-0.8081884980201721,0.11911351978778839,-0.22721008956432343
1782836764276665900,7.935665771484375,-0.9624440670013428,0.6533135771751404,-0.5766056776046753
1782836764286596000,7.94559619140625,-0.9539902210235596,0.9997245669364929,-0.7024668455123901
1782836764296525000,7.955525146484375,-0.825352132320404,1.057404637336731,-0.60311359167099
1782836764306454000,7.9654541015625,-0.6125032901763916,0.88335120677948,-0.33807623386383057
1782836764316383700,7.9753837890625,-0.379316121339798,0.6168782114982605,0.016869358718395233
1782836764326313000,7.98531298828125,-0.20593011379241943,0.35948804020881653,0.3450049161911011
1782836764336242000,7.995241943359375,-0.05030563101172447,0.16652657091617584,0.6328065991401672
1782836764346172000,8.005171875,0.05669704079627991,0.11227110773324966,0.8672365546226501
1782836764356101000,8.01510107421875,0.16078908741474152,0.12228859215974808,1.0372111797332764
1782836764366030000,8.025030029296875,0.21350985765457153,0.19657711684703827,1.0549306869506836
1782836764375959800,8.034959716796875,0.18463826179504395,0.3466363847255707,0.8273710012435913
1782836764385889000,8.044888916015625,0.10606103390455246,0.5131157636642456,0.4792605936527252
1782836764395818000,8.05481787109375,0.01863105595111847,0.6124737858772278,0.15396693348884583
1782836764405748000,8.064748046875,-0.07729368656873703,0.7402113676071167,-0.10898683220148087
1782836764415677000,8.074677001953125,-0.15879866480827332,0.8977810144424438,-0.2984989881515503
1782836764425606000,8.08460595703125,-0.19880874454975128,0.9594904184341431,-0.37920883297920227
1782836764435536000,8.094535888671874,-0.2070978283882141,0.8230990171432495,-0.2367270439863205
1782836764445464800,8.10446484375,-0.24288681149482727,0.7095308899879456,0.08961369097232819
1782836764455394000,8.11439404296875,-0.291138231754303,0.5921968221664429,0.492516428232193
1782836764465324000,8.124323974609375,-0.300924688577652,0.4853830337524414,0.8973708152770996
1782836764475253000,8.1342529296875,-0.23024491965770721,0.45093077421188354,1.2993649244308472
1782836764485182000,8.144181884765626,-0.10138524323701859,0.4723837077617645,1.662491798400879
1782836764495111000,8.15411083984375,0.018695088103413582,0.5151497721672058,1.931323528289795
1782836764505041000,8.164041015625,0.1087992787361145,0.5548302531242371,2.074267864227295
1782836764514969900,8.173969970703125,0.12134436517953873,0.5912433862686157,1.9869201183319092
1782836764524899000,8.183899169921874,-0.004961641505360603,0.037616755813360214,1.405447244644165
1782836764534828800,8.193828857421876,-0.08294698596000671,-0.4007970690727234,0.7771944999694824
1782836764544757800,8.2037578125,0.02389698103070259,-0.23819279670715332,0.35273900628089905
1782836764554687000,8.21368701171875,0.1111096441745758,0.15707117319107056,0.12077689170837402
1782836764564617000,8.223616943359374,0.14550280570983887,0.3485233187675476,0.06505275517702103
1782836764574546000,8.2335458984375,0.14705809950828552,0.5286291837692261,0.19699639081954956
1782836764584475100,8.24347509765625,0.18606175482273102,1.014075756072998,0.46375060081481934
1782836764594404900,8.25340478515625,0.32674911618232727,1.4466921091079712,0.6406452059745789
1782836764604333800,8.263333740234375,0.4767957627773285,1.3572089672088623,0.5565853118896484
1782836764614263000,8.273262939453126,0.5080620646476746,0.895480215549469,0.22162866592407227
1782836764624193500,8.283193603515626,0.4620261788368225,0.5332062840461731,-0.21117329597473145
1782836764634122500,8.29312255859375,0.38891786336898804,0.1734180450439453,-0.6170169115066528
1782836764644051500,8.303051513671875,0.30233776569366455,-0.4848020374774933,-0.9468067288398743
1782836764653981400,8.3129814453125,0.2429724484682083,-1.2736458778381348,-1.1354576349258423
1782836764663910700,8.32291064453125,0.12899357080459595,-1.8515255451202393,-1.2558649778366089
1782836764673839600,8.332839599609375,-0.013044789433479309,-1.8568063974380493,-1.3136224746704102
1782836764683769300,8.342769287109375,-0.1181672215461731,-1.2652208805084229,-1.2297288179397583
1782836764693698600,8.352698486328125,-0.13892069458961487,-0.5567470788955688,-1.0354139804840088
1782836764703627500,8.36262744140625,-0.0869760662317276,-0.16025304794311523,-0.7758731245994568
1782836764713557500,8.3725576171875,-0.01992272585630417,-0.12307611852884293,-0.5453195571899414
1782836764723486500,8.382486572265625,0.017403028905391693,-0.3117723762989044,-0.4203903377056122
1782836764733415700,8.392415771484375,-0.050593867897987366,-0.5204113125801086,-0.49119502305984497
1782836764743345400,8.402345458984374,-0.16238491237163544,-0.6753705143928528,-0.6955921053886414
1782836764753274400,8.4122744140625,-0.2628798186779022,-0.7533915638923645,-0.9965293407440186
1782836764763203600,8.42220361328125,-0.3647788465023041,-0.8092581629753113,-1.3196403980255127
1782836764773132500,8.432132568359375,-0.4037075936794281,-0.8470295071601868,-1.4697939157485962
1782836764783062500,8.4420625,-0.331308513879776,-0.7967790961265564,-1.360588550567627
1782836764792991700,8.45199169921875,-0.22688275575637817,-0.701698899269104,-1.0329030752182007
1782836764802920700,8.461920654296875,-0.14161720871925354,-0.5512458682060242,-0.5496967434883118
1782836764812850400,8.471850341796875,-0.07555616647005081,-0.3820410966873169,-0.021710626780986786
1782836764822779400,8.481779296875,0.032053008675575256,-0.1540820598602295,0.44406986236572266
1782836764832708600,8.49170849609375,0.11034940928220749,0.0629677027463913,0.70674729347229
1782836764842638600,8.501638671875,0.12004557996988297,0.13751831650733948,0.7641708850860596
1782836764852567600,8.511567626953125,0.08558055013418198,0.1267825961112976,0.690385639667511
1782836764862496500,8.52149658203125,0.012883005663752556,0.14815983176231384,0.5118584036827087
1782836764872426500,8.531426513671875,-0.09546583890914917,0.17586949467658997,0.2715190649032593
1782836764882355500,8.54135546875,-0.21826475858688354,0.1579744666814804,0.05340525135397911
1782836764892284700,8.55128466796875,-0.2985345721244812,0.07359486818313599,-0.10007698088884354
1782836764902214400,8.56121435546875,-0.33649492263793945,-0.009624435566365719,-0.11704665422439575
1782836764912143400,8.571143310546875,-0.3005760610103607,-0.04295815899968147,-0.008642680011689663
1782836764922072300,8.581072265625,-0.21372930705547333,-0.044962454587221146,0.21137596666812897
1782836764932002600,8.59100244140625,-0.08230310678482056,-0.04257679358124733,0.4631693363189697
1782836764941931500,8.600931640625,0.062413230538368225,-0.015282189473509789,0.6505071520805359
1782836764951860500,8.610860595703125,0.1841529905796051,0.11915843933820724,0.8229222893714905
1782836764961790500,8.62079052734375,0.2678205966949463,0.2672349810600281,1.0020811557769775
1782836764971719400,8.630719482421876,0.26439815759658813,0.3796691298484802,1.1687110662460327
1782836764981648400,8.6406484375,0.2024003267288208,0.38831156492233276,1.2248581647872925
1782836764991578600,8.65057861328125,0.12066871672868729,0.2921924889087677,1.1145447492599487
1782836765001507600,8.660507568359375,0.039393216371536255,0.21098671853542328,0.9084758758544922
1782836765011436500,8.6704365234375,0.005188904702663422,0.13771969079971313,0.6932045817375183
1782836765021365800,8.68036572265625,-0.015684541314840317,0.00914086028933525,0.4941955506801605
1782836765031295500,8.69029541015625,-0.05768765136599541,-0.1940002739429474,0.26537060737609863
1782836765041224400,8.700224365234375,-0.034661997109651566,-0.4867401719093323,0.04936894774436951
1782836765051153400,8.7101533203125,0.104947030544281,-0.6480295062065125,0.03778286278247833
1782836765061083600,8.720083740234376,0.28125202655792236,-0.4740988314151764,0.2739545702934265
1782836765071012600,8.7300126953125,0.318746954202652,0.012785044498741627,0.5288822054862976
1782836765080941300,8.73994140625,0.20818550884723663,0.45931726694107056,0.5552946329116821
1782836765090871600,8.74987158203125,0.015854407101869583,0.5894142985343933,0.27060559391975403
1782836765100800500,8.759800537109374,-0.16408206522464752,0.4961881935596466,-0.26318269968032837
1782836765110729500,8.7697294921875,-0.2940283715724945,0.38241979479789734,-0.8336011171340942
1782836765120659700,8.77965966796875,-0.3943958580493927,0.2106790393590927,-1.222227692604065
1782836765130588400,8.78958837890625,-0.4204290807247162,-0.10242454707622528,-1.3400827646255493
1782836765140517400,8.799517333984374,-0.3905716836452484,-0.6545892357826233,-1.246636152267456
1782836765150447600,8.809447509765626,-0.38241496682167053,-1.1837990283966064,-1.0457499027252197
1782836765160376600,8.81937646484375,-0.3789263665676117,-1.4369444847106934,-0.814668595790863
1782836765170305500,8.829305419921875,-0.3006097078323364,-1.5170416831970215,-0.6000071167945862
1782836765180235500,8.839235595703125,-0.14840427041053772,-1.4767568111419678,-0.3945997655391693
1782836765190164500,8.84916455078125,0.006113400682806969,-1.327595829963684,-0.19481901824474335
1782836765200093400,8.859093505859375,0.005018155090510845,-1.1137882471084595,-0.11096619069576263
1782836765210023700,8.869023681640625,-0.15280503034591675,-0.8713537454605103,-0.2838689982891083
1782836765219952600,8.87895263671875,-0.3542378544807434,-0.5434426069259644,-0.6662549376487732
1782836765229881600,8.888881591796874,-0.47385507822036743,-0.17435882985591888,-1.0804924964904785
1782836765239811300,8.898811279296876,-0.49571821093559265,0.03036634624004364,-1.3113698959350586
1782836765249740500,8.908740478515625,-0.45078563690185547,0.05321493744850159,-1.2599657773971558
1782836765259669500,8.91866943359375,-0.36471790075302124,-0.031769998371601105,-0.9578720927238464
1782836765269599500,8.928599609375,-0.24138930439949036,-0.08812780678272247,-0.48747873306274414
1782836765279528700,8.93852880859375,-0.11266645789146423,-0.008100751787424088,0.029653897508978844
1782836765289457700,8.948457763671875,0.006256735417991877,0.1495181769132614,0.5002245903015137
1782836765299386600,8.95838671875,0.11780324578285217,0.26047348976135254,0.8393359184265137
1782836765309316600,8.968316650390625,0.2209397554397583,0.30027738213539124,0.9909278154373169
1782836765319245600,8.97824560546875,0.23100560903549194,0.2859107255935669,0.9149478673934937
1782836765329174500,8.988174560546875,0.19487078487873077,0.2770647704601288,0.6777139902114868
1782836765339104500,8.9981044921875,0.1437145471572876,0.3090561330318451,0.412741094827652
1782836765349033500,9.008033447265625,0.08945264667272568,0.2724837362766266,0.16511957347393036
1782836765358962400,9.01796240234375,0.028669651597738266,0.22248439490795135,-0.03006746619939804
1782836765368892400,9.027892333984376,-0.05309338867664337,0.36918461322784424,-0.11641780287027359
1782836765378821600,9.037821533203125,-0.13303659856319427,0.6153250932693481,-0.04007004201412201
1782836765388750600,9.04775048828125,-0.16639456152915955,0.757976770401001,0.15312977135181427
1782836765398680600,9.0576806640625,-0.15183767676353455,0.6774556040763855,0.3805784285068512
1782836765408609500,9.067609619140624,-0.10372713953256607,0.48375269770622253,0.6537442207336426
1782836765418538500,9.07753857421875,-0.0666472464799881,0.3706868290901184,0.9583598375320435
1782836765428468500,9.087468505859375,-0.02819865569472313,0.37584295868873596,1.2123255729675293
1782836765438397700,9.097397705078125,0.0454472154378891,0.4560682773590088,1.3540617227554321
1782836765448326700,9.10732666015625,0.10387537628412247,0.5678625106811523,1.3735262155532837
1782836765458256400,9.11725634765625,0.09213167428970337,0.6674673557281494,1.2914165258407593
1782836765468185300,9.127185302734375,0.04788138344883919,0.7499411702156067,1.1710476875305176
1782836765478114600,9.137114501953125,0.010329450480639935,0.7683627009391785,0.9827482104301453
1782836765488044500,9.14704443359375,-0.032716020941734314,0.6520861387252808,0.6802706718444824
1782836765497973500,9.156973388671876,-0.0047648511826992035,0.5700672268867493,0.28042200207710266
1782836765507902700,9.16690283203125,0.11859676241874695,0.686791718006134,-0.08021499216556549
1782836765517831700,9.176831787109375,0.31675484776496887,0.8127010464668274,-0.2658434808254242
1782836765527761400,9.186761474609375,0.5327078700065613,0.7030968070030212,-0.14235268533229828
1782836765537690600,9.196690673828124,0.6504859924316406,0.6555933356285095,0.22110316157341003
1782836765547619600,9.20661962890625,0.6240895390510559,0.9643450379371643,0.661296010017395
1782836765557549600,9.216549560546875,0.4719703197479248,1.4612106084823608,0.8898513913154602
1782836765567478500,9.226478515625,0.31719058752059937,1.8031182289123535,0.8408942222595215
1782836765577407500,9.236407470703124,0.10956238955259323,1.633694052696228,0.7912344336509705
1782836765587337500,9.24633740234375,0.01964661106467247,0.8563964366912842,0.6109818816184998
1782836765597266400,9.256266357421875,0.053257569670677185,0.08082938939332962,0.3378432095050812
1782836765607195600,9.266195556640625,0.07431811839342117,-0.7133201360702515,0.011375338770449162
1782836765617125600,9.276125732421875,0.02220596931874752,-1.446402668952942,-0.41753458976745605
1782836765627058200,9.28605810546875,0.0010181264951825142,-2.211552619934082,-0.9405714273452759
1782836765636987100,9.295987060546874,0.06420310586690903,-2.8048810958862305,-1.4050092697143555
1782836765646917000,9.305917236328124,0.06800317019224167,-2.732529878616333,-1.5903507471084595
1782836765656846000,9.31584619140625,-0.08551708608865738,-2.0427982807159424,-1.4571864604949951
1782836765666775300,9.325775390625,-0.38775762915611267,-1.0499825477600098,-1.18731689453125
1782836765676705000,9.335705078125,-0.7301363348960876,-0.16621339321136475,-0.922080934047699
1782836765686634000,9.345634033203124,-1.0180636644363403,0.3578852713108063,-0.7312755584716797
