time,seconds_elapsed,z,y,x
1782829627479734300,0.082734375,-0.015255436798930168,-0.3165999979384243,0.37715909605845804
1782829627489663200,0.092663330078125,-0.08125204979777335,-0.23382227294333277,0.10601214131657033
1782829627499591400,0.10259130859375,-0.370453607070446,-0.28487456091903146,0.14123075421396641
1782829627509520400,0.112520263671875,-0.31537410940527916,-0.4012161904070526,0.26929062281809746
1782829627519448300,0.1224482421875,-0.26081132909059523,-0.4817764585483819,0.5214177101936192
1782829627529377300,0.132377197265625,-0.28867490305006505,-0.5386513882629573,0.7047291085615753
1782829627539305200,0.14230517578125,-0.17308453032076357,-0.5815647203814238,0.795605165142566
1782829627549234200,0.152234130859375,-0.23685937561690806,-0.6508938388038427,0.7357073804754763
1782829627559162000,0.162162109375,-0.2676584185063839,-0.6650206368990242,0.6084675595499575
1782829627569091300,0.17209130859375,-0.1967985833853483,-0.5522482441999018,0.572284302871488
1782829627579019300,0.182019287109375,-0.2110936507195234,-0.45276305696666236,0.5716370179438963
1782829627588948200,0.1919482421875,-0.2172854910969734,-0.4275219404652714,0.5938725228885189
1782829627598876200,0.201876220703125,-0.26348610125780103,-0.46422385072298344,0.6834545576035976
1782829627608805000,0.21180517578125,-0.1722644461095333,-0.45632454884052276,0.6316995281860232
1782829627618733000,0.221733154296875,-0.04025836063027382,-0.3589205517955124,0.5961957782043144
1782829627628662300,0.231662353515625,-0.034033202505111694,-0.30943814348503945,0.6771108876653015
1782829627638590200,0.241590087890625,0.11235562859177589,-0.3497363246690482,0.7129649489220231
1782829627648519200,0.251519287109375,0.1875409256964922,-0.3733903181094676,0.7255335577897727
1782829627658448100,0.2614482421875,0.19293138656318187,-0.375612670334056,0.6541347204212099
1782829627668376300,0.271376220703125,0.3509247307360172,-0.371018182150647,0.5251432335227728
1782829627678305000,0.281304931640625,0.4404617937982082,-0.2799261447314173,0.47963235919177527
1782829627688233200,0.291233154296875,0.27874913684129715,-0.2616421538915485,0.45021169198341665
1782829627698162400,0.301162353515625,0.040865094351768494,-0.3783919988542795,0.5057097803868353
1782829627708090400,0.31109033203125,-0.12325579279065131,-0.4419114080846309,0.5001678552854806
1782829627718019300,0.321019287109375,-0.10703647939562796,-0.32122239704206584,0.35583117094542827
1782829627727947300,0.330947265625,-0.13358604814708233,-0.0977669851385057,0.17839036337761208
1782829627737876200,0.340876220703125,-0.15601356853246687,-0.08087949015833437,0.1589604356393218
1782829627747804200,0.35080419921875,-0.11098434023857116,-0.2246682948246598,0.31945250129271296
1782829627757733400,0.3607333984375,-0.2277998708486557,-0.19051248885318636,0.4392527102693915
1782829627767661300,0.370661376953125,-0.3587181610912084,-0.09133286043778062,0.47193935700375583
1782829627777590300,0.38059033203125,-0.462543861746788,-0.0573832445628941,0.42786845234800125
1782829627787518200,0.390518310546875,-0.7958148623704909,-0.039673254218697544,0.34692053659595545
1782829627797447200,0.400447265625,-1.2808645704358816,-0.13443550458326936,0.27365849917139856
1782829627807375000,0.410375,-1.370841193959117,-0.18113792678639293,0.1233844698047731
1782829627817304000,0.420303955078125,-1.4361977554887533,-0.06815817494690418,-0.035063203139975664
1782829627827232000,0.43023193359375,-1.4742010306686162,-0.05976604804620146,-0.1783589453260414
1782829627837161200,0.4401611328125,-1.3048480880916118,-0.08828333667404949,-0.36946708025112746
1782829627847089400,0.45008935546875,-1.0469307268768548,-0.002796864176914096,-0.4736484624765813
1782829627857018000,0.46001806640625,-0.7638350852638482,0.029340660774707792,-0.5109341639716178
1782829627866947000,0.469947021484375,-0.5842658690989018,-0.0857754455063492,-0.44808374004401264
1782829627876875300,0.479875244140625,-0.31835517104268074,-0.181600283601135,-0.3909819062383845
1782829627886804200,0.48980419921875,-0.06017711306512356,-0.1289412910811603,-0.37821671535260976
1782829627896732400,0.499732421875,-0.04339373604655265,-0.09497662376761436,-0.3431565809525549
1782829627906661400,0.509661376953125,-0.11009878957569598,-0.13530030471906065,-0.2748353974636644
1782829627916589300,0.51958935546875,-0.30624153940081594,-0.13803309068381786,-0.19440213496917857
1782829627926518300,0.529518310546875,-0.3066138798445463,-0.010749649812281131,-0.2845145319676027
1782829627936446200,0.5394462890625,-0.05303659366071224,0.2258434760838747,-0.47152920530028636
1782829627946375200,0.549375244140625,-0.019552841731905937,0.3731007605783641,-0.6054089756969362
1782829627956303000,0.55930322265625,0.15025836600661277,0.419685109359771,-0.6074177582360804
1782829627966232300,0.569232421875,0.35260581569075583,0.4481729526974261,-0.46872112560961393
1782829627976160300,0.57916015625,0.4304898503601551,0.35284167027324437,-0.37905733089521526
1782829627986089200,0.589089111328125,0.5371300239145755,0.26138679089099165,-0.22366764814844353
1782829627996017200,0.59901708984375,0.5743471171528101,0.22988047651499507,-0.09992079303837381
1782829628005946000,0.608946044921875,0.49782034231126304,0.12776713273525236,-0.04464772729617543
1782829628015874000,0.6188740234375,0.4790530979990959,-0.00490472317636013,-0.02966057691145688
1782829628025803300,0.62880322265625,0.4815057518482208,-0.017191519428044557,0.014746080770995467
1782829628035731200,0.638731201171875,0.24195640649497507,0.05330138207674026,0.07783663359740749
1782829628045660200,0.64866015625,0.06093991413116455,0.10203940176069735,0.05185589597616344
1782829628055588400,0.65858837890625,-0.13413900585472582,0.15611454468891023,-0.09192605882426723
1782829628065517300,0.668517333984375,-0.37269174138605593,0.28242972505018116,-0.3291996595315635
1782829628075446000,0.678446044921875,-0.47920624273419377,0.38966450349688525,-0.38218773787543175
1782829628085374500,0.68837451171875,-0.4885679453194141,0.4390077955976128,-0.25360578162595626
1782829628095303400,0.698303466796875,-0.5364776974856853,0.4184666734807193,-0.12718744228431023
1782829628105231400,0.7082314453125,-0.4506435805946588,0.3936927360996604,-0.11513002520855516
1782829628115160300,0.718160400390625,-0.38524259540140626,0.39104777454882855,-0.12629446636680514
1782829628125088300,0.728088134765625,-0.3555436227083206,0.3496979654200375,-0.06600690606399438
1782829628135017200,0.738017333984375,-0.3087614132672548,0.3055100102558732,-0.020220607758522965
1782829628144945200,0.747945068359375,-0.1638905855178833,0.32039617535099385,-0.04045575549905188
1782829628154874400,0.757874267578125,-0.1072439846664667,0.35328590690940614,-0.07066057708873413
1782829628164802300,0.76780224609375,-0.1636462553679943,0.3010439707577228,-0.18975432742964476
1782829628174731300,0.777731201171875,-0.05072890124022961,0.31422567002251744,-0.3180006585165858
1782829628184659200,0.7876591796875,-0.06624620384573936,0.37775399321168657,-0.3886634366955608
1782829628194588200,0.797588134765625,-0.036565351331233974,0.34960166543871163,-0.3894953574750572
1782829628204516000,0.80751611328125,-0.0018704700469970702,0.2824111664801836,-0.3246037831086665
1782829628214445300,0.8174453125,0.017355039426684378,0.17409399962425232,-0.4279476915966719
1782829628224373200,0.827373291015625,0.037219431325793265,0.09801219207122921,-0.41561888283416626
1782829628234302200,0.83730224609375,0.02852466821670532,0.007299947749823331,-0.3328235491171479
1782829628244230700,0.847230712890625,0.07613397613167762,-0.06275032455399632,-0.31068682837188244
1782829628254159600,0.85715966796875,0.07691665094196797,-0.07289265612289308,-0.289839727312047
1782829628264087600,0.867087646484375,0.0941992096543312,-0.09101225018128752,-0.31383235985599456
1782829628274016500,0.8770166015625,0.08093406988978386,-0.11640651141777635,-0.36274354414977134
1782829628283945500,0.886945556640625,-0.09116612556874752,-0.10455269975587725,-0.4323861489681527
1782829628293873700,0.896873779296875,-0.17492460522949693,-0.08149009633734822,-0.5398005582980812
1782829628303802600,0.906802734375,-0.13210896133184433,-0.166540369374305,-0.6427981375664472
1782829628313730800,0.916730712890625,-0.041133389899134634,-0.17528116358220577,-0.7294311497502028
1782829628323659800,0.92665966796875,-0.06844868232607841,-0.08371537117138504,-0.7130009700834751
1782829628333587700,0.936587646484375,-0.12589315555691719,-0.0876231922648847,-0.7097950136490165
1782829628343516700,0.9465166015625,-0.04026186776161193,-0.10102204141169786,-0.7544798854846507
1782829628353444600,0.956444580078125,-0.037619244298338884,-0.09737710903808473,-0.7859577044185251
1782829628363373800,0.966373779296875,-0.11045651697218417,-0.1382439569555223,-0.8901399634268135
1782829628373301800,0.9763017578125,-0.057817398196458814,-0.1989594146810472,-0.8977777648288756
1782829628383230700,0.986230712890625,-0.004165887507796288,-0.22233342213630675,-0.7511253143597394
1782829628393158700,0.99615869140625,0.25861001965403557,-0.39388255958333607,-0.9435640220351517
1782829628403087600,1.006087646484375,0.30998014140725133,-0.48820685692206023,-0.7393621035907417
1782829628413015600,1.016015625,0.4985603470236063,-0.4861090078599751,-0.5521216586781665
1782829628422944500,1.025944580078125,0.5474626173585653,-0.5004039290636778,-0.6657040891185403
1782829628432872400,1.03587255859375,0.5660545051038265,-0.42441169949024915,-0.6687028325431048
1782829628442801700,1.0458017578125,0.6508762300819159,-0.385316683550924,-0.609483568192087
1782829628452729600,1.0557294921875,0.6340700567096471,-0.3961629256054759,-0.5103482538424432
1782829628462658600,1.065658447265625,0.6261538767576217,-0.46737975747063754,-0.4878436496328562
1782829628472587500,1.07558740234375,0.5778378818780183,-0.4169653290070593,-0.491477037699148
1782829628482515500,1.085515380859375,0.56241118016541,-0.35759339484497904,-0.37247524909116325
1782829628492444700,1.095444580078125,0.532498272460699,-0.43868513951450583,-0.3131627900313586
1782829628502372900,1.105372802734375,0.5442915861070156,-0.490755810752511,-0.31518410325851287
1782829628512301600,1.115301513671875,0.5865501806437969,-0.47610739993602036,-0.29710495080836113
1782829628522229800,1.125229736328125,0.550191750061512,-0.4975893100343644,-0.26383756331028413
1782829628532158700,1.13515869140625,0.4979769941776991,-0.5317920238874853,-0.23432123544141648
1782829628542086700,1.145086669921875,0.4786287351071834,-0.5370839928157627,-0.2747751734427176
1782829628552015600,1.155015625,0.44506139654815197,-0.4923600310787558,-0.2976377059781924
1782829628561943800,1.16494384765625,0.2300911966562271,-0.5778276527449488,-0.25052498594112693
1782829628571872800,1.174872802734375,0.06650456252098083,-0.7648274573020637,-0.1705918915211223
1782829628581800700,1.18480078125,0.09741232648193836,-0.8531406776577234,-0.1696802017699927
1782829628591729700,1.194729736328125,0.10974340026676654,-0.8000453395470977,-0.2454602498974651
1782829628601657600,1.20465771484375,0.12999766826629638,-0.7324570734426379,-0.334447277861461
1782829628611586600,1.214586669921875,0.10402093096673488,-0.719852297282964,-0.34537389167584476
1782829628621514500,1.224514404296875,0.019946224963665007,-0.8203696040429175,-0.3685688162371516
1782829628631443700,1.234443603515625,-0.0009749825119972228,-0.923886823271215,-0.354588623538427
1782829628641371600,1.24437158203125,-0.06514028843045234,-0.9788817113928496,-0.33112584182117133
1782829628651300600,1.254300537109375,-0.08926818299293518,-0.9989645683482289,-0.3303811244010925
1782829628661228500,1.264228515625,-0.20825988859832287,-1.0290668611451983,-0.30651509564518925
1782829628671157500,1.274157470703125,-0.24335692094266415,-0.9485505782760679,-0.3038632842284627
1782829628681086500,1.28408642578125,-0.37578736931383605,-0.9192961344800888,-0.3103126612972468
1782829628691014700,1.2940146484375,-0.5467699589192867,-0.9048720339387655,-0.3718353437524289
1782829628700943600,1.303943603515625,-0.636502252292633,-0.7855057959325611,-0.4745301041493192
1782829628710871800,1.313871826171875,-0.6763385881185531,-0.7090422955855726,-0.5792920262090862
1782829628720800500,1.323800537109375,-0.727251613754034,-0.6388644513793289,-0.6324629868391901
1782829628730728700,1.333728759765625,-0.761506350055337,-0.5818254902094602,-0.6519407905735075
1782829628740657700,1.34365771484375,-0.7704390135735273,-0.594718874052167,-0.6364144278787076
1782829628750585600,1.353585693359375,-0.7597048535913229,-0.6677182054199278,-0.532451802970469
1782829628760514800,1.363514892578125,-0.8424275604635476,-0.64734820208624,-0.39986426434144373
1782829628770442800,1.37344287109375,-1.0285475134462116,-0.5097394742943346,-0.22237536158189175
1782829628780371700,1.383371826171875,-1.1350251899152994,-0.5234561572186649,-0.16116943519199267
1782829628790299600,1.393299560546875,-1.2444354127049446,-0.6538903172060847,-0.13785972514459863
1782829628800228600,1.403228515625,-1.391782859700918,-0.6315205183573067,-0.17448504476845264
1782829628810156500,1.413156494140625,-1.3660545442044734,-0.4471950475759804,-0.2072567211714573
1782829628820085800,1.423085693359375,-1.4613894798904656,-0.268448984362185,-0.18849060937045142
1782829628830013700,1.433013671875,-1.50269121209383,-0.1644976115003228,-0.1764389735815115
1782829628839942700,1.442942626953125,-1.4339111058562992,-0.14331716856658458,-0.05032165387989953
1782829628849870600,1.45287060546875,-1.3857219522267579,-0.11033376737534999,0.1330271538889967
1782829628859799600,1.462799560546875,-1.2218261060118674,-0.0003038052521646023,0.28815537268798797
1782829628869728500,1.472728515625,-1.0650386304974555,0.1846855362653732,0.4436873317159712
1782829628879656400,1.482656494140625,-0.9481383442133664,0.3921772169701755,0.5140936509158462
1782829628889585700,1.492585693359375,-0.6705845546364784,0.5464949413701892,0.47761225154101844
1782829628899513600,1.502513671875,-0.4894096568405628,0.6406771998897195,0.45480965076554564
1782829628909442600,1.512442626953125,-0.2963882539063692,0.6518460980273783,0.37957382904998954
1782829628919370800,1.522370849609375,-0.022875264152884482,0.64610331659168,0.2602349357084371
1782829628929299700,1.5322998046875,0.22064532291889188,0.6723994951039552,0.1730891151643358
1782829628939227600,1.5422275390625,0.46904374516010283,0.6756174342371523,0.18099084646590052
1782829628949156900,1.552156982421875,0.7049135252177715,0.6799097246035933,0.23430190968643871
1782829628959084800,1.562084716796875,0.8210732222676277,0.6991155064634978,0.24259452173542229
1782829628969013800,1.572013671875,0.9167857590943574,0.7588361079327761,0.2019993668988347
1782829628978941700,1.581941650390625,0.9976572851419448,0.8693078224740922,0.1517391791488975
1782829628988870700,1.59187060546875,1.0690011043876408,0.9700579150766133,0.09948032839503139
1782829628998798600,1.601798583984375,1.2186240951001643,1.0568296050786972,0.04541325917541981
1782829629008727600,1.6117275390625,1.373479725769162,1.1412957946173845,0.0369557023556903
1782829629018655500,1.621655517578125,1.4248673831790686,1.091586153422296,0.0700168449582532
1782829629028584700,1.631584716796875,1.424524853351712,0.9747910810783504,0.1829544746890664
1782829629038512600,1.6415126953125,1.415640120628476,0.8692281813666224,0.3402215504139662
1782829629048441600,1.651441650390625,1.4053747472018003,0.7571586762398481,0.443862615217641
1782829629058370600,1.66137060546875,1.3793021483123302,0.6661812051109969,0.46949974529929456
1782829629068298500,1.671298583984375,1.2295955709695816,0.5860040910683572,0.5178381712064146
1782829629078227700,1.681227783203125,1.0448352159023284,0.5517718588598072,0.5481228713655844
1782829629088155600,1.69115576171875,0.7025099712073802,0.6136179280504584,0.5341024197217077
1782829629098084600,1.701084716796875,0.27863223246335983,0.6243180396325886,0.44186895718239244
1782829629108012800,1.7110126953125,-0.09735445881485938,0.6021446401387452,0.3863385008793324
1782829629117941500,1.72094140625,-0.5360796380788088,0.5683953691415489,0.3480063225386664
1782829629127869700,1.73086962890625,-0.9930997679680585,0.4954712949670851,0.3327255686353892
1782829629137798700,1.740798583984375,-1.2474041993826628,0.4738165125198662,0.26147651500105856
1782829629147726600,1.7507265625,-1.355445471906662,0.5243906615898013,0.15524252936104313
1782829629157655800,1.76065576171875,-1.4314993685394524,0.5529686674289405,0.15991505121672525
1782829629167583700,1.770583740234375,-1.3875707949638365,0.5013515851773321,0.21050949415601788
1782829629177512700,1.7805126953125,-1.2499948003977537,0.48610345490202306,0.31484219448566436
1782829629187440600,1.790440673828125,-1.0372960525691508,0.5143557359181344,0.38630247971788045
1782829629197369600,1.80036962890625,-0.7096399692177772,0.5630529852002859,0.3915390651971101
1782829629207297500,1.810297607421875,-0.33978958873748777,0.586824029149115,0.3752960056003183
1782829629217226800,1.820226806640625,-0.012470189994573593,0.5432910307623445,0.35825591387432065
1782829629227154700,1.83015478515625,0.28776655603349205,0.5301444028109312,0.3686870357893407
1782829629237083600,1.840083740234375,0.5590191996395587,0.5100790815122426,0.43656953560002143
1782829629247011800,1.85001171875,0.7770096241354942,0.4683490408942103,0.474146036735177
1782829629256939800,1.859939697265625,0.9009551527559757,0.4091605004750192,0.5265960626795888
1782829629266869000,1.869868896484375,0.9344821593046188,0.3378898925960064,0.6025072994386776
1782829629276797200,1.879797119140625,0.9718068045705557,0.27653905957639213,0.5901648640096188
1782829629286726000,1.889725830078125,1.0218114831894636,0.28122546382695435,0.550067319964245
1782829629296654000,1.899654052734375,0.9607020577102899,0.2512866910286248,0.534674739716947
1782829629306583000,1.9095830078125,0.904895414814353,0.19601649309694766,0.4843322805110365
1782829629316511000,1.919510986328125,0.8247720767855644,0.16939429750069976,0.4409593315241858
1782829629326440200,1.929440185546875,0.6996276937693358,0.10709916936829686,0.4414014492684975
1782829629336368000,1.9393681640625,0.5603787975549698,-0.06278408069312572,0.4031791975757107
1782829629346297000,1.949297119140625,0.5118582200139761,-0.15860037015527487,0.5811220181152225
1782829629356225000,1.95922509765625,0.2932937950223684,-0.13693404340073465,0.7017575454048812
1782829629366154000,1.969154052734375,0.2694657601892948,-0.2622827168174088,0.4871271353939548
1782829629376082000,1.97908203125,0.2037093856871128,-0.21049992261007427,0.5094471402842551
1782829629386011000,1.989010986328125,0.09669687168896197,-0.19008432656899094,0.4414027644427493
1782829629395938800,1.998938720703125,0.13039163601994513,-0.2939782701551914,0.40504663541540503
1782829629405868000,2.008867919921875,0.082239307269454,-0.36224721200019117,0.2935516787735745
1782829629415797000,2.018796875,0.0578396100282669,-0.3842657131932676,0.48692288152612745
1782829629425725000,2.028724853515625,-0.032794016098976135,-0.4853616966240108,0.6132239602968096
1782829629435654000,2.03865380859375,-0.009003975188732147,-0.7484783800475299,0.29631767288818955
1782829629445581800,2.048581787109375,-0.053119595769047734,-0.512081361245364,0.5120696708075702
1782829629455511000,2.058510986328125,-0.01311433311700821,-0.4643307451635599,0.5698955445714294
1782829629465439000,2.06843896484375,-0.18677812463045118,-0.6430415909335017,0.49893761937078085
1782829629475368000,2.078367919921875,-0.38065994378626344,-0.7288273386381566,0.5513308736266568
1782829629485296000,2.088296142578125,-0.5995283201605082,-0.7494253055088221,0.5781414314018563
1782829629495224800,2.098224853515625,-0.7772709054201841,-0.7866733784072101,0.4311934685848653
1782829629505153000,2.108153076171875,-0.9418477196365594,-0.748362644713372,0.31187180037274953
1782829629515082000,2.11808203125,-1.0397720872938632,-0.5758255191422998,0.19067246518786996
1782829629525010000,2.128010009765625,-1.0114993480116128,-0.6196835116997361,0.3128491209723055
1782829629534939100,2.137939208984375,-1.0084130724340676,-1.0715563418284058,0.4045299911301583
1782829629544867000,2.1478671875,-1.1942875262230634,-1.1531981215961278,0.31955552327577025
1782829629554796000,2.157796142578125,-1.0853910981744528,-0.9053003423534333,0.4177399666413665
1782829629564724000,2.167723876953125,-1.0657383031994103,-0.8780410178974271,0.4077195078864693
1782829629574653000,2.17765283203125,-1.208760872733593,-0.9014650019742548,0.35592871303576973
1782829629584582100,2.18758203125,-1.3844751670360564,-0.9268104556329548,0.22932276956699787
1782829629594510000,2.197510009765625,-1.716239854750037,-0.9069025168530642,0.1450076424041763
1782829629604439000,2.20743896484375,-1.8336334775090217,-0.841439572339505,0.10449866801369935
1782829629614367000,2.217366943359375,-1.8375544503450392,-0.6029838674418628,0.12736410489231348
1782829629624296000,2.2272958984375,-1.8635744422644376,-0.33844182739034295,0.07334723148997872
1782829629634223900,2.237223876953125,-1.8190683610618112,-0.24087007256299256,-0.09125340199340135
1782829629644152800,2.24715283203125,-1.5632342358618974,-0.09205562175437808,-0.15041834234129636
1782829629654080800,2.257080810546875,-1.1839403197318314,0.060220952206850045,-0.2271059703003615
1782829629664010000,2.267010009765625,-0.703724607694149,0.1312595048956573,-0.20218539099022745
1782829629673938000,2.27693798828125,-0.13076631455123425,0.18570114304870367,-0.08873561048619448
1782829629683867000,2.286866943359375,0.30712475197613237,0.40295097831040616,0.0641745852034539
1782829629693795000,2.296795166015625,0.7318588152885437,0.31525355176553127,0.27206564048938453
1782829629703724000,2.30672412109375,0.86985741918087,0.1845477352298796,0.3504299329563975
1782829629713652000,2.31665185546875,0.8578788120955229,0.4550729413442313,0.41985184422880406
1782829629723581200,2.326581298828125,0.9320406113713979,0.5367598754279315,0.3376199165482074
1782829629733509000,2.336509033203125,0.8428139294326304,0.47820758708566424,0.1375257256835699
1782829629743438000,2.34643798828125,0.6389683501452207,0.551963435909152,-0.09510412260480225
1782829629753367000,2.356366943359375,0.5539098938018083,0.7113458963528275,-0.2332263528767973
1782829629763295000,2.366294921875,0.6454080278038978,0.802168907572329,-0.20745427130386232
1782829629773224000,2.376223876953125,0.7573702731639146,0.7925311645247042,-0.22081052341796456
1782829629783152000,2.386152099609375,0.8461176471531391,0.7276002810612321,-0.26404176237918436
1782829629793081000,2.3960810546875,0.9593576573640108,0.6601810879133642,-0.24885559142418204
1782829629803009000,2.406009033203125,1.0078425790697336,0.5275320283554494,-0.280481951983273
1782829629812938000,2.41593798828125,1.022716907596588,0.4104980326890945,-0.26341595863103867
1782829629822866000,2.425865966796875,0.9487497541099786,0.39273002854734657,-0.23731676399558782
1782829629832795000,2.435794921875,0.7190788286924362,0.4412853851407766,-0.33295192473717033
1782829629842722800,2.445722900390625,0.4455477187603712,0.4454331524699926,-0.45391580719836055
1782829629852652000,2.455652099609375,0.21149755534529685,0.4396792651183903,-0.5506542530067264
1782829629862580000,2.465580078125,-0.08108370749354361,0.46826384682878847,-0.7133172694910317
1782829629872509000,2.475509033203125,-0.3151180888175964,0.501422604586929,-1.0000096204217523
1782829629882436900,2.485436767578125,-0.46054713497161864,0.6089128190994262,-1.0941229784235358
1782829629892365800,2.49536572265625,-0.7566337755829096,0.5160979034103453,-0.939693975668773
1782829629902294000,2.5052939453125,-0.9778782334387301,0.19435323605984448,-0.7492514102466404
1782829629912223000,2.515222900390625,-1.0523849006295203,0.054042263571918006,-0.6432452237468212
1782829629922152000,2.52515185546875,-1.0232780486106872,0.1478350843824446,-0.6466387386426329
1782829629932080000,2.535080078125,-0.9612474166333674,0.15100699241682886,-0.757694463616982
1782829629942009000,2.545009033203125,-0.7839332859188318,0.07124445052444935,-0.8318678072001785
1782829629951937000,2.55493701171875,-0.5357499677330255,0.026088819371908902,-0.8139094681181013
1782829629961866000,2.564865966796875,-0.24917174470126627,-0.0665570233605802,-0.732178475696966
1782829629971794000,2.5747939453125,0.03551145836412906,-0.21622604517191646,-0.6874172506894916
1782829629981723100,2.58472314453125,0.2865881599038839,-0.3209966254621744,-0.6723106477767229
1782829629991651000,2.594651123046875,0.47776188914477824,-0.42045156368762254,-0.626209771663323
1782829630001580000,2.604580078125,0.719953857961297,-0.44459158707931634,-0.6359640537627042
1782829630011508000,2.614508056640625,0.8321335454642772,-0.35801425060555336,-0.6302278481982648
1782829630021437000,2.62443701171875,0.8066402077674866,-0.38290816110447046,-0.5873253297347575
1782829630031364900,2.63436474609375,0.7833972793459891,-0.47473172766864297,-0.543288400413841
1782829630041294000,2.644294189453125,0.7401713010817765,-0.47566097134277224,-0.5022320212736725
1782829630051222000,2.654221923828125,0.6849193694591522,-0.4327548726826906,-0.5230993066050112
1782829630061151000,2.66415087890625,0.6385118385493755,-0.3388546459749341,-0.5737625952631235
1782829630071080000,2.674079833984375,0.6782452985227108,-0.2681574540697038,-0.5248841441951692
1782829630081007900,2.6840078125,0.6163298173576593,-0.26985096011459825,-0.49472778312340376
1782829630090936800,2.693936767578125,0.5763865140259266,-0.32633784035965796,-0.4609843573451042
1782829630100864800,2.70386474609375,0.6250146435946226,-0.34911519709601996,-0.4042883643940091
1782829630110794000,2.7137939453125,0.5525216543138027,-0.34538945457115766,-0.3275792187228799
1782829630120722200,2.72372216796875,0.4840279638022184,-0.3999820455022156,-0.2922839603926986
1782829630130651000,2.73365087890625,0.3533762155413627,-0.4308483084090054,-0.3153056472789496
1782829630140579000,2.7435791015625,0.3122556851238012,-0.4150893060021102,-0.45486974692232907
1782829630150508000,2.753508056640625,0.37358781344294545,-0.3709611182011664,-0.5622786398269236
1782829630160436000,2.76343603515625,0.3295926043719053,-0.5012529471084475,-0.5482066406589001
1782829630170365200,2.773365234375,0.4163467587172985,-0.6497562861412763,-0.4263140259802341
1782829630180293000,2.783293212890625,0.5261263993412256,-0.6412498852111399,-0.37924503548704086
1782829630190222000,2.79322216796875,0.5053770413011313,-0.6403485524572432,-0.3518365118186921
1782829630200150000,2.80314990234375,0.4492068257898092,-0.670467650258541,-0.3153692870996892
1782829630210079000,2.813078857421875,0.4137976587563753,-0.6526889785923063,-0.37063517418242986
1782829630220008000,2.823008056640625,0.37683833967149255,-0.680435355912894,-0.423714364875853
1782829630229935900,2.832935791015625,0.2556266199290752,-0.7384333713732659,-0.4605732923261821
1782829630239865000,2.842864990234375,0.13271803314089775,-0.8088407865516841,-0.4969300424080342
1782829630249792800,2.852792724609375,0.007725625815987586,-0.8301333115577697,-0.5111014833625406
1782829630259721700,2.8627216796875,-0.24177988088428973,-0.8125330651983619,-0.49129554365240036
1782829630269649700,2.872649658203125,-0.4353384594351053,-0.7767806376852094,-0.48709056624323127
1782829630279578600,2.88257861328125,-0.6495721617460251,-0.6332018955729901,-0.5031511088799685
1782829630289506600,2.892506591796875,-0.8276713053584098,-0.5018598269604146,-0.5964582650654018
1782829630299435800,2.902435791015625,-0.9541811315089463,-0.39026743782609696,-0.65140931404531
1782829630309364000,2.912364013671875,-1.132192596837878,-0.27752529413476584,-0.604619067428261
1782829630319292700,2.922292724609375,-1.225758184763789,-0.2348383911833167,-0.4985403271488845
1782829630329220900,2.932220947265625,-1.388435302838683,-0.18455533401444554,-0.37170645667575297
1782829630339149800,2.94214990234375,-1.580631945386529,-0.09514175120145082,-0.28613325574323534
1782829630349077800,2.952077880859375,-1.7229776385724545,-0.0063252574987709516,-0.30644886200856414
1782829630359006700,2.9620068359375,-1.8574632659077643,0.06726926328316331,-0.32101039825920014
1782829630368936000,2.97193603515625,-1.942004420378804,0.09739113756343722,-0.2739849181141704
1782829630378863900,2.98186376953125,-1.8732266522288321,0.08609306008815765,-0.242219076019153
1782829630388792800,2.991792724609375,-1.7411539312541484,0.1782403056487441,-0.12767054049298165
1782829630398720800,3.001720703125,-1.6193617812752723,0.24709961460232732,0.03406841994896531
1782829630408649700,3.011649658203125,-1.444273509916663,0.2947552458770573,0.09244180806037038
1782829630418577700,3.02157763671875,-1.2319155383497475,0.3322646000601351,0.11227547602765262
1782829630428507000,3.0315068359375,-1.0068576596856116,0.31487390479817984,0.1685549240671098
1782829630438434800,3.041434814453125,-0.7197697335660457,0.2491612233072519,0.222969126223959
1782829630448363800,3.05136376953125,-0.4196013765990734,0.2214338429480791,0.20699596960972994
1782829630458291700,3.061291748046875,-0.09851882641911507,0.1685501017615199,0.22455475144758819
1782829630468220700,3.071220703125,0.215150817155838,0.1606825832568109,0.25467041518278416
1782829630478148600,3.081148681640625,0.48075405669808385,0.23031419175714252,0.2329084825666621
1782829630488077600,3.09107763671875,0.721919605076313,0.2979132715165615,0.2274570487603545
1782829630498006800,3.1010068359375,0.8997101211309433,0.3342757937520742,0.23604155642800032
1782829630507934700,3.110934814453125,1.043953756892681,0.4070462848000228,0.2567943485341966
1782829630517863700,3.12086376953125,1.1071055018544196,0.4747198911003768,0.3092330858996138
1782829630527791600,3.13079150390625,1.1735393372267484,0.4941498371049762,0.32196590888574717
1782829630537720600,3.140720458984375,1.1986696868300437,0.5611484667532146,0.3171972697118297
1782829630547648800,3.150648681640625,1.1630594442665576,0.6255762230001389,0.3042666591312736
1782829630557577700,3.16057763671875,1.0572972225904465,0.6145585699014365,0.3237088435629383
1782829630567506000,3.170505859375,0.8691799583107233,0.5588531954228878,0.4267189900519326
1782829630577435000,3.180434814453125,0.6380173330307006,0.5595037682861089,0.5044175486192107
1782829630587362800,3.19036279296875,0.3408288686573505,0.5945302196122706,0.6101658513678238
1782829630597291800,3.200291748046875,-0.08888882828652858,0.6002412907354533,0.6139721483156084
1782829630607219700,3.2102197265625,-0.5422819998502731,0.6139445296563207,0.5929103633254766
1782829630617148700,3.220148681640625,-0.9715402625888585,0.6394345063522457,0.5757290730305016
1782829630627078000,3.230077880859375,-1.430354874679446,0.635678807080537,0.5894204753831028
1782829630637005800,3.240005859375,-1.7716835095524788,0.6412646443888544,0.5762102076109499
1782829630646934800,3.249934814453125,-2.000748285770416,0.6941143371753394,0.5126617184165865
1782829630656862700,3.25986279296875,-2.0746172395795583,0.74165233341977,0.44963798374868924
1782829630666791700,3.269791748046875,-1.9797738868027925,0.7551476286783814,0.42650593182314184
1782829630676719600,3.2797197265625,-1.6951128955692052,0.7845844433039426,0.3891670023035258
1782829630686648800,3.28964892578125,-1.2810796744912862,0.8377610299572348,0.3227524196209386
1782829630696576800,3.29957666015625,-0.8826853365719318,0.8397457740336656,0.30809286635592575
1782829630706505700,3.309505615234375,-0.34492870519161223,0.8425807051986456,0.3288822276128456
1782829630716433700,3.31943359375,0.10737667113542557,0.8547188867598772,0.3478990627719089
1782829630726362600,3.329362548828125,0.5461012658774852,0.794514155035466,0.38488391815684736
1782829630736290800,3.339290771484375,0.9326613736182451,0.710549631408602,0.4494634674319997
1782829630746219500,3.349219482421875,1.2390291697472333,0.6951997943244874,0.45346894021369516
1782829630756147700,3.359147705078125,1.4963924042105674,0.7565617332600056,0.41167986288480457
1782829630766077000,3.369076904296875,1.634461150729656,0.7845463032506406,0.3880409208830446
1782829630776005600,3.379005615234375,1.6787041970819234,0.7207181203320622,0.36734665403105315
1782829630785933800,3.388933837890625,1.6540128234177827,0.5822231112249195,0.3490337293576449
1782829630795862800,3.39886279296875,1.6615408808350562,0.5271643640868365,0.24783516233526168
1782829630805790700,3.408790771484375,1.6194827773064373,0.5555027159512043,0.1552973830871284
1782829630815720000,3.418719970703125,1.522169235023856,0.4735458788849413,0.12467077415511012
1782829630825647900,3.42864794921875,1.4019097014397381,0.3742832483612001,0.0695733024418354
1782829630835576800,3.438576904296875,1.193368657812476,0.35108795847371216,-0.008659034208580852
1782829630845504800,3.4485048828125,1.05887601621449,0.23798691834211347,-0.032942411593720314
1782829630855433700,3.458433837890625,0.7805179245173931,0.04824745968803763,0.02689385214447975
1782829630865361700,3.468361572265625,0.5429577071547508,-0.13843831048384309,0.07998908065725117
1782829630875290600,3.47829052734375,0.37246728498041626,-0.21491773905232547,0.11958218231182545
1782829630885218600,3.488218505859375,0.15384557684361932,-0.24248393750041722,0.0917864859567955
1782829630895147800,3.498147705078125,-0.051906712847948074,-0.31468057418316603,0.06230334797147661
1782829630905076700,3.50807666015625,-0.28176059361696243,-0.4129539014086127,-0.02139255131445825
1782829630915004700,3.518004638671875,-0.37231121763586994,-0.4887812958091497,-0.12547105768732725
1782829630924933600,3.52793359375,-0.41941374507248397,-0.5466702979370951,-0.0628331439992413
1782829630934861600,3.537861572265625,-0.45992754176855083,-0.6589743424721062,-0.01939118489678949
1782829630944790800,3.547790771484375,-0.40109775165915484,-0.7024941891163587,0.013104067451320587
1782829630954718700,3.55771875,-0.41599955271482464,-0.6324491775095462,0.07583521238081156
1782829630964647700,3.567647705078125,-0.4827952071368694,-0.6731478292532265,0.08176869408302008
1782829630974575900,3.577575927734375,-0.47648880046904085,-0.6609110096231102,0.10752159603144973
1782829630984504600,3.587504638671875,-0.5376449876993894,-0.6272376534063369,0.1308862146038562
1782829630994432800,3.597432861328125,-0.5886421844869851,-0.6886431392226368,0.15048958094660192
1782829631004361700,3.60736181640625,-0.5998667583346367,-0.6654343322664499,0.16374712192658333
1782829631014289700,3.61728955078125,-0.6283388195812701,-0.6273137143172324,0.16308047471139578
1782829631024219000,3.627218994140625,-0.708957832172513,-0.6345261299140751,0.21786234113685785
1782829631034147800,3.63714794921875,-0.7571691976338625,-0.6333105435792357,0.2546969743961468
1782829631044075800,3.64707568359375,-0.7797931173741817,-0.6250015649173408,0.26979137541446835
1782829631054004700,3.657004638671875,-0.8308575341790914,-0.6531479744061828,0.33617727999184277
1782829631063932700,3.6669326171875,-0.790024004009366,-0.5732265886902809,0.41304534255173053
1782829631073862000,3.67686181640625,-0.8439771279931068,-0.3142291040886193,0.4049741547010839
1782829631083789800,3.686789794921875,-1.0733733281224966,-0.1250507133834064,0.4005363914493471
1782829631093718800,3.69671875,-1.2821055104076862,-0.07066095154806971,0.4822862347014248
1782829631103646700,3.706646728515625,-1.6351134771585463,-0.015577289164438842,0.5146040481233969
1782829631113575700,3.71657568359375,-1.9434440977931022,0.024193434079363942,0.48059389770030975
1782829631123503600,3.726503662109375,-2.27209971357584,0.038283991817384955,0.48198893225528294
1782829631133432600,3.7364326171875,-2.7043156570762394,-0.024755159615352747,0.5290608088253066
1782829631143360800,3.74636083984375,-2.8796728085041043,-0.006408624933287501,0.5367505230776966
1782829631153289700,3.756289794921875,-2.903978397721052,0.13199381051957607,0.48096543442644174
1782829631163218700,3.76621875,-2.7271652022659776,0.2625786310240626,0.44616365870162844
1782829631173146600,3.776146728515625,-2.3866449611663816,0.3257973768074065,0.4576723101876676
1782829631183075600,3.78607568359375,-1.8369547308862209,0.35492790196277196,0.4302482236240059
1782829631193003800,3.796003662109375,-1.086378940168023,0.3604104980923235,0.38236550559513266
1782829631202932700,3.8059326171875,-0.28301965376734733,0.36448227757588025,0.34017822272889314
1782829631212861000,3.81586083984375,0.48412090278267855,0.3977426690775901,0.35910168051607905
1782829631222790000,3.825789794921875,1.074782610398531,0.3951766910471022,0.3871910991206765
1782829631232717800,3.8357177734375,1.6136223608404396,0.3709247317135334,0.36460250642206515
1782829631242646800,3.845646728515625,1.9990397282868622,0.4163599104598164,0.3301959770925343
1782829631252575200,3.8555751953125,2.2083903347313405,0.41671427685543894,0.3648319312637672
1782829631262504400,3.86550439453125,2.290456623521447,0.3793682965405285,0.35327856385316697
1782829631272433400,3.875433349609375,2.295510984301567,0.39719694482833146,0.2520092696821317
1782829631282361300,3.885361328125,2.256446801891923,0.4576616426631808,0.11676343509666622
1782829631292290300,3.895290283203125,2.165370692694187,0.5434526510648429,0.025324009011872112
1782829631302218200,3.90521826171875,1.961950645342469,0.6391540819756686,-0.032672581676393746
1782829631312147200,3.915147216796875,1.6711919217556714,0.756466894583404,-0.10153115997761487
1782829631322075100,3.9250751953125,1.3663620027184487,0.8845679354481398,-0.16273666624240576
1782829631332004400,3.93500439453125,0.9366337843805551,0.9835058640621602,-0.20243936575129626
1782829631341932300,3.944932373046875,0.455822444537282,0.9707646020412445,-0.22763068829420952
1782829631351861200,3.954861328125,-0.03977729911506176,0.9552793020091951,-0.29861548323547465
1782829631361789200,3.9647890625,-0.5864876368016004,0.928766558136791,-0.38028658042922614
1782829631371718100,3.97471826171875,-0.9852993233501911,0.810712571772933,-0.41367929307371376
1782829631381646000,3.98464599609375,-1.2574994769394396,0.7504055487178266,-0.40943252234943206
1782829631391575300,3.9945751953125,-1.3667904572635887,0.7427864520162344,-0.3906126710671931
1782829631401504300,4.004504150390625,-1.420451904824376,0.6822728004731238,-0.4096203730717301
1782829631411432200,4.01443212890625,-1.2347171517670155,0.5627990104392171,-0.493944962182641
1782829631421361200,4.024361083984375,-0.88681030754745,0.500999410738796,-0.539573836870119
1782829631431289000,4.0342890625,-0.6235813959211111,0.36501696897447106,-0.47353422497976566
1782829631441218000,4.044218017578125,-0.22193653177320957,0.17829744266346095,-0.39499351649992165
1782829631451146200,4.054146240234375,0.13470423852205277,0.040426118412613864,-0.39767658157143737
1782829631461075200,4.0640751953125,0.43976329014003274,-0.17299509847164152,-0.4111171144355088
1782829631471003400,4.07400341796875,0.712167441868782,-0.3446248999394476,-0.42103436854425813
1782829631480932400,4.083932373046875,0.9242769916325807,-0.39729762872382995,-0.3961814111102372
1782829631490860300,4.0938603515625,1.0755237841546534,-0.3761505035378039,-0.43556492513474077
1782829631500789200,4.103789306640625,1.174696106046438,-0.33707828395217654,-0.49358095117583867
1782829631510718500,4.113718505859375,1.1267384230852127,-0.3008903876312077,-0.574369657778181
1782829631520646400,4.123646484375,1.053198555099964,-0.3457007124774158,-0.6600019319541752
1782829631530575400,4.133575439453125,1.0090864416509866,-0.4039623473100364,-0.6759266463167966
1782829631540503300,4.14350341796875,0.8757634283542632,-0.3923272929653525,-0.6742919577870518
1782829631550432300,4.153432373046875,0.793683111038804,-0.3944629898197949,-0.6894855083309114
1782829631560360200,4.163360107421875,0.6888111162006855,-0.42861894192174077,-0.6501905859053134
1782829631570289200,4.1732890625,0.5625508808970451,-0.4602614498980343,-0.5688928703349083
1782829631580217000,4.183217041015625,0.5176882413417101,-0.47642128819078206,-0.5005030055239796
1782829631590146300,4.193146240234375,0.4550193114608526,-0.47137496458664535,-0.458985255949758
1782829631600074200,4.20307421875,0.4082347639322281,-0.5173232074216008,-0.40905875713359563
1782829631610003200,4.213003173828125,0.32435353467464445,-0.5665677153229713,-0.3302542466184124
1782829631619932200,4.22293212890625,0.19146014496684075,-0.5725669557377696,-0.25938524181023237
1782829631629860000,4.232860107421875,0.06842530145049094,-0.6305468510195612,-0.21493465365450828
1782829631639789300,4.242789306640625,-0.01764087063074112,-0.6794253020875155,-0.2913778783984482
1782829631649717200,4.25271728515625,0.04009995519816875,-0.6464112134970724,-0.34813349258229137
1782829631659646200,4.262646240234375,0.061162616971135134,-0.6347304203145205,-0.28721210048850626
1782829631669574100,4.27257421875,0.07731529487073421,-0.6837450649827719,-0.21799795021526513
1782829631679503000,4.282503173828125,0.10140928716361522,-0.6901661840714514,-0.21513423134721815
1782829631689431300,4.292431396484375,0.10382160900235175,-0.6496634932912886,-0.24533574673496186
1782829631699360300,4.3023603515625,0.06910393136441707,-0.6338393166936933,-0.20124569898732006
1782829631709288200,4.3122880859375,0.07540624637901783,-0.6364513988882303,-0.17080401816815136
1782829631719217400,4.322217529296875,0.0072936641395092,-0.6281074950434267,-0.182635143074207
1782829631729145300,4.332145263671875,-0.06660626932978629,-0.6688458942756056,-0.19146756108831614
1782829631739074300,4.34207421875,-0.22176585138142108,-0.7016572999008,-0.20306652120631186
1782829631749003300,4.352003173828125,-0.33079788850843905,-0.7279011637039482,-0.23365539194382726
1782829631758931200,4.36193115234375,-0.48159985987246035,-0.7746655452273785,-0.26247809325903654
1782829631768860400,4.3718603515625,-0.6437894866913557,-0.7875174280159175,-0.2589797662818804
1782829631778788400,4.381788330078125,-0.7977075442492961,-0.7656234299853444,-0.2506141985945403
1782829631788717300,4.39171728515625,-0.9489040678888558,-0.7355196758836507,-0.3453057218104601
1782829631798645200,4.401645263671875,-1.0452543180972338,-0.7287339612662792,-0.47849108020216224
1782829631808574200,4.41157421875,-1.0737731410950422,-0.8031137872070073,-0.5739022229295223
1782829631818502100,4.421502197265625,-1.2379869672179222,-0.8291947155334055,-0.5653640386216342
1782829631828431000,4.43143115234375,-1.437891699925065,-0.8976708703882992,-0.5337743933437392
1782829631838359000,4.441359130859375,-1.5507441721230744,-1.097221821221709,-0.6358293214671313
1782829631848288300,4.451288330078125,-1.7889613920897245,-1.2039080258749424,-0.7549502064101398
1782829631858217200,4.46121728515625,-1.9536451738119125,-1.2401292399436235,-0.6852070272941142
1782829631868145200,4.471145263671875,-2.0725831034034488,-1.1941149461351335,-0.5841575133536011
1782829631878074000,4.48107421875,-2.151276700890064,-0.9895724706247448,-0.4011600397730246
1782829631888002000,4.491001953125,-2.2906121063441036,-0.8442870707251131,-0.3550913488961756
1782829631897931300,4.50093115234375,-2.303690783625841,-0.6525155217215418,-0.2788920524433255
1782829631907859200,4.510859130859375,-2.1595342416256664,-0.3391444227017462,-0.17745003205388785
1782829631917788200,4.5207880859375,-1.9633055670827626,-0.0053469139859080314,-0.03281940626855939
1782829631927716400,4.53071630859375,-1.6668500931590795,0.26681232307106256,0.10713102581128478
1782829631937645300,4.540645263671875,-1.2200105810225008,0.5222381597310304,0.18034206370096653
1782829631947573200,4.5505732421875,-0.6937257762491703,0.8121013957828283,0.21760558989681303
1782829631957502200,4.560502197265625,-0.13927169256806374,0.9761625155620276,0.2411990853216499
1782829631967431400,4.570431396484375,0.38398879594802854,1.0402569482013582,0.2695136909842491
1782829631977359400,4.580359375,0.8596288706332444,1.1019137784302233,0.2957424302835017
1782829631987288300,4.590288330078125,1.2601952918946742,1.1515326726019381,0.35870599572937933
1782829631997216300,4.60021630859375,1.590689813542366,1.183079611249268,0.4010055067984387
1782829632007145200,4.610145263671875,1.754864476698637,1.269919690312445,0.4648897307531908
1782829632017073200,4.6200732421875,1.7878630754590032,1.282388272871822,0.46389991599824276
1782829632027002400,4.63000244140625,1.769987811550498,1.2334449398741125,0.3426264926638454
1782829632036930300,4.639930419921875,1.8292846346497535,1.320161392557621,0.25341124543454496
1782829632046859300,4.649859375,1.8283172509223222,1.5062738928861916,0.29852409689128395
1782829632056787200,4.659787109375,1.7418097648143767,1.5810058932654558,0.3431652026504278
1782829632066716200,4.669716064453125,1.660129260471463,1.5963754579633473,0.29963183893747625
1782829632076645000,4.67964501953125,1.5484668748408554,1.6432395004689693,0.22902090054359286
1782829632086573000,4.689572998046875,1.5261603504866361,1.6857520697668193,0.24876721902098506
1782829632096502300,4.699502197265625,1.3582032461822031,1.6862762397713957,0.31451844242401417
1782829632106430200,4.70943017578125,1.1121072556644678,1.607632326645404,0.35299824907444416
1782829632116359200,4.719359130859375,0.8071697845995426,1.4991370267435908,0.37384412629157304
1782829632126287000,4.729287109375,0.41575229995548724,1.4257060259602963,0.3811736289294436
1782829632136216000,4.739216064453125,-0.022348025408387182,1.3176596388697623,0.40131855480298395
1782829632146144300,4.749144287109375,-0.5284042811453342,1.2148776020482182,0.36928134842067956
1782829632156073200,4.7590732421875,-0.9405816452234983,1.1675488646402954,0.30724056037552655
1782829632166001400,4.76900146484375,-1.312705231332779,1.1412374885588883,0.2489440186263062
1782829632175930400,4.778930419921875,-1.5414689787775278,1.0904786305718124,0.2849576726252213
1782829632185859300,4.788859375,-1.7172960858047008,1.0264191231153905,0.371297510548681
1782829632195787300,4.798787353515625,-1.7361428250938653,0.9172804107435047,0.40132688423991203
1782829632205716200,4.80871630859375,-1.5339865140676499,0.8668402633167803,0.29711046723369505
1782829632215644200,4.81864404296875,-1.2518284455657005,0.8978525105655193,0.20833887211866675
1782829632225573400,4.828573486328125,-0.8536410283952951,0.836717219992727,0.2410577588885091
1782829632235501300,4.838501220703125,-0.45573651981949803,0.7251070029407739,0.30531196693312374
1782829632245431300,4.848431396484375,-0.11974398527741431,0.6491632886841893,0.39427459110822527
1782829632255359500,4.858359375,0.2513157709926367,0.5845210129037499,0.4129212412480265
1782829632265288400,4.868288330078125,0.6171569158315658,0.598570727174729,0.3588885857546702
1782829632275216400,4.87821630859375,0.8120014425396919,0.6548891189850866,0.3305553484568372
1782829632285145300,4.888145263671875,0.8653133460104465,0.5263226525656879,0.3318574440313503
1782829632295074600,4.898074462890625,0.8746633581578731,0.2937099746078253,0.3151029643137008
1782829632305002500,4.90800244140625,0.9175731100797653,0.2445287412010133,0.2992892360448837
1782829632314931500,4.917931396484375,0.9221797270923853,0.2242050612270832,0.2921017356935888
1782829632324859400,4.927859375,0.8390361644595861,0.14092851986438035,0.22967954711541533
1782829632334788400,4.937788330078125,0.7101373973459005,0.09296806042417884,0.16898535137362777
1782829632344716300,4.94771630859375,0.5592085847318172,0.026888153056055304,0.19708185730613767
1782829632354645200,4.957645263671875,0.3572457504510879,-0.035875323240458966,0.14530545630697161
1782829632364573400,4.967573486328125,0.2707803499191999,-0.05052358792647719,0.0714473892180249
1782829632374502400,4.97750244140625,0.18713760559260845,-0.09532207620441913,0.08337021099552512
1782829632384430300,4.987430419921875,0.04667816454470158,-0.19032091180384159,0.13503222836740314
1782829632394359300,4.997359375,-0.02555529701709747,-0.3279115194171667,0.18155721164438873
1782829632404287200,5.007287353515625,-0.019704232901334762,-0.41972880237102506,0.13818459145110099
1782829632414216200,5.01721630859375,-0.12901099531650542,-0.42168388196155426,0.12373268958739936
1782829632424145400,5.0271455078125,-0.17493454210162163,-0.512453263297677,0.14461232294365764
1782829632434073300,5.0370732421875,-0.18818974499404428,-0.49529053157269953,0.12545052635595202
1782829632444002300,5.047002197265625,-0.20662147374153136,-0.4191159311696887,0.08334007158558815
1782829632453930500,5.056930419921875,-0.18802257173359394,-0.4422903243996203,0.08672752206679434
1782829632463859200,5.066859130859375,-0.21971125693917273,-0.4865756024584174,0.14783055433779954
1782829632473787400,5.076787353515625,-0.17254735470414162,-0.5313987867861986,0.16857161947358398
1782829632483716400,5.08671630859375,-0.17999767071008682,-0.5182679409258067,0.18728300541266799
1782829632493644500,5.09664453125,-0.22751287060081957,-0.5348030422717333,0.196408926480636
1782829632503573500,5.106573486328125,-0.22606734796762465,-0.5657097833193838,0.23886819468867032
1782829632513502500,5.11650244140625,-0.3347439957857132,-0.5728165465846657,0.28316260590199377
1782829632523430400,5.126430419921875,-0.44576223829388617,-0.6039983051814138,0.26595556011125443
1782829632533359400,5.136359375,-0.5264402875959873,-0.5958155832476913,0.23770068527925758
1782829632543287300,5.146287353515625,-0.624204496255517,-0.558416265310347,0.2427809111529961
1782829632553216500,5.156216552734375,-0.724053109973669,-0.5689170549280941,0.21661208534743637
1782829632563144400,5.16614453125,-0.73936290730834,-0.5610445679873228,0.2271653723374009
1782829632573073400,5.176073486328125,-0.6651502546280622,-0.5135840208932757,0.2570093247254379
1782829632583001300,5.18600146484375,-0.7099614562571048,-0.4669957265891134,0.3456860263649374
1782829632592930300,5.195930419921875,-0.6771539961546659,-0.43918899738341566,0.4097460452780127
1782829632602858200,5.205858154296875,-0.6597142010539769,-0.33271438965424893,0.4779473652468994
1782829632612787200,5.215787109375,-0.820563519179821,-0.24528628157004712,0.49351665376797316
1782829632622716400,5.22571630859375,-0.9776239664167166,-0.22387670605555177,0.4617351026471704
1782829632632644400,5.235644287109375,-1.1833797632396221,-0.13106602815017104,0.4432187643561512
1782829632642573300,5.2455732421875,-1.485052095028758,-0.13019392149075865,0.41336628160178657
1782829632652501200,5.255501220703125,-1.749390429201722,-0.1914436322234571,0.4423047182511538
1782829632662430200,5.26543017578125,-1.9762053806662558,-0.148363053779304,0.453789477404952
1782829632672358400,5.2753583984375,-2.0920231324106453,-0.038106443293392654,0.4944316131884232
1782829632682287400,5.285287353515625,-2.121293066036701,0.009552402851730585,0.508007462869957
1782829632692215600,5.295215576171875,-2.025063227337599,0.0423112015068531,0.46887003256101156
1782829632702144500,5.30514453125,-1.765468872821331,0.1043674063168466,0.4462561592906713
1782829632712072400,5.315072509765625,-1.3900667034327983,0.1502801394470036,0.39934772965405135
1782829632722001400,5.32500146484375,-0.9094681295573711,0.17626009161695838,0.32344412821214646
1782829632731930400,5.334930419921875,-0.41979952951967714,0.11766542543768882,0.3694949181061238
1782829632741858300,5.3448583984375,0.11496727239489554,0.04176671936661005,0.4070881146477535
1782829632751787500,5.35478759765625,0.5437129094362259,0.1234751346297562,0.41946321023739874
1782829632761715500,5.364715576171875,0.8923907380282878,0.20907354306876658,0.44821628038249905
1782829632771644400,5.37464453125,1.1999024434953927,0.20759660238400102,0.447490888717398
1782829632781572400,5.384572265625,1.332493050864339,0.22513766590207815,0.46212837628107517
1782829632791501300,5.394501220703125,1.435827168610692,0.2760027607426047,0.4335461326582357
1782829632801429200,5.40442919921875,1.6189350802958011,0.41015009603425856,0.33347653313316405
1782829632811358500,5.4143583984375,1.7748083635747431,0.5766951415836811,0.21023838559705763
1782829632821286400,5.424286376953125,1.8542156622886656,0.6447327588908374,0.18454948879554867
1782829632831215400,5.43421533203125,1.8238626096010206,0.639480683581531,0.18484047109875826
1782829632841144300,5.444144287109375,1.7751432946175336,0.6289049290314317,0.1308375896891579
1782829632851072300,5.454072265625,1.6453496244907377,0.6760946963600813,-0.006626432402431964
1782829632861001200,5.464001220703125,1.4052584273457527,0.6965146763153374,-0.15757475343458355
1782829632870929400,5.473929443359375,1.154073004734516,0.7106327796474099,-0.28584979915935543
1782829632880858400,5.4838583984375,0.8319628650724887,0.8381646423220634,-0.408893921960704
1782829632890786300,5.493786376953125,0.44932314564585685,0.9339104968965053,-0.4709683565471321
1782829632900715300,5.50371533203125,-0.0716384182780981,0.9408933415211737,-0.47407198511827736
1782829632910643500,5.5136435546875,-0.6679834322273731,0.8825069112651049,-0.48976935699842866
1782829632920572200,5.523572265625,-1.1768389632940293,0.7853153879269957,-0.5294686955064535
1782829632930500400,5.533500244140625,-1.5055238051712512,0.8179911844737827,-0.5667600960899144
1782829632940429600,5.5434296875,-1.8037655779898165,0.8849619032017886,-0.5854462379898876
1782829632950358300,5.553358154296875,-1.9067349540770053,0.8569621356420218,-0.5956389480391517
1782829632960286500,5.563286376953125,-1.7780951301604508,0.8660844765134155,-0.6234412567980587
1782829632970215400,5.57321533203125,-1.4945926613122225,0.9148824096910655,-0.6389459921829402
1782829632980143400,5.583143310546875,-1.1448808134973048,0.8740133698165417,-0.6188987910628319
1782829632990072300,5.593072265625,-0.7438695710778236,0.6851181069016457,-0.5496819739084691
1782829633000000500,5.60300048828125,-0.2799637733280659,0.47616892086490986,-0.4631062448699027
1782829633009929500,5.612929443359375,0.22704233047962188,0.3548461419634521,-0.3620151202773675
1782829633019857400,5.622857421875,0.6650386109471321,0.2053207664065063,-0.2483765757355839
1782829633029786400,5.632786376953125,0.969870283550024,0.02798690807819366,-0.20990597530491648
1782829633039715300,5.64271533203125,1.0993412975937127,-0.12609788434877992,-0.18652206751015035
1782829633049643300,5.652643310546875,1.1710025122255086,-0.2362973578199744,-0.23126224972959605
1782829633059572500,5.662572509765625,1.2648100922137497,-0.21024419428333638,-0.3395946506872773
1782829633069500400,5.67250048828125,1.118378591018915,-0.22473872971236705,-0.33492022913545366
1782829633079429400,5.682429443359375,0.9573357961475849,-0.37385377090275285,-0.3335354967787862
1782829633089357300,5.692357421875,0.7481868497550487,-0.39146541543900965,-0.3570680192640051
1782829633099286300,5.702286376953125,0.5843506247729062,-0.3302121975749731,-0.3986991295522079
1782829633109214200,5.712214111328125,0.427181456464529,-0.2552703538373112,-0.392312204994075
1782829633119143200,5.72214306640625,0.256294728448987,-0.19460399595052003,-0.4233217853616923
1782829633129071400,5.7320712890625,0.10446984377801417,-0.18528131020143626,-0.3860407235091552
1782829633139000300,5.742000244140625,-0.05872925234436988,-0.2085037803567946,-0.3129927306940779
1782829633148929300,5.75192919921875,-0.12277531579732893,-0.24784254192411898,-0.32734730966314673
1782829633158857500,5.761857421875,-0.10828794076144695,-0.20772373589500784,-0.3859608632059768
1782829633168786200,5.7717861328125,-0.15181962397396565,-0.21024916271939872,-0.354337352191098
1782829633178714400,5.78171435546875,-0.15094284113943576,-0.29680779449269173,-0.2953040571325458
1782829633188643300,5.791643310546875,-0.09895955592393875,-0.29648543067052957,-0.33861524772848933
1782829633198571500,5.801571533203125,-0.1521352657943964,-0.26401114804521203,-0.43744573391266167
1782829633208500500,5.81150048828125,-0.05897475153803825,-0.3287484086327255,-0.4435365981336683
1782829633218428400,5.821428466796875,0.04245090223848819,-0.34981910758167506,-0.4166127892423421
1782829633228357400,5.831357421875,0.11261632535457611,-0.35927930210530756,-0.4076736229181289
1782829633238285300,5.841285400390625,0.16264496937096118,-0.4146760490261018,-0.4031408748593181
1782829633248216600,5.851216552734375,0.07860650372505187,-0.4991602126128971,-0.3978097064318135
1782829633258145500,5.8611455078125,0.0742524001687765,-0.5905174768395721,-0.4111553275540471
1782829633268073500,5.871073486328125,0.15650865857303142,-0.5697593509711325,-0.4708494063425809
1782829633278002400,5.88100244140625,0.15667290922403335,-0.5754157692976296,-0.4460884745735675
1782829633287930600,5.8909306640625,0.16314298202097416,-0.6941822878450155,-0.37020544099565594
1782829633297859600,5.900859619140625,0.157445647162199,-0.7007678037151693,-0.2915296348940581
1782829633307787800,5.910787841796875,0.11467501145005225,-0.6187007842727005,-0.2958032205600291
1782829633317716500,5.920716552734375,0.08043605723977089,-0.6293195011816919,-0.3578624575773254
1782829633327644700,5.930644775390625,0.012562544453144073,-0.6170205761007964,-0.3925130247958004
1782829633337573600,5.94057373046875,-0.02664952199459076,-0.6612992782883346,-0.36543822659384456
1782829633347501600,5.95050146484375,-0.16981354582607744,-0.6949963807068765,-0.2732300080936402
1782829633357430800,5.9604306640625,-0.2227940253853798,-0.6726834266118705,-0.2519171709518879
1782829633367359700,5.97035986328125,-0.2235211706161499,-0.5506373018719256,-0.36087237998303023
1782829633377289500,5.98028955078125,-0.2576537418425083,-0.598325666372478,-0.42974853047356004
1782829633387218700,5.99021875,-0.25150340251922604,-0.6139362002193928,-0.431841118838638
1782829633397146600,6.000146728515625,-0.2529278823643923,-0.6611882191292942,-0.38279034341108054
1782829633407075600,6.01007568359375,-0.23100071271657943,-0.7147581890143454,-0.32781898229550566
1782829633417003500,6.02000341796875,-0.2368886017113924,-0.7237117491900921,-0.35955464844796803
1782829633426932500,6.029932373046875,-0.23353695319592951,-0.7683708289973438,-0.40055279459487647
1782829633436861400,6.039861328125,-0.25865210523009297,-0.8298962879315018,-0.4735099307887256
1782829633446789400,6.049789306640625,-0.34176468820273875,-0.9141136172756552,-0.5059956481235102
1782829633456718600,6.059718505859375,-0.49589784981608387,-1.1300908022530376,-0.5136367009285837
1782829633466646800,6.069646728515625,-0.7326157711356878,-1.2983578492894767,-0.38875473170820624
1782829633476575500,6.079575439453125,-1.0123843141525983,-1.3163881576292216,-0.22369163181222973
1782829633486503700,6.089503662109375,-1.30757429818511,-1.1621212866336106,-0.18076704764738677
1782829633496432600,6.0994326171875,-1.5956746162176132,-0.892164820317924,-0.21865630452614276
1782829633506360600,6.109360595703125,-1.8430787667244672,-0.6039005438953637,-0.19056977199837563
1782829633516289800,6.119289794921875,-1.897697661140561,-0.27235066797584295,-0.07354056210499256
1782829633526217700,6.1292177734375,-1.9077777411282062,0.010430208599567413,0.09083977969121187
1782829633536146700,6.139146728515625,-1.794177080911398,0.20320275133922694,0.22781327831950038
1782829633546075600,6.14907568359375,-1.54946582275033,0.4200884294636547,0.3401213049098849
1782829633556003600,6.159003662109375,-1.2389461676388978,0.6303757322363555,0.4575499624496326
1782829633565932500,6.1689326171875,-0.8215946157932281,0.7634034158483147,0.47724882505610583
1782829633575860500,6.178860595703125,-0.3783639418035745,0.9044204907789826,0.5322722086198628
1782829633585789700,6.188789794921875,0.029368133303523062,0.9899230376280843,0.5183866354020312
1782829633595717600,6.198717529296875,0.4486544526040554,1.003008436911553,0.4791329583022743
1782829633605646600,6.208646484375,0.7987363027751445,1.0333104900643229,0.4584992625311017
1782829633615574500,6.218574462890625,1.0359627581387758,1.0676360996447503,0.4506231588611379
1782829633625503500,6.22850341796875,1.2516805615276096,1.051126425001025,0.4770963744407519
1782829633635432700,6.2384326171875,1.4624375276386736,1.0781962182343006,0.4470360210893675
1782829633645360600,6.248360595703125,1.5819021114528178,1.2100165718831122,0.42155426423251624
1782829633655289600,6.25828955078125,1.5727736331015825,1.3062595623247324,0.38008082872405646
1782829633665217500,6.268217529296875,1.5588789632618427,1.3485548356100916,0.3278865311063826
1782829633675146500,6.278146484375,1.4963544102877377,1.3912654116980732,0.33022480132821946
1782829633685074700,6.28807470703125,1.415284146797657,1.3927785927399992,0.3773813970396295
1782829633695003400,6.29800341796875,1.3514970265418291,1.3971528623014688,0.4720173541434109
1782829633704931600,6.307931640625,1.244800154364109,1.4462277127243577,0.5032888368502259
1782829633714860800,6.31786083984375,1.0114631076544522,1.404573659951985,0.4785335311044007
1782829633724788700,6.327788818359375,0.8784954836666583,1.388246063876897,0.4596009766953066
1782829633734717700,6.3377177734375,0.725949883505702,1.4584763689227402,0.4511159108141437
1782829633744646700,6.347646728515625,0.3690443247944116,1.3605772818371653,0.49270380301512773
1782829633754574600,6.35757470703125,0.069943304798007,1.1297621548205614,0.5260104082787409
1782829633764503800,6.36750390625,-0.24904665701687334,1.0585125897295773,0.524118858911097
1782829633774431700,6.377431640625,-0.6419640248298645,1.0064739210650324,0.5755471771249547
1782829633784360700,6.387360595703125,-1.115047985291481,0.8272589251652359,0.575698750957474
1782829633794288600,6.39728857421875,-1.5064572866290806,0.7584753117963671,0.46234490510858595
1782829633804217600,6.407217529296875,-1.7436714670330284,0.8202760805405676,0.39978670559320595
1782829633814145500,6.4171455078125,-1.971801592749357,0.7795804975368082,0.4776374955801293
1782829633824074500,6.427074462890625,-2.082467953079939,0.6367277316115796,0.45414271128941325
1782829633834003700,6.437003662109375,-1.9694547373622655,0.6014411680445074,0.3793670544315129
1782829633843931600,6.446931640625,-1.7820985205829143,0.5905841123349964,0.2948934853039682
1782829633853860600,6.456860595703125,-1.5266244608670472,0.4784137771822512,0.2806490887111053
1782829633863788500,6.46678857421875,-1.1350865647137165,0.3876911575973034,0.351713469960913
1782829633873717500,6.476717529296875,-0.7172592120498419,0.3297966025114059,0.37815654613059013
1782829633883645400,6.4866455078125,-0.2472358082026243,0.27125512782409783,0.3768784524861723
1782829633893574700,6.49657470703125,0.24170856921374798,0.23448650900572537,0.3688255309445783
1782829633903502600,6.506502685546875,0.668468585395813,0.17996888300701974,0.3882657060822472
1782829633913431600,6.516431640625,1.0011942270964382,0.14757628731578587,0.42323041728381067
1782829633923359700,6.52635986328125,1.2225970903843641,0.1075700017504394,0.41025041460357603
1782829633933288400,6.536288330078125,1.3882114309549332,0.05020765384510159,0.39411852376367895
1782829633943217400,6.546217529296875,1.397844351696968,-0.004541296691447496,0.4162696018278599
1782829633953145600,6.5561455078125,1.2567799304932354,-0.12272475465387105,0.41385665893461554
1782829633963074600,6.566074462890625,1.2291250308483839,-0.1910845896527171,0.36447595743294803
1782829633973002800,6.576002685546875,1.0845236676901577,-0.15244886178821324,0.32875903962459413
1782829633982931700,6.585931640625,0.8804080392897129,-0.20316066576316952,0.34364345115404576
1782829633992859600,6.595859619140625,0.7546043155819178,-0.29181890016421674,0.30521519202776254
1782829634002788600,6.60578857421875,0.5827209777444601,-0.26387656188011166,0.29739856346007437
1782829634012716500,6.615716552734375,0.3791355106979608,-0.32104908630177376,0.3164046580294147
1782829634022645800,6.625645751953125,0.33666531923711296,-0.41516237123832106,0.3194695254927501
1782829634032573700,6.63557373046875,0.21494740353822706,-0.4210279022708535,0.3533694935396313
1782829634042502700,6.645502685546875,0.10406243202090262,-0.5077186359912157,0.4271809450078755
1782829634052431600,6.655431640625,-0.03122866647839546,-0.5838228015065193,0.4359229813247919
1782829634062359600,6.665359619140625,-0.16766659692525862,-0.5688704393073916,0.4170416091136634
1782829634072288500,6.67528857421875,-0.35473172180354595,-0.5670061067402362,0.3814259962553158
1782829634082216400,6.685216552734375,-0.5210445660322904,-0.5978713467337191,0.33725433463882654
1782829634092145700,6.695145751953125,-0.6511801814645528,-0.5559262020602822,0.35459351890925317
1782829634102073600,6.705073486328125,-0.7588982133835553,-0.5635103735789656,0.33544768707565964
1782829634112002600,6.71500244140625,-0.8840326595276594,-0.5726115255318581,0.3518360734272748
1782829634121930500,6.724930419921875,-1.0090998856544493,-0.5507410545073449,0.3757390366600826
1782829634131859500,6.734859375,-1.0530617769777775,-0.4707585862539708,0.3282164571804926
1782829634141787600,6.74478759765625,-1.0341203451424836,-0.35188773054927586,0.2836100574085489
1782829634151716600,6.754716552734375,-0.9425561601668596,-0.32374928517118096,0.313931984305568
1782829634161645600,6.7646455078125,-0.8302946395993233,-0.3124398095190525,0.3312985680395737
1782829634171573800,6.77457373046875,-0.6763093620240688,-0.30370924444422126,0.33700711841210723
1782829634181502500,6.78450244140625,-0.518576130092144,-0.3357788917914033,0.3714095926210284
1782829634191430700,6.7944306640625,-0.38409342536628244,-0.3665704820267856,0.42824134078100323
1782829634201359600,6.804359619140625,-0.22092004820704458,-0.3289300488099456,0.45495095893237736
1782829634211287600,6.81428759765625,-0.23653905762135982,-0.15963161289915442,0.46656979279462246
1782829634221216800,6.824216796875,-0.45466976737082004,-0.13299568103849888,0.5126468131083994
1782829634231144700,6.834144775390625,-0.5982184066057205,-0.17927973169907926,0.5400612915934995
1782829634241073700,6.84407373046875,-0.7639414682477712,-0.06076031978055835,0.5653759847877546
1782829634250999300,6.853999267578125,-1.0538204863905907,-0.022460692002624273,0.6057401073474437
1782829634260927200,6.86392724609375,-1.2809335440188645,-0.03137362790703773,0.5528185549011454
1782829634270856200,6.873856201171875,-1.5635791037768125,0.07229132922887802,0.44125466120894996
1782829634280784100,6.8837841796875,-1.7708154945462942,0.10811726036965846,0.47221842967346306
1782829634290713000,6.893713134765625,-1.8775053524613379,0.06938917804658412,0.6193034263409674
1782829634300641000,6.90364111328125,-1.9296692549407481,0.15086130033582448,0.5615014449093491
1782829634310570000,6.913570068359375,-1.751470158085227,0.33499811667725443,0.5394134586766361
1782829634320498200,6.923498291015625,-1.654392762646079,0.3591473462887108,0.5690981836486607
1782829634330427100,6.93342724609375,-1.4036439778864382,0.36412206596136093,0.5809824635140598
1782829634340355000,6.94335498046875,-1.0314952573359013,0.39561055241972204,0.5578052938051521
1782829634350284000,6.953283935546875,-0.5509492904305457,0.4291412122301757,0.5381908580791205
1782829634360213000,6.963212890625,-0.11389467472732066,0.4425714794285595,0.49520767559483647
1782829634370141000,6.973140869140625,0.34592648405730725,0.41995676590800285,0.4937381144989282
1782829634380070100,6.983070068359375,0.720130968093872,0.47044411347731946,0.5334313155271112
1782829634389998000,6.992998046875,0.9513660740882157,0.4799456629246473,0.5877881980061531
1782829634399927000,7.002927001953125,1.2383195601731538,0.4462437382005155,0.6058969418769702
1782829634409855200,7.012855224609375,1.4628075299948453,0.5012948865540325,0.5796958943022414
1782829634419784200,7.0227841796875,1.593022640404105,0.5701365137204527,0.49181953099388626
1782829634429712100,7.032712158203125,1.6579565926074982,0.598642769497633,0.4457022517349571
1782829634439641000,7.04264111328125,1.7029776375949381,0.5735206032007932,0.4139820388799533
1782829634449570300,7.0525703125,1.6216759034365416,0.5895775656409561,0.3934865460030734
1782829634459498200,7.062498291015625,1.4971277327477932,0.6140693250797689,0.3647100219171494
1782829634469427200,7.07242724609375,1.3536258552640676,0.6084650753319263,0.30941257065236566
1782829634479355100,7.082355224609375,1.188072304970026,0.6076262864202261,0.28210315997693686
1782829634489284000,7.0922841796875,0.9296516704082488,0.64671399583593,0.314446984623
1782829634499212000,7.1022119140625,0.675296385589242,0.6926942412443459,0.32016375483460724
1782829634509141200,7.112141357421875,0.4015793976962566,0.7740459520243108,0.27315418464476243
1782829634519069200,7.122069091796875,0.19705226588547228,0.822303640845418,0.21099070180170237
1782829634528998100,7.131998046875,0.00940729529261589,0.8010755593776703,0.15236786897387355
1782829634538926000,7.141926025390625,-0.1466664789944887,0.7793553104788065,0.06173307380285114
1782829634548855000,7.15185498046875,-0.3119114017307758,0.7111633793927729,0.04452074904879555
1782829634558784000,7.161783935546875,-0.4144610911011696,0.6223449859939515,0.02664588699908927
1782829634568712000,7.1717119140625,-0.5909118829846381,0.6324652518615126,-0.0062412690097466104
1782829634578641200,7.18164111328125,-0.7888029377818108,0.6465592436656356,-0.010166680558864027
1782829634588569000,7.191569091796875,-0.8941144930809736,0.669079264640063,-0.03769170674635097
1782829634598498000,7.201498046875,-0.9722066175431012,0.743300977409631,-0.04389370319163426
1782829634608426000,7.211426025390625,-1.047560841473937,0.7262536887578666,-0.0020619192321784793
1782829634618355000,7.22135498046875,-1.0633756657212972,0.6408727224618196,0.043008207327686246
1782829634628283100,7.231283203125,-1.004275826498866,0.5913175411760807,0.04999488787725567
1782829634638212000,7.241212158203125,-0.829543528971076,0.5376188303448259,0.030820359672140328
1782829634648140300,7.251140380859375,-0.656004825142026,0.4417584094800055,0.07173334828624502
1782829634658069200,7.2610693359375,-0.4229506870269775,0.3196966487795114,0.19653958538929
1782829634667998000,7.270998046875,-0.11984510756433009,0.27757790110483765,0.28950165446409953
1782829634677926100,7.280926025390625,0.07654372597634791,0.2785724651001394,0.28200614760955794
1782829634687855000,7.290855224609375,0.3159644765138626,0.22611805524155495,0.2642872981054708
1782829634697783000,7.300782958984375,0.45363107197284697,0.16886720488667487,0.23918385477541013
1782829634707712300,7.310712158203125,0.5585545047372579,0.08721651116013526,0.21051634402191266
1782829634717640200,7.32064013671875,0.631151538914442,0.016558043830096722,0.16650612004483117
1782829634727569200,7.330569091796875,0.7310983523100614,-0.040328503257036206,0.10648728454764932
1782829634737497000,7.3404970703125,0.7419546773672103,-0.05816489645987749,0.07736760957986116
1782829634747426000,7.350426025390625,0.7224620413899421,-0.05500263303667306,0.0747762048471719
1782829634757355300,7.360355224609375,0.6745318309575319,-0.04600494145825505,0.062290123163722455
1782829634767283200,7.370283203125,0.5631202052175999,-0.09576762801483273,0.01962192491274327
1782829634777212200,7.380212158203125,0.5137111544042825,-0.12453443442434071,0.00262589152418077
1782829634787140000,7.39014013671875,0.38227322420179843,-0.13884732967615127,0.005096409823559224
1782829634797069000,7.400069091796875,0.2724684491366148,-0.17631196793466805,-0.0028444296456873416
1782829634806997000,7.4099970703125,0.24464871431887147,-0.1693205016121268,-0.0685990871148184
1782829634816926000,7.419926025390625,0.14089958603084088,-0.12683408966884016,-0.10147709170281886
1782829634826854100,7.429854248046875,0.08147358359396457,-0.1425571439795196,-0.08409352030139416
1782829634836783000,7.439783203125,0.058258712223172186,-0.16926745625063777,-0.12785400730110705
1782829634846712000,7.449712158203125,0.049130233871936796,-0.17562807732373475,-0.17328626343794165
1782829634856640000,7.459639892578125,0.015036825612187384,-0.22773498891890048,-0.1456545254729688
1782829634866569000,7.46956884765625,-0.06825871271193028,-0.27073855660408735,-0.09558332095649093
1782829634876497200,7.4794970703125,-0.21603461425304413,-0.25889365890100596,-0.08807583140321075
1782829634886426000,7.489426025390625,-0.2500941202431917,-0.24565306905582546,-0.18828158799596129
1782829634896354300,7.499354248046875,-0.276768776679039,-0.1495206993818283,-0.24313743297308682
1782829634906283300,7.509283203125,-0.285524914586544,-0.1580551573626697,-0.2234842726718634
1782829634916211200,7.519211181640625,-0.2341734975337982,-0.21127529089674352,-0.24111801944207398
1782829634926140200,7.52914013671875,-0.18189502876400945,-0.22904110308140516,-0.22106939354985952
1782829634936068000,7.539068115234375,-0.15615794543921946,-0.26769612016826866,-0.19243636958785354
1782829634945997000,7.5489970703125,-0.1781727933704853,-0.2594676593966782,-0.1838132469428703
1782829634955926300,7.55892626953125,-0.21924071681797502,-0.21375015657767651,-0.17233166612684725
1782829634965854200,7.568854248046875,-0.14300854100883006,-0.11573065798282622,-0.24894367156643418
1782829634975783200,7.578783203125,-0.047581250864267344,-0.00377908014729619,-0.29884156534262
1782829634985711000,7.588711181640625,0.08676993643641472,-0.0307084419965744,-0.23297566605135797
1782829634995640000,7.59864013671875,0.20674831499159335,-0.11483590110018849,-0.1207713555637747
1782829635005568000,7.608568115234375,0.29076106167435645,-0.16329013540670276,-0.06403601698298007
1782829635015497200,7.618497314453125,0.4041027786940336,-0.15953326709121465,-0.07378149472139775
1782829635025425200,7.628425048828125,0.4872007486194372,-0.14405556584373116,-0.07898794079069048
1782829635035354000,7.63835400390625,0.47107262063920496,-0.15558672142252325,-0.011812054879404604
1782829635045283000,7.648282958984375,0.512971734213829,-0.19083178393542766,0.061820971282012756
1782829635055211000,7.6582109375,0.5040063374698162,-0.1870630790516734,0.13364913997855038
1782829635065140000,7.668139892578125,0.4644967493802309,-0.17238383470550178,0.16154522796813398
1782829635075068000,7.67806787109375,0.3473211532860994,-0.1334670979425311,0.20383600774146615
1782829635084997000,7.6879970703125,0.3034498628556728,-0.10759864332303404,0.2036222919255495
1782829635094925000,7.697925048828125,0.2584270643025636,-0.04253434273824096,0.2645826643228531
1782829635104854000,7.70785400390625,0.21466449494361875,-0.017679595205932853,0.3511502465875819
1782829635114782200,7.7177822265625,0.16691022560000418,-0.06461392646878958,0.38501149005927143
1782829635124711000,7.7277109375,0.11611118173301219,-0.0875314223282039,0.3936343204433098
1782829635134639000,7.73763916015625,0.02018880154788494,-0.1330263684377074,0.4195968465544283
1782829635144568300,7.747568359375,-0.10687281326651572,-0.22452479470074174,0.387976623475179
1782829635154497000,7.7574970703125,-0.315771584290266,-0.2853311455801129,0.291183378739655
1782829635164425200,7.76742529296875,-0.4794400514900684,-0.2101126768581569,0.29648915699757633
1782829635174354200,7.777354248046875,-0.5246230090409517,-0.11454714728668332,0.26289332299642265
1782829635184282000,7.7872822265625,-0.5952309152275324,-0.06436258205622435,0.2075614580053836
1782829635194211000,7.797211181640625,-0.7910890028923749,0.07435512989088892,0.1884888740710914
1782829635204139000,7.807138916015625,-1.0632219364643096,0.20449717506393789,0.16631255196779965
1782829635214068200,7.817068115234375,-1.4438590838968752,0.33459947274848817,0.19526826854553073
1782829635223996200,7.82699609375,-1.7961124328881501,0.5392630904205143,0.4158844019025564
1782829635233925000,7.836925048828125,-2.1477117018848655,0.6048417702682316,0.7008657111316919
1782829635243854000,7.84685400390625,-2.2353595901995895,0.775594496640563,0.8024240513771772
1782829635253786400,7.856786376953125,-2.07901518227756,1.167844048194587,0.9046057842180132
1782829635263715300,7.86671533203125,-1.92000477001667,1.405601980086416,1.0551831530459224
1782829635273643300,7.876643310546875,-1.6417916397482155,1.5114005882501602,1.095884727399051
1782829635283572500,7.886572509765625,-1.1461702687859534,1.6287781366571783,1.129170034146309
1782829635293500400,7.89650048828125,-0.6658446666330099,1.579975235043466,1.2156563313357531
1782829635303429400,7.906429443359375,-0.27284897288680077,1.1417781713068484,1.2990664359502493
1782829635313357300,7.916357421875,0.1619856286793947,0.7771427489958703,1.3891817372918127
1782829635323286300,7.926286376953125,0.5216214891374111,0.63053048440665,1.4320824291244147
1782829635333215500,7.936215576171875,0.8182493970185518,0.5150893108896911,1.447735048547387
1782829635343143400,7.946143310546875,0.9779320094525813,0.5308407145120203,1.4187323875553906
1782829635353072400,7.956072265625,1.0929320150732993,0.7050266302034258,1.517467925465107
1782829635363000300,7.966000244140625,1.0048001426339148,0.7678561574734747,1.5437816396340727
1782829635372929300,7.97592919921875,0.8006786690145731,0.7443596926823258,1.6007134871676563
1782829635382857200,7.985857177734375,0.5985843173086642,0.7478207929216325,1.6342995304271577
1782829635392786200,7.9957861328125,0.4603571653574705,0.8405793022483586,1.6910533910453318
1782829635402714400,8.00571435546875,0.30309564259052274,0.8974535743758082,1.7850868887439368
1782829635412643300,8.015643310546874,0.2770505162298679,0.9785271988667548,1.823401421830058
1782829635422571500,8.025571533203125,0.19710136572420595,1.0871619072392582,1.8488824845671652
1782829635432500500,8.03550048828125,0.1447059925764799,1.0792604864649473,1.8824609290421008
1782829635442429200,8.04542919921875,0.11294248856902121,1.0948888482294976,1.8948060313522814
1782829635452357400,8.055357421875,0.014040215790271758,1.1023667828947306,1.9465750892952083
1782829635462286600,8.06528662109375,-0.02613748081922531,1.0399147106349467,1.9643863480567931
1782829635472214500,8.075214599609374,-0.06347147843539715,1.040695924140513,1.9111308509483933
1782829635482143500,8.0851435546875,-0.015987842726707457,1.0620447093784808,1.7726073463991283
1782829635492071400,8.095071533203125,-0.02089607303440571,1.0291595078647136,1.6691276827022432
1782829635502000400,8.10500048828125,-0.030790275061130523,0.9242496652342379,1.5980524512648582
1782829635511928300,8.11492822265625,0.019269933137297628,0.8289126837216317,1.5412100355803966
1782829635521857300,8.124857177734375,-0.02728548181056976,0.7804189941875637,1.550821621273458
1782829635531785200,8.13478515625,-0.08144728010892868,0.7027933181934058,1.5345912019625305
1782829635541714400,8.14471435546875,-0.07399462601542472,0.6821840992763638,1.5368591468945145
1782829635551643400,8.154643310546875,-0.10306114602386951,0.6575355418406427,1.5540174947053194
1782829635561571300,8.1645712890625,-0.14769406847655772,0.5628748521544039,1.5634231825627385
1782829635571500300,8.174500244140624,-0.21092063224017618,0.5273093255154788,1.5314993734270332
1782829635581428200,8.18442822265625,-0.27979426198005675,0.4271398092798888,1.4785405211776494
1782829635591357400,8.194357421875,-0.3615302959024906,0.33266324398890135,1.454281401450932
1782829635601285400,8.204285400390624,-0.4309983844041824,0.34303134713768957,1.3972443399772048
1782829635611214300,8.21421435546875,-0.4729273085951805,0.38087270975410936,1.2629970514424145
1782829635621142300,8.224142333984375,-0.5422825843721628,0.32185499585717914,1.2546946486517787
1782829635631071200,8.2340712890625,-0.4978314482271671,0.2528998983789235,1.2803873083129524
1782829635641000200,8.244000244140626,-0.4102461037546396,0.29152378967516124,1.2892884076490998
1782829635650928400,8.253928466796875,-0.2930453732192516,0.29618389044068755,1.2048125734992325
1782829635660857300,8.263857421875,-0.11010989549160002,0.30756884248182176,1.1166085856717078
1782829635670785500,8.27378564453125,-0.0184258835285902,0.27671821553558107,1.1228877390064298
1782829635680714500,8.283714599609375,0.12386544912159442,0.15278174700438976,1.1775751686140894
1782829635690642400,8.293642333984375,0.3041255701601505,0.09735489720627664,1.2368376510523258
1782829635700571400,8.3035712890625,0.4656535181999206,0.08237243212983011,1.2250471138849854
1782829635710499300,8.313499267578125,0.6034615679562092,0.07531798357367515,1.1763635278020053
1782829635720428500,8.323428466796875,0.6091922205626964,0.04827478608638048,1.1581927150130271
1782829635730357500,8.333357421875,0.6090443365246058,-0.0686025577135384,1.1326672286123036
1782829635740285400,8.343285400390625,0.6008475860655308,-0.06980038919597864,1.1417459495376794
1782829635750214400,8.35321435546875,0.5246107340812682,-0.05402355887144804,1.147998287930712
1782829635760142300,8.363142333984374,0.4598077147811651,-0.09202961053028702,1.0965317931309342
1782829635770071300,8.3730712890625,0.34877778183519836,-0.0711496849130839,1.0772043576527386
1782829635779999200,8.382999267578125,0.35787761861383915,-0.14223485322259366,1.075890279379487
1782829635789928400,8.392928466796874,0.30373160240650177,-0.1821517800040543,1.0933652188587932
1782829635799856400,8.4028564453125,0.26724983770549293,-0.235337207550928,1.0890507897257804
1782829635809785300,8.412785400390625,0.28154373599588867,-0.2855672193583101,1.0419405904393642
1782829635819714300,8.42271435546875,0.2656657833844423,-0.2605778125956654,1.0629494761984795
1782829635829642200,8.432642333984376,0.28866496617794035,-0.31510186833515763,1.1409485886149107
1782829635839571500,8.442571533203125,0.3188999454438686,-0.4082086065776646,1.2706485891088843
1782829635849499400,8.45249951171875,0.32217092993855473,-0.4919530577130615,1.3780945260882378
1782829635859428400,8.462428466796876,0.2792553327977657,-0.5299444963246583,1.423001589307189
1782829635869356300,8.472356201171875,0.19738895049393176,-0.4854943100277334,1.3507177127324044
1782829635879285200,8.48228515625,0.10882336281239986,-0.395390114602074,1.3077847260653972
1782829635889213400,8.49221337890625,0.026903789016604424,-0.3930732159618288,1.477331145387888
1782829635899142100,8.50214208984375,-0.09618015433847904,-0.4741876839198172,1.495411138088256
1782829635909070300,8.5120703125,-0.09907003056108951,-0.44694085361920294,1.4371562252573669
1782829635918999600,8.52199951171875,-0.17431904055178166,-0.4698313153412193,1.3313015029922126
1782829635928928300,8.53192822265625,-0.11546879217624664,-0.4932569068532437,1.4181846905447542
1782829635938856400,8.5418564453125,-0.1021118824750185,-0.37164230539835985,1.485695653629303
1782829635948785400,8.551785400390624,-0.14085633141100407,-0.35132549355663356,1.4471481885701416
1782829635958713300,8.56171337890625,-0.05551145934164524,-0.2626735427659005,1.4335057399258018
1782829635968642600,8.571642578125,-0.1573591379225254,-0.23429003658555447,1.3902559423945844
1782829635978570500,8.581570556640624,-0.18218904327452182,-0.3235267284616828,1.4631458220385014
1782829635988499500,8.59149951171875,-0.2075222219735384,-0.37229243987016375,1.500484934221208
1782829635998427400,8.601427490234375,-0.19075404252409933,-0.30343101202473044,1.51487454797104
1782829636008356400,8.6113564453125,-0.2857832732617855,-0.2972003740068525,1.4351049918159842
1782829636018285300,8.621285400390626,-0.3412427101552486,-0.34281770438700915,1.4151859471201895
1782829636028213200,8.631213134765625,-0.5144236865878105,-0.3963630512874573,1.2852758110068738
1782829636038142500,8.641142578125,-0.6151917532384396,-0.3643050213128328,1.2948599241711198
1782829636048070400,8.6510703125,-0.8861667489469051,-0.31530192095190285,1.2785830353699623
1782829636057999400,8.660999267578125,-1.1021090087413787,-0.33294834454059596,1.430971399142593
1782829636067927300,8.67092724609375,-1.2151625564694404,-0.2805208226889372,1.4955426555134355
1782829636077856300,8.680856201171874,-1.2361042222112417,-0.09589578443914651,1.5095128748074174
1782829636087784200,8.6907841796875,-1.0798504151821136,0.07343582308888436,1.4260904952332376
1782829636097713400,8.70071337890625,-0.799406749382615,0.1980271753322333,1.3226684069424868
1782829636107642400,8.710642333984374,-0.47650165995061394,0.26217859885580835,1.2051966043807565
1782829636117570300,8.7205703125,-0.02441197220087051,0.3221669844157994,1.2215610984001308
1782829636127499300,8.730499267578125,0.31608897967636584,0.36659181707575916,1.2983518579401074
1782829636137427500,8.740427490234374,0.4440045809715986,0.32492337045185266,1.47054323881343
1782829636147356200,8.750356201171876,0.45293549092411994,0.24321269016638397,1.5308968774892389
1782829636157284400,8.760284423828125,0.5198492187678814,0.2610470375426113,1.4776849272616206
1782829636167213300,8.77021337890625,0.49554772120416163,0.35650187328122557,1.3702671934634447
1782829636177141500,8.7801416015625,0.34021804328262806,0.40838863931968805,1.2434765045449137
1782829636187070500,8.790070556640625,0.20000351690649984,0.486482590412721,1.1292186955936252
1782829636196998400,8.799998291015624,0.0483586649775505,0.5928711272936315,1.0503132089219986
1782829636206927400,8.80992724609375,-0.10045885457098483,0.6794862384945154,0.9085700116738676
1782829636216856600,8.819856689453125,-0.4053746983259916,0.745080627368018,0.8112925636179745
1782829636226784500,8.829784423828125,-0.6736480338603258,0.7224550271272658,0.754346906754747
1782829636236713500,8.83971337890625,-0.8049825036883353,0.7745105007961391,0.6235394564755261
1782829636246637600,8.849637451171875,-0.8987778087168932,0.845694818631187,0.4135446338433772
1782829636256566500,8.85956640625,-0.9278308847218751,0.8684361542060971,0.2816146458076313
1782829636266494500,8.869494384765625,-0.8796066597789526,0.8521724171474575,0.19547307040262965
1782829636276423400,8.87942333984375,-0.8286123856008052,0.8441546765170991,0.1201840937277302
1782829636286351400,8.889351318359376,-0.797899851951003,0.8604733586333692,0.08879811779577285
1782829636296280300,8.8992802734375,-0.7425625801324844,0.8512484341703355,0.05498381873834878
1782829636306209500,8.90920947265625,-0.598314268195629,0.8939183859869837,-0.03909486980885267
1782829636316137500,8.919137451171874,-0.4351683635652065,0.9994739791750907,-0.1179927576959133
1782829636326066400,8.92906640625,-0.2607084532380104,0.9664001232214271,-0.11682188728563486
1782829636335994400,8.938994384765625,0.0414659828543663,0.8606870013840496,-0.110921211874485
1782829636345923300,8.94892333984375,0.3018202158272266,0.8246494733192026,-0.09429214863479136
1782829636355851500,8.9588515625,0.5661684868723154,0.7654979039095342,-0.12875713015329093
1782829636365780500,8.968780517578125,0.7945195618629455,0.7098150335237383,-0.1034593515612185
1782829636375708700,8.978708740234374,0.9088730862736701,0.6891865253843367,-0.018574863545224068
1782829636385637600,8.9886376953125,0.9793868844360113,0.6888217837251722,0.028612931022047997
1782829636395566300,8.99856640625,0.9439443996548652,0.7210716099448502,0.05632463888805359
1782829636405494500,9.00849462890625,0.7794464958935976,0.7285894382290542,0.06212579944748431
1782829636415423500,9.018423583984376,0.6954314111232757,0.7878134883530438,0.04318560972120613
1782829636425351400,9.028351318359375,0.5108990195930004,0.8412956338241696,-0.10836517071612178
1782829636435280600,9.03828076171875,0.35818566164970395,0.7965824857421219,-0.12290001988923177
1782829636445208600,9.04820849609375,0.2412269231766462,0.720257809343934,-0.14342386207776142
1782829636455137500,9.058137451171875,0.11920856322646141,0.6651292118400335,-0.12607731648478657
1782829636465065500,9.0680654296875,0.01986205381155014,0.6357727689743041,-0.08100795710990205
1782829636474994400,9.077994384765624,-0.08122516179084778,0.6447006101869046,0.004283029347751289
1782829636484923600,9.087923583984375,-0.11750818904936312,0.6648176616728305,0.03562125714784488
1782829636494851600,9.0978515625,-0.08376490940153598,0.6840097072683274,0.0676182228513062
1782829636504780500,9.107780517578124,-0.05453472326397896,0.6502408547878264,-0.06635236763395369
1782829636514708500,9.11770849609375,0.07148118188977241,0.6058724284902215,-0.09742085684826597
1782829636524637400,9.127637451171875,0.19327040925920008,0.4825524844221771,-0.016825882719736545
1782829636534565400,9.1375654296875,0.2680781052231789,0.3364398399181664,0.06250575694208964
1782829636544494300,9.147494384765626,0.2581722127586603,0.18353256683796643,0.12612038844153284
1782829636554422300,9.15742236328125,0.2666068636268377,0.10154664980769157,0.09680555622782558
1782829636564351500,9.1673515625,0.2183136651009321,0.1844903059542179,0.06103398562278598
1782829636574280400,9.177280517578126,0.21100480339229105,0.15419468254223465,0.16546095837345345
1782829636584208400,9.18720849609375,0.1760638383924961,0.05741758522391319,0.2290634793099947
1782829636594137300,9.197137451171875,0.08461129709780216,-0.05805953638926148,0.19859971452318131
1782829636604065500,9.2070654296875,0.07182078910768032,-0.14338453471437096,0.09620302375741302
1782829636613994500,9.216994384765625,0.05257423684597015,-0.17134725819937885,0.13753292260933667
1782829636623922700,9.226922607421875,0.05441431175470352,-0.29928799393586814,0.048808052712865174
1782829636633851600,9.2368515625,0.030717794346809386,-0.4169639407675713,0.05685288227954879
1782829636643779600,9.246779541015625,0.024611878687143325,-0.5311913545805961,0.024039339496195314
1782829636653708500,9.25670849609375,0.09744856683909893,-0.6375337142322212,0.010316080700606108
1782829636663636500,9.266636474609374,-0.0702531013995409,-0.7280318774115294,-0.0441606104995124
1782829636673565400,9.2765654296875,-0.023849662142992018,-0.7319934745188802,-0.023842282554134724
1782829636683494700,9.28649462890625,0.09244213685393333,-0.639092487981543,0.011012154939677566
1782829636693422600,9.296422607421874,0.09790215582549572,-0.6036369245231151,0.1406041102156043
1782829636703351600,9.3063515625,0.18177812438607216,-0.6570191898163408,0.2419293175586499
1782829636713279500,9.316279541015625,0.30181612417399883,-0.6654138740003108,0.25896851423550393
1782829636723206400,9.326206298828126,0.3030646629303694,-0.6812870773714035,0.236616415440198
1782829636733134600,9.336134521484375,0.3797995275646448,-0.6691038876246661,0.2744720805766061
1782829636743063600,9.3460634765625,0.5094809694886208,-0.7228312400285154,0.3469694172389805
1782829636752991500,9.355991455078126,0.6075923841506242,-0.7340231537155807,0.4074862836524844
1782829636762920400,9.36592041015625,0.6460322971820831,-0.77383771610111,0.43335203485824164
1782829636772848400,9.375848388671875,0.7280529932647943,-0.8039657278612256,0.4492678352620452
1782829636782777600,9.385777587890624,0.708567956072092,-0.8002380125749856,0.47577725466620174
1782829636792706600,9.39570654296875,0.5846732808560132,-0.8744985229849814,0.5832589570786804
1782829636802634500,9.405634521484375,0.43271629423797126,-0.9797096866495907,0.5933103224284947
1782829636812563500,9.4155634765625,0.27827041341364384,-0.9739537534713745,0.4953625008303672
1782829636822491400,9.425491455078125,0.15542086333632468,-0.9737385763507336,0.4387878692366183
1782829636832420600,9.435420654296875,0.025184710139036177,-1.0873397480241953,0.4098065798262134
1782829636842348500,9.4453486328125,-0.025550036320090293,-1.171896100064367,0.39977519781850274
1782829636852277500,9.455277587890626,0.020983166795969007,-1.252927638979256,0.4128337821602821
1782829636862205400,9.465205322265625,0.05934533841609955,-1.3860982381932436,0.42958628911655394
1782829636872134400,9.475134521484375,0.10621873327195644,-1.473028479757905,0.46228827955052254
1782829636882062300,9.485062255859376,0.08469897538125515,-1.4663409648180008,0.4681997320840135
1782829636891991300,9.4949912109375,-0.02314239065647125,-1.4977218992486596,0.4719015092113986
1782829636901920500,9.50492041015625,-0.13993044873774052,-1.5120301183253526,0.47904250353984534
1782829636911848400,9.514848388671876,-0.32847499851882456,-1.4456088501736521,0.4836571577284485
1782829636921777400,9.52477734375,-0.46233226482272144,-1.395090815205127,0.4839953401742503
1782829636931705600,9.53470556640625,-0.49323710617423056,-1.2507497104182839,0.43292745277062056
1782829636941634300,9.54463427734375,-0.5540577778398991,-1.1965658464185893,0.37989049378372725
1782829636951562500,9.5545625,-0.7472831789135932,-1.4278703643873334,0.38815888470690696
1782829636961491700,9.56449169921875,-0.9568611643731594,-1.4562934719257057,0.5603675455085932
1782829636971419600,9.574419677734374,-1.0470791954368353,-1.2472820343077182,0.6491408576566725
1782829636981348600,9.5843486328125,-1.289901278850436,-1.112225475216657,0.6190848151542246
1782829636991277600,9.594277587890625,-1.4896984595298766,-0.8958372982855886,0.6793919843398034
1782829637001205500,9.60420556640625,-1.5693723002254962,-0.5014482504848391,0.7575609734304248
1782829637011134500,9.614134521484376,-1.7406237699002027,-0.12256722600460052,0.7205499241583049
1782829637021062400,9.6240625,-1.9831956779450177,0.0838798410180956,0.6596943273097277
1782829637030991600,9.63399169921875,-2.133632323127985,0.22836758773401378,0.6140060505852103
1782829637040919600,9.64391943359375,-2.2422025879621503,0.49382652343474326,0.7763742488414048
1782829637050848500,9.6538486328125,-2.2813579557865857,0.7154501168012619,0.8353530920326709
1782829637060776400,9.6637763671875,-2.0195973631471396,0.9711544050764291,0.9473922020211816
1782829637070705400,9.673705322265626,-1.8498872776955364,1.165478341976553,0.7923117496203631
1782829637080634600,9.683634521484375,-1.3747013765186071,1.2832760154917835,0.8139457084752619
1782829637090562600,9.6935625,-0.8624567875355481,1.3429988089181482,0.8977957388769835
1782829637100491500,9.703491455078124,-0.4440454975038767,1.2666333621181547,1.0553189082548022
1782829637110419500,9.71341943359375,-0.13821604603528975,1.2103829209774732,1.1795408426638692
1782829637120348400,9.723348388671875,0.19374621007740497,1.1746211411140859,1.065850823663175
1782829637130276400,9.7332763671875,0.506522704204917,1.165641861975193,0.9046743924748152
1782829637140205300,9.743205322265625,0.7819266222715378,1.1361211684584618,0.8605980079263448
1782829637150133200,9.75313330078125,1.1459756229966878,1.1417749564364552,0.9130833974450826
1782829637160062500,9.7630625,1.397016084179282,1.259621583659947,0.9102055769864469
1782829637169991400,9.772991455078126,1.5233552299380302,1.4277300791338086,0.8759198610249906
1782829637179919400,9.78291943359375,1.561985112583637,1.4829237046979367,0.7833144964333624
1782829637189848300,9.792848388671874,1.5263567498415707,1.4511619542561471,0.7042259813450277
1782829637199776500,9.802776611328126,1.424779120373726,1.3854853669919074,0.7288453126862645
1782829637209705500,9.81270556640625,1.1884002217501402,1.2504974892228842,0.7891643915053457
1782829637219633700,9.822633544921874,0.9150567433446645,1.1433097647882997,0.7763537905752659
1782829637229562600,9.832562744140626,0.5592331346511841,1.122233512881398,0.6887366627249867
1782829637239490600,9.842490478515625,0.14578151285350321,0.9960501422062515,0.6835345640372484
1782829637249419500,9.85241943359375,-0.13899930536746977,0.8780411640278994,0.7040481405600905
1782829637259348700,9.8623486328125,-0.4172071749389171,0.8983421937786042,0.6628785103037953
1782829637269276700,9.872276611328125,-0.6657634180903435,0.842359755924344,0.6471050409801304
1782829637279205600,9.88220556640625,-0.8838736695736646,0.6560011718802153,0.5591134172616526
1782829637289133600,9.892133544921874,-0.9269371507525443,0.5848683650366961,0.494446116637811
1782829637299062500,9.9020625,-0.886321647247672,0.5722397696100175,0.44990448919776826
1782829637308990500,9.911990478515625,-0.7193523849368095,0.5452499097451567,0.35784948849789794
1782829637318919400,9.92191943359375,-0.4392027336478233,0.5236519720517099,0.28701935439538206
1782829637328847600,9.93184765625,-0.10077157378196716,0.4359752960339188,0.2617595697261393
1782829637338776600,9.941776611328125,0.26987609455585476,0.34955724177509545,0.2661334008961916
1782829637348705500,9.95170556640625,0.4790402385175228,0.2550743928737938,0.28337022077068685
1782829637358633500,9.961633544921876,0.733913409730792,0.11572072111070156,0.31141083179749546
1782829637368565500,9.9715654296875,1.1751134546756743,0.06594517507255077,0.3317567966684699
1782829637378493400,9.981493408203125,1.2521142767697573,-0.022082067948579788,0.32254626605696973
1782829637388422400,9.99142236328125,1.230094168141484,-0.1232367958292365,0.28912527716606856
1782829637398351400,10.001351318359376,1.1705267114073037,-0.24212577171251176,0.2764541577719152
1782829637408279300,10.011279296875,1.0444324803203344,-0.3362055927708745,0.2756829176710918
1782829637418208500,10.02120849609375,0.8568459619164467,-0.4055232399512082,0.27541626609154046
1782829637428136700,10.03113671875,0.7572323259979487,-0.4795670388706028,0.24318225849550215
1782829637438065400,10.0410654296875,0.5945195520877837,-0.4732680848568678,0.23567992004137484
1782829637447993600,10.05099365234375,0.4387152423918247,-0.5215924822386354,0.23214940782766788
1782829637457922600,10.060922607421874,0.38106326389014716,-0.6107646575111896,0.2661719793409109
1782829637467850500,10.0708505859375,0.2564730076253414,-0.6880789294686168,0.32899737842511384
1782829637477779700,10.08077978515625,0.24012276132702826,-0.7851711571507155,0.33050891549922523
1782829637487707600,10.090707763671874,0.25328034906387326,-0.789433125444129,0.34476131273545324
1782829637497636600,10.10063671875,0.2927583729714155,-0.8263887912672012,0.414776623323746
1782829637507565600,10.110565673828125,0.3574854044258594,-0.9243673002645373,0.5020677340900526
1782829637517493500,10.120493408203124,0.4468669846653938,-0.9933451210312545,0.5492752928037196
1782829637527422500,10.13042236328125,0.48597968239188194,-1.0864761169321835,0.6029391149846837
1782829637537350400,10.140350341796875,0.4723720127999782,-1.1323498332262039,0.6375865403980017
1782829637547279600,10.150279541015625,0.43353170227408405,-1.0305425597209483,0.6039493880057707
1782829637557207600,10.16020751953125,0.2649672797262668,-0.9001602760512382,0.5452124272789806
1782829637567136500,10.170136474609375,0.07092530157268047,-0.8615598386958241,0.5075659661801531
1782829637577065500,10.1800654296875,-0.22477672363519668,-0.7935532010488212,0.5411029096009209
1782829637586993400,10.189993408203126,-0.5461743311136961,-0.758275624505803,0.5371993262911215
1782829637596922600,10.199922607421875,-0.8369932604551314,-0.6347231137908995,0.47412725896947083
1782829637606850600,10.2098505859375,-1.1084247677594423,-0.454272584746778,0.5225954487361013
1782829637616779500,10.219779541015624,-1.2542840220242737,-0.39326325864121314,0.644519116140157
1782829637626707500,10.22970751953125,-1.2632137629330158,-0.3115660223592073,0.7049360293105245
1782829637636636400,10.239636474609375,-1.1186246747344732,-0.06743994367495179,0.740790748154372
1782829637646564600,10.249564697265624,-1.011665352228284,0.0855020353924483,0.7858785747677087
1782829637656493300,10.259493408203125,-1.0418524006992578,0.09475238655768334,0.8547364224165678
1782829637666421500,10.26942138671875,-1.0845412033468484,0.0365952350128442,0.9220797007840126
1782829637676350700,10.279350830078124,-1.1549351745218037,-0.008922726646065712,0.8850501660071313
1782829637686279400,10.289279541015626,-1.3822200815856456,-0.030818112916126846,0.8155888725724071
1782829637696207600,10.29920751953125,-1.664187595951557,-0.09106156921572983,0.7961419754330068
1782829637706136600,10.309136474609375,-1.9838035807102918,-0.15677483522854743,0.7723244619939476
1782829637716064500,10.319064453125,-2.199976142129302,-0.10088767444230616,0.732867115548253
1782829637725993700,10.32899365234375,-2.215368357050419,0.08375679916031659,0.6462867103345692
1782829637735921700,10.338921630859375,-2.156530968156457,0.2340763207696378,0.5204856900405138
1782829637745850600,10.3488505859375,-1.9204606970906257,0.28605010750442744,0.40875984725225717
1782829637755778600,10.358778564453125,-1.508120251405239,0.34117680531218647,0.32291111731398847
1782829637765707500,10.36870751953125,-1.114033255290985,0.32618652225546535,0.2823701038174331
1782829637775636500,10.378636474609374,-0.7186527122348546,0.10677432132810354,0.3025415158390999
1782829637785564400,10.388564453125,-0.2777162866622209,0.01760302283838391,0.24120211752895265
1782829637795493600,10.39849365234375,0.08230711180865764,0.0917972630791366,0.079970302891545
1782829637805421600,10.408421630859374,0.40497956152856346,0.06128448978513479,-0.04060633381772786
1782829637815350500,10.4183505859375,0.7232938160389661,0.07107428158931434,-0.1346875796481967
1782829637825278500,10.428278564453125,0.9960498499453068,0.13405892635583877,-0.21258169732019305
1782829637835207400,10.43820751953125,1.1807365552544593,0.1941886200826615,-0.2579311340117827
1782829637845135400,10.44813525390625,1.2079407885223625,0.22628552076295017,-0.2538982252338901
1782829637855064600,10.458064697265625,1.195866319847107,0.19324366738274693,-0.3070514310115948
1782829637864993500,10.46799365234375,1.0799164661556482,0.24722397163435816,-0.4043515658233314
1782829637874921500,10.47792138671875,0.9674661450177431,0.30733123433366416,-0.5047346152117476
1782829637884850400,10.487850341796875,0.7783364888250828,0.37436931920945643,-0.563172592991963
1782829637894778400,10.4977783203125,0.5885965917795897,0.3753549692459404,-0.5942764640469104
1782829637904707300,10.507707275390626,0.3879027545213699,0.37773441172838207,-0.6107157768681645
1782829637914635500,10.517635498046875,0.14085282427966594,0.3756174195744097,-0.6177774588827043
1782829637924564500,10.527564453125,0.0012356792747974395,0.4158316488020122,-0.5532096365779638
1782829637934492700,10.53749267578125,-0.1762339342623949,0.46743718674629925,-0.5409931290835142
1782829637944421600,10.547421630859375,-0.3797726395577192,0.4406695913299918,-0.31172862904239446
1782829637954350600,10.5573505859375,-0.654618923741579,0.33198344503119587,-0.6211293996591121
1782829637964278500,10.567278564453124,-0.6815729816406965,0.36075083596259355,-0.7362973822578788
1782829637974207700,10.577207763671876,-0.6649094316095113,0.3577085456572473,-0.8576577166907489
1782829637984135700,10.5871357421875,-0.521209401205182,0.3048321109943092,-0.8395989129088819
1782829637994064600,10.597064697265624,-0.1917407154738903,0.23738529918715356,-0.817045135795325
1782829638003992600,10.60699267578125,0.22138065145611763,0.23056743586584924,-0.836912011912465
1782829638013921500,10.616921630859375,0.470917722338438,0.09787234520912169,-0.7549997446402907
1782829638023849500,10.626849365234374,0.7827928837120532,-0.1059815635152161,-0.6961161785170435
1782829638033778400,10.6367783203125,0.9580307926744223,-0.2167629285275936,-0.738718618055433
1782829638043707600,10.646707763671875,1.1172200686335563,-0.2543678520396352,-0.685274174246192
1782829638053635600,10.656635498046874,1.0926093589901924,-0.29028116920292374,-0.6450920937225222
1782829638063564500,10.666564453125,1.1046025791227816,-0.2539529876284301,-0.6278368614085018
1782829638073492500,10.676492431640625,1.0511094738662243,-0.13482684198841452,-0.6128261931508779
1782829638083421400,10.68642138671875,0.8937000670611858,-0.1257353346467018,-0.6458583288546651
1782829638093349400,10.696349365234376,0.8352133913010358,-0.18582330812364817,-0.54654930190593
1782829638103278600,10.706278564453125,0.7178823123842477,-0.29619638459607955,-0.5301834927123039
1782829638113206500,10.71620654296875,0.6460223603099584,-0.45275428913831706,-0.35705077586825934
1782829638123135500,10.726135498046874,0.5102285729855298,-0.5371658258803188,-0.3554263164715841
1782829638133064400,10.736064453125,0.4640080890804529,-0.48501054509878155,-0.37542755955811585
1782829638142992400,10.745992431640625,0.49081484746336934,-0.3513945402048528,-0.4032218676736578
1782829638152921300,10.75592138671875,0.39725042858123777,-0.2863219101831317,-0.3701471714697778
1782829638162849500,10.765849609375,0.17345570172071456,-0.3622808950740844,-0.29651739671137184
1782829638172778500,10.775778564453125,0.11836042196452617,-0.5481622900605201,-0.41903716684505343
1782829638182706700,10.785706787109374,0.2584586284846067,-0.6055269760534167,-0.5421167993512004
1782829638192635600,10.7956357421875,0.3096165687918663,-0.523462440828979,-0.5207720692338421
1782829638202563600,10.8055634765625,0.384325480556488,-0.4698118799883872,-0.5219179148007184
1782829638212492500,10.815492431640624,0.47598318903446196,-0.4452354379408061,-0.4589261096410453
1782829638222421800,10.825421875,0.5375497106313705,-0.4736592761315405,-0.43283802092149853
1782829638232349700,10.835349609375,0.528662055298686,-0.5802512996952981,-0.4248288289237767
1782829638242278700,10.845278564453125,0.4227671471536159,-0.7742648554719984,-0.4341874627690762
1782829638252206000,10.8552060546875,0.34333763660788535,-0.8912837266344577,-0.4672500666763633
1782829638262135000,10.865135009765625,0.1045475851893425,-0.971049337266758,-0.5214056544296443
1782829638272063000,10.87506298828125,-0.24745500391125677,-1.0901743138629942,-0.6354793389856815
1782829638281992200,10.8849921875,-0.565951044729352,-1.1956292231556027,-0.7823572687737643
1782829638291920100,10.894920166015625,-0.5743517933279275,-1.2379045496314762,-0.9104249188255518
1782829638301849000,10.90484912109375,-0.4425058668464422,-1.1233348251868038,-0.7896062169887125
1782829638311778000,10.914778076171874,-0.5366600683152676,-1.1456985596209763,-0.6981155356407165
1782829638321706000,10.9247060546875,-0.3697036654859781,-1.2734687610961497,-0.8240956388287246
1782829638331635000,10.934635009765625,-0.2669914790302515,-1.0902089467849583,-0.9072824560813605
1782829638341563100,10.944563232421874,0.0896504603087902,-0.9252429140552878,-0.7936919519323855
1782829638351492000,10.9544921875,0.3746656718075275,-0.8878340245719999,-0.2032294201504439
1782829638361420000,10.964419921875,-2.0986714843839405,-1.4299525774888693,0.2326193268943578
1782829638371349000,10.974348876953124,-1.1839157698124647,-1.4603813257612288,-0.12721052176579833
1782829638381277200,10.984277099609375,-1.5214023423045873,-0.5940704931460321,-0.9593495471227913
1782829638391206100,10.9942060546875,-1.7435715137898922,-0.2600104975691065,-1.0954571496367453
1782829638401135000,11.004135009765625,-1.737301347479224,-0.5128318873517215,-0.9917639893196523
1782829638411063300,11.014063232421876,-2.0191946275651453,-0.6857911838576197,-0.7542610551021993
1782829638420992300,11.0239921875,-2.2933219498246906,-0.8296968198366462,-0.6148333682548255
1782829638430920200,11.033920166015625,-2.7745500537753105,-0.9127938399139791,-0.33766916251741347
1782829638440849200,11.04384912109375,-3.2610318404704333,-0.8409612873032689,-0.05008044726885855
1782829638450777000,11.053777099609375,-3.0088655901283023,-0.581638954661414,-0.018317089391872286
1782829638460706000,11.0637060546875,-2.021038209605217,-0.09221048352252692,0.032432123984023925
1782829638470634200,11.07363427734375,-1.6429665287464856,0.6197304926466196,0.18515753769129514
1782829638480563200,11.083563232421875,-1.7168103481143713,1.1007094441417604,0.434600500549376
