time,seconds_elapsed,z,y,x
1782829627479734300,0.082734375,0.15884923934936523,-0.04314132034778595,-0.2176702618598938
1782829627489663200,0.092663330078125,0.18538153171539307,0.07698987424373627,-0.24533012509346008
1782829627499591400,0.10259130859375,0.19912411272525787,0.17130932211875916,-0.25620296597480774
1782829627509520400,0.112520263671875,0.19534029066562653,0.14898137748241425,-0.24748031795024872
1782829627519448300,0.1224482421875,0.17610149085521698,0.06329705566167831,-0.21800298988819122
1782829627529377300,0.132377197265625,0.1429520547389984,-0.02873433567583561,-0.1965392380952835
1782829627539305200,0.14230517578125,0.1256231814622879,-0.13033559918403625,-0.16550543904304504
1782829627549234200,0.152234130859375,0.11165811121463776,-0.19792717695236206,-0.11645986139774323
1782829627559162000,0.162162109375,0.0996888056397438,-0.24239306151866913,-0.05985306203365326
1782829627569091300,0.17209130859375,0.10067443549633026,-0.270968496799469,-0.015101572498679161
1782829627579019300,0.182019287109375,0.1116228774189949,-0.2761809527873993,0.006457107607275248
1782829627588948200,0.1919482421875,0.1255517452955246,-0.26360392570495605,0.02607741579413414
1782829627598876200,0.201876220703125,0.13816627860069275,-0.19978587329387665,0.04826633632183075
1782829627608805000,0.21180517578125,0.14229631423950195,-0.14939594268798828,0.07440339773893356
1782829627618733000,0.221733154296875,0.14041098952293396,-0.12020200490951538,0.10292086750268936
1782829627628662300,0.231662353515625,0.13498400151729584,-0.10123284161090851,0.14148741960525513
1782829627638590200,0.241590087890625,0.12703493237495422,-0.09908100962638855,0.16269001364707947
1782829627648519200,0.251519287109375,0.1365237683057785,-0.10128530859947205,0.1681644171476364
1782829627658448100,0.2614482421875,0.1601739525794983,-0.09368228912353516,0.16060224175453186
1782829627668376300,0.271376220703125,0.18337887525558472,-0.12033253908157349,0.13936938345432281
1782829627678305000,0.281304931640625,0.18420134484767914,-0.1970411241054535,0.12502428889274597
1782829627688233200,0.291233154296875,0.16320312023162842,-0.287675678730011,0.15457020699977875
1782829627698162400,0.301162353515625,0.11746672540903091,-0.31682851910591125,0.25927674770355225
1782829627708090400,0.31109033203125,0.060912638902664185,-0.2644486725330353,0.37242940068244934
1782829627718019300,0.321019287109375,0.010590916499495506,-0.17785373330116272,0.4314272701740265
1782829627727947300,0.330947265625,-0.018056973814964294,-0.08578772097826004,0.43901941180229187
1782829627737876200,0.340876220703125,-0.05186120420694351,-0.011612544767558575,0.41380104422569275
1782829627747804200,0.35080419921875,-0.09014946967363358,0.034742701798677444,0.3444209098815918
1782829627757733400,0.3607333984375,-0.11819595098495483,0.05552699416875839,0.24256400763988495
1782829627767661300,0.370661376953125,-0.12018373608589172,0.03097771294414997,0.10323195904493332
1782829627777590300,0.38059033203125,-0.11613129824399948,-0.06271345913410187,-0.059485141187906265
1782829627787518200,0.390518310546875,-0.10089348256587982,-0.13578447699546814,-0.18625932931900024
1782829627797447200,0.400447265625,-0.09543018788099289,-0.1476932317018509,-0.24682991206645966
1782829627807375000,0.410375,-0.08575040102005005,-0.1604364514350891,-0.2519141435623169
1782829627817304000,0.420303955078125,-0.05441536009311676,-0.15843595564365387,-0.1980036199092865
1782829627827232000,0.43023193359375,-0.016774240881204605,-0.11633165180683136,-0.1150115355849266
1782829627837161200,0.4401611328125,0.010090900585055351,-0.05087970942258835,-0.015272291377186775
1782829627847089400,0.45008935546875,0.024078622460365295,-0.01460079662501812,0.07142425328493118
1782829627857018000,0.46001806640625,0.045437831431627274,-0.03362233564257622,0.15118689835071564
1782829627866947000,0.469947021484375,0.0519133098423481,-0.060200147330760956,0.2113354504108429
1782829627876875300,0.479875244140625,0.03768635541200638,-0.10261803865432739,0.23363076150417328
1782829627886804200,0.48980419921875,0.01905861124396324,-0.14801613986492157,0.18956929445266724
1782829627896732400,0.499732421875,0.002935493364930153,-0.19688595831394196,0.10524599999189377
1782829627906661400,0.509661376953125,0.007735841441899538,-0.2264060378074646,0.019112443551421165
1782829627916589300,0.51958935546875,0.018302999436855316,-0.16007095575332642,-0.013369865715503693
1782829627926518300,0.529518310546875,0.03281642496585846,-0.05958029627799988,0.007531687151640654
1782829627936446200,0.5394462890625,0.051389824599027634,0.03999509662389755,0.07917428761720657
1782829627946375200,0.549375244140625,0.05432649329304695,0.15331074595451355,0.18198427557945251
1782829627956303000,0.55930322265625,0.04943639785051346,0.21825432777404785,0.2731245756149292
1782829627966232300,0.569232421875,0.049231331795454025,0.21979975700378418,0.3230721652507782
1782829627976160300,0.57916015625,0.04413985460996628,0.15488283336162567,0.3306693434715271
1782829627986089200,0.589089111328125,0.03721750155091286,0.042862821370363235,0.2884228229522705
1782829627996017200,0.59901708984375,0.04614848643541336,-0.1010807603597641,0.2185714691877365
1782829628005946000,0.608946044921875,0.042923931032419205,-0.2008150815963745,0.1479305922985077
1782829628015874000,0.6188740234375,0.008497517555952072,-0.281465083360672,0.0889737606048584
1782829628025803300,0.62880322265625,-0.06024346128106117,-0.3309202492237091,0.047262005507946014
1782829628035731200,0.638731201171875,-0.14923687279224396,-0.2968653440475464,0.016221996396780014
1782829628045660200,0.64866015625,-0.21407125890254974,-0.18846750259399414,-0.009843160398304462
1782829628055588400,0.65858837890625,-0.23927144706249237,-0.03203170746564865,-0.026670187711715698
1782829628065517300,0.668517333984375,-0.2503776252269745,0.1467295140028,-0.030551213771104813
1782829628075446000,0.678446044921875,-0.25719815492630005,0.29700589179992676,-0.03463513404130936
1782829628085374500,0.68837451171875,-0.2540625333786011,0.4036380648612976,-0.05714257061481476
1782829628095303400,0.698303466796875,-0.22576844692230225,0.4740857779979706,-0.0885414108633995
1782829628105231400,0.7082314453125,-0.17796790599822998,0.46938633918762207,-0.11335195600986481
1782829628115160300,0.718160400390625,-0.11931286007165909,0.3737797439098358,-0.1104452833533287
1782829628125088300,0.728088134765625,-0.06379527598619461,0.239347904920578,-0.06528472155332565
1782829628135017200,0.738017333984375,-0.028734611347317696,0.1623198240995407,0.003449376206845045
1782829628144945200,0.747945068359375,0.00008558575063943863,0.11276930570602417,0.06587226688861847
1782829628154874400,0.757874267578125,0.03618428856134415,0.13580042123794556,0.1221843734383583
1782829628164802300,0.76780224609375,0.08305779099464417,0.20815026760101318,0.1738470196723938
1782829628174731300,0.777731201171875,0.13872405886650085,0.26085370779037476,0.24141213297843933
1782829628184659200,0.7876591796875,0.18921199440956116,0.26621997356414795,0.30151915550231934
1782829628194588200,0.797588134765625,0.2229379415512085,0.24090257287025452,0.33860504627227783
1782829628204516000,0.80751611328125,0.24926914274692535,0.18653066456317902,0.33659088611602783
1782829628214445300,0.8174453125,0.2620151937007904,0.14033104479312897,0.30472323298454285
1782829628224373200,0.827373291015625,0.2659856975078583,0.12005241215229034,0.26784589886665344
1782829628234302200,0.83730224609375,0.2700468599796295,0.10977122187614441,0.22254692018032074
1782829628244230700,0.847230712890625,0.2747630476951599,0.09758033603429794,0.16640615463256836
1782829628254159600,0.85715966796875,0.2845548689365387,0.09105245769023895,0.1097947508096695
1782829628264087600,0.867087646484375,0.2932807207107544,0.0717964619398117,0.040420468896627426
1782829628274016500,0.8770166015625,0.2865987718105316,0.03313847631216049,-0.020120911300182343
1782829628283945500,0.886945556640625,0.27458447217941284,0.0047393254935741425,-0.04880554974079132
1782829628293873700,0.896873779296875,0.275313138961792,0.010725725442171097,-0.04311799630522728
1782829628303802600,0.906802734375,0.26763126254081726,0.009186416864395142,-0.012177390046417713
1782829628313730800,0.916730712890625,0.2380703091621399,-0.020626159384846687,0.012672392651438713
1782829628323659800,0.92665966796875,0.21087810397148132,-0.015987731516361237,0.040245965123176575
1782829628333587700,0.936587646484375,0.18944138288497925,0.0519426055252552,0.05886605381965637
1782829628343516700,0.9465166015625,0.1701289415359497,0.130015030503273,0.03841138258576393
1782829628353444600,0.956444580078125,0.15830981731414795,0.2229948490858078,0.0015019369311630726
1782829628363373800,0.966373779296875,0.1464499682188034,0.3393741846084595,-0.06497029960155487
1782829628373301800,0.9763017578125,0.15416942536830902,0.3993489742279053,-0.11480405926704407
1782829628383230700,0.986230712890625,0.2017156481742859,0.30956342816352844,-0.11951439082622528
1782829628393158700,0.99615869140625,0.199608713388443,0.2284771054983139,-0.13848832249641418
1782829628403087600,1.006087646484375,0.19137261807918549,0.15881866216659546,-0.14118504524230957
1782829628413015600,1.016015625,0.16872256994247437,0.11550253629684448,-0.15681584179401398
1782829628422944500,1.025944580078125,0.13556408882141113,0.0889928936958313,-0.1602233499288559
1782829628432872400,1.03587255859375,0.10548149049282074,0.06941646337509155,-0.1596350222826004
1782829628442801700,1.0458017578125,0.10085397958755493,0.054571740329265594,-0.166314497590065
1782829628452729600,1.0557294921875,0.12320607900619507,0.030849093571305275,-0.1882425844669342
1782829628462658600,1.065658447265625,0.1451806277036667,0.00044804438948631287,-0.2062397003173828
1782829628472587500,1.07558740234375,0.160093754529953,-0.03654909133911133,-0.21245235204696655
1782829628482515500,1.085515380859375,0.16626989841461182,-0.07557505369186401,-0.21158309280872345
1782829628492444700,1.095444580078125,0.16046197712421417,-0.09423097968101501,-0.19100384414196014
1782829628502372900,1.105372802734375,0.1530461311340332,-0.11051513254642487,-0.16995368897914886
1782829628512301600,1.115301513671875,0.15151560306549072,-0.14907819032669067,-0.1525522917509079
1782829628522229800,1.125229736328125,0.15392044186592102,-0.1616176813840866,-0.1314249038696289
1782829628532158700,1.13515869140625,0.1579788327217102,-0.1170009970664978,-0.10865998268127441
1782829628542086700,1.145086669921875,0.16305828094482422,-0.069230817258358,-0.10772041976451874
1782829628552015600,1.155015625,0.16283683478832245,-0.0423683300614357,-0.11744235455989838
1782829628561943800,1.16494384765625,0.1588897556066513,-0.005422028712928295,-0.1084858775138855
1782829628571872800,1.174872802734375,0.14901109039783478,0.055817000567913055,-0.06001748517155647
1782829628581800700,1.18480078125,0.14797139167785645,0.11900342255830765,0.018238700926303864
1782829628591729700,1.194729736328125,0.14471739530563354,0.18407800793647766,0.10432185977697372
1782829628601657600,1.20465771484375,0.1546238213777542,0.19926442205905914,0.1504611223936081
1782829628611586600,1.214586669921875,0.1734391748905182,0.19711779057979584,0.1553267240524292
1782829628621514500,1.224514404296875,0.19970299303531647,0.15491122007369995,0.13700124621391296
1782829628631443700,1.234443603515625,0.22302421927452087,0.09564485400915146,0.11587531119585037
1782829628641371600,1.24437158203125,0.260452538728714,0.008901974186301231,0.10727915912866592
1782829628651300600,1.254300537109375,0.29592403769493103,-0.07661488652229309,0.1174480989575386
1782829628661228500,1.264228515625,0.32339560985565186,-0.12766022980213165,0.12935297191143036
1782829628671157500,1.274157470703125,0.32824936509132385,-0.155771404504776,0.1564742475748062
1782829628681086500,1.28408642578125,0.32140448689460754,-0.1457323580980301,0.19709224998950958
1782829628691014700,1.2940146484375,0.32246100902557373,-0.11566799134016037,0.2507401704788208
1782829628700943600,1.303943603515625,0.33799734711647034,-0.07320788502693176,0.30837365984916687
1782829628710871800,1.313871826171875,0.3619542717933655,-0.010520212352275848,0.3431645929813385
1782829628720800500,1.323800537109375,0.38708117604255676,0.0744471400976181,0.3475944995880127
1782829628730728700,1.333728759765625,0.41927048563957214,0.1627897024154663,0.3399464190006256
1782829628740657700,1.34365771484375,0.4554087817668915,0.21899518370628357,0.32842639088630676
1782829628750585600,1.353585693359375,0.47978517413139343,0.2107919454574585,0.31300944089889526
1782829628760514800,1.363514892578125,0.49054116010665894,0.15524692833423615,0.27841150760650635
1782829628770442800,1.37344287109375,0.5070396661758423,0.1307721734046936,0.2136126607656479
1782829628780371700,1.383371826171875,0.5189062356948853,0.12773165106773376,0.14059597253799438
1782829628790299600,1.393299560546875,0.5183964967727661,0.15337879955768585,0.09011136740446091
1782829628800228600,1.403228515625,0.510623574256897,0.16614173352718353,0.07666906714439392
1782829628810156500,1.413156494140625,0.5046476125717163,0.13923582434654236,0.09128538519144058
1782829628820085800,1.423085693359375,0.5013874173164368,0.10546267032623291,0.10259583592414856
1782829628830013700,1.433013671875,0.48656943440437317,0.051962338387966156,0.11876796931028366
1782829628839942700,1.442942626953125,0.4701206684112549,-0.011475222185254097,0.14223574101924896
1782829628849870600,1.45287060546875,0.45211032032966614,-0.031866081058979034,0.18410030007362366
1782829628859799600,1.462799560546875,0.42896395921707153,-0.033020295202732086,0.2235851287841797
1782829628869728500,1.472728515625,0.4217904508113861,-0.0018166983500123024,0.252494215965271
1782829628879656400,1.482656494140625,0.43982964754104614,0.06309385597705841,0.2605428099632263
1782829628889585700,1.492585693359375,0.4828687012195587,0.14173130691051483,0.24509203433990479
1782829628899513600,1.502513671875,0.5293877124786377,0.23627059161663055,0.2026524394750595
1782829628909442600,1.512442626953125,0.5578020811080933,0.31549596786499023,0.15856331586837769
1782829628919370800,1.522370849609375,0.551173746585846,0.35127928853034973,0.12226950377225876
1782829628929299700,1.5322998046875,0.5171222686767578,0.3543100357055664,0.10997432470321655
1782829628939227600,1.5422275390625,0.4688796103000641,0.3403542637825012,0.10685069859027863
1782829628949156900,1.552156982421875,0.4340199828147888,0.3079175353050232,0.10344481468200684
1782829628959084800,1.562084716796875,0.41544872522354126,0.30673322081565857,0.10397931188344955
1782829628969013800,1.572013671875,0.4080263078212738,0.3330473005771637,0.11792488396167755
1782829628978941700,1.581941650390625,0.40817782282829285,0.3910677433013916,0.1490689516067505
1782829628988870700,1.59187060546875,0.41055694222450256,0.47009605169296265,0.17379310727119446
1782829628998798600,1.601798583984375,0.42212119698524475,0.5550636649131775,0.19084586203098297
1782829629008727600,1.6117275390625,0.4495294690132141,0.5949317216873169,0.19110757112503052
1782829629018655500,1.621655517578125,0.4712557792663574,0.5562871694564819,0.19401653110980988
1782829629028584700,1.631584716796875,0.4955291152000427,0.4512160122394562,0.18642598390579224
1782829629038512600,1.6415126953125,0.5142074823379517,0.29921743273735046,0.16084499657154083
1782829629048441600,1.651441650390625,0.5137766003608704,0.10616210848093033,0.10627559572458267
1782829629058370600,1.66137060546875,0.5088268518447876,-0.08263231068849564,0.021563107147812843
1782829629068298500,1.671298583984375,0.5011445879936218,-0.23389986157417297,-0.07811660319566727
1782829629078227700,1.681227783203125,0.4991978108882904,-0.35985270142555237,-0.18020381033420563
1782829629088155600,1.69115576171875,0.5041564106941223,-0.4346267282962799,-0.25557219982147217
1782829629098084600,1.701084716796875,0.5014016628265381,-0.47617655992507935,-0.3110743463039398
1782829629108012800,1.7110126953125,0.4803513288497925,-0.5189248919487,-0.34163618087768555
1782829629117941500,1.72094140625,0.4382760524749756,-0.5212258696556091,-0.34704160690307617
1782829629127869700,1.73086962890625,0.36376434564590454,-0.4375389516353607,-0.3172537088394165
1782829629137798700,1.740798583984375,0.26792943477630615,-0.3064943552017212,-0.2631278932094574
1782829629147726600,1.7507265625,0.17102167010307312,-0.17056691646575928,-0.2024426907300949
1782829629157655800,1.76065576171875,0.09379133582115173,-0.04147232323884964,-0.15161174535751343
1782829629167583700,1.770583740234375,0.04116665571928024,0.07670576870441437,-0.11019223928451538
1782829629177512700,1.7805126953125,0.018546830862760544,0.1915852278470993,-0.08817268908023834
1782829629187440600,1.790440673828125,0.013323865830898285,0.30898696184158325,-0.08246246725320816
1782829629197369600,1.80036962890625,0.022153044119477272,0.3974132537841797,-0.09382324665784836
1782829629207297500,1.810297607421875,0.04061920940876007,0.4406856298446655,-0.10236703604459763
1782829629217226800,1.820226806640625,0.0632302463054657,0.420286625623703,-0.09591446816921234
1782829629227154700,1.83015478515625,0.090325266122818,0.34445980191230774,-0.08397990465164185
1782829629237083600,1.840083740234375,0.11827114969491959,0.23553571105003357,-0.07653903216123581
1782829629247011800,1.85001171875,0.13699749112129211,0.1249837651848793,-0.07305583357810974
1782829629256939800,1.859939697265625,0.13847845792770386,0.027941377833485603,-0.07546865195035934
1782829629266869000,1.869868896484375,0.13511298596858978,-0.02877013571560383,-0.09546241164207458
1782829629276797200,1.879797119140625,0.1286574900150299,-0.06126522645354271,-0.14018887281417847
1782829629286726000,1.889725830078125,0.11991474032402039,-0.07341481745243073,-0.20695984363555908
1782829629296654000,1.899654052734375,0.11673519015312195,-0.06172140687704086,-0.27166905999183655
1782829629306583000,1.9095830078125,0.10381582379341125,-0.035899121314287186,-0.321024626493454
1782829629316511000,1.919510986328125,0.07176068425178528,-0.027215085923671722,-0.34904932975769043
1782829629326440200,1.929440185546875,0.010882718488574028,-0.029524434357881546,-0.3620704710483551
1782829629336368000,1.9393681640625,-0.03549010306596756,-0.04608823359012604,-0.3742866516113281
1782829629346297000,1.949297119140625,-0.03223814442753792,-0.08605378866195679,-0.38282278180122375
1782829629356225000,1.95922509765625,0.002056976780295372,-0.06392665207386017,-0.3636149764060974
1782829629366154000,1.969154052734375,0.028122711926698685,-0.02093713916838169,-0.3370685577392578
1782829629376082000,1.97908203125,0.04796326160430908,0.05273042619228363,-0.28664934635162354
1782829629386011000,1.989010986328125,0.05044000595808029,0.10950858891010284,-0.22774049639701843
1782829629395938800,1.998938720703125,0.013116604648530483,0.14348731935024261,-0.16851632297039032
1782829629405868000,2.008867919921875,-0.026376847177743912,0.1524021029472351,-0.11930670589208603
1782829629415797000,2.018796875,0.012572148814797401,0.14245440065860748,-0.06823047250509262
1782829629425725000,2.028724853515625,0.07915066927671432,0.08641700446605682,-0.020041240379214287
1782829629435654000,2.03865380859375,0.10102667659521103,0.055118732154369354,0.0202031172811985
1782829629445581800,2.048581787109375,0.1028081625699997,0.049412697553634644,0.06150718778371811
1782829629455511000,2.058510986328125,0.09396380186080933,0.004905415698885918,0.08022414892911911
1782829629465439000,2.06843896484375,0.07088761031627655,-0.04576463997364044,0.06885141879320145
1782829629475368000,2.078367919921875,0.05243563652038574,-0.06139020249247551,0.04867531359195709
1782829629485296000,2.088296142578125,0.059492334723472595,-0.05577351525425911,0.03479162976145744
1782829629495224800,2.098224853515625,0.06474035978317261,-0.04380526766180992,0.028380602598190308
1782829629505153000,2.108153076171875,0.01727619580924511,-0.040024176239967346,0.04949483647942543
1782829629515082000,2.11808203125,-0.027647070586681366,-0.005157538689672947,0.08608187735080719
1782829629525010000,2.128010009765625,-0.06913913786411285,0.024217981845140457,0.10741198062896729
1782829629534939100,2.137939208984375,-0.16239717602729797,0.06893618404865265,0.11369064450263977
1782829629544867000,2.1478671875,-0.274780809879303,0.11639830470085144,0.11020477861166
1782829629554796000,2.157796142578125,-0.3671296536922455,0.11159049719572067,0.08016059547662735
1782829629564724000,2.167723876953125,-0.4365587532520294,0.045637354254722595,0.006558945868164301
1782829629574653000,2.17765283203125,-0.5081634521484375,-0.06481485813856125,-0.0774584636092186
1782829629584582100,2.18758203125,-0.6092303991317749,-0.12755802273750305,-0.12171702831983566
1782829629594510000,2.197510009765625,-0.7199323773384094,-0.11015347391366959,-0.09374184906482697
1782829629604439000,2.20743896484375,-0.8227474093437195,-0.06782672554254532,-0.04811875522136688
1782829629614367000,2.217366943359375,-0.8676714897155762,-0.01945679634809494,-0.017823699861764908
1782829629624296000,2.2272958984375,-0.8608189821243286,0.10188554227352142,-0.009964297525584698
1782829629634223900,2.237223876953125,-0.824176013469696,0.28260737657546997,-0.01082423236221075
1782829629644152800,2.24715283203125,-0.7593513131141663,0.40927428007125854,-0.0017588627524673939
1782829629654080800,2.257080810546875,-0.6748457551002502,0.4310802221298218,0.022179491817951202
1782829629664010000,2.267010009765625,-0.5961036086082458,0.33950328826904297,0.06162222474813461
1782829629673938000,2.27693798828125,-0.5449450612068176,0.14384324848651886,0.11762744188308716
1782829629683867000,2.286866943359375,-0.4675813317298889,-0.07433824241161346,0.1782872974872589
1782829629693795000,2.296795166015625,-0.4297196865081787,-0.3067299425601959,0.20202378928661346
1782829629703724000,2.30672412109375,-0.4520479142665863,-0.4457636773586273,0.18823617696762085
1782829629713652000,2.31665185546875,-0.4969578981399536,-0.43880483508110046,0.13218754529953003
1782829629723581200,2.326581298828125,-0.5420100688934326,-0.2819533944129944,0.052067652344703674
1782829629733509000,2.336509033203125,-0.5837228894233704,-0.050291139632463455,-0.02504364214837551
1782829629743438000,2.34643798828125,-0.6084747314453125,0.18721631169319153,-0.0558357909321785
1782829629753367000,2.356366943359375,-0.6067202687263489,0.35176822543144226,-0.039398226886987686
1782829629763295000,2.366294921875,-0.5692392587661743,0.407731831073761,-0.0015461393631994724
1782829629773224000,2.376223876953125,-0.5279642343521118,0.356101393699646,0.05153811722993851
1782829629783152000,2.386152099609375,-0.4984547197818756,0.20860429108142853,0.09207814931869507
1782829629793081000,2.3960810546875,-0.48656052350997925,-0.007921891286969185,0.11866261810064316
1782829629803009000,2.406009033203125,-0.49039706587791443,-0.2260528951883316,0.14141720533370972
1782829629812938000,2.41593798828125,-0.4995327889919281,-0.39516204595565796,0.13063380122184753
1782829629822866000,2.425865966796875,-0.49500957131385803,-0.508664608001709,0.07655661553144455
1782829629832795000,2.435794921875,-0.4730750024318695,-0.5391663312911987,-0.011545014567673206
1782829629842722800,2.445722900390625,-0.4533368647098541,-0.5163114666938782,-0.12559014558792114
1782829629852652000,2.455652099609375,-0.42988133430480957,-0.4158626198768616,-0.22221681475639343
1782829629862580000,2.465580078125,-0.42668142914772034,-0.2594543397426605,-0.26450270414352417
1782829629872509000,2.475509033203125,-0.46212464570999146,-0.13335470855236053,-0.2879409193992615
1782829629882436900,2.485436767578125,-0.5053529739379883,-0.0860116109251976,-0.306291788816452
1782829629892365800,2.49536572265625,-0.5327798128128052,-0.08229783922433853,-0.316604346036911
1782829629902294000,2.5052939453125,-0.5324990153312683,-0.08332520723342896,-0.2993883490562439
1782829629912223000,2.515222900390625,-0.4985019266605377,-0.04594401642680168,-0.25611037015914917
1782829629922152000,2.52515185546875,-0.4128027558326721,0.03237428516149521,-0.18284091353416443
1782829629932080000,2.535080078125,-0.29685723781585693,0.11111863702535629,-0.07991958409547806
1782829629942009000,2.545009033203125,-0.18560580909252167,0.16681331396102905,0.01670442521572113
1782829629951937000,2.55493701171875,-0.08519399166107178,0.17157718539237976,0.09153445810079575
1782829629961866000,2.564865966796875,-0.0011924868449568748,0.1277448534965515,0.1416395753622055
1782829629971794000,2.5747939453125,0.046680763363838196,0.054229363799095154,0.18092547357082367
1782829629981723100,2.58472314453125,0.06776510924100876,-0.032840777188539505,0.22741229832172394
1782829629991651000,2.594651123046875,0.0602043941617012,-0.07899895310401917,0.27277660369873047
1782829630001580000,2.604580078125,0.02227364480495453,-0.099514901638031,0.2676025331020355
1782829630011508000,2.614508056640625,-0.014258801937103271,-0.0975273847579956,0.20890328288078308
1782829630021437000,2.62443701171875,-0.04831504076719284,-0.07256264239549637,0.09977944195270538
1782829630031364900,2.63436474609375,-0.07414290308952332,-0.04620080813765526,-0.02364341914653778
1782829630041294000,2.644294189453125,-0.08542156219482422,-0.029293520376086235,-0.11597622185945511
1782829630051222000,2.654221923828125,-0.08590386062860489,-0.0016839969903230667,-0.15098080039024353
1782829630061151000,2.66415087890625,-0.07528258860111237,0.020775146782398224,-0.14585743844509125
1782829630071080000,2.674079833984375,-0.05134982243180275,0.015444561839103699,-0.13433367013931274
1782829630081007900,2.6840078125,-0.026354197412729263,0.002428264357149601,-0.11412744224071503
1782829630090936800,2.693936767578125,-0.006517110392451286,-0.022533010691404343,-0.10024625062942505
1782829630100864800,2.70386474609375,0.006128715351223946,-0.056588709354400635,-0.0870509222149849
1782829630110794000,2.7137939453125,0.023465627804398537,-0.06829623132944107,-0.07069511711597443
1782829630120722200,2.72372216796875,0.04323531314730644,-0.057875316590070724,-0.03567175567150116
1782829630130651000,2.73365087890625,0.05422191694378853,0.018534502014517784,0.015160267241299152
1782829630140579000,2.7435791015625,0.0601963996887207,0.09323982149362564,0.050088416785001755
1782829630150508000,2.753508056640625,0.06376689672470093,0.13278722763061523,0.055978529155254364
1782829630160436000,2.76343603515625,0.0651383325457573,0.15537382662296295,0.03943544626235962
1782829630170365200,2.773365234375,0.06749070435762405,0.1576063483953476,0.005544590298086405
1782829630180293000,2.783293212890625,0.08855275064706802,0.1500938981771469,-0.03667536377906799
1782829630190222000,2.79322216796875,0.1299305558204651,0.1580282598733902,-0.09078307449817657
1782829630200150000,2.80314990234375,0.19380629062652588,0.16193442046642303,-0.1321416050195694
1782829630210079000,2.813078857421875,0.2403237372636795,0.15985262393951416,-0.15613189339637756
1782829630220008000,2.823008056640625,0.2626282572746277,0.12431788444519043,-0.17061574757099152
1782829630229935900,2.832935791015625,0.26668107509613037,0.08461306989192963,-0.16012902557849884
1782829630239865000,2.842864990234375,0.26810675859451294,0.026552975177764893,-0.1425328254699707
1782829630249792800,2.852792724609375,0.29308587312698364,-0.036909084767103195,-0.11981206387281418
1782829630259721700,2.8627216796875,0.35306280851364136,-0.06445910036563873,-0.07802090048789978
1782829630269649700,2.872649658203125,0.43463143706321716,-0.05732875317335129,-0.016089892014861107
1782829630279578600,2.88257861328125,0.5089268088340759,-0.0005720537155866623,0.06472219526767731
1782829630289506600,2.892506591796875,0.5543744564056396,0.04036233201622963,0.1485137641429901
1782829630299435800,2.902435791015625,0.5805699229240417,0.0398821085691452,0.19376546144485474
1782829630309364000,2.912364013671875,0.6150059103965759,0.005106284283101559,0.18621140718460083
1782829630319292700,2.922292724609375,0.6532049775123596,-0.07348323613405228,0.13659290969371796
1782829630329220900,2.932220947265625,0.6914482116699219,-0.14797212183475494,0.08636888116598129
1782829630339149800,2.94214990234375,0.7307709455490112,-0.209108367562294,0.033807411789894104
1782829630349077800,2.952077880859375,0.7586433291435242,-0.25200656056404114,-0.004743708297610283
1782829630359006700,2.9620068359375,0.7573361992835999,-0.2825113534927368,-0.03577755019068718
1782829630368936000,2.97193603515625,0.7359912395477295,-0.2824256420135498,-0.04179123416543007
1782829630378863900,2.98186376953125,0.6947536468505859,-0.27092474699020386,-0.030983425676822662
1782829630388792800,2.991792724609375,0.6593389511108398,-0.21021080017089844,-0.017578938975930214
1782829630398720800,3.001720703125,0.6359482407569885,-0.10098826140165329,-0.014889052137732506
1782829630408649700,3.011649658203125,0.6206231117248535,0.02941368892788887,-0.03000728413462639
1782829630418577700,3.02157763671875,0.593225359916687,0.1341666430234909,-0.032507214695215225
1782829630428507000,3.0315068359375,0.5540883541107178,0.1848021149635315,-0.03271840512752533
1782829630438434800,3.041434814453125,0.5155727863311768,0.1798890084028244,-0.017395779490470886
1782829630448363800,3.05136376953125,0.47689491510391235,0.15534745156764984,0.005705543793737888
1782829630458291700,3.061291748046875,0.453935831785202,0.1286487579345703,0.03696772828698158
1782829630468220700,3.071220703125,0.43902504444122314,0.10746225714683533,0.09051963686943054
1782829630478148600,3.081148681640625,0.4255359470844269,0.0864861011505127,0.14999471604824066
1782829630488077600,3.09107763671875,0.4121793806552887,0.0819624587893486,0.19570361077785492
1782829630498006800,3.1010068359375,0.3972432315349579,0.0806032344698906,0.20925424993038177
1782829630507934700,3.110934814453125,0.37545591592788696,0.10007520765066147,0.19295915961265564
1782829630517863700,3.12086376953125,0.34818559885025024,0.1468169093132019,0.16243717074394226
1782829630527791600,3.13079150390625,0.3108968436717987,0.1734522432088852,0.1361190229654312
1782829630537720600,3.140720458984375,0.2663958668708801,0.1609618067741394,0.1132674366235733
1782829630547648800,3.150648681640625,0.21337656676769257,0.085125632584095,0.08403044939041138
1782829630557577700,3.16057763671875,0.16061712801456451,-0.024738064035773277,0.036152638494968414
1782829630567506000,3.170505859375,0.11069057136774063,-0.13513807952404022,-0.04485965520143509
1782829630577435000,3.180434814453125,0.056121185421943665,-0.24497760832309723,-0.12872450053691864
1782829630587362800,3.19036279296875,0.009514001198112965,-0.3349245488643646,-0.20710691809654236
1782829630597291800,3.200291748046875,-0.03545756638050079,-0.385806679725647,-0.2606351673603058
1782829630607219700,3.2102197265625,-0.07625240087509155,-0.42253750562667847,-0.28588005900382996
1782829630617148700,3.220148681640625,-0.11316041648387909,-0.43577468395233154,-0.28358593583106995
1782829630627078000,3.230077880859375,-0.14895623922348022,-0.3962693512439728,-0.2717284858226776
1782829630637005800,3.240005859375,-0.18395847082138062,-0.29478850960731506,-0.24176263809204102
1782829630646934800,3.249934814453125,-0.21876733005046844,-0.13209626078605652,-0.1914547234773636
1782829630656862700,3.25986279296875,-0.2574845254421234,0.047676049172878265,-0.10527833551168442
1782829630666791700,3.269791748046875,-0.29984715580940247,0.2529575824737549,0.002215898595750332
1782829630676719600,3.2797197265625,-0.3315040171146393,0.4116159975528717,0.09378673136234283
1782829630686648800,3.28964892578125,-0.34642544388771057,0.5391025543212891,0.1530519276857376
1782829630696576800,3.29957666015625,-0.3414965271949768,0.6104844212532043,0.17944738268852234
1782829630706505700,3.309505615234375,-0.33072564005851746,0.6033428907394409,0.17927001416683197
1782829630716433700,3.31943359375,-0.3094905912876129,0.5453158617019653,0.15270808339118958
1782829630726362600,3.329362548828125,-0.27263617515563965,0.4274107813835144,0.13309603929519653
1782829630736290800,3.339290771484375,-0.2279336303472519,0.2977699339389801,0.11232393234968185
1782829630746219500,3.349219482421875,-0.17511355876922607,0.18771560490131378,0.09188177436590195
1782829630756147700,3.359147705078125,-0.1344987452030182,0.09913752973079681,0.061690058559179306
1782829630766077000,3.369076904296875,-0.10793797671794891,0.03275984153151512,0.005276848096400499
1782829630776005600,3.379005615234375,-0.09967576712369919,-0.010753246024250984,-0.06463579088449478
1782829630785933800,3.388933837890625,-0.0987820103764534,-0.04769209027290344,-0.12574388086795807
1782829630795862800,3.39886279296875,-0.10411515831947327,-0.08592864871025085,-0.17049133777618408
1782829630805790700,3.408790771484375,-0.10133028775453568,-0.1164439469575882,-0.18843331933021545
1782829630815720000,3.418719970703125,-0.09404516965150833,-0.1485423445701599,-0.1874297857284546
1782829630825647900,3.42864794921875,-0.08870765566825867,-0.17572124302387238,-0.1637715995311737
1782829630835576800,3.438576904296875,-0.09801433235406876,-0.2067405879497528,-0.1365714818239212
1782829630845504800,3.4485048828125,-0.11586949229240417,-0.2742229700088501,-0.12871035933494568
1782829630855433700,3.458433837890625,-0.14222270250320435,-0.33101871609687805,-0.13128696382045746
1782829630865361700,3.468361572265625,-0.16647610068321228,-0.36613088846206665,-0.14277131855487823
1782829630875290600,3.47829052734375,-0.19345253705978394,-0.35426366329193115,-0.1666966825723648
1782829630885218600,3.488218505859375,-0.21513731777668,-0.291736900806427,-0.21479497849941254
1782829630895147800,3.498147705078125,-0.23865938186645508,-0.19555075466632843,-0.25186049938201904
1782829630905076700,3.50807666015625,-0.2786417007446289,-0.09772725403308868,-0.26598459482192993
1782829630915004700,3.518004638671875,-0.33943498134613037,-0.05248429998755455,-0.24251341819763184
1782829630924933600,3.52793359375,-0.4003036618232727,-0.042108356952667236,-0.18589593470096588
1782829630934861600,3.537861572265625,-0.469046950340271,-0.02139275334775448,-0.1293420046567917
1782829630944790800,3.547790771484375,-0.5225263833999634,-0.024152852594852448,-0.10278842598199844
1782829630954718700,3.55771875,-0.5525162816047668,-0.01406299602240324,-0.10996894538402557
1782829630964647700,3.567647705078125,-0.5720359086990356,0.007744031026959419,-0.14603933691978455
1782829630974575900,3.577575927734375,-0.5865806937217712,0.018076438456773758,-0.1802036464214325
1782829630984504600,3.587504638671875,-0.5971041917800903,0.03645624592900276,-0.19159211218357086
1782829630994432800,3.597432861328125,-0.6085704565048218,0.035369738936424255,-0.16931332647800446
1782829631004361700,3.60736181640625,-0.6109236478805542,0.0011790115386247635,-0.12526464462280273
1782829631014289700,3.61728955078125,-0.6067556738853455,-0.046782076358795166,-0.08199330419301987
1782829631024219000,3.627218994140625,-0.6042962074279785,-0.08911195397377014,-0.05245192348957062
1782829631034147800,3.63714794921875,-0.6094228029251099,-0.13860556483268738,-0.02997411973774433
1782829631044075800,3.64707568359375,-0.6319757699966431,-0.16984018683433533,0.01552438922226429
1782829631054004700,3.657004638671875,-0.6753016114234924,-0.16002021729946136,0.07537944614887238
1782829631063932700,3.6669326171875,-0.7122010588645935,-0.1746327131986618,0.10783085227012634
1782829631073862000,3.67686181640625,-0.7234971523284912,-0.19125662744045258,0.0705205500125885
1782829631083789800,3.686789794921875,-0.7059239745140076,-0.21439336240291595,-0.024994781240820885
1782829631093718800,3.69671875,-0.6836774349212646,-0.2532353103160858,-0.1436597853899002
1782829631103646700,3.706646728515625,-0.677314043045044,-0.27882641553878784,-0.24290594458580017
1782829631113575700,3.71657568359375,-0.6893645524978638,-0.34019801020622253,-0.30991876125335693
1782829631123503600,3.726503662109375,-0.7064540386199951,-0.3904324173927307,-0.3208771347999573
1782829631133432600,3.7364326171875,-0.7135879397392273,-0.3980517089366913,-0.27189815044403076
1782829631143360800,3.74636083984375,-0.711514413356781,-0.3594350814819336,-0.18170541524887085
1782829631153289700,3.756289794921875,-0.691912055015564,-0.2460230439901352,-0.05360078066587448
1782829631163218700,3.76621875,-0.6593179106712341,-0.08659343421459198,0.09707687795162201
1782829631173146600,3.776146728515625,-0.6218389868736267,0.09681430459022522,0.24611824750900269
1782829631183075600,3.78607568359375,-0.5820279121398926,0.2521522343158722,0.38161271810531616
1782829631193003800,3.796003662109375,-0.5522798895835876,0.3552154302597046,0.5018339157104492
1782829631202932700,3.8059326171875,-0.5346982479095459,0.37958043813705444,0.5888921022415161
1782829631212861000,3.81586083984375,-0.5218721628189087,0.33518242835998535,0.6389735341072083
1782829631222790000,3.825789794921875,-0.4952676594257355,0.2690313756465912,0.6563171148300171
1782829631232717800,3.8357177734375,-0.4787594974040985,0.19421528279781342,0.6450313925743103
1782829631242646800,3.845646728515625,-0.4700371026992798,0.13532400131225586,0.599193274974823
1782829631252575200,3.8555751953125,-0.47039854526519775,0.10929767042398453,0.5275560617446899
1782829631262504400,3.86550439453125,-0.4611600339412689,0.08275341242551804,0.4432307779788971
1782829631272433400,3.875433349609375,-0.4554949700832367,0.0384860560297966,0.3757714629173279
1782829631282361300,3.885361328125,-0.44942960143089294,-0.05154024064540863,0.3302364647388458
1782829631292290300,3.895290283203125,-0.42578431963920593,-0.18006765842437744,0.3143060803413391
1782829631302218200,3.90521826171875,-0.3934503495693207,-0.31849637627601624,0.30785083770751953
1782829631312147200,3.915147216796875,-0.36857378482818604,-0.44341737031936646,0.2932508587837219
1782829631322075100,3.9250751953125,-0.3608599305152893,-0.5589434504508972,0.2408212274312973
1782829631332004400,3.93500439453125,-0.360389769077301,-0.6352810263633728,0.1513511687517166
1782829631341932300,3.944932373046875,-0.36550116539001465,-0.6711503267288208,0.011347727850079536
1782829631351861200,3.954861328125,-0.36601153016090393,-0.6420707702636719,-0.16003701090812683
1782829631361789200,3.9647890625,-0.3668139576911926,-0.5554245114326477,-0.31148776412010193
1782829631371718100,3.97471826171875,-0.3744167387485504,-0.40026146173477173,-0.4114152193069458
1782829631381646000,3.98464599609375,-0.3905845284461975,-0.20533885061740875,-0.42963576316833496
1782829631391575300,3.9945751953125,-0.40714460611343384,0.013396271504461765,-0.37903550267219543
1782829631401504300,4.004504150390625,-0.4153037369251251,0.27103978395462036,-0.26329585909843445
1782829631411432200,4.01443212890625,-0.4051547944545746,0.47899380326271057,-0.11933595687150955
1782829631421361200,4.024361083984375,-0.379080593585968,0.5975143313407898,-0.01743408851325512
1782829631431289000,4.0342890625,-0.3285112977027893,0.6384720206260681,0.02361907996237278
1782829631441218000,4.044218017578125,-0.24629072844982147,0.5818742513656616,0.015094302594661713
1782829631451146200,4.054146240234375,-0.13850383460521698,0.4513663947582245,-0.007513484451919794
1782829631461075200,4.0640751953125,-0.03510980308055878,0.282579243183136,-0.023634664714336395
1782829631471003400,4.07400341796875,0.05743452161550522,0.10212177038192749,-0.011652622371912003
1782829631480932400,4.083932373046875,0.1288762241601944,-0.04945497214794159,0.03007431887090206
1782829631490860300,4.0938603515625,0.18093198537826538,-0.1499347686767578,0.0678117424249649
1782829631500789200,4.103789306640625,0.2072480171918869,-0.19885863363742828,0.07448269426822662
1782829631510718500,4.113718505859375,0.21674352884292603,-0.19275464117527008,0.04429110139608383
1782829631520646400,4.123646484375,0.20207376778125763,-0.16631929576396942,-0.004547543823719025
1782829631530575400,4.133575439453125,0.1705150008201599,-0.12873347103595734,-0.04985002055764198
1782829631540503300,4.14350341796875,0.14027373492717743,-0.08727657794952393,-0.0709150955080986
1782829631550432300,4.153432373046875,0.1259671449661255,-0.08146993815898895,-0.0793323665857315
1782829631560360200,4.163360107421875,0.12554317712783813,-0.09315216541290283,-0.0644676685333252
1782829631570289200,4.1732890625,0.13975052535533905,-0.11098026484251022,-0.048448897898197174
1782829631580217000,4.183217041015625,0.14916959404945374,-0.11912687867879868,-0.039299607276916504
1782829631590146300,4.193146240234375,0.1615040898323059,-0.1069800853729248,-0.034203775227069855
1782829631600074200,4.20307421875,0.16552388668060303,-0.09345203638076782,-0.05295189470052719
1782829631610003200,4.213003173828125,0.16880910098552704,-0.06411685049533844,-0.09115281701087952
1782829631619932200,4.22293212890625,0.1799919754266739,-0.023549716919660568,-0.1385032832622528
1782829631629860000,4.232860107421875,0.19726458191871643,0.052998073399066925,-0.15731659531593323
1782829631639789300,4.242789306640625,0.20746369659900665,0.10957186669111252,-0.13731040060520172
1782829631649717200,4.25271728515625,0.20784753561019897,0.11990876495838165,-0.09201840311288834
1782829631659646200,4.262646240234375,0.2097431719303131,0.09325158596038818,-0.042004235088825226
1782829631669574100,4.27257421875,0.22045131027698517,0.07199026644229889,-0.0020897272042930126
1782829631679503000,4.282503173828125,0.23480813205242157,0.05464296415448189,0.013777652755379677
1782829631689431300,4.292431396484375,0.2487872838973999,0.05802440643310547,0.01840326562523842
1782829631699360300,4.3023603515625,0.2600790858268738,0.0921379029750824,0.006365245673805475
1782829631709288200,4.3122880859375,0.2715548276901245,0.12036232650279999,-0.01905687339603901
1782829631719217400,4.322217529296875,0.279922753572464,0.13828220963478088,-0.046831779181957245
1782829631729145300,4.332145263671875,0.2867891490459442,0.1307348757982254,-0.05306059494614601
1782829631739074300,4.34207421875,0.29653045535087585,0.11227811127901077,-0.04235708341002464
1782829631749003300,4.352003173828125,0.30734574794769287,0.07696348428726196,-0.021096305921673775
1782829631758931200,4.36193115234375,0.317387193441391,0.0563221238553524,-0.0024323402903974056
1782829631768860400,4.3718603515625,0.32690879702568054,0.06729347258806229,0.009840786457061768
1782829631778788400,4.381788330078125,0.3463461399078369,0.13954876363277435,0.00925169512629509
1782829631788717300,4.39171728515625,0.3899446129798889,0.2447955459356308,0.01576811447739601
1782829631798645200,4.401645263671875,0.4457370340824127,0.31623244285583496,0.042031675577163696
1782829631808574200,4.41157421875,0.4812003970146179,0.26202961802482605,0.060711316764354706
1782829631818502100,4.421502197265625,0.5261212587356567,0.16261301934719086,0.08491439372301102
1782829631828431000,4.43143115234375,0.5756751298904419,0.05216703936457634,0.09456333518028259
1782829631838359000,4.441359130859375,0.5901800394058228,-0.05374634638428688,0.10403673350811005
1782829631848288300,4.451288330078125,0.5540040135383606,-0.12022645771503448,0.12147305905818939
1782829631858217200,4.46121728515625,0.472689688205719,-0.14342844486236572,0.1409684717655182
1782829631868145200,4.471145263671875,0.3830159902572632,-0.15455186367034912,0.1463169902563095
1782829631878074000,4.48107421875,0.3108818531036377,-0.13460825383663177,0.11746352165937424
1782829631888002000,4.491001953125,0.24495574831962585,-0.055778201669454575,0.08294891566038132
1782829631897931300,4.50093115234375,0.19309309124946594,0.05497148260474205,0.07060542702674866
1782829631907859200,4.510859130859375,0.17879755795001984,0.15068688988685608,0.0922369584441185
1782829631917788200,4.5207880859375,0.19481752812862396,0.23752884566783905,0.16026447713375092
1782829631927716400,4.53071630859375,0.23512054979801178,0.3108964264392853,0.25688228011131287
1782829631937645300,4.540645263671875,0.2975708842277527,0.35473766922950745,0.36343854665756226
1782829631947573200,4.5505732421875,0.37545979022979736,0.3585211932659149,0.4634379744529724
1782829631957502200,4.560502197265625,0.4548792541027069,0.2906119227409363,0.5460444688796997
1782829631967431400,4.570431396484375,0.5211074948310852,0.18232624232769012,0.6081115007400513
1782829631977359400,4.580359375,0.5736268758773804,0.060522306710481644,0.6479135155677795
1782829631987288300,4.590288330078125,0.6108262538909912,-0.037992432713508606,0.6541658639907837
1782829631997216300,4.60021630859375,0.623237133026123,-0.09514360129833221,0.6014664769172668
1782829632007145200,4.610145263671875,0.6137505173683167,-0.09621980786323547,0.4984934329986572
1782829632017073200,4.6200732421875,0.5895495414733887,-0.03742627054452896,0.37639710307121277
1782829632027002400,4.63000244140625,0.5403446555137634,0.06524747610092163,0.2671041786670685
1782829632036930300,4.639930419921875,0.4781276285648346,0.15925467014312744,0.18026277422904968
1782829632046859300,4.649859375,0.44268202781677246,0.23750756680965424,0.10359945148229599
1782829632056787200,4.659787109375,0.436146080493927,0.2895609140396118,0.04183674976229668
1782829632066716200,4.669716064453125,0.4412485957145691,0.29062771797180176,0.01180829107761383
1782829632076645000,4.67964501953125,0.44326379895210266,0.24322770535945892,0.006680640857666731
1782829632086573000,4.689572998046875,0.4499460458755493,0.11876944452524185,-0.01120697520673275
1782829632096502300,4.699502197265625,0.4584188759326935,-0.04189186915755272,-0.04699719697237015
1782829632106430200,4.70943017578125,0.4753884971141815,-0.2215927243232727,-0.11472804844379425
1782829632116359200,4.719359130859375,0.4858264923095703,-0.3998226523399353,-0.17846602201461792
1782829632126287000,4.729287109375,0.4644536077976227,-0.5301182866096497,-0.2241346836090088
1782829632136216000,4.739216064453125,0.41450974345207214,-0.5778487920761108,-0.2536934018135071
1782829632146144300,4.749144287109375,0.3557567298412323,-0.5436170101165771,-0.2879657447338104
1782829632156073200,4.7590732421875,0.2973778247833252,-0.4461527466773987,-0.31568658351898193
1782829632166001400,4.76900146484375,0.2356964349746704,-0.314917653799057,-0.3381132185459137
1782829632175930400,4.778930419921875,0.15511371195316315,-0.15355540812015533,-0.3335544168949127
1782829632185859300,4.788859375,0.07679945230484009,0.055197782814502716,-0.29904693365097046
1782829632195787300,4.798787353515625,0.013068674132227898,0.2615152597427368,-0.23548206686973572
1782829632205716200,4.80871630859375,-0.04386328160762787,0.40953823924064636,-0.17071816325187683
1782829632215644200,4.81864404296875,-0.07441958785057068,0.47830185294151306,-0.12174050509929657
1782829632225573400,4.828573486328125,-0.08091827481985092,0.47524911165237427,-0.10073277354240417
1782829632235501300,4.838501220703125,-0.07260122150182724,0.42002207040786743,-0.08750937879085541
1782829632245431300,4.848431396484375,-0.0443136990070343,0.36426520347595215,-0.06582757830619812
1782829632255359500,4.858359375,-0.009809520095586777,0.305962473154068,-0.04422774538397789
1782829632265288400,4.868288330078125,0.025970466434955597,0.23422953486442566,-0.048727381974458694
1782829632275216400,4.87821630859375,0.0639311671257019,0.13678902387619019,-0.0771784633398056
1782829632285145300,4.888145263671875,0.09537461400032043,0.026716984808444977,-0.1023348867893219
1782829632295074600,4.898074462890625,0.0946425125002861,-0.07884885370731354,-0.10987430065870285
1782829632305002500,4.90800244140625,0.06592356413602829,-0.15441180765628815,-0.1133720651268959
1782829632314931500,4.917931396484375,0.04129917919635773,-0.1838565170764923,-0.126597598195076
1782829632324859400,4.927859375,0.009637775830924511,-0.17109493911266327,-0.1551741659641266
1782829632334788400,4.937788330078125,-0.023288749158382416,-0.14323028922080994,-0.18013465404510498
1782829632344716300,4.94771630859375,-0.04929734021425247,-0.0995953157544136,-0.1927953064441681
1782829632354645200,4.957645263671875,-0.06619217246770859,-0.04933880642056465,-0.18549266457557678
1782829632364573400,4.967573486328125,-0.087117999792099,-0.033892981708049774,-0.17591330409049988
1782829632374502400,4.97750244140625,-0.12021471560001373,-0.04173119366168976,-0.17319580912590027
1782829632384430300,4.987430419921875,-0.1582798957824707,-0.048949360847473145,-0.1783994734287262
1782829632394359300,4.997359375,-0.20200926065444946,-0.04981408268213272,-0.1940537989139557
1782829632404287200,5.007287353515625,-0.2440795600414276,-0.051458973437547684,-0.2096983641386032
1782829632414216200,5.01721630859375,-0.27992838621139526,-0.02990494668483734,-0.19256678223609924
1782829632424145400,5.0271455078125,-0.3059886395931244,-0.007804489228874445,-0.14585940539836884
1782829632434073300,5.0370732421875,-0.32508137822151184,0.018764805048704147,-0.07746382802724838
1782829632444002300,5.047002197265625,-0.3348672091960907,0.014746058732271194,-0.025693710893392563
1782829632453930500,5.056930419921875,-0.3467414379119873,0.0027442574501037598,-0.00475354166701436
1782829632463859200,5.066859130859375,-0.35641810297966003,0.004387854598462582,-0.004218386486172676
1782829632473787400,5.076787353515625,-0.3578855097293854,-0.0190596804022789,-0.01531497947871685
1782829632483716400,5.08671630859375,-0.34913867712020874,-0.04740358144044876,-0.030161626636981964
1782829632493644500,5.09664453125,-0.33920666575431824,-0.10354781150817871,-0.03929200768470764
1782829632503573500,5.106573486328125,-0.33876127004623413,-0.17355865240097046,-0.03917316719889641
1782829632513502500,5.11650244140625,-0.3323076367378235,-0.20547369122505188,-0.0406365767121315
1782829632523430400,5.126430419921875,-0.34830915927886963,-0.1922687292098999,-0.021734729409217834
1782829632533359400,5.136359375,-0.3696101903915405,-0.1871464103460312,0.012540420517325401
1782829632543287300,5.146287353515625,-0.3882955312728882,-0.17285796999931335,0.05434266850352287
1782829632553216500,5.156216552734375,-0.4129316508769989,-0.14983385801315308,0.09949443489313126
1782829632563144400,5.16614453125,-0.43442320823669434,-0.13448531925678253,0.14148232340812683
1782829632573073400,5.176073486328125,-0.44532299041748047,-0.14914362132549286,0.16909770667552948
1782829632583001300,5.18600146484375,-0.45380714535713196,-0.13715945184230804,0.18452461063861847
1782829632592930300,5.195930419921875,-0.471851110458374,-0.146726593375206,0.16505743563175201
1782829632602858200,5.205858154296875,-0.4814754128456116,-0.1776285469532013,0.10850711166858673
1782829632612787200,5.215787109375,-0.470943421125412,-0.22386981546878815,0.03234550356864929
1782829632622716400,5.22571630859375,-0.45272892713546753,-0.29319578409194946,-0.06877689808607101
1782829632632644400,5.235644287109375,-0.439319372177124,-0.3781445026397705,-0.14887653291225433
1782829632642573300,5.2455732421875,-0.4426998794078827,-0.4440956711769104,-0.1954938769340515
1782829632652501200,5.255501220703125,-0.46142321825027466,-0.4829932749271393,-0.20722723007202148
1782829632662430200,5.26543017578125,-0.4815756678581238,-0.46109601855278015,-0.2023012638092041
1782829632672358400,5.2753583984375,-0.4852029085159302,-0.3865882158279419,-0.19678080081939697
1782829632682287400,5.285287353515625,-0.48711082339286804,-0.25578996539115906,-0.17977654933929443
1782829632692215600,5.295215576171875,-0.48056235909461975,-0.10437861829996109,-0.1284923255443573
1782829632702144500,5.30514453125,-0.4686700999736786,0.027577925473451614,-0.04847576096653938
1782829632712072400,5.315072509765625,-0.46212244033813477,0.10960914194583893,0.04637298732995987
1782829632722001400,5.32500146484375,-0.46733030676841736,0.13506759703159332,0.13299882411956787
1782829632731930400,5.334930419921875,-0.4656330645084381,0.11801378428936005,0.20877134799957275
1782829632741858300,5.3448583984375,-0.4750627875328064,0.08313164114952087,0.26313409209251404
1782829632751787500,5.35478759765625,-0.4830480217933655,0.08488932996988297,0.29219186305999756
1782829632761715500,5.364715576171875,-0.4957762658596039,0.1327449530363083,0.2885628342628479
1782829632771644400,5.37464453125,-0.5076606273651123,0.18900902569293976,0.26787033677101135
1782829632781572400,5.384572265625,-0.5088179111480713,0.2599540054798126,0.24485018849372864
1782829632791501300,5.394501220703125,-0.4819050431251526,0.34174129366874695,0.23906204104423523
1782829632801429200,5.40442919921875,-0.443361759185791,0.3904252350330353,0.25239843130111694
1782829632811358500,5.4143583984375,-0.3974717855453491,0.38691040873527527,0.27603718638420105
1782829632821286400,5.424286376953125,-0.35696786642074585,0.33625268936157227,0.29192227125167847
1782829632831215400,5.43421533203125,-0.3266049027442932,0.24948851764202118,0.3013136386871338
1782829632841144300,5.444144287109375,-0.3265676200389862,0.12977421283721924,0.2864254415035248
1782829632851072300,5.454072265625,-0.34342917799949646,-0.003987845033407211,0.2501545250415802
1782829632861001200,5.464001220703125,-0.3600749671459198,-0.1376168578863144,0.19663622975349426
1782829632870929400,5.473929443359375,-0.37654048204421997,-0.27049902081489563,0.12695488333702087
1782829632880858400,5.4838583984375,-0.3886108994483948,-0.40600207448005676,0.0362197682261467
1782829632890786300,5.493786376953125,-0.4046391248703003,-0.5301442742347717,-0.08720868825912476
1782829632900715300,5.50371533203125,-0.4183744490146637,-0.6093119382858276,-0.21547965705394745
1782829632910643500,5.5136435546875,-0.4363150894641876,-0.5875225067138672,-0.3131992816925049
1782829632920572200,5.523572265625,-0.45228034257888794,-0.47982653975486755,-0.357830286026001
1782829632930500400,5.533500244140625,-0.45973560214042664,-0.3334384262561798,-0.34627828001976013
1782829632940429600,5.5434296875,-0.4421175718307495,-0.15132807195186615,-0.2841295897960663
1782829632950358300,5.553358154296875,-0.4163203239440918,0.05156803876161575,-0.16787807643413544
1782829632960286500,5.563286376953125,-0.3754297196865082,0.23854763805866241,-0.026314299553632736
1782829632970215400,5.57321533203125,-0.327468603849411,0.3682084381580353,0.07351323217153549
1782829632980143400,5.583143310546875,-0.26400822401046753,0.421822190284729,0.12213609367609024
1782829632990072300,5.593072265625,-0.2054261416196823,0.41655072569847107,0.1208718940615654
1782829633000000500,5.60300048828125,-0.15699084103107452,0.3527872562408447,0.10707342624664307
1782829633009929500,5.612929443359375,-0.1078171581029892,0.26091912388801575,0.07328909635543823
1782829633019857400,5.622857421875,-0.055766887962818146,0.1473563313484192,0.023976609110832214
1782829633029786400,5.632786376953125,-0.009082209318876266,0.04362354055047035,-0.03644891828298569
1782829633039715300,5.64271533203125,0.038078419864177704,-0.0060370806604623795,-0.08221422135829926
1782829633049643300,5.652643310546875,0.0755365788936615,-0.04029252380132675,-0.11972483992576599
1782829633059572500,5.662572509765625,0.10301871597766876,-0.07913599908351898,-0.15850159525871277
1782829633069500400,5.67250048828125,0.13263678550720215,-0.12596848607063293,-0.17941567301750183
1782829633079429400,5.682429443359375,0.15492698550224304,-0.17202849686145782,-0.18441736698150635
1782829633089357300,5.692357421875,0.17401519417762756,-0.2009917050600052,-0.15930110216140747
1782829633099286300,5.702286376953125,0.20047564804553986,-0.20359641313552856,-0.13044893741607666
1782829633109214200,5.712214111328125,0.2298354059457779,-0.18533405661582947,-0.10425540804862976
1782829633119143200,5.72214306640625,0.2430228739976883,-0.14410452544689178,-0.09429910033941269
1782829633129071400,5.7320712890625,0.23245438933372498,-0.09724221378564835,-0.095286063849926
1782829633139000300,5.742000244140625,0.2161063849925995,-0.018318727612495422,-0.08460792899131775
1782829633148929300,5.75192919921875,0.19579072296619415,0.04759504273533821,-0.07686904817819595
1782829633158857500,5.761857421875,0.1838938444852829,0.08559702336788177,-0.07980891317129135
1782829633168786200,5.7717861328125,0.18509040772914886,0.11687292158603668,-0.07572602480649948
1782829633178714400,5.78171435546875,0.20461425185203552,0.11547361314296722,-0.06397083401679993
1782829633188643300,5.791643310546875,0.2383091002702713,0.07715552300214767,-0.03568806126713753
1782829633198571500,5.801571533203125,0.2766105830669403,0.05494437739253044,0.017248831689357758
1782829633208500500,5.81150048828125,0.3053935170173645,0.020739272236824036,0.0723552256822586
1782829633218428400,5.821428466796875,0.3184702396392822,-0.005251307971775532,0.10093137621879578
1782829633228357400,5.831357421875,0.3164060413837433,-0.013910310342907906,0.0935879796743393
1782829633238285300,5.841285400390625,0.29680681228637695,-0.014413202181458473,0.06194821745157242
1782829633248216600,5.851216552734375,0.2674641013145447,0.02597843110561371,0.029074158519506454
1782829633258145500,5.8611455078125,0.22772328555583954,0.07639774680137634,-0.009595665149390697
1782829633268073500,5.871073486328125,0.1825057417154312,0.11894041299819946,-0.060819704085588455
1782829633278002400,5.88100244140625,0.14218205213546753,0.16236355900764465,-0.10885446518659592
1782829633287930600,5.8909306640625,0.11756032705307007,0.18675145506858826,-0.1585293412208557
1782829633297859600,5.900859619140625,0.12309081852436066,0.20542240142822266,-0.1920812427997589
1782829633307787800,5.910787841796875,0.15040792524814606,0.2036908119916916,-0.19632738828659058
1782829633317716500,5.920716552734375,0.18316327035427094,0.1804834008216858,-0.15158796310424805
1782829633327644700,5.930644775390625,0.21295206248760223,0.1156466156244278,-0.07211044430732727
1782829633337573600,5.94057373046875,0.23235467076301575,0.031669534742832184,0.034428030252456665
1782829633347501600,5.95050146484375,0.2598741948604584,0.01749699003994465,0.1284642517566681
1782829633357430800,5.9604306640625,0.2806686758995056,0.05118849128484726,0.16830798983573914
1782829633367359700,5.97035986328125,0.298160582780838,0.11424229294061661,0.1620575487613678
1782829633377289500,5.98028955078125,0.30330726504325867,0.18026533722877502,0.136349156498909
1782829633387218700,5.99021875,0.30526256561279297,0.22679980099201202,0.10218852758407593
1782829633397146600,6.000146728515625,0.3090669810771942,0.2570711672306061,0.06808558106422424
1782829633407075600,6.01007568359375,0.3312159478664398,0.28467243909835815,0.04048697650432587
1782829633417003500,6.02000341796875,0.37743932008743286,0.31397804617881775,0.023139677941799164
1782829633426932500,6.029932373046875,0.4357137978076935,0.34040167927742004,0.019070366397500038
1782829633436861400,6.039861328125,0.4918229579925537,0.3136029541492462,0.03099864162504673
1782829633446789400,6.049789306640625,0.5339770913124084,0.24112211167812347,0.033206671476364136
1782829633456718600,6.059718505859375,0.5580100417137146,0.12023686617612839,0.010014589875936508
1782829633466646800,6.069646728515625,0.538257360458374,-0.017597705125808716,-0.029220696538686752
1782829633476575500,6.079575439453125,0.49417856335639954,-0.13870400190353394,-0.07081200182437897
1782829633486503700,6.089503662109375,0.43554985523223877,-0.17756618559360504,-0.11066567897796631
1782829633496432600,6.0994326171875,0.3755752742290497,-0.15927620232105255,-0.13579027354717255
1782829633506360600,6.109360595703125,0.3192286193370819,-0.07113409787416458,-0.14908796548843384
1782829633516289800,6.119289794921875,0.2580122947692871,0.03835999593138695,-0.14449790120124817
1782829633526217700,6.1292177734375,0.22165215015411377,0.14368481934070587,-0.1332060992717743
1782829633536146700,6.139146728515625,0.22756116092205048,0.2339119017124176,-0.10098711401224136
1782829633546075600,6.14907568359375,0.2565014660358429,0.2902555763721466,-0.050048038363456726
1782829633556003600,6.159003662109375,0.32318443059921265,0.30276331305503845,0.03045019507408142
1782829633565932500,6.1689326171875,0.4113222658634186,0.27719616889953613,0.1373944878578186
1782829633575860500,6.178860595703125,0.5107408761978149,0.21816077828407288,0.26685070991516113
1782829633585789700,6.188789794921875,0.6189137101173401,0.13616977632045746,0.39434581995010376
1782829633595717600,6.198717529296875,0.7172515392303467,0.050934210419654846,0.5080572366714478
1782829633605646600,6.208646484375,0.7897577285766602,-0.03179768845438957,0.5926594734191895
1782829633615574500,6.218574462890625,0.831305205821991,-0.09560675173997879,0.6254444718360901
1782829633625503500,6.22850341796875,0.8434028625488281,-0.11041285842657089,0.6193093657493591
1782829633635432700,6.2384326171875,0.8184850811958313,-0.06115484982728958,0.5712210536003113
1782829633645360600,6.248360595703125,0.7572102546691895,0.02274165116250515,0.48539799451828003
1782829633655289600,6.25828955078125,0.6812306046485901,0.12164878845214844,0.3527243733406067
1782829633665217500,6.268217529296875,0.6070259213447571,0.2364070564508438,0.19269688427448273
1782829633675146500,6.278146484375,0.5534524917602539,0.3277108073234558,0.016122708097100258
1782829633685074700,6.28807470703125,0.5241662263870239,0.3630344569683075,-0.13952894508838654
1782829633695003400,6.29800341796875,0.49991580843925476,0.3640023171901703,-0.23400163650512695
1782829633704931600,6.307931640625,0.4928390085697174,0.32924380898475647,-0.26984328031539917
1782829633714860800,6.31786083984375,0.4859018921852112,0.27228379249572754,-0.245698019862175
1782829633724788700,6.327788818359375,0.47472622990608215,0.2290247529745102,-0.18737798929214478
1782829633734717700,6.3377177734375,0.4664425849914551,0.1487945318222046,-0.14885307848453522
1782829633744646700,6.347646728515625,0.46625322103500366,0.0377790667116642,-0.1642908900976181
1782829633754574600,6.35757470703125,0.4647429287433624,-0.07592359185218811,-0.22598329186439514
1782829633764503800,6.36750390625,0.4535619020462036,-0.19575972855091095,-0.31799736618995667
1782829633774431700,6.377431640625,0.43362903594970703,-0.3179329037666321,-0.42362356185913086
1782829633784360700,6.387360595703125,0.4083912968635559,-0.3921748995780945,-0.49996840953826904
1782829633794288600,6.39728857421875,0.38179874420166016,-0.3991931080818176,-0.5356404185295105
1782829633804217600,6.407217529296875,0.3377751111984253,-0.3389497399330139,-0.5271321535110474
1782829633814145500,6.4171455078125,0.2975592315196991,-0.2597334086894989,-0.48494550585746765
1782829633824074500,6.427074462890625,0.2685994803905487,-0.14433863759040833,-0.4029467701911926
1782829633834003700,6.437003662109375,0.23798447847366333,0.021073540672659874,-0.30661842226982117
1782829633843931600,6.446931640625,0.21191959083080292,0.18191994726657867,-0.2024126499891281
1782829633853860600,6.456860595703125,0.1938115805387497,0.3184645175933838,-0.09791400283575058
1782829633863788500,6.46678857421875,0.17929363250732422,0.4046627879142761,-0.01902744360268116
1782829633873717500,6.476717529296875,0.18009936809539795,0.4373197853565216,0.0362410731613636
1782829633883645400,6.4866455078125,0.18327678740024567,0.4442429542541504,0.065553680062294
1782829633893574700,6.49657470703125,0.1893523782491684,0.4153931736946106,0.072988361120224
1782829633903502600,6.506502685546875,0.1965610235929489,0.3707926869392395,0.061541564762592316
1782829633913431600,6.516431640625,0.2048005610704422,0.2970435321331024,0.03040178120136261
1782829633923359700,6.52635986328125,0.22916236519813538,0.19958087801933289,-0.01652391441166401
1782829633933288400,6.536288330078125,0.24397505819797516,0.10717860609292984,-0.07803913950920105
1782829633943217400,6.546217529296875,0.23773688077926636,0.004248497076332569,-0.14647358655929565
1782829633953145600,6.5561455078125,0.22009071707725525,-0.06730058789253235,-0.19916477799415588
1782829633963074600,6.566074462890625,0.19433501362800598,-0.09537936747074127,-0.22857779264450073
1782829633973002800,6.576002685546875,0.15197114646434784,-0.12016056478023529,-0.23576588928699493
1782829633982931700,6.585931640625,0.11391111463308334,-0.10372806340456009,-0.23996302485466003
1782829633992859600,6.595859619140625,0.08242103457450867,-0.06929472833871841,-0.2344227433204651
1782829634002788600,6.60578857421875,0.05131078138947487,-0.05754939094185829,-0.22594749927520752
1782829634012716500,6.615716552734375,0.026360394433140755,-0.04961427301168442,-0.2057286649942398
1782829634022645800,6.625645751953125,0.013987082056701183,-0.06458470225334167,-0.18151840567588806
1782829634032573700,6.63557373046875,-0.003920743241906166,-0.10723637789487839,-0.1581505537033081
1782829634042502700,6.645502685546875,-0.021481361240148544,-0.15233060717582703,-0.14132310450077057
1782829634052431600,6.655431640625,-0.043855808675289154,-0.1904641091823578,-0.12950050830841064
1782829634062359600,6.665359619140625,-0.07261554896831512,-0.19462929666042328,-0.13886231184005737
1782829634072288500,6.67528857421875,-0.0945727601647377,-0.18440139293670654,-0.15231619775295258
1782829634082216400,6.685216552734375,-0.1157132014632225,-0.16826796531677246,-0.14794009923934937
1782829634092145700,6.695145751953125,-0.14593715965747833,-0.1628408133983612,-0.1141652762889862
1782829634102073600,6.705073486328125,-0.18633517622947693,-0.15280628204345703,-0.06319956481456757
1782829634112002600,6.71500244140625,-0.23561273515224457,-0.13261838257312775,-0.02783379517495632
1782829634121930500,6.724930419921875,-0.2764435112476349,-0.08211473375558853,-0.001633350271731615
1782829634131859500,6.734859375,-0.2928856611251831,-0.002091183327138424,0.024365564808249474
1782829634141787600,6.74478759765625,-0.2915378212928772,0.0789639875292778,0.05473678931593895
1782829634151716600,6.754716552734375,-0.2826189398765564,0.1379794180393219,0.0842602476477623
1782829634161645600,6.7646455078125,-0.2708137035369873,0.16114705801010132,0.11175578832626343
1782829634171573800,6.77457373046875,-0.2530726194381714,0.14570637047290802,0.12533457577228546
1782829634181502500,6.78450244140625,-0.23948915302753448,0.0992049127817154,0.12824967503547668
1782829634191430700,6.7944306640625,-0.2360563576221466,0.054800845682621,0.14514943957328796
1782829634201359600,6.804359619140625,-0.24885524809360504,0.022012537345290184,0.1784037947654724
1782829634211287600,6.81428759765625,-0.2584451138973236,-0.04769863933324814,0.1928430199623108
1782829634221216800,6.824216796875,-0.2431308627128601,-0.13647830486297607,0.17560118436813354
1782829634231144700,6.834144775390625,-0.21847602725028992,-0.2137751281261444,0.14941926300525665
1782829634241073700,6.84407373046875,-0.2030416876077652,-0.2909013330936432,0.11477073282003403
1782829634250999300,6.853999267578125,-0.194597989320755,-0.3543006181716919,0.07316186279058456
1782829634260927200,6.86392724609375,-0.19678710401058197,-0.3850175142288208,0.03120056726038456
1782829634270856200,6.873856201171875,-0.1951645314693451,-0.4056495130062103,-0.0301456768065691
1782829634280784100,6.8837841796875,-0.2217109203338623,-0.3935510218143463,-0.0900106132030487
1782829634290713000,6.893713134765625,-0.25927430391311646,-0.3832179307937622,-0.11842031031847
1782829634300641000,6.90364111328125,-0.2712297737598419,-0.29511362314224243,-0.13622432947158813
1782829634310570000,6.913570068359375,-0.2727978527545929,-0.17487256228923798,-0.12161700427532196
1782829634320498200,6.923498291015625,-0.25284677743911743,-0.05996622145175934,-0.09173500537872314
1782829634330427100,6.93342724609375,-0.20475399494171143,0.03974364325404167,-0.026656370609998703
1782829634340355000,6.94335498046875,-0.14865237474441528,0.11798305064439774,0.07019347697496414
1782829634350284000,6.953283935546875,-0.10006743669509888,0.15173830091953278,0.17818312346935272
1782829634360213000,6.963212890625,-0.046253472566604614,0.13770291209220886,0.29226067662239075
1782829634370141000,6.973140869140625,-0.01817418448626995,0.10232136398553848,0.38672763109207153
1782829634380070100,6.983070068359375,0.009782616049051285,0.04719765856862068,0.43901559710502625
1782829634389998000,6.992998046875,0.026330526918172836,0.017804302275180817,0.45434480905532837
1782829634399927000,7.002927001953125,0.03969746455550194,0.02485581859946251,0.432034969329834
1782829634409855200,7.012855224609375,0.0530354268848896,0.05344651639461517,0.3940170109272003
1782829634419784200,7.0227841796875,0.05952049046754837,0.06833864748477936,0.3459477424621582
1782829634429712100,7.032712158203125,0.054463356733322144,0.08429481834173203,0.28905734419822693
1782829634439641000,7.04264111328125,0.05468306690454483,0.08136800676584244,0.24268291890621185
1782829634449570300,7.0525703125,0.0577826201915741,0.03204595297574997,0.2040633261203766
1782829634459498200,7.062498291015625,0.057352520525455475,-0.025630125775933266,0.18584197759628296
1782829634469427200,7.07242724609375,0.05710215866565704,-0.08320264518260956,0.18485939502716064
1782829634479355100,7.082355224609375,0.05787234008312225,-0.12710273265838623,0.1876027137041092
1782829634489284000,7.0922841796875,0.06365669518709183,-0.1477651745080948,0.18599195778369904
1782829634499212000,7.1022119140625,0.08260481804609299,-0.14056025445461273,0.17741498351097107
1782829634509141200,7.112141357421875,0.10944756120443344,-0.10034872591495514,0.14922061562538147
1782829634519069200,7.122069091796875,0.13631753623485565,-0.04026168957352638,0.11620434373617172
1782829634528998100,7.131998046875,0.16844762861728668,0.0027784397825598717,0.06912252306938171
1782829634538926000,7.141926025390625,0.19312527775764465,0.009641938842833042,0.028973769396543503
1782829634548855000,7.15185498046875,0.20565932989120483,-0.03198777884244919,0.014506746083498001
1782829634558784000,7.161783935546875,0.2095177173614502,-0.09301438182592392,0.023597178980708122
1782829634568712000,7.1717119140625,0.21746724843978882,-0.15846064686775208,0.02574361115694046
1782829634578641200,7.18164111328125,0.24531540274620056,-0.18288050591945648,0.004452969878911972
1782829634588569000,7.191569091796875,0.285084992647171,-0.1422199010848999,-0.02281465195119381
1782829634598498000,7.201498046875,0.3252161741256714,-0.07146158814430237,-0.0573744922876358
1782829634608426000,7.211426025390625,0.3601837456226349,0.01893760822713375,-0.07472330331802368
1782829634618355000,7.22135498046875,0.3865394592285156,0.11746338754892349,-0.06825608015060425
1782829634628283100,7.231283203125,0.40237897634506226,0.21028584241867065,-0.04170636087656021
1782829634638212000,7.241212158203125,0.42876318097114563,0.2750866711139679,-0.016399404034018517
1782829634648140300,7.251140380859375,0.4596567749977112,0.2971479296684265,-0.006913662422448397
1782829634658069200,7.2610693359375,0.4937764108181,0.29707658290863037,-0.003114663064479828
1782829634667998000,7.270998046875,0.5401374697685242,0.2765566408634186,-0.013399660587310791
1782829634677926100,7.280926025390625,0.6000617742538452,0.26356253027915955,-0.03257495164871216
1782829634687855000,7.290855224609375,0.6579506397247314,0.266289085149765,-0.06025649607181549
1782829634697783000,7.300782958984375,0.7034443616867065,0.2707488238811493,-0.08875232189893723
1782829634707712300,7.310712158203125,0.7242396473884583,0.26884767413139343,-0.10079025477170944
1782829634717640200,7.32064013671875,0.732854425907135,0.27046048641204834,-0.10563827306032181
1782829634727569200,7.330569091796875,0.7418098449707031,0.27278754115104675,-0.10760767757892609
1782829634737497000,7.3404970703125,0.7552843689918518,0.255059152841568,-0.11602859944105148
1782829634747426000,7.350426025390625,0.7765066027641296,0.23946049809455872,-0.12840336561203003
1782829634757355300,7.360355224609375,0.7917792797088623,0.2191283404827118,-0.1420089304447174
1782829634767283200,7.370283203125,0.8095986843109131,0.2149905115365982,-0.1592797040939331
1782829634777212200,7.380212158203125,0.8260069489479065,0.21530716121196747,-0.1668872833251953
1782829634787140000,7.39014013671875,0.8457155823707581,0.1928224116563797,-0.17117291688919067
1782829634797069000,7.400069091796875,0.8726028800010681,0.18786972761154175,-0.15483015775680542
1782829634806997000,7.4099970703125,0.9016141891479492,0.18228386342525482,-0.13335438072681427
1782829634816926000,7.419926025390625,0.92711341381073,0.1724565327167511,-0.11438441276550293
1782829634826854100,7.429854248046875,0.9558082222938538,0.15905125439167023,-0.0984383076429367
1782829634836783000,7.439783203125,0.9789636135101318,0.1373416930437088,-0.09033137559890747
1782829634846712000,7.449712158203125,0.9823355674743652,0.10664383322000504,-0.09053192287683487
1782829634856640000,7.459639892578125,0.9748563766479492,0.07746810466051102,-0.10004553198814392
1782829634866569000,7.46956884765625,0.9518563747406006,0.07237260788679123,-0.12159334123134613
1782829634876497200,7.4794970703125,0.9281819462776184,0.10149586945772171,-0.13634565472602844
1782829634886426000,7.489426025390625,0.9167499542236328,0.17143428325653076,-0.13980530202388763
1782829634896354300,7.499354248046875,0.9022319912910461,0.2404426485300064,-0.14250920712947845
1782829634906283300,7.509283203125,0.8832367658615112,0.2820546627044678,-0.14700447022914886
1782829634916211200,7.519211181640625,0.8631551861763,0.2772814929485321,-0.1553896963596344
1782829634926140200,7.52914013671875,0.8437198400497437,0.24420768022537231,-0.16205888986587524
1782829634936068000,7.539068115234375,0.8300029635429382,0.2048642635345459,-0.17542770504951477
1782829634945997000,7.5489970703125,0.8307004570960999,0.18442919850349426,-0.18428365886211395
1782829634955926300,7.55892626953125,0.8513298034667969,0.21382729709148407,-0.1717148721218109
1782829634965854200,7.568854248046875,0.8859867453575134,0.2806435525417328,-0.1345817893743515
1782829634975783200,7.578783203125,0.9279142022132874,0.3396570682525635,-0.08423072099685669
1782829634985711000,7.588711181640625,0.9542002081871033,0.3821274936199188,-0.04405682161450386
1782829634995640000,7.59864013671875,0.9596282839775085,0.3731371760368347,-0.028967352584004402
1782829635005568000,7.608568115234375,0.9640291333198547,0.349098265171051,-0.033088404685258865
1782829635015497200,7.618497314453125,0.9786794781684875,0.3407122492790222,-0.06317680329084396
1782829635025425200,7.628425048828125,1.0059038400650024,0.3270750939846039,-0.09255897998809814
1782829635035354000,7.63835400390625,1.0495208501815796,0.2961326241493225,-0.12223698198795319
1782829635045283000,7.648282958984375,1.0956647396087646,0.25304803252220154,-0.12768593430519104
1782829635055211000,7.6582109375,1.1363626718521118,0.2261785864830017,-0.12426456063985825
1782829635065140000,7.668139892578125,1.1773375272750854,0.21384349465370178,-0.11438839137554169
1782829635075068000,7.67806787109375,1.2425594329833984,0.22708286345005035,-0.10332215577363968
1782829635084997000,7.6879970703125,1.3280309438705444,0.2569180428981781,-0.09254510700702667
1782829635094925000,7.697925048828125,1.4035468101501465,0.28875747323036194,-0.07558876276016235
1782829635104854000,7.70785400390625,1.4796717166900635,0.32466447353363037,-0.07033702731132507
1782829635114782200,7.7177822265625,1.546481728553772,0.35631880164146423,-0.07349047809839249
1782829635124711000,7.7277109375,1.6050448417663574,0.37646546959877014,-0.08850768208503723
1782829635134639000,7.73763916015625,1.6701061725616455,0.3768143355846405,-0.11683040112257004
1782829635144568300,7.747568359375,1.7612285614013672,0.34304454922676086,-0.15537868440151215
1782829635154497000,7.7574970703125,1.8723313808441162,0.2758689820766449,-0.17287404835224152
1782829635164425200,7.76742529296875,1.9968607425689697,0.22902312874794006,-0.1331586390733719
1782829635174354200,7.777354248046875,2.119791030883789,0.22065947949886322,-0.045783787965774536
1782829635184282000,7.7872822265625,2.197972536087036,0.2077096551656723,0.04382917284965515
1782829635194211000,7.797211181640625,2.2174746990203857,0.1679965853691101,0.07097157835960388
1782829635204139000,7.807138916015625,2.177762508392334,0.09892121702432632,0.0033016945235431194
1782829635214068200,7.817068115234375,2.0800294876098633,0.03818463161587715,-0.13913002610206604
1782829635223996200,7.82699609375,1.9408462047576904,-0.016857974231243134,-0.33369266986846924
1782829635233925000,7.836925048828125,1.829170823097229,-0.063660629093647,-0.5020664930343628
1782829635243854000,7.84685400390625,1.788203477859497,-0.06664936244487762,-0.5707462430000305
1782829635253786400,7.856786376953125,1.8171701431274414,-0.036927152425050735,-0.5201019644737244
1782829635263715300,7.86671533203125,1.9029240608215332,0.04442715644836426,-0.3825438320636749
1782829635273643300,7.876643310546875,2.020256996154785,0.2059502750635147,-0.18424804508686066
1782829635283572500,7.886572509765625,2.1133716106414795,0.4063010811805725,0.013548270799219608
1782829635293500400,7.89650048828125,2.1614928245544434,0.5301423072814941,0.15821249783039093
1782829635303429400,7.906429443359375,2.1672027111053467,0.5621553659439087,0.22511424124240875
1782829635313357300,7.916357421875,2.1353275775909424,0.49829673767089844,0.2354995161294937
1782829635323286300,7.926286376953125,2.0674703121185303,0.38350731134414673,0.2112133800983429
1782829635333215500,7.936215576171875,1.9860379695892334,0.2924535572528839,0.16793487966060638
1782829635343143400,7.946143310546875,1.885574221611023,0.25486692786216736,0.10388913005590439
1782829635353072400,7.956072265625,1.7668752670288086,0.2564656138420105,0.03199922293424606
1782829635363000300,7.966000244140625,1.6614973545074463,0.2936944365501404,-0.0722917690873146
1782829635372929300,7.97592919921875,1.5784735679626465,0.3412182629108429,-0.2054668664932251
1782829635382857200,7.985857177734375,1.5172098875045776,0.41151461005210876,-0.33722108602523804
1782829635392786200,7.9957861328125,1.4837754964828491,0.44410717487335205,-0.4223535656929016
1782829635402714400,8.00571435546875,1.4817403554916382,0.44644343852996826,-0.4346694350242615
1782829635412643300,8.015643310546874,1.4994990825653076,0.4168674349784851,-0.38764145970344543
1782829635422571500,8.025571533203125,1.513577938079834,0.39224445819854736,-0.30989715456962585
1782829635432500500,8.03550048828125,1.53502357006073,0.40148910880088806,-0.23805466294288635
1782829635442429200,8.04542919921875,1.5628386735916138,0.4198886454105377,-0.2058916985988617
1782829635452357400,8.055357421875,1.606982946395874,0.4363592267036438,-0.20633991062641144
1782829635462286600,8.06528662109375,1.6662813425064087,0.4185825288295746,-0.22741374373435974
1782829635472214500,8.075214599609374,1.7310070991516113,0.3704994022846222,-0.23319360613822937
1782829635482143500,8.0851435546875,1.789703130722046,0.3099975287914276,-0.20499278604984283
1782829635492071400,8.095071533203125,1.825711727142334,0.23026569187641144,-0.14466792345046997
1782829635502000400,8.10500048828125,1.8343099355697632,0.1496872454881668,-0.07745526731014252
1782829635511928300,8.11492822265625,1.8214300870895386,0.08347439765930176,-0.02721846103668213
1782829635521857300,8.124857177734375,1.7971919775009155,0.037415456026792526,-0.008565188385546207
1782829635531785200,8.13478515625,1.757704734802246,0.04466511309146881,-0.030014021322131157
1782829635541714400,8.14471435546875,1.708446741104126,0.0852908194065094,-0.06635905057191849
1782829635551643400,8.154643310546875,1.6505144834518433,0.12204962968826294,-0.12451262772083282
1782829635561571300,8.1645712890625,1.5957157611846924,0.15783429145812988,-0.18686145544052124
1782829635571500300,8.174500244140624,1.5286363363265991,0.18205708265304565,-0.25234511494636536
1782829635581428200,8.18442822265625,1.4551548957824707,0.21642225980758667,-0.3102673292160034
1782829635591357400,8.194357421875,1.3893319368362427,0.2605849504470825,-0.34306600689888
1782829635601285400,8.204285400390624,1.3505796194076538,0.31062740087509155,-0.3467589318752289
1782829635611214300,8.21421435546875,1.3455067873001099,0.31545811891555786,-0.3335741460323334
1782829635621142300,8.224142333984375,1.3706316947937012,0.2687183618545532,-0.2937777042388916
1782829635631071200,8.2340712890625,1.3948156833648682,0.2110489457845688,-0.20962634682655334
1782829635641000200,8.244000244140626,1.3990577459335327,0.1588899940252304,-0.09913712739944458
1782829635650928400,8.253928466796875,1.3944108486175537,0.1590212881565094,0.016668297350406647
1782829635660857300,8.263857421875,1.3789361715316772,0.1939665824174881,0.09312949329614639
1782829635670785500,8.27378564453125,1.354965329170227,0.21232348680496216,0.11133139580488205
1782829635680714500,8.283714599609375,1.3264163732528687,0.21887998282909393,0.0919456034898758
1782829635690642400,8.293642333984375,1.2893644571304321,0.2120726853609085,0.04818214103579521
1782829635700571400,8.3035712890625,1.252288818359375,0.21375322341918945,-0.000024994835257530212
1782829635710499300,8.313499267578125,1.2017534971237183,0.20516400039196014,-0.053129490464925766
1782829635720428500,8.323428466796875,1.143396258354187,0.18052053451538086,-0.11250069737434387
1782829635730357500,8.333357421875,1.0875561237335205,0.16641616821289062,-0.15218739211559296
1782829635740285400,8.343285400390625,1.0306676626205444,0.15295350551605225,-0.17486858367919922
1782829635750214400,8.35321435546875,0.9944745302200317,0.15340279042720795,-0.17967292666435242
1782829635760142300,8.363142333984374,0.9772787094116211,0.16421684622764587,-0.17259979248046875
1782829635770071300,8.3730712890625,0.9696383476257324,0.16455745697021484,-0.1587849259376526
1782829635779999200,8.382999267578125,0.9617761969566345,0.1696036010980606,-0.1314094513654709
1782829635789928400,8.392928466796874,0.9429953098297119,0.14439384639263153,-0.10886206477880478
1782829635799856400,8.4028564453125,0.9246861338615417,0.14146627485752106,-0.09632962197065353
1782829635809785300,8.412785400390625,0.9169312715530396,0.13908326625823975,-0.09297403693199158
1782829635819714300,8.42271435546875,0.9142035841941833,0.13191796839237213,-0.09891529381275177
1782829635829642200,8.432642333984376,0.9213619232177734,0.09017424285411835,-0.11369583755731583
1782829635839571500,8.442571533203125,0.9191398024559021,0.009587617591023445,-0.11951193958520889
1782829635849499400,8.45249951171875,0.9062405228614807,-0.09308204054832458,-0.11125507205724716
1782829635859428400,8.462428466796876,0.8918529748916626,-0.17511220276355743,-0.08400045335292816
1782829635869356300,8.472356201171875,0.8891573548316956,-0.20270654559135437,-0.0629015639424324
1782829635879285200,8.48228515625,0.8845142722129822,-0.16093146800994873,-0.05135905742645264
1782829635889213400,8.49221337890625,0.8709121942520142,-0.11627532541751862,-0.04944717511534691
1782829635899142100,8.50214208984375,0.8777917623519897,-0.0571640245616436,-0.06801176816225052
1782829635909070300,8.5120703125,0.8875002861022949,-0.018856048583984375,-0.10191141068935394
1782829635918999600,8.52199951171875,0.8979811072349548,0.02283899299800396,-0.10624586790800095
1782829635928928300,8.53192822265625,0.8828394412994385,0.04786577820777893,-0.05670201778411865
1782829635938856400,8.5418564453125,0.8594272136688232,0.03201770782470703,0.014717046171426773
1782829635948785400,8.551785400390624,0.8593363761901855,0.027142522856593132,0.05933644622564316
1782829635958713300,8.56171337890625,0.8611186742782593,0.007305653765797615,0.06102575361728668
1782829635968642600,8.571642578125,0.8874735832214355,-0.012511726468801498,0.0034668520092964172
1782829635978570500,8.581570556640624,0.896591067314148,-0.021044988185167313,-0.06552790850400925
1782829635988499500,8.59149951171875,0.8880042433738708,-0.015011596493422985,-0.11345202475786209
1782829635998427400,8.601427490234375,0.8628582954406738,-0.01206913311034441,-0.1392654925584793
1782829636008356400,8.6113564453125,0.8236818313598633,-0.012109346687793732,-0.1600450724363327
1782829636018285300,8.621285400390626,0.7996664047241211,-0.07095404714345932,-0.19311736524105072
1782829636028213200,8.631213134765625,0.7791368961334229,-0.1364843249320984,-0.23212362825870514
1782829636038142500,8.641142578125,0.7510850429534912,-0.18219603598117828,-0.2566138803958893
1782829636048070400,8.6510703125,0.7360198497772217,-0.2102319300174713,-0.29078519344329834
1782829636057999400,8.660999267578125,0.7322610020637512,-0.20943871140480042,-0.2902834713459015
1782829636067927300,8.67092724609375,0.7601844668388367,-0.1660723239183426,-0.2540341019630432
1782829636077856300,8.680856201171874,0.806867241859436,-0.059484079480171204,-0.18658344447612762
1782829636087784200,8.6907841796875,0.8799270391464233,0.10903250426054001,-0.09639176726341248
1782829636097713400,8.70071337890625,0.9606451988220215,0.28367912769317627,0.0006529511883854866
1782829636107642400,8.710642333984374,1.0327593088150024,0.44806647300720215,0.09415600448846817
1782829636117570300,8.7205703125,1.0759456157684326,0.5785462856292725,0.17340664565563202
1782829636127499300,8.730499267578125,1.0963188409805298,0.6292209029197693,0.21069329977035522
1782829636137427500,8.740427490234374,1.1108311414718628,0.5892528891563416,0.1850719004869461
1782829636147356200,8.750356201171876,1.1294639110565186,0.5166124701499939,0.14666591584682465
1782829636157284400,8.760284423828125,1.1541359424591064,0.44795963168144226,0.106676384806633
1782829636167213300,8.77021337890625,1.1893445253372192,0.36482667922973633,0.06599606573581696
1782829636177141500,8.7801416015625,1.2354787588119507,0.2987171709537506,0.03815222159028053
1782829636187070500,8.790070556640625,1.2598973512649536,0.2582472562789917,0.028399724513292313
1782829636196998400,8.799998291015624,1.2826695442199707,0.22078025341033936,0.026705320924520493
1782829636206927400,8.80992724609375,1.316347599029541,0.19171211123466492,0.024249088019132614
1782829636216856600,8.819856689453125,1.3577731847763062,0.13484327495098114,0.024890942499041557
1782829636226784500,8.829784423828125,1.4066442251205444,0.09682026505470276,0.05131323263049126
1782829636236713500,8.83971337890625,1.452136754989624,0.07600364834070206,0.09538324922323227
1782829636246637600,8.849637451171875,1.5043830871582031,0.03257973864674568,0.15149232745170593
1782829636256566500,8.85956640625,1.542435884475708,-0.02551211416721344,0.21336348354816437
1782829636266494500,8.869494384765625,1.5861471891403198,-0.0946861281991005,0.2545572519302368
1782829636276423400,8.87942333984375,1.6260502338409424,-0.15156051516532898,0.2740958034992218
1782829636286351400,8.889351318359376,1.654834508895874,-0.16574691236019135,0.27768707275390625
1782829636296280300,8.8992802734375,1.6624575853347778,-0.10855919867753983,0.2720899283885956
1782829636306209500,8.90920947265625,1.6612706184387207,0.04107024520635605,0.2638453245162964
1782829636316137500,8.919137451171874,1.6450786590576172,0.20324617624282837,0.22500954568386078
1782829636326066400,8.92906640625,1.6236176490783691,0.3403704762458801,0.17110610008239746
1782829636335994400,8.938994384765625,1.5930976867675781,0.43371978402137756,0.11284922808408737
1782829636345923300,8.94892333984375,1.5482295751571655,0.4495299160480499,0.06438981741666794
1782829636355851500,8.9588515625,1.5056183338165283,0.4183138608932495,0.028220726177096367
1782829636365780500,8.968780517578125,1.4583431482315063,0.3359907567501068,0.012300616130232811
1782829636375708700,8.978708740234374,1.4173387289047241,0.22314947843551636,-0.0061341142281889915
1782829636385637600,8.9886376953125,1.4074090719223022,0.11067911237478256,-0.0485319048166275
1782829636395566300,8.99856640625,1.4112199544906616,0.009752299636602402,-0.10624472796916962
1782829636405494500,9.00849462890625,1.4349720478057861,-0.03496111184358597,-0.15504369139671326
1782829636415423500,9.018423583984376,1.4578673839569092,-0.03409906104207039,-0.18132384121418
1782829636425351400,9.028351318359375,1.4763015508651733,-0.0142174968495965,-0.1879338026046753
1782829636435280600,9.03828076171875,1.4687148332595825,0.005548466928303242,-0.16432707011699677
1782829636445208600,9.04820849609375,1.4433444738388062,-0.014243346638977528,-0.12883059680461884
1782829636455137500,9.058137451171875,1.3989808559417725,-0.04459202289581299,-0.10408873856067657
1782829636465065500,9.0680654296875,1.3525272607803345,-0.05307046324014664,-0.09430801868438721
1782829636474994400,9.077994384765624,1.3160065412521362,-0.022982867434620857,-0.09058065712451935
1782829636484923600,9.087923583984375,1.293230652809143,0.05709918588399887,-0.09220598638057709
1782829636494851600,9.0978515625,1.2740757465362549,0.1395190954208374,-0.09281620383262634
1782829636504780500,9.107780517578124,1.2698460817337036,0.22999466955661774,-0.10812672227621078
1782829636514708500,9.11770849609375,1.243670105934143,0.30671384930610657,-0.13571268320083618
1782829636524637400,9.127637451171875,1.1941126585006714,0.3260984718799591,-0.1654021441936493
1782829636534565400,9.1375654296875,1.1241012811660767,0.2801784873008728,-0.20245574414730072
1782829636544494300,9.147494384765626,1.0577448606491089,0.2228723168373108,-0.2396521121263504
1782829636554422300,9.15742236328125,1.0246291160583496,0.17248885333538055,-0.2520986497402191
1782829636564351500,9.1673515625,1.018052101135254,0.1147560402750969,-0.24990367889404297
1782829636574280400,9.177280517578126,1.0175223350524902,0.09650855511426926,-0.2489786148071289
1782829636584208400,9.18720849609375,1.0211207866668701,0.09357641637325287,-0.2626262605190277
1782829636594137300,9.197137451171875,1.0367786884307861,0.11064556241035461,-0.2916583716869354
1782829636604065500,9.2070654296875,1.0528082847595215,0.136561319231987,-0.3204686939716339
1782829636613994500,9.216994384765625,1.0752298831939697,0.1727762520313263,-0.3607294261455536
1782829636623922700,9.226922607421875,1.10874605178833,0.17698031663894653,-0.37340500950813293
1782829636633851600,9.2368515625,1.1343910694122314,0.09593863040208817,-0.3460361063480377
1782829636643779600,9.246779541015625,1.1260473728179932,0.017661670222878456,-0.27027687430381775
1782829636653708500,9.25670849609375,1.109738826751709,-0.04574720934033394,-0.186464324593544
1782829636663636500,9.266636474609374,1.0846467018127441,-0.07123233377933502,-0.11006836593151093
1782829636673565400,9.2765654296875,1.0623871088027954,-0.023849006742239,-0.04727594926953316
1782829636683494700,9.28649462890625,1.0360660552978516,0.06898452341556549,-0.026154417544603348
1782829636693422600,9.296422607421874,1.004828929901123,0.1636483371257782,-0.05543162301182747
1782829636703351600,9.3063515625,0.9832525253295898,0.2639094293117523,-0.11154922097921371
1782829636713279500,9.316279541015625,0.9683623313903809,0.3265070617198944,-0.16571950912475586
1782829636723206400,9.326206298828126,0.961027979850769,0.3392193913459778,-0.1963929980993271
1782829636733134600,9.336134521484375,0.9538264274597168,0.3190440833568573,-0.2009931206703186
1782829636743063600,9.3460634765625,0.9493579268455505,0.26128089427948,-0.19623324275016785
1782829636752991500,9.355991455078126,0.9532062411308289,0.193234384059906,-0.1835610419511795
1782829636762920400,9.36592041015625,0.9672639966011047,0.13293616473674774,-0.18221694231033325
1782829636772848400,9.375848388671875,0.9782536029815674,0.05459727346897125,-0.19193071126937866
1782829636782777600,9.385777587890624,0.9855469465255737,-0.0125050600618124,-0.193697988986969
1782829636792706600,9.39570654296875,0.9872834086418152,-0.03160672262310982,-0.1844196915626526
1782829636802634500,9.405634521484375,0.9829896092414856,0.016424719244241714,-0.16059693694114685
1782829636812563500,9.4155634765625,0.9841669797897339,0.11552895605564117,-0.13938622176647186
1782829636822491400,9.425491455078125,0.9890407919883728,0.22427700459957123,-0.1255955696105957
1782829636832420600,9.435420654296875,0.9861938953399658,0.3076336979866028,-0.12010052800178528
1782829636842348500,9.4453486328125,0.9764659404754639,0.34042519330978394,-0.11641151458024979
1782829636852277500,9.455277587890626,0.9655879735946655,0.33180826902389526,-0.11001992970705032
1782829636862205400,9.465205322265625,0.9519243836402893,0.2802651822566986,-0.09509877115488052
1782829636872134400,9.475134521484375,0.9461337327957153,0.22958607971668243,-0.08386452496051788
1782829636882062300,9.485062255859376,0.9405006170272827,0.21899469196796417,-0.07259056717157364
1782829636891991300,9.4949912109375,0.9320876002311707,0.24587975442409515,-0.06698159128427505
1782829636901920500,9.50492041015625,0.9295740723609924,0.29390719532966614,-0.0519174188375473
1782829636911848400,9.514848388671876,0.9352707266807556,0.3493823707103729,-0.0011361702345311642
1782829636921777400,9.52477734375,0.9673932790756226,0.39325952529907227,0.07122272253036499
1782829636931705600,9.53470556640625,1.0504871606826782,0.4035128653049469,0.11591362953186035
1782829636941634300,9.54463427734375,1.1270523071289062,0.3631414771080017,0.12654417753219604
1782829636951562500,9.5545625,1.137649416923523,0.272682249546051,0.12890084087848663
1782829636961491700,9.56449169921875,1.1043343544006348,0.18530689179897308,0.12236784398555756
1782829636971419600,9.574419677734374,1.049902319908142,0.10891126841306686,0.09876243770122528
1782829636981348600,9.5843486328125,0.9353395104408264,0.09343244135379791,0.07337585091590881
1782829636991277600,9.594277587890625,0.8102418780326843,0.12104807049036026,0.03227575495839119
1782829637001205500,9.60420556640625,0.7148876190185547,0.11730047315359116,-0.03640370815992355
1782829637011134500,9.614134521484376,0.6749535799026489,0.06514354050159454,-0.12088194489479065
1782829637021062400,9.6240625,0.6648210883140564,0.01565162092447281,-0.17416061460971832
1782829637030991600,9.63399169921875,0.6969320774078369,-0.06579957157373428,-0.16940249502658844
1782829637040919600,9.64391943359375,0.7555977702140808,-0.12095630168914795,-0.08757554739713669
1782829637050848500,9.6538486328125,0.8446463346481323,-0.14567849040031433,0.060082077980041504
1782829637060776400,9.6637763671875,0.9583343267440796,-0.1325288712978363,0.2152106761932373
1782829637070705400,9.673705322265626,1.0499064922332764,-0.07853035628795624,0.39158686995506287
1782829637080634600,9.683634521484375,1.103662371635437,-0.03902715817093849,0.5517686009407043
1782829637090562600,9.6935625,1.1185522079467773,-0.011392165906727314,0.660345733165741
1782829637100491500,9.703491455078124,1.10279381275177,0.07703569531440735,0.6761654615402222
1782829637110419500,9.71341943359375,1.0697170495986938,0.24615000188350677,0.6030007600784302
1782829637120348400,9.723348388671875,1.0145848989486694,0.4264947474002838,0.4778345823287964
1782829637130276400,9.7332763671875,0.9299335479736328,0.5912728905677795,0.34556490182876587
1782829637140205300,9.743205322265625,0.8399096727371216,0.7146419286727905,0.262923002243042
1782829637150133200,9.75313330078125,0.7629622220993042,0.7631993889808655,0.21512240171432495
1782829637160062500,9.7630625,0.7249528169631958,0.7486779689788818,0.17039647698402405
1782829637169991400,9.772991455078126,0.741849958896637,0.6675002574920654,0.11536328494548798
1782829637179919400,9.78291943359375,0.792957603931427,0.5111953020095825,0.048691846430301666
1782829637189848300,9.792848388671874,0.8514195680618286,0.2941570580005646,-0.02047886699438095
1782829637199776500,9.802776611328126,0.9036210179328918,0.057969022542238235,-0.09021639823913574
1782829637209705500,9.81270556640625,0.9420121908187866,-0.1360367387533188,-0.14536477625370026
1782829637219633700,9.822633544921874,0.9606993794441223,-0.3053533434867859,-0.19359435141086578
1782829637229562600,9.832562744140626,0.9503281712532043,-0.4198167324066162,-0.2239263355731964
1782829637239490600,9.842490478515625,0.9141560196876526,-0.4590360224246979,-0.23877345025539398
1782829637249419500,9.85241943359375,0.8544418811798096,-0.44866037368774414,-0.2490455061197281
1782829637259348700,9.8623486328125,0.7933867573738098,-0.38935044407844543,-0.2648138105869293
1782829637269276700,9.872276611328125,0.7305830717086792,-0.28307560086250305,-0.2583058774471283
1782829637279205600,9.88220556640625,0.6632099151611328,-0.1292455643415451,-0.21547265350818634
1782829637289133600,9.892133544921874,0.5953333973884583,0.04649972915649414,-0.15480269491672516
1782829637299062500,9.9020625,0.5331379771232605,0.234930619597435,-0.09314598143100739
1782829637308990500,9.911990478515625,0.4730234742164612,0.3781053125858307,-0.05717582255601883
1782829637318919400,9.92191943359375,0.4223288595676422,0.46824905276298523,-0.03564123436808586
1782829637328847600,9.93184765625,0.3980731964111328,0.46845725178718567,-0.04527205973863602
1782829637338776600,9.941776611328125,0.3981403112411499,0.38826867938041687,-0.07459905743598938
1782829637348705500,9.95170556640625,0.4177853763103485,0.29525884985923767,-0.09317193925380707
1782829637358633500,9.961633544921876,0.43576785922050476,0.18623781204223633,-0.09874141216278076
1782829637368565500,9.9715654296875,0.4449812173843384,0.07154211401939392,-0.08907579630613327
1782829637378493400,9.981493408203125,0.44218143820762634,-0.022498097270727158,-0.0932532325387001
1782829637388422400,9.99142236328125,0.42513084411621094,-0.06930243968963623,-0.12258243560791016
1782829637398351400,10.001351318359376,0.38327154517173767,-0.07759711891412735,-0.16325050592422485
1782829637408279300,10.011279296875,0.3287965953350067,-0.07719027251005173,-0.20896105468273163
1782829637418208500,10.02120849609375,0.2794354557991028,-0.07091932743787766,-0.24501146376132965
1782829637428136700,10.03113671875,0.2447655349969864,-0.054761853069067,-0.2563084363937378
1782829637438065400,10.0410654296875,0.22045673429965973,-0.05030185729265213,-0.2497333586215973
1782829637447993600,10.05099365234375,0.206149160861969,-0.021014541387557983,-0.23088857531547546
1782829637457922600,10.060922607421874,0.18831051886081696,0.004785365425050259,-0.20976224541664124
1782829637467850500,10.0708505859375,0.16456712782382965,0.027989426627755165,-0.19128373265266418
1782829637477779700,10.08077978515625,0.14725258946418762,0.06817573308944702,-0.1531648486852646
1782829637487707600,10.090707763671874,0.13366836309432983,0.10354192554950714,-0.10290505737066269
1782829637497636600,10.10063671875,0.131748765707016,0.12512630224227905,-0.04683113843202591
1782829637507565600,10.110565673828125,0.1229076012969017,0.10821071267127991,-0.018233314156532288
1782829637517493500,10.120493408203124,0.1022755578160286,0.05689266696572304,-0.0046064527705311775
1782829637527422500,10.13042236328125,0.06663243472576141,-0.026163656264543533,0.0005164667963981628
1782829637537350400,10.140350341796875,0.02173287235200405,-0.09232616424560547,0.010058040730655193
1782829637547279600,10.150279541015625,-0.014715470373630524,-0.13404864072799683,0.01601685956120491
1782829637557207600,10.16020751953125,-0.03448730707168579,-0.14949017763137817,0.004803885240107775
1782829637567136500,10.170136474609375,-0.040404800325632095,-0.1612359881401062,-0.024040542542934418
1782829637577065500,10.1800654296875,-0.053824737668037415,-0.18072447180747986,-0.05294649302959442
1782829637586993400,10.189993408203126,-0.06694293767213821,-0.18604634702205658,-0.05170836299657822
1782829637596922600,10.199922607421875,-0.09250475466251373,-0.18704690039157867,-0.010340148583054543
1782829637606850600,10.2098505859375,-0.13520142436027527,-0.1491462141275406,0.052338458597660065
1782829637616779500,10.219779541015624,-0.17322523891925812,-0.03982505947351456,0.11414110660552979
1782829637626707500,10.22970751953125,-0.21068909764289856,0.11408963054418564,0.15168657898902893
1782829637636636400,10.239636474609375,-0.24763698875904083,0.24612462520599365,0.14274820685386658
1782829637646564600,10.249564697265624,-0.2594451606273651,0.2983473539352417,0.08739787340164185
1782829637656493300,10.259493408203125,-0.2621517479419708,0.24000123143196106,-0.014201723039150238
1782829637666421500,10.26942138671875,-0.27039799094200134,0.12136100977659225,-0.11374679952859879
1782829637676350700,10.279350830078124,-0.2930811941623688,-0.028311043977737427,-0.20189610123634338
1782829637686279400,10.289279541015626,-0.3352563679218292,-0.20766396820545197,-0.2620256245136261
1782829637696207600,10.29920751953125,-0.37931808829307556,-0.38356468081474304,-0.29911866784095764
1782829637706136600,10.309136474609375,-0.41272565722465515,-0.5108909010887146,-0.29468241333961487
1782829637716064500,10.319064453125,-0.41905200481414795,-0.5399350523948669,-0.25796833634376526
1782829637725993700,10.32899365234375,-0.40892547369003296,-0.4550713896751404,-0.19449716806411743
1782829637735921700,10.338921630859375,-0.35563376545906067,-0.30297693610191345,-0.11931852996349335
1782829637745850600,10.3488505859375,-0.27605941891670227,-0.1296624392271042,-0.006173367146402597
1782829637755778600,10.358778564453125,-0.20473222434520721,0.018254317343235016,0.12981882691383362
1782829637765707500,10.36870751953125,-0.15903541445732117,0.09834777563810349,0.24979710578918457
1782829637775636500,10.378636474609374,-0.12641756236553192,0.12540443241596222,0.34067243337631226
1782829637785564400,10.388564453125,-0.10436248034238815,0.11414382606744766,0.38986024260520935
1782829637795493600,10.39849365234375,-0.09801430255174637,0.09044115990400314,0.4133962094783783
1782829637805421600,10.408421630859374,-0.11320260167121887,0.08567140996456146,0.4173088073730469
1782829637815350500,10.4183505859375,-0.15743665397167206,0.09793180227279663,0.4110777974128723
1782829637825278500,10.428278564453125,-0.2048509567975998,0.11806077510118484,0.4082065224647522
1782829637835207400,10.43820751953125,-0.2467946708202362,0.11697075515985489,0.3866535723209381
1782829637845135400,10.44813525390625,-0.28980737924575806,0.10796371102333069,0.34759658575057983
1782829637855064600,10.458064697265625,-0.32753583788871765,0.10056304931640625,0.2886592447757721
1782829637864993500,10.46799365234375,-0.357892781496048,0.10495509207248688,0.22426369786262512
1782829637874921500,10.47792138671875,-0.37774530053138733,0.13916286826133728,0.15593044459819794
1782829637884850400,10.487850341796875,-0.38000404834747314,0.15720422565937042,0.09000702947378159
1782829637894778400,10.4977783203125,-0.38169729709625244,0.13274416327476501,0.03661198168992996
1782829637904707300,10.507707275390626,-0.386341392993927,0.06281226873397827,-0.005806379020214081
1782829637914635500,10.517635498046875,-0.39005330204963684,-0.040124502032995224,-0.02699076011776924
1782829637924564500,10.527564453125,-0.39612483978271484,-0.10106000304222107,-0.043572697788476944
1782829637934492700,10.53749267578125,-0.40640756487846375,-0.14719261229038239,-0.05186231806874275
1782829637944421600,10.547421630859375,-0.394421249628067,-0.2286049723625183,-0.0694357231259346
1782829637954350600,10.5573505859375,-0.34859275817871094,-0.2051054984331131,-0.10401340574026108
1782829637964278500,10.567278564453124,-0.29172468185424805,-0.11498786509037018,-0.12902848422527313
1782829637974207700,10.577207763671876,-0.23921912908554077,-0.004993987735360861,-0.11273259669542313
1782829637984135700,10.5871357421875,-0.18681779503822327,0.10653768479824066,-0.0528729185461998
1782829637994064600,10.597064697265624,-0.1338946521282196,0.21926796436309814,0.03737787902355194
1782829638003992600,10.60699267578125,-0.08195960521697998,0.2988167703151703,0.10554494708776474
1782829638013921500,10.616921630859375,-0.04325162619352341,0.31719231605529785,0.1331115961074829
1782829638023849500,10.626849365234374,0.0026908842846751213,0.2807060182094574,0.10872795432806015
1782829638033778400,10.6367783203125,0.043411415070295334,0.20119708776474,0.06748384982347488
1782829638043707600,10.646707763671875,0.06249144300818443,0.09454281628131866,0.04152432084083557
1782829638053635600,10.656635498046874,0.09568800777196884,-0.001270265318453312,0.044202663004398346
1782829638063564500,10.666564453125,0.12693701684474945,-0.061503246426582336,0.06132359057664871
1782829638073492500,10.676492431640625,0.1463453322649002,-0.10826808214187622,0.0783957839012146
1782829638083421400,10.68642138671875,0.17477841675281525,-0.14330661296844482,0.06779609620571136
1782829638093349400,10.696349365234376,0.16244398057460785,-0.18060684204101562,0.028039099648594856
1782829638103278600,10.706278564453125,0.10163789242506027,-0.18681441247463226,-0.061105161905288696
1782829638113206500,10.71620654296875,0.01313998457044363,-0.19234445691108704,-0.1780160665512085
1782829638123135500,10.726135498046874,-0.06071239709854126,-0.16924341022968292,-0.2943322956562042
1782829638133064400,10.736064453125,-0.10872040688991547,-0.10168538987636566,-0.3641031086444855
1782829638142992400,10.745992431640625,-0.12270908802747726,-0.015560230240225792,-0.39174458384513855
1782829638152921300,10.75592138671875,-0.1176954135298729,0.046645354479551315,-0.40326568484306335
1782829638162849500,10.765849609375,-0.10231995582580566,0.08533918857574463,-0.4619070291519165
1782829638172778500,10.775778564453125,-0.06568178534507751,0.13396479189395905,-0.5107161402702332
1782829638182706700,10.785706787109374,-0.03588501363992691,0.15908166766166687,-0.5054613947868347
1782829638192635600,10.7956357421875,-0.02896079793572426,0.14458447694778442,-0.4381664991378784
1782829638202563600,10.8055634765625,-0.026220856234431267,0.14753776788711548,-0.3158330023288727
1782829638212492500,10.815492431640624,-0.010500485077500343,0.1768069714307785,-0.21039336919784546
1782829638222421800,10.825421875,0.03231101483106613,0.20892120897769928,-0.15539544820785522
1782829638232349700,10.835349609375,0.08628769963979721,0.20761439204216003,-0.1465153992176056
1782829638242278700,10.845278564453125,0.1449279487133026,0.19449475407600403,-0.14429782330989838
1782829638252206000,10.8552060546875,0.2021568864583969,0.1870405673980713,-0.13761062920093536
1782829638262135000,10.865135009765625,0.2522678077220917,0.19039128720760345,-0.11439893394708633
1782829638272063000,10.87506298828125,0.2970070540904999,0.20312198996543884,-0.10571915656328201
1782829638281992200,10.8849921875,0.33263108134269714,0.2298421710729599,-0.08764838427305222
1782829638291920100,10.894920166015625,0.32880571484565735,0.294221431016922,-0.06919241696596146
1782829638301849000,10.90484912109375,0.25809118151664734,0.3600512742996216,-0.10739445686340332
1782829638311778000,10.914778076171874,0.17015919089317322,0.44162604212760925,-0.21553903818130493
1782829638321706000,10.9247060546875,0.1122560128569603,0.5829393267631531,-0.36302876472473145
1782829638331635000,10.934635009765625,0.09930932521820068,0.726338803768158,-0.5363048911094666
1782829638341563100,10.944563232421874,0.10048280656337738,0.9228134751319885,-0.5232183337211609
1782829638351492000,10.9544921875,0.06018012389540672,0.6043193936347961,-0.5561882853507996
1782829638361420000,10.964419921875,0.1011352390050888,0.29668161273002625,-0.571506917476654
1782829638371349000,10.974348876953124,0.22131119668483734,0.2923246920108795,-0.4384143650531769
1782829638381277200,10.984277099609375,0.36611491441726685,0.23471397161483765,-0.2586784064769745
1782829638391206100,10.9942060546875,0.48757797479629517,0.19455936551094055,-0.02197502925992012
1782829638401135000,11.004135009765625,0.5457901358604431,0.09197480976581573,0.17617914080619812
1782829638411063300,11.014063232421876,0.5114420056343079,-0.055153388530015945,0.27753958106040955
1782829638420992300,11.0239921875,0.3756203055381775,-0.20008377730846405,0.24600909650325775
1782829638430920200,11.033920166015625,0.1916038691997528,-0.3887958824634552,0.13839581608772278
1782829638440849200,11.04384912109375,-0.010303962044417858,-0.3961845934391022,0.01136069092899561
1782829638450777000,11.053777099609375,-0.19419150054454803,-0.17331688106060028,-0.03462065011262894
1782829638460706000,11.0637060546875,-0.30096983909606934,0.02989082783460617,0.040714751929044724
1782829638470634200,11.07363427734375,-0.302083820104599,-0.01525188609957695,0.14306536316871643
1782829638480563200,11.083563232421875,-0.16764096915721893,-0.2325325310230255,0.2122616469860077
