time,seconds_elapsed,z,y,x
1782829276169733600,0.109733642578125,0.20033903247117996,0.11731252034679054,0.009252470057085157
1782829276179662600,0.11966259765625,0.26894845831692216,0.11824665939174592,0.10388062744690105
1782829276189591300,0.12959130859375,0.20089725087583063,0.12144034086652099,0.23942208397807552
1782829276199519500,0.13951953125,0.17810966500639913,0.06063727792277932,0.2743294389692135
1782829276209448400,0.149448486328125,0.18282675665616988,0.07900288263149559,0.11669256181754172
1782829276219377400,0.15937744140625,0.0015343699604272842,0.11753354268632829,-0.021795889684651047
1782829276229306400,0.169306396484375,-0.11568155814409255,0.0730473352279514,0.03321258857091888
1782829276239234600,0.179234619140625,-0.0692465547055006,0.013245558281242846,0.03794275889797136
1782829276249163300,0.189163330078125,-0.17151801165640354,0.012763985309377312,0.0391838450002484
1782829276259092500,0.199092529296875,-0.2988397387117147,-0.030581162355095146,0.09433924831268377
1782829276269021400,0.209021484375,-0.27898762177228925,-0.10462474207878113,0.12357057609455659
1782829276278950400,0.218950439453125,-0.19472411519885063,-0.06960194401443004,0.06448357808738947
1782829276288878300,0.22887841796875,-0.17988310441970823,-0.08916421116180717,0.056149519783165305
1782829276298807300,0.238807373046875,-0.14451134678721428,-0.1498595028821379,0.10425947069665416
1782829276308736500,0.248736572265625,-0.09205342979729175,-0.14547295836098492,0.09359201927511021
1782829276318665500,0.25866552734375,-0.0772848997324705,-0.1150574348963797,0.08729648106116801
1782829276328594400,0.268594482421875,-0.04044248502552509,-0.14208689611926675,0.06914603520678356
1782829276338522400,0.2785224609375,-0.05772796634733677,-0.1361721921827644,0.06807411339264363
1782829276348451300,0.288451416015625,-0.10602876365780829,-0.0968090998917818,0.09773653520131483
1782829276358380500,0.298380615234375,-0.13374211549162865,-0.07318966630809008,0.08364543860717676
1782829276368309500,0.3083095703125,-0.07969546800553798,-0.026774536613747475,-0.021558939123619347
1782829276378237400,0.318237548828125,-0.09473696979284287,-0.005698503902554512,-0.07795640578586607
1782829276388166400,0.32816650390625,-0.09076923520565032,-0.059375295162945985,-0.03618534817085601
1782829276398095400,0.338095458984375,-0.08852350210547447,-0.10621602985821664,0.07319012296581641
1782829276408024600,0.348024658203125,-0.0520014053940773,-0.1523567995905876,0.1376118513307534
1782829276417952500,0.357952392578125,-0.05665127702653408,-0.14611922037526964,0.1363397216362413
1782829276427881500,0.367881591796875,-0.09689502460956573,-0.08573197169080377,0.13668533846982753
1782829276437810400,0.377810546875,-0.08669628667831421,-0.04774389408007264,0.09646871635573916
1782829276447739400,0.387739501953125,-0.10855682083070277,-0.021951427306234835,0.03246101215179078
1782829276457668600,0.397668701171875,-0.12883680779337883,-0.049132864220440386,0.0026429111576406284
1782829276467596500,0.407596435546875,-0.10529869581758976,-0.0961664180740714,-0.015897862888313827
1782829276477525500,0.417525390625,-0.04802724106609821,-0.08018084036968648,0.020670666780695318
1782829276487454500,0.427454345703125,-0.01963409027457237,-0.06693988519832492,0.07797167642023414
1782829276497383400,0.437383544921875,0.028194997870922087,-0.07692110792137682,0.07755169744249432
1782829276507311600,0.4473115234375,-0.041729017704725264,-0.060231838927045464,0.050557376031647436
1782829276517240600,0.457240478515625,-0.08784954836666584,-0.052587680849432945,0.02592366453860886
1782829276527169500,0.46716943359375,-0.012827917391061781,-0.06531096882224083,0.049077279841993005
1782829276537098500,0.477098388671875,-0.017959435060620307,-0.04516322993710637,0.06166250191782601
1782829276547027700,0.48702783203125,-0.04611234735548496,-0.0724100602377206,0.044161523814965034
1782829276556955600,0.49695556640625,-0.070666942897439,-0.16231054978482423,-0.0007481560527579858
1782829276566884600,0.506884521484375,-0.1253045420140028,-0.1526586320813745,-0.02204236155927647
1782829276576813600,0.5168134765625,-0.06998831298351288,-0.09735044022686778,-0.053690431626676575
1782829276586742500,0.526742431640625,0.01686345651745796,-0.019714388969168065,-0.05699436397631652
1782829276596670500,0.53667041015625,0.0015875614523887633,-0.01516074425280094,0.03715135735853109
1782829276606599700,0.546599609375,-0.0007195464462041854,-0.06836663006581366,0.10855132267167791
1782829276616528400,0.5565283203125,-0.06053776307106018,-0.06142470197342336,0.11734841364407911
1782829276626457300,0.566457275390625,-0.19302783267498017,-0.0802120392255485,0.022269644676242022
1782829276636386300,0.57638623046875,-0.15489654720127582,-0.08749050579592585,-0.10518380073364823
1782829276646314500,0.586314453125,-0.18372925845384597,-0.06372011943422258,-0.11226488156840204
1782829276656243500,0.596243408203125,-0.19047054940760136,-0.12075798462554811,-0.052189187617716376
1782829276666172400,0.60617236328125,-0.13850421532690524,-0.18486666498593984,-0.012350118695304262
1782829276676101400,0.616101318359375,-0.1325064362168312,-0.15451039742790162,-0.030551404254359656
1782829276686029300,0.626029296875,-0.038678982484340665,-0.1491880333613604,-0.07040678042417857
1782829276695958300,0.635958251953125,0.014959084200859068,-0.10814392918087541,-0.10549424578915349
1782829276705887500,0.645887451171875,0.002205401089787483,-0.08275047166198492,-0.06301029066443443
1782829276715816400,0.65581640625,-0.011669979527592658,-0.08490458095595241,0.0032848531898343933
1782829276725745400,0.665745361328125,0.013772504764795303,-0.0930799233008176,0.06273571607333142
1782829276735673300,0.67567333984375,0.054546413701772684,-0.05669131677597761,0.08343244431046769
1782829276745602300,0.685602294921875,0.07060790618658065,-0.01847279141023755,0.09819690098837018
1782829276755531500,0.695531494140625,-0.018111410751938818,-0.038245924829319114,0.07491560418470762
1782829276765460500,0.70546044921875,-0.06567454143762588,-0.081591218624264,0.07635576565619558
1782829276775388400,0.715388427734375,-0.006923077261447906,-0.08142002677582204,0.1652920863462612
1782829276785317400,0.7253173828125,0.020749358040094375,-0.08859401005841791,-0.014156291334435809
1782829276795246300,0.735246337890625,-0.04465513428449631,-0.06150507373325526,0.005729225551092531
1782829276805175600,0.745175537109375,0.00675298139154911,-0.030381401999294757,0.06063199439288582
1782829276815104500,0.7551044921875,0.0273883576631546,0.0026904081277549265,0.03104505353979766
1782829276825032400,0.765032470703125,0.011312836652994155,0.003695274321362376,0.031120096103963442
1782829276834961400,0.77496142578125,-0.03868541222512722,-0.021119579591974615,0.11022069892231375
1782829276844890400,0.784890380859375,-0.08138356722295284,-0.04351838533952832,0.1497407718732953
1782829276854819600,0.794819580078125,-0.14144377591013907,-0.03259498639553785,0.1305665359291248
1782829276864747500,0.80474755859375,-0.1434907715678215,-0.014917071690037845,0.19393599702846256
1782829276874676500,0.814676513671875,-0.03950841904580593,-0.017390256870537996,0.18614083137391135
1782829276884605400,0.82460546875,-0.09000058892071247,-0.06274718274883925,0.04721607994684018
1782829276894534400,0.834534423828125,-0.1869564038068056,-0.15260551365464925,-0.017364556173700838
1782829276904463400,0.84446337890625,-0.1365320384711027,-0.18443879496268928,-0.01983643531310372
1782829276914391300,0.854391357421875,-0.08003975139856338,-0.15002492257691918,-0.026085412705270573
1782829276924320500,0.864320556640625,-0.04732756836414337,-0.14605119664035737,-0.022053901300020516
1782829276934249500,0.87424951171875,0.006755319479107857,-0.13942754071690142,0.02100379859204404
1782829276944178400,0.884178466796875,-0.022404139509797093,-0.11790551780387759,0.06380851467030588
1782829276954106400,0.8941064453125,-0.030790275061130523,-0.12333631068095564,0.09988637017896398
1782829276964035300,0.904035400390625,-0.15221125364005564,-0.11386749445945024,0.12362200488769448
1782829276973964500,0.913964599609375,-0.3013707184940576,-0.08204246952310204,0.08566692536426708
1782829276983893500,0.9238935546875,-0.1878366937726736,-0.053785585397109384,0.006173765864642336
1782829276993822500,0.933822509765625,-0.25554303329885003,-0.020399667819589375,-0.07164810855505056
1782829277003750400,0.94375048828125,-0.2518605453938246,-0.03713810971789062,-0.03158874109559692
1782829277013679600,0.9536796875,-0.1541904447585344,-0.061883770852535956,0.03879517447622493
1782829277023608300,0.9636083984375,-0.06547638851702213,-0.10284823392555117,0.0023737616603262722
1782829277033537300,0.973537353515625,0.02947276272177696,-0.09261099061481654,-0.012908818873856216
1782829277043465500,0.983465576171875,0.018004443246126173,-0.07305405722968279,0.04933984890147112
1782829277053394400,0.99339453125,-0.06204816763401031,-0.08019238467700779,0.13183632753607816
1782829277063323400,1.003323486328125,-0.07479834361374378,-0.07632730674669146,0.14635419817492365
1782829277073252400,1.01325244140625,-0.067194298350811,-0.0050468350607901806,0.12787850242154672
1782829277083181300,1.023181396484375,-0.09373568379580974,0.015859028715267776,0.06486722537642345
1782829277093109200,1.033109130859375,-0.11911971589922904,0.010155410246178507,-0.02958279896751046
1782829277103038200,1.0430380859375,-0.1312432844132185,-0.007237623103335499,-0.06298520188895054
1782829277112967400,1.052967529296875,-0.1273959613353014,-0.0223832428522408,-0.034119309885986146
1782829277122896400,1.062896484375,-0.031468904975056645,-0.06697196083702146,0.01692458015412558
1782829277132824300,1.07282421875,0.07193710896372794,-0.021305749813839793,0.04437782431361265
1782829277142753300,1.082753173828125,-0.008887655332684517,-0.006681523590534925,0.10349190212395042
1782829277152682200,1.09268212890625,-0.06793430306315422,-0.04274944679364562,0.07986792022930457
1782829277162611500,1.102611572265625,-0.09207797971665858,0.003072685443609953,0.012352445366419851
1782829277172540400,1.11254052734375,-0.22916940563619134,0.0504595097143203,0.04086564234104007
1782829277182468400,1.12246826171875,-0.2387830371558666,-0.0009861614931374787,0.05538569580381736
1782829277192397300,1.132397216796875,-0.2955412816882133,-0.011756561832502484,0.01721172196585685
1782829277202326300,1.142326171875,-0.28767653966248036,-0.03479980296343565,-0.06833803415899165
1782829277212255500,1.15225537109375,-0.19466215587854385,-0.04954729024022817,-0.1261714884411078
1782829277222183400,1.162183349609375,-0.08296002275943756,-0.02801072734519839,-0.0976018120388966
1782829277232112400,1.1721123046875,0.06044657765626907,-0.06674326664768158,-0.03170570940561592
1782829277242041300,1.182041259765625,0.06998772846162318,-0.08208915820904075,0.04535327261649072
1782829277251970300,1.19197021484375,0.07093523844480513,-0.0792453130852431,0.11911692115394398
1782829277261898200,1.201898193359375,0.07764438069462776,-0.10746361876651644,0.05851430355259217
1782829277271827500,1.211827392578125,0.00697217710018158,-0.07962861331440507,-0.0707012561589945
1782829277281756400,1.22175634765625,-0.08875964894890785,-0.06058130995184183,-0.15121791348746044
1782829277291685400,1.231685302734375,-0.050886137628555296,-0.03830941851958632,-0.08316268745837732
1782829277301614300,1.2416142578125,-0.0015109890848398208,-0.001242912733182311,0.017261698587425052
1782829277311542300,1.251542236328125,-0.05746551601886749,-0.04202113251909614,0.03890248904190957
1782829277321471500,1.261471435546875,-0.15552198562324046,-0.09192351980730891,0.0314498623478692
1782829277331400400,1.271400390625,-0.08971417319476604,-0.07487455065511167,0.06912996085481718
1782829277341329400,1.281329345703125,-0.011073767200112342,-0.009739011465013027,0.0698220347722061
1782829277351257300,1.29125732421875,-0.05255202501416206,0.04569010335542261,0.06062079257885925
1782829277361186600,1.3011865234375,-0.09521803130805492,0.031466859148442744,0.06503701985222288
1782829277371115500,1.311115478515625,-0.08658639656305313,0.028598756366223096,0.04536485345643013
1782829277381044500,1.32104443359375,-0.04795885200500488,0.08912789773941039,0.07035362089825793
1782829277390973400,1.330973388671875,-0.054613633719086646,0.08483896837383509,0.08771569285392761
1782829277400901400,1.3409013671875,-0.08631342484056949,0.024492709286883473,0.07296147444224917
1782829277410830600,1.35083056640625,-0.1390326231151819,-0.014400208209082483,0.08103828831608406
1782829277420759600,1.360759521484375,-0.15707739837169646,-0.00666333034671843,0.10958258368186652
1782829277430688300,1.370688232421875,-0.1413520059734583,0.029509660666063427,0.10776721395612694
1782829277440616400,1.380616455078125,-0.10168284340798854,0.03534501575604081,0.09464599444060585
1782829277450545400,1.39054541015625,-0.09056640610992908,0.010300006348639725,0.10127049061427823
1782829277460474400,1.400474365234375,-0.05068506209850311,-0.015014906041324138,0.08746519782473333
1782829277470403300,1.4104033203125,0.009466332003474236,-0.02938654574304819,0.08562313188831322
1782829277480332300,1.420332275390625,0.03658931672871112,-0.0210560128364712,0.08943956663762219
1782829277490260500,1.430260498046875,0.10363280843198298,-0.004347454619780183,0.06333268188606016
1782829277500189200,1.440189208984375,0.05732581528723239,-0.012543109100311993,0.060672349236160515
1782829277510118400,1.450118408203125,0.06934124725162982,-0.047266851152852174,0.08661337590152397
1782829277520047400,1.46004736328125,0.04214461276829243,-0.05099449337385595,0.09517437482941896
1782829277529975300,1.469975341796875,-0.026117607074975967,-0.036936668861657376,0.08339090672368184
1782829277539904300,1.479904296875,-0.10277999099493026,-0.023437720341235396,0.06181575625077821
1782829277549833200,1.489833251953125,-0.10673545062243937,-0.03015899142026901,0.058153224288392806
1782829277559762400,1.499762451171875,-0.08380641045570374,-0.017264876925200224,0.027326590139092877
1782829277569691400,1.50969140625,-0.09845277544558048,-0.03959178648032248,0.017914207679405807
1782829277579619300,1.519619384765625,-0.09682897363603114,-0.10966054428890347,0.013335154527146368
1782829277589548300,1.52954833984375,-0.13962708187699316,-0.13479272052310406,0.05235097688357346
1782829277599477200,1.539477294921875,-0.10982698689699172,-0.14379355390667914,0.07017936944304964
1782829277609406500,1.549406494140625,-0.06136953772008419,-0.10581928562559187,0.05578063167184591
1782829277619334400,1.55933447265625,-0.12972937271893023,-0.03317285934872925,0.038973508451506496
1782829277629263400,1.569263427734375,-0.07765899374186992,-0.0883184810526669,0.012406824168469756
1782829277639192300,1.5791923828125,-0.03538929328918457,-0.0780875213522464,0.007235805605584755
1782829277649121300,1.589121337890625,-0.09062310473322868,-0.0633205987226218,0.04094721054411493
1782829277659050500,1.599050537109375,-0.09426526062786579,-0.1068104886200279,0.10129069315209052
1782829277668978400,1.608978515625,-0.06434592318236827,-0.10431764889098703,0.09906182898832484
1782829277678907400,1.618907470703125,-0.12960019338130951,-0.05504720283076167,0.006377663539443165
1782829277688836400,1.62883642578125,-0.13113280977606773,-0.04806187398806214,-0.0606427121497225
1782829277698765300,1.638765380859375,-0.09287000687718391,-0.02330021156668663,-0.02791855554971844
1782829277708693500,1.648693603515625,-0.09223638514876364,-0.03403992450684309,0.047506989184813574
1782829277718622500,1.65862255859375,-0.10219079293012619,-0.06872662248462438,0.07268726974390446
1782829277728551400,1.668551513671875,-0.0668196198195219,-0.10283924690149723,0.05566464060936123
1782829277738480400,1.67848046875,-0.09742109431028366,-0.0887026580646634,0.07495542473844252
1782829277748409300,1.688409423828125,-0.13524842840135096,-0.09002930355854331,0.02168811846124008
1782829277758337500,1.698337646484375,-0.17510872962474822,-0.08364223286993801,-0.0022910792123991995
1782829277768266500,1.7082666015625,-0.16335399442315102,-0.08039755186028778,-0.0029838746489956975
1782829277778195500,1.718195556640625,-0.06744505824148654,-0.0659123687814921,0.01161190179795958
1782829277788124400,1.72812451171875,-0.046446693876385683,-0.07875190354511141,0.05365699971453287
1782829277798052400,1.73805224609375,-0.030800211933255193,-0.12828085441105067,0.07668076896001584
1782829277807981600,1.747981689453125,0.05906009173393249,-0.11434833677895366,0.06710630040694959
1782829277817910500,1.75791064453125,0.03425298273563385,-0.05620813636891544,0.03317885069809854
1782829277827839500,1.767839599609375,-0.017898644784092903,-0.08603519242107868,0.04028710266756825
1782829277837768200,1.777768310546875,-0.022111878564953804,-0.09710523329414426,0.03458180369804613
1782829277847696400,1.7876962890625,-0.048615854609012604,-0.03891374108828604,-0.006958267305837944
1782829277857625600,1.79762548828125,-0.06675766049921512,-0.05082629720009863,0.03307501586428843
1782829277867554300,1.80755419921875,-0.15295301191806793,-0.09014292000085115,0.06572055427012964
1782829277877483500,1.8174833984375,-0.19592121602892876,-0.040961394333094356,0.05103427739497274
1782829277887411700,1.82741162109375,-0.18738895000517367,0.012797814513742923,0.039687027015723284
1782829277897340700,1.837340576171875,-0.1733154164671898,0.007654168014973401,0.005168726141098886
1782829277907269600,1.84726953125,-0.10529869581758976,0.010692366667091845,-0.03297656959164887
1782829277917198600,1.857198486328125,-0.06898118176758289,0.0290794525552541,0.033511050927685575
1782829277927127800,1.8671279296875,-0.13862228874862192,-0.030619448538869616,0.1341061082321219
1782829277937055700,1.8770556640625,-0.09286299261450767,-0.06103146487213671,0.11917520894613116
1782829277946984700,1.886984619140625,0.02748772638440132,0.04638217727281153,0.04819611309329048
1782829277956913700,1.89691357421875,-0.008344049975275993,0.08167334394976496,0.010303869673004373
1782829277966842600,1.906842529296875,-0.0752203684180975,0.007600026674941182,0.03653661842709407
1782829277976770600,1.9167705078125,-0.050150224569439884,0.012977481929585337,0.05648439602702856
1782829277986699800,1.92669970703125,-0.01701250959932804,0.04501081585437059,0.08535667210500687
1782829277996628700,1.936628662109375,-0.1498690744280815,0.015167100928351282,0.1085621637261007
1782829278006557700,1.9465576171875,-0.10633680669367312,-0.01844707244709134,0.050190949305472896
1782829278016486700,1.956486572265625,-0.02868716530203819,0.041637759224697944,-0.03110483916932717
1782829278026414600,1.96641455078125,-0.1137713406085968,0.037439869143441315,-0.048398595129139715
1782829278036343800,1.97634375,-0.10724340014457702,-0.044235959024354815,-0.00386299557108432
1782829278046272800,1.986272705078125,-0.044452889710664745,-0.03866108150146901,-0.009337298796325921
1782829278056201700,1.99620166015625,-0.04681552718877792,-0.02987462152093649,0.01863816543924622
1782829278066129700,2.006129638671875,-0.06511807659864426,-0.07065064934976399,0.08393680450287647
1782829278076058600,2.01605859375,-0.09912614466249942,-0.06186974232718348,0.05297871686047874
1782829278085987800,2.02598779296875,-0.06548398730158805,-0.062324865683540696,0.025762126434501258
1782829278095916800,2.035916748046875,-0.1271475395321846,-0.08291128824688494,0.0022188724927138534
1782829278105845800,2.045845703125,-0.1713321336954832,-0.11480879389755427,0.03362774524306878
1782829278115773700,2.055773681640625,-0.1700812568515539,-0.12349756565727293,0.05701645707711577
1782829278125702700,2.06570263671875,-0.1436164437741041,-0.10262333912849425,0.027541201004153117
1782829278135632000,2.0756318359375,-0.021702128720283508,-0.06808510971069336,-0.01641100004222244
1782829278145560800,2.085560791015625,0.02325871051251888,-0.0201055071786046,-0.017132592315040527
1782829278155489800,2.09548974609375,0.045941082441806794,-0.024279285731911657,0.008848364501912146
1782829278165417700,2.105417724609375,0.03780103060603142,-0.029627514892071483,0.04432940032831393
1782829278175346700,2.1153466796875,-0.02712649185657501,-0.03058576546497643,0.06458098318041301
1782829278185276000,2.12527587890625,-0.0505243185788393,-0.028131723376363514,0.07727438747161068
1782829278195204600,2.13520458984375,-0.05230126512348652,0.019123948795348403,0.049736976726585995
1782829278205132800,2.1451328125,-0.10692892736792564,0.037611207122355696,0.05341238643685355
1782829278215061800,2.155061767578125,-0.03732289170026779,0.01613901470042765,0.062124329009605565
1782829278224990700,2.16499072265625,-0.07514145796298981,0.06405271238945424,0.055245008691493416
1782829278234919700,2.174919677734375,-0.12820318606495856,0.068699807542935,0.07098087681797333
1782829278244848600,2.1848486328125,-0.0952145241767168,0.058037836014106864,0.043068193886615334
1782829278254776800,2.19477685546875,-0.12167583012282848,0.0659906216494739,0.007581943028979003
1782829278264705500,2.20470556640625,-0.11149930402338504,0.0423415966451168,0.04057502536401152
1782829278274634800,2.214634765625,-0.09696692080199718,0.021486294012516737,0.08353744818805717
1782829278284563700,2.224563720703125,-0.09871639481782912,-0.014641177358105778,0.10606346964500844
1782829278294491600,2.23449169921875,-0.05777472809851169,-0.03537380345910787,0.10346360761122778
1782829278304420600,2.244420654296875,-0.14609773919582367,-0.02731120077371597,0.0741971902496647
1782829278314349600,2.254349609375,-0.20013795694112776,-0.053669046345353126,0.07585782607141882
1782829278324278800,2.26427880859375,-0.11241758791208266,-0.05543605601787567,0.009188556241709738
1782829278334207700,2.274207763671875,-0.06763444333374499,-0.002119987828657031,-0.041353809450473636
1782829278344135700,2.2841357421875,-0.03871872997283935,-0.04840038522742689,-0.02010927003826946
1782829278354064600,2.294064697265625,0.05761632266640663,-0.09907821386754512,0.0226591828499455
1782829278363993600,2.30399365234375,0.0602665449142456,-0.03950498497970402,0.006708402464305981
1782829278373922800,2.3139228515625,0.0164390936255455,-0.037418534094467756,-0.009699866764713079
1782829278383851800,2.323851806640625,0.004640519282221794,-0.06883665873035788,-0.012648350439919158
1782829278393779700,2.33377978515625,-0.04759703295528889,-0.030989743155986068,-0.0009790650320705026
1782829278403708700,2.343708740234375,-0.04936053549647331,-0.03128551123216748,0.017497735833004117
1782829278413637600,2.3536376953125,-0.05130231721401214,-0.05020385445281863,0.02935464363428764
1782829278423566800,2.36356689453125,-0.03145253836214542,-0.010200199235975742,0.010863056192034854
1782829278433494800,2.373494873046875,-0.07198503975868224,0.022295856829732657,0.017331987344659863
1782829278443423700,2.383423828125,-0.10803367373943329,-0.016311740918830035,0.03304079393427819
1782829278453352700,2.393352783203125,-0.07949497699737548,0.006643091276288032,-0.0011267846733797342
1782829278463281700,2.40328173828125,-0.1247509997844696,0.03998706940822303,-0.012615991673432289
1782829278473211000,2.4132109375,-0.11900105795562267,-0.007808262598142027,0.005620086637791246
1782829278483138800,2.423138916015625,-0.13371172035336493,0.0028127193331718443,0.03412717353203334
1782829278493067800,2.43306787109375,-0.12887830884754656,-0.00032053719125688075,0.0435253448032774
1782829278502996700,2.442996826171875,-0.09220131383538245,-0.019908742497488856,0.057643703863676635
1782829278512925700,2.45292578125,-0.13633447007238864,-0.04573774188943207,0.03736404569456354
1782829278522853600,2.462853515625,-0.0997369700372219,-0.1110413311228156,0.029310722294170408
1782829278532782800,2.472782958984375,-0.05635960060358047,-0.0937415290147066,0.04386219380851835
1782829278542711800,2.4827119140625,-0.06235270353853702,-0.08035590467564761,0.029354826297378164
1782829278552640800,2.492640869140625,-0.011697452056407927,-0.08511084411777556,0.012366199897136538
1782829278562569700,2.50256982421875,-0.04608312126100063,-0.01387786483541131,0.0019497184288222343
1782829278572497700,2.51249755859375,-0.1785901419997215,-0.033256153718009586,0.02992311857147142
1782829278582427000,2.522427001953125,-0.13927578422129153,-0.07438311387635767,0.02030187000092119
1782829278592355800,2.53235595703125,-0.04489712634682655,-0.012741481216624379,0.009325243032351136
1782829278602284500,2.542284423828125,-0.09054302523434161,-0.02406177052371204,0.010978006074903532
1782829278612213500,2.552213623046875,-0.059815878537297244,-0.07720292053744196,0.02890340186860412
1782829278622142000,2.562141845703125,-0.025616087293624877,-0.04529591640606522,0.0472589235747233
1782829278632070700,2.572070556640625,0.004698971471190453,-0.045826150825247165,0.06805843176632188
1782829278641999600,2.58199951171875,-0.03294540726840496,-0.06104746615886688,0.11191443329607136
1782829278651928600,2.591928466796875,-0.06679740798771382,-0.06988909039273858,0.10422620774786918
1782829278661856800,2.601856689453125,-0.05842004026472568,-0.05710128581635654,0.05773727303179912
1782829278671785700,2.61178564453125,-0.15103168846666812,-0.020458266139030457,0.045598114223033184
1782829278681714700,2.621714599609375,-0.18793313988447188,-0.017043635389953852,0.029457610818417742
1782829278691643600,2.6316435546875,-0.18777414993047714,-0.01749824728965759,0.01432190967532806
1782829278701572600,2.641572509765625,-0.20611352421939372,0.009019611149281263,0.017539474349189548
1782829278711500500,2.65150048828125,-0.18123042737543582,-0.04179923339672387,0.019725083893118424
1782829278721429800,2.6614296875,-0.1301017131626606,-0.0837852215372026,0.055821730867214495
1782829278731358700,2.671358642578125,-0.045350130811333655,-0.06729549370296299,0.0764441837251652
1782829278741287700,2.68128759765625,-0.007015431720018387,-0.04683759289011359,0.06702108807521871
1782829278751216600,2.691216552734375,-0.05372808305621147,-0.043614612255617975,0.0685126235409174
1782829278761144600,2.70114453125,-0.022648469659686088,-0.006137260646000504,0.07175169679368845
1782829278771073800,2.71107373046875,-0.022810966745018958,0.042738487008214,0.037615636702300975
1782829278781002800,2.721002685546875,-0.06496726995110512,0.017516221337765453,0.01604833160913549
1782829278790931700,2.730931640625,-0.08675532338917255,-0.01969970285668969,0.06830618684915825
1782829278800859600,2.740859619140625,-0.09066811291873454,-0.02476166242137551,0.07524869033028371
1782829278810788600,2.75078857421875,-0.05674480052888393,-0.02995141308419406,0.01729430394908413
1782829278820717800,2.7607177734375,-0.11465864483714103,0.0046443186745047564,0.0051935043893288815
1782829278830646800,2.770646728515625,-0.12885025179684162,-0.038994770435243846,0.022991556609468534
1782829278840575700,2.78057568359375,-0.041973932376503945,-0.06057816814668476,0.047814493364561346
1782829278850503700,2.790503662109375,-0.058553311255574225,-0.01969531894251704,0.02483366821166128
1782829278860432600,2.8004326171875,-0.053117257681488984,-0.057669368027895684,0.03760488697942346
1782829278870361900,2.81036181640625,-0.022715105155110358,-0.0654680590800941,0.0667587656109128
1782829278880290800,2.820290771484375,-0.005220364996790886,-0.002010609170049429,0.04927088445164263
1782829278890219800,2.8302197265625,-0.05434884530305862,-0.0030310382589697838,0.021758507683174683
1782829278900147700,2.840147705078125,-0.026575872236490248,-0.03961860142201185,0.007348234737804159
1782829278910076700,2.85007666015625,-0.012345102310180663,-0.013429025089368224,0.015595729003427549
1782829278920005600,2.860005615234375,-0.02282908692359924,-0.013662541584298013,0.048195090179983524
1782829278929934800,2.869934814453125,-0.010026303973793983,-0.02710968685224652,0.054198276117537164
1782829278939863800,2.87986376953125,-0.08088380100727081,-0.03184752902910113,0.04608809883021749
1782829278949791700,2.889791748046875,-0.12164368141889571,-0.03729403093196451,0.030008166506420818
1782829278959720700,2.899720703125,-0.10308920307457446,-0.02811192269735038,0.004897699780529364
1782829278969649700,2.909649658203125,-0.11947101355493069,-0.006809826145321131,0.009830964064784347
1782829278979578600,2.91957861328125,-0.11055179404020309,-0.015144231509417294,0.04163108288873918
1782829278989506800,2.9295068359375,-0.05215571917295456,-0.03513597611524164,0.04253507339060306
1782829278999435800,2.939435791015625,-0.05581015002727508,-0.0038801293689757583,0.03961753284293227
1782829279009364500,2.949364501953125,-0.07877893768250942,-0.03605228724256158,0.08222877674228511
1782829279019293400,2.95929345703125,-0.044478608673810954,-0.05518339643105864,0.07598133372007869
1782829279029222700,2.96922265625,-0.016472411373257636,0.023356617929041385,0.0409223866301123
1782829279039150600,2.979150634765625,-0.08707856399416923,0.021441797283664344,0.03795159979155287
1782829279049079600,2.98907958984375,-0.060652329361438745,-0.010701865147799253,0.0663958323163446
1782829279059008500,2.999008544921875,-0.049288639304041856,0.020647139774635434,0.06829662443636916
1782829279068937500,3.0089375,-0.07201894202828407,-0.005196618795022368,0.08655790112093091
1782829279078866700,3.01886669921875,-0.14711013110876084,-0.03716404787674546,0.11381155388797633
1782829279088794600,3.028794677734375,-0.151175480851531,-0.04487206497080624,0.07611260455008596
1782829279098723600,3.0387236328125,-0.11373393120765686,-0.004474515065550804,0.02917155128549784
1782829279108652500,3.048652587890625,-0.0739127929508686,0.018202303905785082,0.007765948693221434
1782829279118581500,3.05858154296875,-0.07939969992935657,-0.012392448583245277,0.030941940225195138
1782829279128510700,3.0685107421875,-0.06231120248436928,-0.05732888402715325,0.039075297458702696
1782829279138438700,3.078438720703125,-0.10433598826527594,-0.06766030842736363,0.08606929562008007
1782829279148367600,3.08836767578125,-0.06533610326349736,-0.09639416241534053,0.07362104346267878
1782829279158296600,3.098296630859375,-0.02916998038291931,-0.012262100201845169,0.010833556102914735
1782829279168225500,3.1082255859375,-0.08717910175919533,0.011510258921235798,-0.007583139472221955
1782829279178153700,3.11815380859375,-0.02789455361962318,-0.017024346167594195,0.012094205422187223
1782829279188082700,3.128082763671875,0.041999066817760465,0.014437690675258635,0.02903222501319833
1782829279198011600,3.13801171875,-0.0033422961652278898,-0.020409458561241624,0.026687862977292386
1782829279207940600,3.147940673828125,-0.02292377946972847,-0.08684504749923944,0.0815026361585129
1782829279217869600,3.15786962890625,-0.03966097925901413,-0.0761946202777326,0.11095074849622323
1782829279227797800,3.1677978515625,0.008311901271343231,-0.03531067509502172,0.06270317007717677
1782829279237726700,3.177726806640625,-0.05642682062089443,0.015665771165490148,0.009737805888615548
1782829279247655700,3.18765576171875,-0.08878419886827468,0.007317264210805296,0.016908400770882143
1782829279257584600,3.197584716796875,-0.1070306341767311,0.004384206433594226,0.017405554904369635
1782829279267513900,3.207513916015625,-0.11731705039143561,-0.0054033934134989975,-0.000937381314812228
1782829279277441800,3.21744189453125,-0.10699614738523959,-0.022095219691097734,0.0011037417245097457
1782829279287370800,3.227370849609375,-0.16093056666851044,-0.04567797452621162,0.026535284497775136
1782829279297299700,3.2372998046875,-0.13581424559056757,-0.09218830822333693,0.059693649530271065
1782829279307228700,3.247228759765625,-0.09894903452992439,-0.06384440340101719,0.021024549119127912
1782829279317157600,3.25715771484375,-0.19551672688126562,-0.05318323558978736,0.0011449596508871763
1782829279327085800,3.2670859375,-0.12945406290888786,-0.10473843158632516,0.009703711822768673
1782829279337014800,3.277014892578125,-0.07143734274804592,-0.06407477809078992,-0.025441379180690272
1782829279346943700,3.28694384765625,-0.09967501071691512,-0.0602408990163356,-0.009786668265331536
1782829279356872400,3.29687255859375,-0.08594400700628757,-0.13269056061208248,0.010542135408287868
1782829279366801700,3.3068017578125,-0.036683424752950666,-0.10537906757742166,0.0005345087355002761
1782829279376729600,3.3167294921875,-0.01408113232254982,-0.06832585966400802,0.008689319748990237
1782829279386658600,3.326658447265625,-0.026596915024518965,-0.08609554430618882,0.015443387985927983
1782829279396587500,3.33658740234375,-0.08989712854623794,-0.07000570250973105,-0.0019213051850907503
1782829279406516500,3.3465166015625,-0.0802653768479824,-0.047713498941808936,-0.0011874927515164017
1782829279416444400,3.3564443359375,-0.09338204805254936,-0.05394143354594707,0.023614346416620535
1782829279426373600,3.36637353515625,-0.14726502940952776,-0.06934329307824373,0.04807972017200663
1782829279436302600,3.376302490234375,-0.04954290632605552,-0.06141498429700732,0.024510665068682283
1782829279446231600,3.3862314453125,-0.12973404889404774,-0.016431640971451996,0.006885558262653649
1782829279456160500,3.396160400390625,-0.1687526385962963,-0.05436681935116648,-0.017009714854042977
1782829279466088400,3.40608837890625,-0.1616506976366043,-0.06274667129218578,-0.03415647269175388
1782829279476017700,3.416017578125,-0.1296960549712181,-0.023531536104530095,-0.007157488805521279
1782829279485946600,3.425946533203125,-0.05656418326497078,-0.045447015314549206,0.036667980588646606
1782829279495875600,3.43587548828125,-0.02443126142323017,-0.0639383652947843,0.04665905798543244
1782829279505804500,3.445804443359375,0.023849662142992018,-0.046474020274728536,0.04592630499778315
1782829279515732500,3.455732421875,0.03038344782590866,-0.02824512062296271,0.07054292379212565
1782829279525661700,3.46566162109375,-0.03923486280143261,-0.03224018160849809,0.05847472046087496
1782829279535590700,3.475590576171875,-0.033306057274341584,-0.04981558578759432,0.03264421409843489
1782829279545519600,3.48551953125,-0.07372574594616889,-0.019359218855947255,0.01105025846036151
1782829279555448600,3.495448486328125,-0.1467845524162054,-0.02381707504764199,0.03386460447255522
1782829279565376500,3.50537646484375,-0.08874328233599663,-0.0736319301828742,0.022355067070527
1782829279575305700,3.5153056640625,-0.10654957266151904,-0.012190642400830983,0.001529575054300949
1782829279585234700,3.525234619140625,-0.08882043922543525,-0.016744652443379162,-0.0029361539165955034
1782829279595163600,3.53516357421875,-0.03729366560578346,-0.03851137083247304,-0.01915055367448367
1782829279605092600,3.545092529296875,-0.08121230230927468,0.007076806518435477,0.002271296799695119
1782829279615020800,3.555020751953125,-0.0601619154959917,-0.02011164465844631,0.04070850641741417
1782829279624949800,3.56494970703125,-0.044510172855854034,-0.014154635950177907,0.044918744523590425
1782829279634878700,3.574878662109375,-0.07325111417174339,-0.0021722294725477695,0.05027247184277512
1782829279644807700,3.5848076171875,-0.10647943003475666,-0.050933483901619905,0.06322232597991824
1782829279654735600,3.594735595703125,-0.1062245784908533,-0.05463204615861177,0.04660209450065158
1782829279664664800,3.604664794921875,0.0029079964011907576,-0.046397886298596855,0.03276881772563792
1782829279674593800,3.61459375,-0.052801615861058235,-0.0417360319674015,0.010695545004867017
1782829279684522800,3.624522705078125,-0.039669747087359424,-0.061581573035567994,-0.02910602090177126
1782829279694451500,3.634451416015625,-0.05643091227412223,-0.03306099647209048,-0.05777319372855127
1782829279704380700,3.644380615234375,-0.12256196530759333,-0.05912818853408098,-0.008083481076639145
1782829279714308900,3.654308837890625,-0.10254092154204845,-0.08099559081867337,0.02197985881627537
1782829279724237600,3.664237548828125,-0.08158464275300502,-0.030877514953166246,-0.0050488078221678735
1782829279734166500,3.67416650390625,0.004653963285684585,-0.03451470241174102,-0.04530307679921388
1782829279744095500,3.684095458984375,0.003731587743759155,-0.03311930253058672,-0.03823474584817886
1782829279754023400,3.6940234375,0.03012099749743938,-0.026547669055312872,0.01726232877508737
1782829279763952600,3.70395263671875,0.027175591695308685,-0.04754164950624108,0.051330063737463204
1782829279773881600,3.713881591796875,-0.06194587630331516,-0.05585968825742602,0.06397639575023203
1782829279783810600,3.723810546875,-0.021558920857310294,-0.0731667968891561,0.045894521620031443
1782829279793739500,3.733739501953125,-0.049804772132635115,-0.039377778403460975,0.015079376979125663
1782829279803667500,3.74366748046875,-0.06395487803816795,-0.02478358199223876,0.009025894759595393
1782829279813596700,3.7535966796875,-0.08807400477230548,-0.011163491310179232,0.013407342980522662
1782829279823525600,3.763525634765625,-0.1779202799141407,-0.018331044851988554,0.04873435728899203
1782829279833454600,3.77345458984375,-0.15667174018025398,-0.054625178026407956,0.033161104978853835
1782829279843383600,3.783383544921875,-0.1298795948445797,-0.02823182274997234,0.011736057900590822
1782829279853311500,3.7933115234375,-0.1336784026056528,-0.043503918422758574,0.04499991086786612
1782829279863240700,3.80324072265625,-0.11382511662244796,-0.08977174860090016,0.09228083621184341
1782829279873169700,3.813169677734375,-0.08047112855315208,-0.0827503255315125,0.10676739839697257
1782829279883099000,3.823098876953125,-0.049918753901124,-0.07151040798425674,0.06643920566719025
1782829279893027800,3.83302783203125,-0.05964578266739845,-0.05463394585475325,0.06643705024272203
1782829279902955800,3.842955810546875,-0.06316285087764263,-0.08291954461857676,0.06349748052633367
1782829279912884700,3.852884765625,-0.02991641483604908,-0.08448270228207111,0.017944438420888036
1782829279922813700,3.862813720703125,-0.10243979925513266,-0.056259355099499225,-0.02409351736884564
1782829279932743000,3.872742919921875,-0.05500526338517665,-0.08466770346015691,-0.012580463702324777
1782829279942672000,3.882671875,-0.10016367101669311,-0.04871157006844878,0.03891118380501866
1782829279952599800,3.892599853515625,-0.15030278967022895,-0.062221478374302384,0.05212543363254517
1782829279962528800,3.90252880859375,-0.11930500933825969,-0.06485489561781287,0.04010519762886688
1782829279972457700,3.912457763671875,-0.13634674503207206,-0.0353159357920289,0.014547197198029606
1782829279982387000,3.922386962890625,-0.07755261075794696,-0.05936360472515225,0.018995016052899882
1782829279992315600,3.932315673828125,-0.0055704936087131495,-0.044293607495725154,0.03806834890586324
1782829280002243800,3.942243896484375,-0.03670154493153095,-0.01954962686151266,0.024887279828730968
1782829280012172800,3.9521728515625,-0.039055414581298825,-0.059423518218845124,0.025829620446451006
1782829280022101800,3.962101806640625,-0.0006049801558256149,-0.04168181756213307,-0.01881236209552735
1782829280032030700,3.97203076171875,-0.052907998844981194,0.0037231121763586996,-0.07638522007954307
1782829280041959700,3.981959716796875,-0.04145429241657257,-0.0432664564050734,-0.03180433834134601
1782829280051887900,3.991887939453125,0.009130231916904449,-0.0489743126578629,-0.008602563914144412
1782829280061816600,4.001816650390625,0.0012210662275552748,-0.0033759061738848684,-0.025300518538430333
1782829280071745500,4.01174560546875,-0.03467851467132568,-0.034941695652157066,0.014298373536113648
1782829280081674800,4.0216748046875,-0.062194298106431956,-0.030085341662168502,0.013759754881076515
1782829280091603700,4.031603759765625,-0.033687165546417236,-0.013417699977755547,-0.020651395824644713
1782829280101531600,4.04153173828125,-0.10425766233205795,-0.04055588227212429,-0.04174821559553966
1782829280111460600,4.051460693359375,-0.04819499884843826,-0.08238967552557587,-0.02174601352778263
1782829280121389600,4.0613896484375,-0.029839842468500136,-0.042014118256419895,0.011475315472017973
1782829280131318800,4.07131884765625,-0.06456161175966263,-0.037562107283622026,0.0415724845692981
1782829280141247700,4.081247802734375,-0.03933598508834839,-0.04991524676978588,0.02463369779330678
1782829280151175700,4.09117578125,-0.060164838105440134,0.015271365020424126,-0.006825060247071087
1782829280161104600,4.101104736328125,-0.08190320718288421,-0.013457593596726655,-0.029274016146128994
1782829280171033600,4.11103369140625,-0.13601006042361258,-0.07310220722034573,-0.0036087102827616034
1782829280180962800,4.120962890625,-0.14543606041669846,-0.07896423112154007,0.017515572883794083
1782829280190891800,4.130891845703125,-0.14933599046468735,-0.08171776761338115,0.0367238115622662
1782829280200819700,4.14081982421875,-0.10518003787398338,-0.0814035870976746,0.026704165658121927
1782829280210748700,4.150748779296875,-0.09482873972952366,-0.036061785723268985,0.024650621528644112
1782829280220677600,4.160677734375,-0.11463935561478138,-0.048025779761373996,0.04937350457590073
1782829280230606800,4.17060693359375,-0.15098200410604476,-0.062439797300100325,0.04932672455841675
1782829280240535800,4.180535888671875,-0.10208616351187229,-0.05120514044985175,0.011116501230141147
1782829280250463700,4.190463623046875,-0.050907180416584014,-0.017316607112437484,-0.013516365446103736
1782829280260392700,4.200392822265625,-0.07577215708196162,-0.06968143899142741,0.02207347365017049
1782829280270321700,4.21032177734375,-0.040082419541478155,-0.1018809963285923,0.04677738713547587
1782829280280251000,4.2202509765625,-0.03444645948112011,-0.043242052616178986,0.04956765717482194
1782829280290179800,4.230179931640625,-0.07720072858035563,-0.03992752124071121,0.014243099684920161
1782829280300107800,4.240107666015625,-0.07722235589027404,-0.021615911741554736,0.013358444071188568
1782829280310036700,4.25003662109375,-0.08728548474311829,-0.011043225931376218,0.026950011911662294
1782829280319966000,4.259966064453125,-0.09298048151433468,-0.03679477617293596,0.02980071603450924
1782829280329894700,4.269894775390625,-0.033082769912481304,-0.04524126360937953,0.00025208419808186587
1782829280339823600,4.27982373046875,0.015822423031926155,-0.0253057061702013,-0.06076215554461814
1782829280349751800,4.289751708984375,0.0005552957952022552,-0.016569003615528346,-0.03687905692290514
1782829280359680800,4.2996806640625,0.050151978135108945,-0.01929492144808173,0.017922555382642893
1782829280369609700,4.309609619140625,0.049775546038150785,-0.013758330108970403,0.01111817259741947
1782829280379538700,4.31953857421875,0.004959668233990669,-0.022645839311182497,0.007757308729039505
1782829280389467600,4.329467529296875,-0.00466857633292675,-0.044909109045565124,-0.0016412735341582447
1782829280399395600,4.3393955078125,-0.05517068307995796,-0.013907383190840481,0.014513970781862735
1782829280409324500,4.349324462890625,-0.1138975973367691,-0.008744009078294038,0.06059288165862672
1782829280419253800,4.359253662109375,-0.14637304900586603,-0.04759615617245436,0.011024429899360984
1782829280429182700,4.3691826171875,-0.1429986041367054,-0.024155659352242946,-0.02790545860612765
1782829280439111700,4.379111572265625,-0.16304828947484493,-0.018244243351370096,0.004750455063255504
1782829280449039600,4.38903955078125,-0.187858321082592,-0.058673576634377236,0.022181071343645452
1782829280458968600,4.398968505859375,-0.18124971659779548,-0.06666413699686527,0.017676024142513052
1782829280468897800,4.408897705078125,-0.102342184099555,-0.0930130686096847,-0.0032298852993175387
1782829280478826800,4.41882666015625,-0.06707564040720462,-0.0863094793178141,0.03230612298417836
1782829280488755700,4.428755615234375,-0.058466802015900605,-0.1188710018351674,0.09042147208075038
1782829280498683600,4.43868359375,-0.03140343852341175,-0.10690890749320388,0.08815568257323465
1782829280508612600,4.448612548828125,-0.013756722673773765,-0.03397255835905671,0.05121799079827033
1782829280518541800,4.458541748046875,-0.03458323760330677,-0.02797448698803782,0.001969583039917052
1782829280528470800,4.468470703125,-0.036596915513277053,-0.05375877045542001,-0.005371354307420552
1782829280538399700,4.478399658203125,-0.06465922691524029,-0.0404243648469448,0.016420124063594266
1782829280548327700,4.48832763671875,-0.07114625084698199,-0.020259090305119753,0.006908656010450795
1782829280558256600,4.498256591796875,-0.10158113659918308,0.007277882048487663,-0.007615589570254087
1782829280568185900,4.508185791015625,-0.08328969310522079,0.008088613909482956,0.003939778001187369
1782829280578114800,4.51811474609375,-0.06284370192587375,0.041286973025649785,0.021760854903887957
1782829280588043800,4.528043701171875,-0.05159340911507606,0.04700432775914669,0.05691699702432379
1782829280597971700,4.5379716796875,-0.02809679819345474,0.008110825741291046,0.08184669122267514
1782829280607900700,4.547900634765625,-0.06576748041808604,0.0035996319271624088,0.0739275521285832
1782829280617830000,4.557829833984375,-0.07762450695037841,-0.041409576492011546,0.04539706609244458
1782829280627758800,4.5677587890625,-0.03596095569729805,-0.008056757466495037,0.04925402464838698
1782829280637687800,4.577687744140625,-0.08035539321899414,-0.004789718494564294,0.03546046796240843
1782829280647615700,4.58761572265625,-0.08415361645817757,-0.058590282265096896,0.026405219244165345
1782829280657544700,4.597544677734375,-0.06419336296916008,-0.04090776444971561,-0.005927462953375652
1782829280667474000,4.607473876953125,-0.08745265800356865,-0.05196750312447548,-0.05333360384590923
1782829280677402600,4.617402587890625,-0.03608370529413223,-0.10975538296550512,-0.046188965388806534
1782829280687331600,4.62733154296875,-0.08227028692960739,-0.1090586328729987,-0.027230673750257117
1782829280697259800,4.637259765625,-0.07740589576363563,-0.12364070045500992,0.0038942674921825524
1782829280707188500,4.6471884765625,-0.01887596538364887,-0.11284881893619894,0.006766270131384954
1782829280717117700,4.65711767578125,-0.03715162678658962,-0.10963409467339515,-0.020165977794723584
1782829280727046700,4.667046630859375,-0.01680032815337181,-0.10765285772830248,0.0023955625001806763
1782829280736975600,4.6769755859375,-0.029377485653758046,-0.07921119161993265,0.008149340253928676
1782829280746903600,4.686903564453125,-0.0812765997171402,-0.060257777085900306,0.029230167871247974
1782829280756832800,4.696832763671875,-0.054019759479165076,-0.05129033451527357,0.0026906364566180855
1782829280766761700,4.70676171875,-0.08632686884403228,-0.005304243887960911,-0.04780237366850488
1782829280776690700,4.716690673828125,-0.06946516589224339,-0.005770692355930805,-0.02371357814054936
1782829280786619600,4.72661962890625,-0.0979547627955675,-0.026279373507946728,0.04185864456691779
1782829280796548600,4.736548583984375,-0.06083586923480033,-0.026515081959962845,0.09906439540474675
1782829280806476800,4.746476806640625,-0.05526420658230781,-0.01702756103798747,0.09473540802341886
1782829280816405800,4.75640576171875,-0.12109423084259033,-0.03257759686931967,0.08676621010936796
1782829280826334700,4.766334716796875,-0.08890519489943981,-0.08213862337395549,0.09476734666479751
1782829280836263700,4.776263671875,-0.05917699611186981,-0.006777239049971104,0.05624763726224191
1782829280846193000,4.78619287109375,-0.07656535328626632,0.029969314067065714,0.05697822569226846
1782829280856120800,4.796120849609375,-0.07234276715517043,-0.015200345610827207,0.08829525544070638
1782829280866049800,4.8060498046875,-0.08444587740302086,-0.002610913150757551,0.10010489916731603
1782829280875978800,4.815978759765625,-0.08957797959446906,0.018291443493962285,0.07469892922672443
1782829280885907200,4.8259072265625,-0.09299860169291496,0.013140344341099262,0.07557508187359198
1782829280895836200,4.835836181640625,-0.16718728897571564,-0.008252718430012464,0.09236363739077932
1782829280905764000,4.84576416015625,-0.19260580787062645,-0.045941666963696476,0.06872980995555408
1782829280915693000,4.855693115234375,-0.08354454464912414,-0.03177285635769367,0.008409078035503625
1782829280925622000,4.8656220703125,-0.12645663465857504,0.019526684377342462,0.008793638639990239
1782829280935551200,4.87555126953125,-0.06348024626374245,-0.07626958521008491,0.011578364854538812
1782829280945480200,4.885480224609375,0.03366495371460915,-0.09596139702126383,0.0060683418619446455
1782829280955408100,4.895408203125,0.07639175028502941,-0.06317015740126371,-0.005227379259467125
1782829280965337000,4.905337158203125,0.05080722717344761,-0.11935118656754493,0.009794869838096201
1782829280975266000,4.91526611328125,0.08315525307059288,-0.10675897762849926,-0.019319663163693622
1782829280985195300,4.9251953125,0.007799275574088096,-0.04445362036302686,-0.04358511216649785
1782829280995124200,4.935124267578125,-0.1165209315776825,-0.1111418688878417,-0.0024228614990599454
1782829281005052200,4.94505224609375,-0.13940613260269163,-0.15309826560765505,0.02757469228180125
1782829281014981000,4.954981201171875,-0.09412029919922352,-0.07382993697300552,-0.0075208787578158074
1782829281024910300,4.964910400390625,-0.17582944511473178,-0.0658671414002776,0.000013982859579846263
1782829281034839000,4.974839111328125,-0.17165595882236956,-0.11515972622707485,0.03472254560929723
1782829281044768000,4.98476806640625,-0.08347966271936894,-0.07127630696743727,-0.006366301895212382
1782829281054696200,4.9946962890625,-0.0780173056602478,-0.03049991381242871,0.00111176976733841
1782829281064625200,5.004625244140625,-0.08417173663675785,-0.08407441374212503,0.052365242870943615
1782829281074554000,5.01455419921875,-0.04498422010838985,-0.061567398379743093,0.04698333977004513
1782829281084483000,5.024483154296875,-0.033952538484334945,0.015118804807215927,0.029842427151231095
1782829281094412000,5.034412109375,-0.014518354696035385,-0.01140913663432002,0.019006770422775297
1782829281104341000,5.044341064453125,-0.10803834991455077,-0.007934884652495384,0.03924776794877834
1782829281114269000,5.05426904296875,-0.08454758421182632,0.008577420339733362,0.049119296919391486
1782829281124198100,5.0641982421875,-0.039029695618152616,-0.025749358284473417,0.040484355972451154
1782829281134127000,5.074127197265625,-0.0717605833530426,0.00008870119675993918,0.038999967200169336
1782829281144056000,5.08405615234375,-0.052233460584282874,0.0021676994279026984,0.09148372188424692
1782829281153985000,5.093985107421875,0.010430793121457099,0.0002256254494190216,0.07482502612469252
1782829281163913000,5.103912841796875,-0.01602466760575771,0.03762918117046356,0.05124801604377571
1782829281173842200,5.11384228515625,-0.1303314302653074,-0.0008054711639881133,0.0832260350181721
1782829281183771100,5.123771240234375,-0.08240414244234562,-0.03206438665017485,0.0701324250287842
1782829281193700000,5.1337001953125,-0.013602408894896506,0.05003682732284069,-0.011253064723196439
1782829281203629000,5.143629150390625,-0.06015139410197735,0.028127193331718443,-0.02890326943786349
1782829281213557000,5.153556884765625,-0.07605915732979775,-0.06263590439409017,0.010278456670534796
1782829281223486200,5.163486328125,-0.08774550347030162,-0.0584660713635385,0.02444170061885379
1782829281233415200,5.173415283203125,-0.11022563082575797,-0.0528399020448327,0.012228143133316188
1782829281243344100,5.18334423828125,-0.1093921026110649,-0.08639262755662203,-0.01163090789252892
1782829281253273000,5.193273193359375,-0.06295651465058326,-0.04563932301625609,-0.06333414775736164
1782829281263201000,5.203200927734375,-0.07265607088804245,-0.011919716504961252,-0.06438541494254023
1782829281273130200,5.213130126953125,-0.078522332572937,-0.040917701321840284,-0.005122832039603963
1782829281283059200,5.22305908203125,-0.03699789752960205,-0.056581718921661375,0.00041766372306738047
1782829281292988200,5.23298828125,-0.0028179800301790237,-0.04897182843983173,-0.0028049561518244445
1782829281302917000,5.242917236328125,-0.02405658289194107,-0.08139438087791204,0.02654210239762906
1782829281312845000,5.252844970703125,-0.011195347753167151,-0.07736570988371967,0.06341062422678806
1782829281322774300,5.262774169921875,-0.01883212624192238,-0.012661474782973527,0.045874168385169466
1782829281332703200,5.272703125,-0.04730652557611465,-0.021357114674896,0.004561143036233261
1782829281342632000,5.2826318359375,-0.08265256424546241,-0.04218450638726354,0.001757072800397873
1782829281352561000,5.292560791015625,-0.1203460428237915,-0.030082857444137332,-0.020577545137144625
1782829281362489000,5.302489013671875,-0.1605003585577011,-0.03570917289331555,0.03383495825296268
1782829281372418000,5.31241796875,-0.13239245444834233,-0.051932139550149435,0.059725926098367195
1782829281382347000,5.322346923828125,-0.17010229963958262,-0.009922551338374615,0.036903067986154926
1782829281392274200,5.332274169921875,-0.11407587651312351,-0.025295623167604208,0.026799666488426736
1782829281402203100,5.342203125,-0.10538345149159431,0.005408142653852701,0.046181293539004395
1782829281412131000,5.352131103515625,-0.13165712591111658,-0.01775266044214368,0.055391212229151277
1782829281422060000,5.36206005859375,-0.04481587780416012,-0.049586453206837175,0.06828500249723438
1782829281431989200,5.3719892578125,-0.04630933123230934,0.007707359506934881,0.049833989093964914
1782829281441918200,5.381918212890625,-0.05419803865551948,-0.022723142331093547,0.025611799277574752
1782829281451847200,5.39184716796875,-0.03287994081676006,-0.03968246043846011,0.005584188773925415
1782829281461775000,5.401775146484375,-0.06004150398671627,0.00815554166585207,-0.003111026426311582
1782829281471704000,5.4117041015625,-0.0870452462464571,-0.012696546096354722,0.03331822263617068
1782829281481633300,5.42163330078125,-0.11797113038599491,-0.03028071810379624,0.011235835027182475
1782829281491562200,5.431562255859375,-0.09825579156875609,0.013126754207164049,-0.04070038704304024
1782829281501491000,5.441490966796875,-0.08938274928331374,-0.00953778980448842,-0.03151404102472588
1782829281511419100,5.451419189453125,-0.08374737374484538,-0.039931466763466594,0.003119255398539826
1782829281521348000,5.46134814453125,-0.023052374285459518,-0.01148293252289295,0.007857572499429807
1782829281531277000,5.471277099609375,-0.02886369091272354,0.005446428837627172,0.011920638953568412
1782829281541206000,5.4812060546875,0.007023030504584312,-0.006907149039953947,-0.04086967462876346
1782829281551135000,5.491135009765625,-0.018038345515727996,0.022474428267031908,-0.04044926182618364
1782829281561064000,5.50106396484375,0.0014928689062595367,-0.005290507623553276,-0.011069762311852537
1782829281570991900,5.510991943359375,-0.011738368588685988,-0.008795300874114035,0.0207494539382169
1782829281580921000,5.520921142578125,-0.05839899747669697,-0.012599661593139171,0.00725720458664
1782829281590850000,5.53085009765625,-0.08038929548859595,-0.06729848937764764,0.006370484879985452
1782829281600779000,5.540779052734375,-0.10674071131944655,-0.06448299356549977,-0.0008052748011657968
1782829281610708000,5.5507080078125,-0.09845043735802173,-0.04183788490667939,0.020893931309669277
1782829281620636000,5.560635986328125,-0.12570727759599684,-0.01999605545476079,0.04321402296493761
1782829281630565000,5.570565185546875,-0.12104688456952571,-0.03623962650820613,0.034804360407544296
1782829281640494000,5.580494140625,-0.12401567124724387,-0.02331336330920458,0.015934432039037345
1782829281650423000,5.590423095703125,-0.12607786447405814,-0.021201777982711792,0.03427887522871606
1782829281660352000,5.60035205078125,-0.12373451621830463,-0.06784428669214249,0.0758578900035005
1782829281670280000,5.610280029296875,-0.10557868180274962,-0.06105111942067742,0.08868163354294374
1782829281680209200,5.620209228515625,-0.059845689153671264,-0.01995338535681367,0.06613056440970394
1782829281690138000,5.63013818359375,-0.061764089995622634,-0.02143617126047611,0.03663228822075762
1782829281700067000,5.640067138671875,-0.0961339771091938,-0.010052461328357458,0.055171267601847644
1782829281709996000,5.64999609375,-0.09168050483167171,0.01596679993867874,0.06714001088030636
1782829281719925200,5.65992529296875,-0.08520458681583404,0.02046557266265154,0.054496601476985956
1782829281729853200,5.669853271484375,-0.12509236056804657,0.008205810548365116,0.031746516340039665
1782829281739782100,5.6797822265625,-0.08457797935009002,0.015916531056165695,0.04760777811158914
1782829281749711000,5.689711181640625,-0.07886193979084491,0.03317702406719327,0.04240226819063537
1782829281759640000,5.69964013671875,-0.1548445247530937,-0.005321341153234243,0.05385723956094589
1782829281769569300,5.7095693359375,-0.08696516674757003,-0.03466770101636648,0.012532788635697215
1782829281779497200,5.719497314453125,-0.08104863618016242,0.028613807804882523,-0.01932666372663807
1782829281789426200,5.72942626953125,-0.12425357165634632,0.0008159925580024719,-0.005224054791219532
1782829281799355100,5.739355224609375,-0.07254618077278137,-0.01769976121112704,-0.003540741346776485
1782829281809284000,5.7492841796875,-0.07035422368645668,0.05854132855683565,-0.0342190211005276
1782829281819213000,5.759213134765625,-0.11516367174983023,0.025254706635326144,-0.02996168788303621
1782829281829141200,5.769141357421875,-0.052229953452944754,-0.023930033902823923,-0.058285093340021556
1782829281839070200,5.7790703125,-0.07360007373988628,0.03707359311431646,-0.06168986484878696
1782829281848999000,5.7889990234375,-0.04354980339109897,-0.01975041013062,-0.045360159015003586
1782829281858928000,5.79892822265625,0.014417816931009292,-0.04678396300673485,-0.08021700766161084
1782829281868857000,5.808857177734375,-0.01612929702401161,-0.00818652132600546,-0.04997019182741642
1782829281878786000,5.8187861328125,-0.03921031288206577,-0.08371054886579513,0.004364305289881304
1782829281888714000,5.8287138671875,-0.02465162617564201,-0.11526859342902898,-0.023335355945304035
1782829281898643000,5.838642822265625,-0.022903905725479123,-0.06464037608429789,-0.060683409486291924
1782829281908572200,5.848572265625,-0.10491700302362442,-0.09788535082116723,-0.04159222131622955
1782829281918501000,5.858501220703125,-0.09725976626873016,-0.12221139830425382,-0.015540825044992379
1782829281928430000,5.86843017578125,-0.09790975461006164,-0.046295594967901706,-0.042481612470583054
1782829281938358000,5.87835791015625,-0.13779869740605352,-0.043401919353008266,-0.012994012939278035
1782829281948287000,5.888286865234375,-0.16568331415355206,-0.09051876757591962,0.037675678060157224
1782829281958216200,5.89821630859375,-0.12261574132144451,-0.05619900321438908,0.03479247817350551
1782829281968145200,5.908145263671875,-0.06053542498350143,-0.009992109443247318,0.008908889916958287
1782829281978074000,5.91807421875,-0.10477964037954807,-0.015826660815626382,0.00926337504358962
1782829281988003000,5.928003173828125,-0.11159633465707301,-0.012743015586584805,-0.011470465766964479
1782829281997931000,5.937930908203125,-0.09766600898206233,0.026185265483707188,-0.03135066258998122
1782829282007860200,5.947860107421875,-0.0984340707451105,0.040147155340760944,-0.03603859664392657
1782829282017789200,5.9577890625,-0.05292845711112022,0.021321312709152697,0.002623416439304128
1782829282027718100,5.96771826171875,0.002072130098938942,0.038797202036529775,0.02287507692321669
1782829282037649200,5.977649169921875,-0.011091887378692626,0.06006620003655552,0.02130080421066377
1782829282047578000,5.987578125,-0.04322480922043323,0.04174246170818805,0.026824883128073997
1782829282057506000,5.997506103515625,-0.06651157678365707,0.032522213420271874,0.04339674998754635
1782829282067435000,6.00743505859375,-0.08437573477625847,0.03736453888490796,0.03579813895155676
1782829282077364200,6.0173642578125,-0.11707096667587756,0.022822072660923003,-0.019415205093193798
1782829282087293200,6.027293212890625,-0.1380617322564125,-0.007361907070130109,-0.012193231650139205
1782829282097222100,6.03722216796875,-0.099837507802248,-0.03766819800660014,0.02411354637672193
1782829282107150000,6.047150146484375,-0.05067921687960624,-0.03348696679919958,0.03328536611276213
1782829282117079000,6.0570791015625,-0.03245090174973011,-0.048238253468275066,0.013607865954726002
1782829282127008300,6.06700830078125,-0.013441080853343008,-0.03508168864473701,0.013562026652158237
1782829282136937200,6.076937255859375,-0.01023731637597084,-0.02177797043547034,0.003909716223063879
1782829282146866200,6.0868662109375,0.0014893617749214172,0.006313713191449642,-0.002933318072115071
1782829282156795100,6.096795166015625,-0.041889761224389074,-0.005181932682543993,0.03266611540298909
1782829282166723000,6.10672314453125,-0.07126490879058837,-0.05262903577312827,0.027116217057732865
1782829282176652300,6.11665234375,-0.02864274163842201,-0.08985942688435315,0.01813754984019324
1782829282186581200,6.126581298828125,-0.10582944169342517,-0.04925868255719542,-0.01086950419913046
1782829282196510000,6.136510009765625,-0.12979776178002356,-0.04572261738553643,-0.0028585403694305566
1782829282206439000,6.14643896484375,-0.1701958231419325,-0.04034647730514407,0.01876112509863451
1782829282216367000,6.1563671875,-0.17353402765393255,-0.014684066651761531,0.001994571350701153
1782829282226296000,6.166296142578125,-0.18552958587408064,0.010268880558013916,-0.009121317958086728
1782829282236225000,6.17622509765625,-0.12315525502562522,0.011138210738450288,-0.0010831921268254518
1782829282246154000,6.186154052734375,-0.1294867961347103,0.010322072049975395,0.018343803868861867
1782829282256083000,6.1960830078125,-0.062222355157136915,-0.011427256812900305,0.0665227466316428
1782829282266012200,6.20601220703125,-0.010525485667586326,-0.0074601067475974555,0.06563796315374784
1782829282275940000,6.215940185546875,-0.08487491647005081,-0.009592588731646538,0.07624805379828903
1782829282285869000,6.225869140625,-0.04266074559688568,-0.030325580158829687,0.10674771644896827
1782829282295798000,6.235798095703125,-0.06877016936540603,-0.0027890461966395374,0.03523452285258099
1782829282305727000,6.24572705078125,-0.07243687517940997,-0.010162643704563379,0.015840698474133386
1782829282315656200,6.25565625,-0.0751630852729082,-0.029720161611586807,0.045129236335959284
1782829282325584100,6.265584228515625,-0.06525368567705155,-0.015610387716442346,0.03651773106353357
1782829282335513000,6.27551318359375,-0.05204875166714191,-0.030311990024894476,0.022146182693354784
1782829282345442000,6.285442138671875,-0.07459142286479473,-0.048938218431174754,0.03239383780024946
1782829282355371000,6.29537109375,-0.13530220441520213,-0.04497866715043783,0.05170911704977043
1782829282365300200,6.30530029296875,-0.16099194146692752,-0.053125148726999756,0.04795687924362719
1782829282375229200,6.315229248046875,-0.13415712603330612,-0.015668986035883424,-0.021412288061389697
1782829282385157000,6.3251572265625,-0.14042203164696693,0.00835530202165246,-0.05826451177629642
1782829282395086000,6.335086181640625,-0.09767711489796638,-0.035011692148447036,0.006445148418238386
1782829282405015000,6.34501513671875,-0.029058336701989172,-0.0714864425867796,0.01883211254219059
1782829282414944300,6.3549443359375,0.034794250005483626,-0.06231280991956591,0.018134942324575968
1782829282424873200,6.364873291015625,-0.005227963781356811,-0.08347221006527543,0.009068747520633042
1782829282434801200,6.37480126953125,0.01861936027407646,-0.08535305537581443,-0.011810356112662701
1782829282444730000,6.384730224609375,-0.014086393019556998,0.011402560763061046,-0.015132997729349881
1782829282454659000,6.3946591796875,0.0350742359906435,-0.024347967053949832,-0.01719519095616415
1782829282464588300,6.40458837890625,0.011212298887968063,-0.02746989846676588,-0.03494582383800298
1782829282474517000,6.41451708984375,-0.022518705800175665,-0.023557401198148725,0.033716519505064935
1782829282484446000,6.424446044921875,-0.026813772645592687,-0.03693301559984684,0.11254095856342464
1782829282494374100,6.4343740234375,-0.10644202063381672,-0.03646612874045968,0.07447018023845739
1782829282504303000,6.44430322265625,-0.12619126172065734,-0.0234910579636693,-0.011485709001868962
1782829282514232000,6.454232177734375,-0.14374913024306296,0.00808116125538945,-0.01725463409239892
1782829282524161000,6.4641611328125,-0.13911328713595866,-0.012096095985174178,0.07237144526038318
1782829282534090000,6.474090087890625,-0.13890052116811274,-0.049044016893208024,0.13032118286592886
1782829282544018000,6.484017822265625,-0.08367313946485519,-0.01828822862356901,0.11132190162986516
1782829282553947100,6.493947021484375,-0.07059855383634567,0.026280688682198523,0.08688979995641857
1782829282563876000,6.5038759765625,-0.10571545992493629,0.038080724330246445,0.0931159627285786
1782829282573805000,6.51380517578125,-0.16251988168656825,0.029552988351136445,0.11824447656781412
1782829282583734000,6.523734130859375,-0.13433540520966053,0.028637627071887252,0.10183909341562539
1782829282593663200,6.533663330078125,-0.17207155388593673,0.04669730763658881,0.05554517894815653
1782829282603591200,6.543591064453125,-0.15791501823961734,0.015696458564698694,0.03721817095046863
1782829282613520100,6.55352001953125,-0.11896364855468272,-0.024968875431269407,0.059572224240843206
1782829282623449000,6.563448974609375,-0.07569441567063331,-0.04746230065971613,0.05679057133279275
1782829282633378000,6.5733779296875,-0.07605389663279057,-0.0794160665422678,0.07346443269543815
1782829282643307300,6.583307373046875,-0.0784615422964096,-0.11495602034851908,0.057622286616312336
1782829282653236200,6.593236328125,-0.10172083733081817,-0.06821618874445558,0.019249324174108913
1782829282663164200,6.6031640625,-0.07018588138222694,-0.0362616922095418,-0.016529205894679763
1782829282673093000,6.613093017578125,-0.06070201372206211,-0.031011662726849316,-0.034771389719704164
1782829282683022000,6.62302197265625,-0.07755611788928508,-0.04013897203430533,-0.030609182873181998
1782829282692951300,6.632951416015625,-0.0534825838625431,-0.07502952202111482,-0.010547665533353574
1782829282702880300,6.64288037109375,0.01506838979423046,-0.08701791984811424,-0.007198268340481445
1782829282712808200,6.65280810546875,-0.02336333993077278,-0.05419701574221253,0.0018360837202053516
1782829282722737200,6.662737060546875,0.010636544826626777,-0.045793929056078195,0.013337711810413747
1782829282732666000,6.672666015625,0.017531565037369728,0.011765548856556415,0.00031970150761771943
1782829282742595000,6.682594970703125,0.00139817636013031,0.022148703444004058,-0.034221952843130565
1782829282752524000,6.69252392578125,-0.06372808354496956,-0.0009530629411339759,-0.0019556001803372053
1782829282762453000,6.702452880859375,-0.05273088871240616,-0.036045857501775025,0.053295897617447185
1782829282772381200,6.712381103515625,-0.07003858186602592,-0.03946984060108662,0.08687984481798484
1782829282782310000,6.722309814453125,-0.07833353200256823,-0.045617549575865265,0.0686239384282846
1782829282792239000,6.732239013671875,-0.08908113598823547,-0.014015665870904921,0.04957319643304217
1782829282802168000,6.74216796875,-0.14729308646023273,0.007539601724594831,0.034941394258057694
1782829282812097000,6.752096923828125,-0.14730828402936458,0.02747252881526947,-0.001177432581805624
1782829282822025000,6.76202490234375,-0.1910731914758682,-0.006916501390188932,-0.0018860649083508178
1782829282831954000,6.771953857421875,-0.10654372744262218,-0.02403203297257423,0.031449821248673834
1782829282841883100,6.781883056640625,-0.11380524287819861,0.01022752563431859,0.06723620583035517
1782829282851812000,6.79181201171875,-0.08184300142824649,-0.043551995348185296,0.054676908213645216
1782829282861741000,6.801740966796875,-0.10900164198875427,-0.04557166460752487,0.08886692698197439
1782829282871670000,6.811669921875,-0.07288695703446865,-0.040829876907914876,0.07339220314286649
1782829282881599000,6.821598876953125,-0.07821019788384437,-0.052389235667884344,0.06237977420855313
1782829282891528200,6.831528076171875,-0.092334584826231,-0.0386522406078875,0.04910700825997628
1782829282901457200,6.84145703125,-0.06733984430134296,-0.03560132860466838,0.05928412801446393
1782829282911386000,6.85138623046875,-0.06640694736540317,-0.04234130438417196,0.04109986208886839
1782829282921315000,6.861315185546875,-0.03210895644426345,-0.011936813770234584,-0.011747839669929816
1782829282931243800,6.871243896484375,-0.09366378760337829,-0.029564532658457755,0.013460726268729194
1782829282941172200,6.881172119140625,-0.009902969855070113,-0.04331511785238981,0.10118135102610103
1782829282951101200,6.89110107421875,-0.010690320840477942,0.006750643303990364,0.15048883202793076
1782829282961030000,6.90102978515625,0.017409984484314918,0.012598492549359798,0.252119926982373
1782829282970958800,6.910958740234375,-0.011243278548121452,-0.04801745032444596,0.17791300992313772
1782829282980888000,6.92088818359375,-0.014147183296084402,0.03523088785707951,-0.019739477744651956
1782829282990816000,6.93081591796875,-0.1297001466244459,0.10613310081511736,0.043755390699487175
1782829283000745000,6.940744873046875,-0.20568214706480503,-0.014810761771351098,0.0026598942584823817
1782829283010674000,6.950673828125,-0.3220148625940084,-0.08800298536270856,0.06475157224065624
1782829283020603000,6.960602783203125,-0.35480537156164643,-0.0941587315134704,-0.00802857255162671
1782829283030532000,6.970531982421875,-0.2569914785414934,0.01407514097318053,-0.05595687415474094
1782829283040461000,6.9804609375,-0.21304887644052503,0.0303675196044147,-0.08652363352514802
1782829283050389000,6.990388916015625,-0.13373334766328335,-0.026916502367705104,-0.01350846526743844
1782829283060318000,7.00031787109375,-0.08482172497808933,-0.09052227470725774,0.06038474620012566
1782829283070247000,7.010246826171875,-0.021091887867450712,-0.12297522228360175,0.08509348199102096
1782829283080176000,7.020176025390625,0.03838964414894581,-0.1244208910472691,0.1161489290606696
1782829283090105000,7.03010498046875,0.10087561867833136,-0.08392959844395517,0.11676622070879675
1782829283100033000,7.040032958984375,0.0955932943612337,-0.014600772282481193,-0.004667818281101062
1782829283109962000,7.0499619140625,0.02804886739850044,-0.003941723363101482,0.03628018684745766
1782829283119891000,7.059890869140625,-0.028104981499910354,-0.03773921741619706,0.066117152372282
1782829283129820200,7.069820068359375,-0.09462240350246429,-0.021280250046402216,0.008583356890175491
1782829283139749000,7.0797490234375,-0.20695406669676303,-0.0006245616391301155,0.05984679426536895
1782829283149678000,7.089677978515625,-0.22381460060477257,-0.04753785011395812,-0.05579866051888093
1782829283159606000,7.09960595703125,-0.26729835302233695,-0.03873772693425417,-0.24690959018925204
1782829283169535000,7.109534912109375,-0.1651186660081148,0.0006549567773938179,-0.13456342354556544
1782829283179464200,7.119464111328125,-0.053850248131155964,-0.04634425641521811,-0.14217693075658752
1782829283189393200,7.12939306640625,0.00978548095524311,-0.006582008738815784,0.02724176139985211
1782829283199322000,7.139322021484375,-0.019902385821938512,0.027089374716579913,0.19656616286896167
1782829283209250800,7.149250732421875,0.0563759672164917,0.043202158997207876,0.21188246300965546
1782829283219179000,7.159178955078125,0.04228314445614814,0.10071414450630545,0.014494005706068128
1782829283229108000,7.16910791015625,-0.01259703124463558,0.0902168620198965,-0.08267648397716693
1782829283239037000,7.179036865234375,-0.10892448509931564,0.012071546065807341,-0.04154679300561547
1782829283248966000,7.1889658203125,-0.09965046079754829,-0.07487491598129271,-0.010748197640711442
1782829283258894800,7.198894775390625,-0.11999766777753829,-0.09340689023286104,-0.06393652039756997
1782829283268822800,7.20882275390625,-0.112163320890069,-0.07599354474768043,-0.08865173159502446
1782829283278752000,7.218751953125,-0.03331891675591469,0.005031418295949697,-0.07397784841055981
1782829283288681000,7.228680908203125,-0.02644201672375202,0.07140051786899566,0.0016730671867087948
1782829283298610000,7.23860986328125,-0.04307634066045284,0.05138897258415818,0.0038921788539068073
1782829283308539000,7.248538818359375,0.0982248119086027,0.048038200851529836,-0.07965809513721614
1782829283318468000,7.258468017578125,0.09233341578245162,0.0494165034674108,-0.05043293223464861
1782829283328396000,7.26839599609375,0.027248656931519507,-0.04602043128833174,0.03904104812922887
1782829283338325000,7.278324951171875,0.04175707475543022,-0.07999182060360908,0.05061879649583716
1782829283348254000,7.28825390625,-0.02153729354739189,-0.0676931877836585,0.1229640067698434
1782829283358183000,7.298182861328125,-0.04250058659911155,-0.06838058552592992,-0.1007104547118768
1782829283368112000,7.308112060546875,-0.0919032076716423,0.00887552650347352,-0.1311698173182085
1782829283378041000,7.318041015625,-0.23414193335175512,-0.020177695631980894,0.04170067752622999
1782829283387969000,7.327968994140625,-0.2320744794279337,-0.12136632578223942,0.004788472960615763
1782829283397898000,7.33789794921875,-0.1832137101471424,-0.06796352915763855,-0.039503482575784434
1782829283407827000,7.347826904296875,-0.2083142491340637,-0.05303995466157794,-0.06424294686508365
1782829283417756200,7.357756103515625,-0.09659750296771526,-0.09767375389710069,-0.10988926587770692
1782829283427685000,7.36768505859375,0.043724575436115264,-0.021510113279521462,-0.04328041186518967
1782829283437614000,7.377614013671875,0.026374796706438063,-0.006503682805597781,0.0760883423250867
1782829283447542000,7.3875419921875,-0.07089724452197552,-0.09986278837397694,0.037653929735941345
1782829283457471200,7.39747119140625,-0.06064414605498313,-0.07057093517705798,-0.08933884620950557
1782829283467400200,7.407400146484375,-0.17238018144369124,-0.04908113403320312,-0.026384012059355155
1782829283477329000,7.417328857421875,-0.1590191800892353,-0.07117007011398672,0.04461532286391593
1782829283487257900,7.4272578125,-0.10731646538078785,-0.010850187577307224,0.035574773957883006
1782829283497186000,7.43718603515625,-0.1153314295321703,0.038290129297226666,0.05107724888701923
1782829283507115000,7.447114990234375,-0.11881576451659202,0.02634191735014319,0.0598071655078791
1782829283517044000,7.4570439453125,-0.16344459531605243,-0.024956308210641143,0.08655406519602983
1782829283526973000,7.466972900390625,-0.12470248446762561,-0.03644187108203768,0.07610016976019833
1782829283536902000,7.47690185546875,-0.13259879067540167,-0.01826338644325733,0.0678397201148793
1782829283546831000,7.4868310546875,-0.04009118736982345,-0.04855155720114707,-0.0019604955511633307
1782829283556759000,7.496759033203125,-0.007640285620093345,-0.012413637501746415,-0.06870463898167944
1782829283566688000,7.50668798828125,-0.06284487096965313,-0.03232552180439233,-0.05526041632317938
1782829283576617000,7.516616943359375,-0.043378538477420805,-0.08350216681212186,0.00930822796546854
1782829283586546000,7.5265458984375,-0.08653262054920197,-0.0686309070251882,0.03683724990806077
1782829283596475100,7.53647509765625,-0.018859598770737646,-0.03515153901055455,0.026035162089066578
1782829283606404000,7.546404052734375,-0.014666823256015777,-0.024220395151525735,-0.09435188859854825
1782829283616332000,7.55633203125,-0.014375146833062171,-0.026652152343094346,-0.15227299376465378
1782829283626261000,7.566260986328125,0.046025838115811346,-0.01716696950867772,-0.021700338621996343
1782829283636190000,7.57618994140625,-0.02003507229089737,-0.06249050457403063,0.0568317116273567
1782829283646119200,7.586119140625,-0.010739420679211615,-0.08036182295978068,0.03202063883999363
1782829283656048000,7.596048095703125,-0.02091127060353756,-0.03648673313707113,0.0455489915514132
1782829283665977000,7.60597705078125,-0.06374971085488795,-0.03618468145057559,0.0401233132408699
1782829283675905000,7.615905029296875,-0.06187398011088371,-0.008918050470948218,0.05765090535602067
1782829283685834000,7.625833984375,-0.06519581800997257,0.038846009614318604,0.057639351915544826
1782829283695763200,7.63576318359375,-0.15580489421784877,-0.017856851468980313,0.003269856550102122
1782829283705692200,7.645692138671875,-0.08647358383834361,-0.05291793571710586,-0.062139380448264996
1782829283715621000,7.65562109375,-0.1419347742974758,-0.00796381848603487,-0.010730725916102527
1782829283725549800,7.6655498046875,-0.19119711011648177,-0.09801394563689828,0.026962670463835818
1782829283735478000,7.67547802734375,-0.11721943523585795,-0.076912851549685,0.03074457275588065
1782829283745407200,7.6854072265625,-0.17253858687579632,0.01948839819356799,0.10104551361883059
1782829283755336000,7.6953359375,-0.1809656389594078,-0.05622559896036982,0.024025959424814208
1782829283765265000,7.705264892578125,-0.14252631044983863,-0.028007804735749958,-0.019501577335549518
1782829283775193900,7.71519384765625,-0.07009294240176678,0.013753069411963224,0.028517005500057712
1782829283785121800,7.725121826171875,-0.027500585865974425,-0.039489129823446274,0.07299997068857773
1782829283795051000,7.735051025390625,-0.0342857159614563,-0.07761866173148155,0.08083739544912241
1782829283804980000,7.74497998046875,0.041861704173684115,-0.029696050083637234,-0.012450645043887197
1782829283814909000,7.754908935546875,0.05611293236613273,0.0010725976675748825,-0.018923731781821697
1782829283824838000,7.764837890625,-0.07122808391153812,-0.06264511061385274,0.01534615642284043
1782829283834767000,7.77476708984375,-0.026022330006957053,-0.10246186495646833,-0.06936193384663202
1782829283844695000,7.784695068359375,0.015796119546890256,-0.002940437366068363,0.025064463026542215
1782829283854624000,7.7946240234375,-0.04731061722934246,-0.01574482775107026,0.004961220870260149
1782829283864553000,7.804552978515625,-0.10104629907011985,-0.019195991118252275,-0.07455628761933185
1782829283874482000,7.81448193359375,-0.22326982620358465,0.02483794252797961,-0.05968148416844196
1782829283884410400,7.824410400390625,-0.07325871295630931,0.021535832242667675,-0.1354228351201862
1782829283894339600,7.834339599609375,0.004122048366069793,0.08353650747314095,-0.038825103823607786
1782829283904267500,7.844267578125,-0.04012041346430778,0.04009177189171314,0.047607855743402615
1782829283914196500,7.854196533203125,-0.07927402772307396,-0.0224757434412837,0.017087118338653815
1782829283924125400,7.86412548828125,-0.04996960730552673,0.0287925253726542,0.018665336573962122
1782829283934054400,7.874054443359375,-0.07242167761027812,0.025083149460703134,0.06259331649453378
1782829283943983600,7.883983642578125,-0.0994236663043499,-0.01826221739947796,0.038143688297551125
1782829283953912600,7.89391259765625,-0.10341945794224738,-0.024514117401093244,-0.05167100439593195
1782829283963840500,7.903840576171875,0.03345569487810135,-0.04235051060393452,-0.06977145536243916
1782829283973769500,7.91376953125,0.04963058460950851,-0.030258214011043307,0.05457458948348649
1782829283983698400,7.923698486328125,-0.03201075676679611,-0.09725611300691962,0.07923679185207001
1782829283993627600,7.933627685546875,-0.015333178210258484,-0.06251154736205936,0.011107596404477954
1782829284003556600,7.943556640625,-0.07764145808517932,0.0348879196383059,-0.05282735309051349
1782829284013485300,7.9534853515625,-0.11969488543868065,0.0211653914950788,-0.04637021284038201
1782829284023413500,7.96341357421875,-0.13556173213422298,0.013620967464894055,0.0456994557056576
1782829284033342500,7.973342529296875,-0.14678981311321257,-0.021150047795474528,0.03609203473106026
1782829284043271400,7.983271484375,-0.13101006017923356,-0.047962066875398154,0.017483561177179217
1782829284053200400,7.993200439453125,-0.10317629683613777,-0.06387669823542237,0.043647409413522104
1782829284063129300,8.00312939453125,-0.06152911219596863,-0.048571284814923996,0.06104980424642562
1782829284073058300,8.013058349609375,-0.06446399660408496,0.007291472182422876,0.01605866577348206
1782829284082986200,8.022986328125,-0.08619184428751468,0.04436521142721176,-0.05822545840754173
1782829284092915500,8.03291552734375,-0.11396306378841399,0.06683978582471609,-0.01602314236895181
1782829284102844400,8.042844482421875,-0.11644085207879543,0.04484992620423436,0.04303678040162194
1782829284112773400,8.0527734375,-0.09159750272333621,0.033096944568306204,0.07618391165405046
1782829284122702300,8.062702392578124,-0.07749941926598548,0.0032001112155616283,0.05299727086389903
1782829284132631600,8.072631591796876,-0.0684182871878147,-0.02090016468763351,0.047295314628933556
1782829284142559500,8.0825595703125,-0.10632862338721752,-0.0808216955564916,0.07002277694211807
1782829284152488400,8.092488525390625,-0.059742228779196736,-0.08201821186468004,0.08302441149884834
1782829284162417400,8.10241748046875,-0.07227730070352553,-0.0005899287171661854,0.0209783810229972
1782829284172346400,8.112346435546876,-0.08045125480890274,0.02029343096613884,-0.021959176787850445
1782829284182275600,8.122275634765625,-0.14110475321412086,0.0075832947358489035,-0.009636030581151134
1782829284192204500,8.13220458984375,-0.17624036400318144,-0.044835167026519775,0.03087893515869509
1782829284202132500,8.142132568359376,-0.1975485249698162,-0.07948474786430597,0.01563264978060033
1782829284212061400,8.1520615234375,-0.19787819531559944,-0.09703852473348379,-0.04834285092048812
1782829284221990700,8.16199072265625,-0.08810030825734139,-0.06219824362918734,-0.006052861165022477
1782829284231919600,8.171919677734374,-0.045290509578585623,-0.013611907375603914,0.06206136047572363
1782829284241848600,8.1818486328125,-0.050586277899146076,-0.022139789485186336,0.026005136843561195
1782829284251777500,8.191777587890625,-0.07299450906217098,-0.04541238239258528,0.031790213917871006
1782829284261705500,8.20170556640625,-0.06115794079601764,-0.04085968752428889,-0.0371440645346418
1782829284271634700,8.211634765625,0.047752515777945516,-0.003410831356793642,-0.050601626165327616
1782829284281563600,8.221563720703125,0.0630289953649044,0.0041834231644868845,0.011801962743652984
1782829284291492400,8.231492431640625,0.04505786986649036,-0.06319675314724445,0.042012999444990415
1782829284301421300,8.24142138671875,-0.01045125138759613,-0.07067834107428789,0.04728223595165182
1782829284311350500,8.2513505859375,-0.026280688682198523,-0.052929918415844435,0.00855761966072023
1782829284321278500,8.261278564453125,-0.03678162443041801,0.003936754927039147,-0.017822656938433646
1782829284331207400,8.27120751953125,-0.0952145241767168,0.036940468253940345,0.06667767233187333
1782829284341136400,8.281136474609376,-0.17384323973357677,-0.00908595438376069,0.08098171755694784
1782829284351065300,8.2910654296875,-0.23999533555507657,-0.024775983207672832,0.021032138770539312
1782829284360994600,8.30099462890625,-0.15778993055522442,-0.01803688421100378,-0.010293238681135698
1782829284370923500,8.310923583984374,-0.09210077607035637,-0.04635930785387754,0.06530171693670563
1782829284380851500,8.3208515625,-0.09974339977800846,-0.08744140595719217,0.1331401675431058
1782829284390780400,8.330780517578125,-0.008860767325758934,-0.09118672996535897,0.08869867600928992
1782829284400709400,8.34070947265625,0.023201427367329597,-0.007170476151257753,0.045284513662639074
1782829284410638600,8.350638671875,-0.038675475353002545,-0.0030884675346314907,0.01768888819066342
1782829284420567600,8.360567626953125,-0.06450725122392177,-0.02201835506260395,0.03051029364254791
1782829284430496500,8.37049658203125,-0.14165771092176438,-0.03191489517688751,0.05440161210333463
1782829284440424400,8.380424560546874,-0.11844400859475135,-0.03403101054802537,0.06599614720796235
1782829284450353400,8.390353515625,-0.09646773910820483,-0.030959055756777522,0.0553512272786349
1782829284460282600,8.40028271484375,-0.08634206641316414,-0.03604337328374386,-0.00032594401873648165
1782829284470211600,8.410211669921875,-0.11094634631574153,-0.04271861326396465,0.04433423176705837
1782829284480140500,8.420140625,-0.09634908116459846,-0.08475289752557873,0.08087896043537184
1782829284490069500,8.430069580078126,-0.1067559088885784,-0.06004457272663712,0.03894746982795186
1782829284499997400,8.43999755859375,-0.09068623309731483,-0.050130643086135386,0.014872689125617034
1782829284509926700,8.4499267578125,-0.08379764262735843,-0.0541144520252943,0.006530726076150312
1782829284519855600,8.459855712890626,-0.06699789899587631,-0.015120266111940145,0.0516473997580586
1782829284529784300,8.469784423828125,-0.049341246274113654,0.022929916949570178,0.055228687744354826
1782829284539713300,8.47971337890625,-0.07770458644926548,0.02438362288922071,0.03628935196802485
1782829284549642500,8.489642578125,-0.0656301177740097,0.024046353758871555,0.03429663008111529
1782829284559570400,8.4995703125,-0.08001052530407905,0.03462444639652967,0.04410031341332942
1782829284569499400,8.50949951171875,-0.03297521788477897,0.015794804372638464,0.04030462919110432
1782829284579428400,8.519428466796874,0.006202361771464347,0.015788666892796753,0.04721918521937914
1782829284589357300,8.529357421875,0.05302607226669788,-0.00005436053574085235,0.06033467824701219
1782829284599286500,8.53928662109375,0.09096271195113659,-0.018126169929653404,0.055922862287284804
1782829284609215500,8.549215576171875,0.006537877336144447,-0.037811844260990615,0.05615892693232745
1782829284619143400,8.559143310546874,0.004547580301761627,-0.06263634278550743,0.0012610603112261742
1782829284629072400,8.569072265625,-0.020071312648057938,-0.013711714488267898,-0.03850537491652649
1782829284639001300,8.57900146484375,-0.13710720801055432,-0.03732625270113349,-0.00757735361882951
1782829284648930600,8.5889306640625,-0.2331932543247938,-0.06797711929157375,-0.04613997971450444
1782829284658859500,8.598859619140624,-0.19706687893271446,-0.02552957805395126,-0.04455953755606897
1782829284668788500,8.60878857421875,-0.18448270716965198,0.002589431971311569,-0.03275628703762777
1782829284678716400,8.61871630859375,-0.1954179426819086,-0.028287206199020146,-0.05822334408226888
1782829284688645400,8.628645263671874,-0.14602818109095095,-0.04284647742733359,-0.020541446343879215
1782829284698574600,8.63857470703125,-0.05202595531344414,-0.032551731775701045,0.04559406823557801
1782829284708503600,8.648503662109375,-0.02056055746972561,-0.05473652944639325,0.03626074236147105
1782829284718432500,8.6584326171875,-0.05699205328822136,-0.06691358171328902,0.05348748379994649
1782829284728361500,8.668361572265624,-0.0572732083171606,-0.05482917616590857,0.04548871729811653
1782829284738289400,8.678289306640625,-0.03245733149051666,-0.042704584738612175,0.08095778869208879
1782829284748218600,8.688218505859375,-0.08752163158655166,-0.008245704167336224,0.07565958181926981
1782829284758147600,8.698147705078124,-0.08635784850418567,0.001691314087808132,0.0008499222270678729
1782829284768076500,8.70807666015625,-0.07297229723036289,0.02697466229572892,0.014234258791338652
1782829284778005200,8.718005126953125,-0.07495733356773852,0.005384031125903129,0.0036149710601894184
1782829284787934500,8.7279345703125,0.004485036459565162,-0.018193389946967363,0.01390046482628677
1782829284797862700,8.737862548828126,-0.01865852324068546,-0.0021720833420753476,0.1024582116946578
1782829284807791400,8.747791259765625,-0.04586392555236816,-0.041508945213258264,0.09984314295859076
1782829284817720300,8.75772021484375,-0.1289022742450237,-0.031699498860538,0.09810328615447506
1782829284827649300,8.767649169921874,-0.20850772587954997,0.00033113165050745007,0.06197124820658937
1782829284837578500,8.77757861328125,-0.18530454494655133,0.02469765727445483,-0.04405894935647957
1782829284847507500,8.787507568359375,-0.11511866356432437,0.039913931106776,-0.0615713165030349
1782829284857435400,8.797435302734375,-0.07445113761126995,-0.014073825798928737,0.003777294615586288
1782829284867364400,8.8073642578125,-0.04400397689938545,-0.06984305929392576,-0.001727810173295438
1782829284877293600,8.81729345703125,-0.00898468596637249,-0.07733487635403871,-0.049331373334070665
1782829284887221800,8.8272216796875,-0.05457096362113952,-0.09431582177132368,-0.02374163975783158
1782829284897150700,8.837150634765624,-0.06870353386998176,-0.10290011024326086,-0.027427027439419178
1782829284907080000,8.847079833984376,-0.0925654709726572,-0.061106356739252805,-0.056131198675185436
1782829284917009000,8.8570087890625,-0.10739011513888835,-0.06303425606191158,-0.05761075144214555
1782829284926936800,8.866936767578125,-0.03231470814943314,-0.07627294621095061,-0.07049333532962482
1782829284936865800,8.87686572265625,0.007743161472678184,-0.022414076381921767,-0.03439194368175231
1782829284946794800,8.886794677734375,0.0060620765179395675,-0.05985854863524437,0.021571442412165923
1782829284956724000,8.896723876953125,0.00044482115805149076,-0.0991860581561923,0.02643271460586693
1782829284966653000,8.90665283203125,-0.015805471897125244,-0.05254954079613089,0.016366124287457203
1782829284976582000,8.916581787109376,-0.03352525298297405,-0.026604221548140048,0.010251806125626898
1782829284986509800,8.926509765625,-0.1208119067698717,-0.0441825483366847,0.039499400055711155
1782829284996438800,8.936438720703125,-0.1197925005942583,-0.02423237785026431,0.0012726594174746423
1782829285006368000,8.946367919921874,-0.053445174461603163,0.03204451290592551,-0.07850971055338159
1782829285016297000,8.956296875,-0.08226619527637959,0.02516469026431441,-0.004882506777974777
1782829285026226000,8.966225830078125,-0.15740531515181064,-0.046342941240966315,0.08965748370462097
1782829285036154600,8.976154541015624,-0.14619418530762196,-0.08360591944754123,0.09075714290905744
1782829285046082800,8.986082763671876,-0.0924649332076311,-0.03766629831045866,0.06494256020153406
1782829285056012000,8.996011962890625,-0.08900164101123809,-0.005457096362113952,0.08432453431198372
1782829285065940700,9.005940673828125,-0.0803700062662363,-0.010538783540576696,0.08500981316240504
1782829285075869700,9.01586962890625,-0.05723521439433098,0.028408932882547377,0.006686788854119367
1782829285085798700,9.025798583984376,-0.050182373273372646,0.043612785624712706,0.008002963186334817
1782829285095727900,9.035727783203125,-0.055843467774987214,-0.02749050286337733,0.036508017953694794
1782829285105655800,9.04565576171875,-0.034982466053962706,-0.05639905583113432,0.0448563696447527
1782829285115584800,9.055584716796876,-0.03871522284150123,-0.04748568153530359,0.05311545388347003
1782829285125513700,9.065513671875,-0.07326864982843398,-0.08025076380074024,0.037981693535717204
1782829285135442700,9.075442626953125,-0.07169102524816989,-0.05355433392450213,-0.010035688290069811
1782829285145372000,9.085371826171874,-0.11492284873127936,-0.016249124011397362,0.007430186533369123
1782829285155300900,9.09530078125,-0.11773030736744403,-0.022656506835669277,-0.042558061540545894
1782829285165228800,9.105228759765625,-0.05546294402480125,0.021500322537869213,-0.057471758529986254
1782829285175157800,9.11515771484375,-0.08370587269067764,-0.00658697717487812,-0.0068709086827933785
1782829285185087000,9.1250869140625,-0.0988093337982893,-0.07353080789595842,0.03267368222151417
1782829285195016000,9.135015869140625,-0.05929974570870399,-0.07342325586825608,0.037390627740812483
1782829285204945000,9.14494482421875,-0.059169397327303884,-0.05925532204508781,-0.0126472042290261
1782829285214873900,9.154873779296874,0.026450784552097317,-0.057870881949365134,-0.024479256150266155
1782829285224802800,9.164802734375,0.05624620335698127,-0.02965118802860379,-0.004841014856961556
1782829285234731000,9.17473095703125,-0.012315876215696334,-0.044010845031589266,0.007059814284439198
1782829285244660000,9.184659912109375,0.01231996786892414,-0.044379824474453926,-0.00648315147422254
1782829285254589000,9.1945888671875,0.02939034513533115,0.010644289741665125,-0.011336222095158882
1782829285264518000,9.204517822265625,-0.06780629276931285,-0.01697948411256075,-0.0012646633406868204
1782829285274446800,9.21444677734375,-0.10441431419849395,-0.047033407723158595,0.013170579649158753
1782829285284375800,9.224375732421874,-0.13581132298111914,0.017783786232769487,0.023345493746828285
1782829285294304000,9.234303955078126,-0.18613398150801658,-0.004814706805348396,-0.01718867901698686
1782829285304233000,9.24423291015625,-0.2099579246878624,-0.0381863766618073,-0.023835610784753224
1782829285314161700,9.25416162109375,-0.21959669064879417,-0.037095074293762444,0.029502454607142133
1782829285324091000,9.2640908203125,-0.13308920454084872,-0.026943974896520374,0.06758817020633723
1782829285334019800,9.274019775390625,-0.08238076156675815,-0.025792320643365382,0.06004655462116934
1782829285343948800,9.28394873046875,-0.032390111473202705,-0.040970308291912075,0.013842432762426323
1782829285353876700,9.293876708984374,-0.005377601385116577,-0.04472629982456565,0.033771035304432734
1782829285363805700,9.3038056640625,0.016162614771723746,-0.04618438967838883,0.05139454837499652
1782829285373735000,9.31373486328125,0.0017044658303260803,-0.028170009560137984,0.0310945050049806
1782829285383663900,9.323663818359375,-0.05613046802282333,-0.04893573421314359,0.015187050021125468
1782829285393591000,9.333591064453126,-0.018692425510287283,-0.04100815608426928,-0.0023859133224235847
1782829285403519000,9.34351904296875,-0.07725333555042743,0.012597908027470111,0.04088180802455172
1782829285413448000,9.353447998046875,-0.17082476869523525,-0.048075756382942196,0.016224361746187785
1782829285423377000,9.363376953125,-0.15198971984386442,-0.037479397436231375,-0.04345603329357691
1782829285433305900,9.373305908203125,-0.15223346547186373,-0.012890607363730669,-0.028259245046437717
1782829285443234800,9.38323486328125,-0.11027005448937416,-0.0590709053888917,0.015676169261918404
1782829285453163800,9.393163818359374,-0.04493044409453869,-0.04984978031814098,0.028667574685579164
1782829285463092000,9.403092041015626,-0.048126025265455244,-0.03512830426543951,0.02312980745282257
1782829285473020700,9.413020751953125,-0.048507718059420585,-0.05101224822625518,0.02374817909647245
1782829285482949600,9.42294970703125,-0.046046880903840064,-0.024576368982344863,0.016563156113342848
1782829285492878800,9.43287890625,-0.07501286314725876,-0.012690408616513013,0.010395920454186853
1782829285502807800,9.442807861328125,-0.10412965203821659,-0.025990473563969135,-0.008073183444910682
1782829285512736800,9.45273681640625,-0.08144669558703899,-0.022431319777667522,-0.04946832498619333
1782829285522664700,9.462664794921874,-0.0673293229073286,-0.024021365448087452,-0.032610935166629496
1782829285532594000,9.472593994140626,-0.05724924291968345,-0.08594839092046022,-0.015408065510797313
1782829285542523000,9.48252294921875,-0.03888298062384128,-0.10814911681264638,-0.0031724423239240422
1782829285552451800,9.492451904296875,-0.04455050486624241,-0.0921111513338983,0.01519771982890088
1782829285562380800,9.502380859375,-0.03151040602922439,-0.07949526925832033,0.04244736314110923
1782829285572309800,9.512309814453126,-0.06363806717395783,-0.030069121179729697,0.04998887826157734
1782829285582239000,9.522239013671875,-0.04563303940594196,0.0037453240081667897,0.022937965541996525
1782829285592167000,9.5321669921875,-0.08942015868425368,0.023846593403071163,-0.003686990550206974
1782829285602095900,9.542095947265626,-0.1294867961347103,-0.010267419253289698,0.01812269704764476
1782829285612024800,9.55202490234375,-0.1357218911319971,-0.02400529109612107,0.055058354412438344
1782829285621954000,9.5619541015625,-0.06240355694293975,0.004111819233000278,0.022897964608459734
1782829285631883000,9.571883056640624,-0.02803717696070671,0.030045594173669813,0.058740280628460456
1782829285641812000,9.58181201171875,-0.08734627501964569,-0.004897708913683891,0.08342356688426807
1782829285651740000,9.591739990234375,-0.11856675819158553,-0.037485096524655814,0.044627145732450295
1782829285661668900,9.6016689453125,-0.13575345531404018,0.004370031777769327,0.05332722890404984
1782829285671598000,9.61159814453125,-0.10063654922544955,-0.013430705589801072,0.003574378754897043
1782829285681526800,9.62152685546875,-0.10503858357667922,-0.022712036415189502,-0.025341051478218284
1782829285691455700,9.631455810546875,-0.07706219689249992,-0.010935235512256622,-0.0025105100997607223
1782829285701384700,9.641384765625,0.01108779572546482,-0.007007979065924883,0.032274049628770445
1782829285711313000,9.65131298828125,0.011072013634443283,-0.004662146592140198,0.017519440774735995
1782829285721241900,9.661241943359375,0.0004845686465501785,-0.03312207900956273,-0.01167584529608721
1782829285731170800,9.6711708984375,-0.1056365494698286,-0.0251652747862041,-0.008139618010935374
1782829285741099800,9.681099853515626,-0.1335737731873989,-0.05841989413425326,-0.020254407280136364
1782829285751028700,9.69102880859375,-0.1291296532601118,-0.01949102854207158,0.018038845555938314
1782829285760958000,9.7009580078125,-0.1320090080887079,-0.027857436479628083,0.00040900549257639796
1782829285770887000,9.710886962890624,-0.11985036826133727,-0.06148249657526612,-0.05670319901001639
1782829285780814800,9.72081494140625,-0.07245850248932838,-0.03480813240036368,-0.07558226509962696
1782829285790743800,9.730743896484375,-0.023507716837525366,0.0065638885602355,-0.059020307712815696
1782829285800672800,9.7406728515625,0.04781330605447292,-0.0059137540884315965,-0.007942819080490153
1782829285810602000,9.75060205078125,0.06535246987640857,-0.0001984451815485954,-0.01599224719047779
1782829285820531000,9.760531005859375,0.04245674745738506,-0.0025029227316379545,-0.04795045863599516
1782829285830460000,9.7704599609375,0.02743804202377796,-0.0007072714865207671,-0.0390542272712104
1782829285840387800,9.780387939453124,-0.04480477188825607,-0.01250906070023775,0.017077836770366412
1782829285850316800,9.79031689453125,-0.10128244591355323,-0.045063276693969964,0.03751456921431236
1782829285860246000,9.80024609375,-0.14223346498310566,-0.04779372457116842,0.12364061825661919
1782829285870175000,9.810175048828125,-0.145002345174551,-0.0829218827061355,0.09791479611136018
1782829285880104000,9.82010400390625,-0.1362877083212137,-0.04910714525729418,0.022790734524454456
1782829285890034200,9.8300341796875,-0.1419312671661377,-0.020579700561612842,0.016643961698014752
1782829285899963100,9.839963134765625,-0.0639700756072998,0.006360474942624568,0.013796497561736032
1782829285909891000,9.84989111328125,-0.07080956623852253,0.05663242619559169,0.037329006347223186
1782829285919820300,9.8598203125,-0.04765373157858848,0.01400397543311119,-0.006779193545039743
1782829285929749200,9.869749267578126,-0.0677607000619173,0.01751841329485178,0.005029703546187375
1782829285939678200,9.87967822265625,-0.0767190825432539,0.02165449018627405,0.05580011269045062
1782829285949607200,9.889607177734375,-0.15058511374294756,0.036216391763091084,0.03527458543491084
1782829285959536400,9.899536376953124,-0.10627776998281478,0.0059440030962228775,0.12691888187546282
1782829285969464300,9.90946435546875,-0.059331894412636754,0.059063598865270614,0.08196598848709837
1782829285979393300,9.919393310546875,-0.08027823632955551,0.06690832101628184,0.017266708122682755
1782829285989322200,9.929322265625,-0.1321352648168802,0.0050024844624102114,0.043656597366975615
1782829285999251200,9.939251220703126,-0.22060440638661383,-0.0693991149187088,0.05958612033545505
1782829286009180400,9.949180419921875,-0.1428103880882263,-0.06434197765961289,0.03183230634379433
1782829286019109400,9.959109375,-0.09198211812674999,0.017100626274198293,0.006685149452881887
1782829286029037300,9.969037353515626,-0.021206454157829284,0.0019268764093518255,-0.07011860656598583
1782829286038967000,9.978967041015625,-0.06188040985167026,-0.020646482187509536,-0.07511836478176992
1782829286048896300,9.988896240234375,-0.10641279453933239,-0.02466930796280503,-0.06082822021788451
1782829286058825200,9.9988251953125,-0.04733107549548149,-0.029700287867337465,0.07524351183166728
1782829286068754200,10.008754150390626,-0.11447802757322788,-0.07265344053953886,0.06337486336024012
1782829286078683100,10.01868310546875,-0.153014386716485,-0.06263590439409017,-0.003024366489588283
1782829286088612400,10.0286123046875,-0.13052724509835242,-0.04154445491805672,-0.08847730660988018
1782829286098540300,10.038540283203124,-0.0921428616464138,0.0014294482812285422,-0.03946426481024828
1782829286108469200,10.04846923828125,-0.11306231555640697,-0.04832110944613814,0.034916926537081595
1782829286118398200,10.058398193359375,-0.06895838541388512,-0.07503302915245294,0.0339320071529597
1782829286128327200,10.0683271484375,0.004660977548360824,0.00047784664481878277,-0.03194385184331331
1782829286138256400,10.07825634765625,-0.007072714865207672,0.04193550006225705,-0.05040266039397102
1782829286148185300,10.088185302734376,-0.03733458213806152,0.007511252412945032,0.013582206357084214
1782829286158114300,10.0981142578125,-0.05410276158750057,0.021485417229682207,0.06973699140383396
1782829286168042200,10.108042236328124,-0.07255085694789887,0.04051102021709084,0.05777962346933782
1782829286177971200,10.11797119140625,-0.16139233896136282,0.04407952635362744,0.05461391684687696
1782829286187900400,10.127900390625,-0.17566402541995046,-0.011674655702710151,0.0490143067415338
1782829286197829000,10.1378291015625,-0.1138403141915798,0.0062644672222435475,0.01392834149718983
1782829286207758000,10.147758056640624,-0.06957213339805603,0.014628537072241305,0.021304911846911998
1782829286217687000,10.15768701171875,-0.053639820250868796,-0.030945173361897466,0.05616640698588453
1782829286227615200,10.167615234375,0.016132219633460045,0.003845131120830774,0.02895241265908116
1782829286237544200,10.177544189453124,0.011244447591900825,0.05643412714451551,-0.01598114241621806
1782829286247473200,10.18747314453125,-0.006790975314378738,0.03782528826445341,-0.026349086876446378
1782829286257402000,10.197402099609375,-0.11606851163506507,0.03574979716464877,0.04319492553882301
1782829286267331000,10.2073310546875,-0.12164134333133697,-0.004343436031788587,0.041552533193235285
1782829286277260300,10.21726025390625,-0.11867021856606005,0.030636107412725686,0.04005681017618626
1782829286287189200,10.227189208984376,-0.13643091618418693,0.03827785433754325,0.03835036701790522
1782829286297117200,10.2371171875,-0.12248656198382377,0.02442527007386088,-0.01682233106427011
1782829286307046100,10.247046142578125,-0.17366846768856048,0.044387861650437115,-0.02553722250428982
1782829286316975000,10.25697509765625,-0.13162030103206634,-0.019977935276180504,-0.0382792608433403
1782829286326904300,10.266904296875,-0.10191489859819412,0.0033313363797962663,-0.031092482011253014
1782829286336833300,10.276833251953125,-0.15514555352628231,-0.0027393618360161778,-0.07893370811911299
1782829286346762200,10.28676220703125,-0.0005102876096963882,-0.009820698399096727,0.08392210925724357
1782829286356690200,10.296690185546876,-0.09651508538126945,-0.05241349332630634,0.0565969941226067
1782829286366619100,10.306619140625,-0.06020809272527694,-0.030365327647328376,0.06710395318623631
1782829286376548400,10.31654833984375,-0.0881388867020607,-0.043383068522065873,-0.007392774849140551
1782829286386477300,10.326477294921874,-0.07475099734067917,-0.01240691550001502,0.00016329851964255794
1782829286396406300,10.33640625,-0.1153483806669712,0.004631751453876495,-0.036344874697679184
1782829286406335200,10.346335205078125,-0.21279519394040106,-0.04580123557969928,-0.07729420641693287
1782829286416264200,10.35626416015625,-0.26919278846681116,-0.09299845556244253,-0.12166474247323349
1782829286426192400,10.3661923828125,-0.22367723796069622,-0.03374854034483433,-0.14642943710191175
1782829286436121300,10.376121337890625,-0.18271978915035725,0.0756640205323696,-0.18137378136888146
1782829286446050000,10.386050048828125,0.5024240367144346,0.1358216982446611,0.012463029601424931
1782829286455979000,10.39597900390625,0.024282792863249778,0.05883914245963096,0.45587768185585736
1782829286465908200,10.405908203125,-0.11581073748171329,-0.21374270392358302,0.12589158465433864
1782829286475837200,10.415837158203125,0.051743631240725514,-0.08738938350901007,-0.10669585839756764
1782829286485765000,10.42576513671875,0.16482523601949214,0.1538316944487393,-0.06764233437925576
1782829286495694000,10.435694091796876,0.20423837799727915,0.10002703902497886,-0.052236958582466464
1782829286505623300,10.445623291015625,0.17424539079368112,0.07176891278997063,0.007177408215543255
1782829286515552300,10.45555224609375,0.2689110489159822,0.09301248408779501,0.07766720444778911
1782829286525481200,10.465481201171874,0.25098902325630185,0.025744828239828346,0.012860431421175598
1782829286535410200,10.47541015625,-0.23604572114646433,-0.055120998719334596,0.1096845736184623
1782829286545339100,10.485339111328125,-0.7167576922684907,-0.1748709753461182,0.1438116558189504
1782829286555267300,10.495267333984375,-0.7473281870990991,-0.17829473924972117,0.08772571192444302
1782829286565196300,10.5051962890625,-0.7026654540300369,-0.05409180180206895,0.013517598421964793
1782829286575125200,10.515125244140625,-0.7177776829659939,-0.07783625000491738,0.00905783340097405
1782829286585054200,10.52505419921875,-0.35791678158044815,-0.1753819936081767,-0.0016372275467030704
1782829286594983400,10.5349833984375,0.017016016730666158,-0.1719580835741013,-0.014748711119499056
1782829286604912400,10.544912353515626,0.019248305827379224,-0.10829634326361119,0.1313959176916629
