time,seconds_elapsed,z,y,x
1782829276169733600,0.109733642578125,0.01143733412027359,-0.01519887987524271,0.015562803484499454
1782829276179662600,0.11966259765625,0.01648402400314808,-0.08626560121774673,-0.011893322691321373
1782829276189591300,0.12959130859375,0.00812835618853569,-0.1445683240890503,-0.03041853755712509
1782829276199519500,0.13951953125,0.002385249361395836,-0.14202313125133514,-0.04370078817009926
1782829276209448400,0.149448486328125,-0.005417633801698685,-0.12545529007911682,-0.057720303535461426
1782829276219377400,0.15937744140625,-0.022161195054650307,-0.09533147513866425,-0.050912998616695404
1782829276229306400,0.169306396484375,-0.03255540132522583,-0.031676437705755234,-0.025874748826026917
1782829276239234600,0.179234619140625,-0.028249070048332214,0.009604421444237232,-0.008996166288852692
1782829276249163300,0.189163330078125,-0.02142859809100628,0.0012512067332863808,-0.01015041209757328
1782829276259092500,0.199092529296875,0.003082338720560074,-0.020865548402071,-0.014557944610714912
1782829276269021400,0.209021484375,0.02583005279302597,-0.024759098887443542,-0.02206999622285366
1782829276278950400,0.218950439453125,0.04064708203077316,-0.032598912715911865,-0.0246503334492445
1782829276288878300,0.22887841796875,0.043288636952638626,-0.04833842068910599,-0.020121004432439804
1782829276298807300,0.238807373046875,0.041488874703645706,-0.052949417382478714,-0.005312230903655291
1782829276308736500,0.248736572265625,0.030139032751321793,-0.056694142520427704,0.000529848039150238
1782829276318665500,0.25866552734375,0.016437336802482605,-0.06360824406147003,-0.007459901738911867
1782829276328594400,0.268594482421875,0.007033068221062422,-0.08312386274337769,-0.01056233886629343
1782829276338522400,0.2785224609375,-0.004502414725720882,-0.0873391181230545,-0.011572210118174553
1782829276348451300,0.288451416015625,-0.0115438811480999,-0.07251995801925659,-0.003589586354792118
1782829276358380500,0.298380615234375,-0.012826992198824883,-0.014835624024271965,0.014543344266712666
1782829276368309500,0.3083095703125,0.0017268024384975433,0.04861154779791832,0.027501631528139114
1782829276378237400,0.318237548828125,0.023285090923309326,0.07479734718799591,0.025455523282289505
1782829276388166400,0.32816650390625,0.031622301787137985,0.05193755030632019,0.02521749585866928
1782829276398095400,0.338095458984375,0.024943359196186066,0.008137337863445282,0.018564119935035706
1782829276408024600,0.348024658203125,0.01931672729551792,-0.03632117062807083,0.009099732153117657
1782829276417952500,0.357952392578125,0.011863072402775288,-0.075872041285038,0.003528664819896221
1782829276427881500,0.367881591796875,0.00659693730995059,-0.08115122467279434,0.004479412920773029
1782829276437810400,0.377810546875,0.008460883982479572,-0.05447380989789963,-0.0011201491579413414
1782829276447739400,0.387739501953125,0.01650272309780121,-0.02910139225423336,-0.018761955201625824
1782829276457668600,0.397668701171875,0.027860306203365326,-0.006412856746464968,-0.04023795202374458
1782829276467596500,0.407596435546875,0.028119709342718124,0.013320116326212883,-0.042576197534799576
1782829276477525500,0.417525390625,0.018877210095524788,0.011647650972008705,-0.025181494653224945
1782829276487454500,0.427454345703125,0.012205078266561031,0.00820660125464201,0.004438060335814953
1782829276497383400,0.437383544921875,0.017083723098039627,-0.003417030908167362,0.0252796933054924
1782829276507311600,0.4473115234375,0.02610539086163044,-0.019860707223415375,0.0307413749396801
1782829276517240600,0.457240478515625,0.034735631197690964,-0.012555921450257301,0.02594369277358055
1782829276527169500,0.46716943359375,0.03447593003511429,-0.0009586270898580551,0.015314830467104912
1782829276537098500,0.477098388671875,0.021474378183484077,-0.00012079719454050064,-0.009252563118934631
1782829276547027700,0.48702783203125,0.019128529354929924,-0.005153716076165438,-0.037129711359739304
1782829276556955600,0.49695556640625,0.015543915331363678,-0.019851967692375183,-0.06004940718412399
1782829276566884600,0.506884521484375,0.016880396753549576,-0.03090484067797661,-0.0575503408908844
1782829276576813600,0.5168134765625,0.019089223816990852,-0.03685513883829117,-0.03565462678670883
1782829276586742500,0.526742431640625,0.019183993339538574,-0.06393846869468689,0.0009371824562549591
1782829276596670500,0.53667041015625,0.008722830563783646,-0.08536625653505325,0.02802259474992752
1782829276606599700,0.546599609375,-0.003480742685496807,-0.0873367041349411,0.03296191245317459
1782829276616528400,0.5565283203125,-0.00840519368648529,-0.08240319788455963,0.016436196863651276
1782829276626457300,0.566457275390625,-0.004825093783438206,-0.03633129224181175,-0.0019238912500441074
1782829276636386300,0.57638623046875,0.0016426583752036095,0.005914698354899883,-0.014993887394666672
1782829276646314500,0.586314453125,-0.001376282423734665,0.014797883108258247,-0.015802785754203796
1782829276656243500,0.596243408203125,-0.012248105369508266,0.013465238735079765,-0.00938350334763527
1782829276666172400,0.60617236328125,-0.02746930718421936,-0.007571571506559849,0.003628919832408428
1782829276676101400,0.616101318359375,-0.036765336990356445,-0.018277479335665703,0.020557036623358727
1782829276686029300,0.626029296875,-0.0421953946352005,-0.013768223114311695,0.029783956706523895
1782829276695958300,0.635958251953125,-0.03858920931816101,-0.015172241255640984,0.0325605683028698
1782829276705887500,0.645887451171875,-0.038023509085178375,-0.026134103536605835,0.026424027979373932
1782829276715816400,0.65581640625,-0.03691057488322258,-0.031250037252902985,0.018329350277781487
1782829276725745400,0.665745361328125,-0.035671018064022064,-0.029705341905355453,0.006498758681118488
1782829276735673300,0.67567333984375,-0.036827363073825836,-0.014539171010255814,-0.02229294180870056
1782829276745602300,0.685602294921875,-0.033699408173561096,0.00022326689213514328,-0.06724077463150024
1782829276755531500,0.695531494140625,-0.027599971741437912,0.002321571111679077,-0.11307217180728912
1782829276765460500,0.70546044921875,-0.036281634122133255,-0.027053922414779663,-0.11821076273918152
1782829276775388400,0.715388427734375,-0.026896387338638306,-0.030980754643678665,-0.10486006736755371
1782829276785317400,0.7253173828125,-0.012215124443173409,-0.05996900796890259,-0.08067277818918228
1782829276795246300,0.735246337890625,-0.0083098653703928,-0.07312342524528503,-0.048195529729127884
1782829276805175600,0.745175537109375,-0.00610222015529871,-0.06525269895792007,-0.020753642544150352
1782829276815104500,0.7551044921875,0.0019322708249092102,-0.055349200963974,-0.0056692324578762054
1782829276825032400,0.765032470703125,0.010085107758641243,-0.056731950491666794,-0.013771787285804749
1782829276834961400,0.77496142578125,0.021370787173509598,-0.05598999187350273,-0.03778550773859024
1782829276844890400,0.784890380859375,0.040057312697172165,-0.07121388614177704,-0.06416714191436768
1782829276854819600,0.794819580078125,0.04564462602138519,-0.08408334851264954,-0.06016787886619568
1782829276864747500,0.80474755859375,0.03080572932958603,-0.051109712570905685,-0.03567054122686386
1782829276874676500,0.814676513671875,0.01794026605784893,-0.011419558897614479,-0.01912298984825611
1782829276884605400,0.82460546875,0.016265759244561195,-0.004828550852835178,-0.02379673346877098
1782829276894534400,0.834534423828125,0.02339264377951622,-0.005907929968088865,-0.03509759157896042
1782829276904463400,0.84446337890625,0.027611371129751205,-0.009567633271217346,-0.0462128184735775
1782829276914391300,0.854391357421875,0.03523067384958267,-0.021814711391925812,-0.05360522121191025
1782829276924320500,0.864320556640625,0.037170857191085815,-0.03948264941573143,-0.05150511860847473
1782829276934249500,0.87424951171875,0.026596244424581528,-0.06695102900266647,-0.048447005450725555
1782829276944178400,0.884178466796875,0.016143474727869034,-0.07965189963579178,-0.04797016456723213
1782829276954106400,0.8941064453125,0.005596292670816183,-0.08537263423204422,-0.04897444322705269
1782829276964035300,0.904035400390625,-0.008835645392537117,-0.09455621242523193,-0.036764807999134064
1782829276973964500,0.913964599609375,-0.016759615391492844,-0.0302661694586277,-0.009270599111914635
1782829276983893500,0.9238935546875,-0.00965247955173254,0.03777861222624779,0.017482157796621323
1782829276993822500,0.933822509765625,0.009745718911290169,0.06681319326162338,0.03173060342669487
1782829277003750400,0.94375048828125,0.01629137620329857,0.07430680841207504,0.04373174160718918
1782829277013679600,0.9536796875,0.01762588694691658,0.05543084815144539,0.05560864135622978
1782829277023608300,0.9636083984375,0.016502171754837036,0.03131566941738129,0.06522758305072784
1782829277033537300,0.973537353515625,0.011348689906299114,-0.01686624065041542,0.05811081826686859
1782829277043465500,0.983465576171875,0.012746036052703857,-0.07956478744745255,0.03600417822599411
1782829277053394400,0.99339453125,0.012502357363700867,-0.10854850709438324,0.0034891124814748764
1782829277063323400,1.003323486328125,0.00937136821448803,-0.08700384944677353,-0.012251130305230618
1782829277073252400,1.01325244140625,0.0016018617898225784,-0.029331497848033905,-0.020009450614452362
1782829277083181300,1.023181396484375,0.0030501838773489,0.03672558069229126,-0.025449005886912346
1782829277093109200,1.033109130859375,0.02086326852440834,0.07264816015958786,-0.030785979703068733
1782829277103038200,1.0430380859375,0.038277268409729004,0.06874057650566101,-0.037916094064712524
1782829277112967400,1.052967529296875,0.05291932821273804,0.0342387855052948,-0.027210716158151627
1782829277122896400,1.062896484375,0.05141941085457802,0.0028243735432624817,-0.0005799233913421631
1782829277132824300,1.07282421875,0.0409553200006485,-0.06026564538478851,0.02458721585571766
1782829277142753300,1.082753173828125,0.03089693747460842,-0.11154191195964813,0.04815524443984032
1782829277152682200,1.09268212890625,0.0261882022023201,-0.10956743359565735,0.06088648736476898
1782829277162611500,1.102611572265625,0.010395334102213383,-0.09702393412590027,0.06519848108291626
1782829277172540400,1.11254052734375,-0.00980580784380436,-0.05126497149467468,0.06155208498239517
1782829277182468400,1.12246826171875,-0.024818986654281616,0.00778742041438818,0.047456901520490646
1782829277192397300,1.132397216796875,-0.020889759063720703,0.06886222213506699,0.021936094388365746
1782829277202326300,1.142326171875,-0.0018298057839274406,0.11390983313322067,0.006396000273525715
1782829277212255500,1.15225537109375,0.01538859587162733,0.11349491029977798,-0.0019455528818070889
1782829277222183400,1.162183349609375,0.026418820023536682,0.08503133058547974,0.0073305768892169
1782829277232112400,1.1721123046875,0.028614062815904617,0.022318143397569656,0.021163303405046463
1782829277242041300,1.182041259765625,0.006796326022595167,-0.06311579048633575,0.03684939444065094
1782829277251970300,1.19197021484375,-0.02313147857785225,-0.08786800503730774,0.048792872577905655
1782829277261898200,1.201898193359375,-0.043916285037994385,-0.05579890310764313,0.049122631549835205
1782829277271827500,1.211827392578125,-0.04169893637299538,-0.007828183472156525,0.032383598387241364
1782829277281756400,1.22175634765625,-0.029939865693449974,0.04019201919436455,0.01923055201768875
1782829277291685400,1.231685302734375,-0.02822798676788807,0.06576448678970337,0.01100085023790598
1782829277301614300,1.2416142578125,-0.01939317211508751,0.05715765804052353,-0.0008700056932866573
1782829277311542300,1.251542236328125,-0.007692310027778149,0.006087014451622963,-0.019655145704746246
1782829277321471500,1.261471435546875,-0.004690883681178093,-0.034698523581027985,-0.026351746171712875
1782829277331400400,1.271400390625,-0.017817070707678795,-0.03516004979610443,-0.02577117457985878
1782829277341329400,1.281329345703125,-0.026615776121616364,-0.023259736597537994,-0.024229884147644043
1782829277351257300,1.29125732421875,-0.03110320121049881,-0.019039690494537354,-0.028983093798160553
1782829277361186600,1.3011865234375,-0.025996819138526917,-0.015095504932105541,-0.022625304758548737
1782829277371115500,1.311115478515625,-0.024669498205184937,-0.0005471883341670036,0.005070772022008896
1782829277381044500,1.32104443359375,-0.02954471856355667,0.00598257128149271,0.044226936995983124
1782829277390973400,1.330973388671875,-0.032035309821367264,0.007375937886536121,0.07411159574985504
1782829277400901400,1.3409013671875,-0.027198925614356995,-0.0006249798461794853,0.07914305478334427
1782829277410830600,1.35083056640625,-0.018355634063482285,-0.01759570650756359,0.05706358700990677
1782829277420759600,1.360759521484375,-0.0028681186959147453,-0.01610243320465088,0.0357254296541214
1782829277430688300,1.370688232421875,0.010692430660128593,0.0023639248684048653,0.011995597742497921
1782829277440616400,1.380616455078125,0.02115941420197487,0.02757149748504162,-0.007812487427145243
1782829277450545400,1.39054541015625,0.025707826018333435,0.032304465770721436,-0.01619531959295273
1782829277460474400,1.400474365234375,0.02307359129190445,0.03490001708269119,-0.011504806578159332
1782829277470403300,1.4104033203125,0.02103574201464653,0.022295279428362846,-0.0039960239082574844
1782829277480332300,1.420332275390625,0.022489408031105995,0.014200045727193356,0.0011405348777770996
1782829277490260500,1.430260498046875,0.02702849917113781,-0.009109538048505783,-0.0038805892691016197
1782829277500189200,1.440189208984375,0.03330136463046074,-0.03282526135444641,-0.014718395657837391
1782829277510118400,1.450118408203125,0.03654696047306061,-0.04274473711848259,-0.02538968250155449
1782829277520047400,1.46004736328125,0.03412309288978577,-0.05192004516720772,-0.04110235348343849
1782829277529975300,1.469975341796875,0.04054424166679382,-0.0478866882622242,-0.043160710483789444
1782829277539904300,1.479904296875,0.049172163009643555,-0.033503010869026184,-0.032860033214092255
1782829277549833200,1.489833251953125,0.05438956245779991,-0.002324320375919342,-0.013251978904008865
1782829277559762400,1.499762451171875,0.05464547872543335,0.020913608372211456,0.007160344161093235
1782829277569691400,1.50969140625,0.04870583117008209,0.028417062014341354,0.017112044617533684
1782829277579619300,1.519619384765625,0.036408256739377975,0.006053022108972073,0.01549636572599411
1782829277589548300,1.52954833984375,0.021528376266360283,-0.020571663975715637,0.00995699129998684
1782829277599477200,1.539477294921875,0.015046236105263233,-0.024303369224071503,0.0074236830696463585
1782829277609406500,1.549406494140625,0.01207627821713686,-0.029135409742593765,-0.0075211781077086926
1782829277619334400,1.55933447265625,0.02144976705312729,-0.011527963913977146,-0.027062147855758667
1782829277629263400,1.569263427734375,0.029077857732772827,0.021431848406791687,-0.050085440278053284
1782829277639192300,1.5791923828125,0.02802690491080284,0.01801021583378315,-0.0654803141951561
1782829277649121300,1.589121337890625,0.013169929385185242,-0.00701737217605114,-0.06134362518787384
1782829277659050500,1.599050537109375,-0.008443251252174377,-0.008054632693529129,-0.040329594165086746
1782829277668978400,1.608978515625,-0.024616627022624016,-0.004748584236949682,-0.017465557903051376
1782829277678907400,1.618907470703125,-0.01219398807734251,0.012124206870794296,-0.010686714202165604
1782829277688836400,1.62883642578125,0.01046391949057579,0.028321286663413048,-0.014296362176537514
1782829277698765300,1.638765380859375,0.023120760917663574,0.01751513034105301,-0.03007165715098381
1782829277708693500,1.648693603515625,0.030209830030798912,-0.014063567854464054,-0.03349941223859787
1782829277718622500,1.65862255859375,0.015933465212583542,-0.03788701444864273,-0.010828852653503418
1782829277728551400,1.668551513671875,-0.009028076194226742,-0.03868516534566879,0.0183442123234272
1782829277738480400,1.67848046875,-0.029660485684871674,-0.02319074235856533,0.03643926605582237
1782829277748409300,1.688409423828125,-0.02667241543531418,-0.0045185210183262825,0.028565898537635803
1782829277758337500,1.698337646484375,-0.015126815997064114,0.013948636129498482,0.006375373341143131
1782829277768266500,1.7082666015625,0.004534237086772919,0.03387574106454849,-0.016073742881417274
1782829277778195500,1.718195556640625,0.011748841032385826,0.025249609723687172,-0.03281457722187042
1782829277788124400,1.72812451171875,0.010617796331644058,0.0014244373887777328,-0.03016340173780918
1782829277798052400,1.73805224609375,0.002670501358807087,-0.004944538231939077,-0.01418378297239542
1782829277807981600,1.747981689453125,-0.010634652338922024,-0.00671873614192009,-0.0034986482933163643
1782829277817910500,1.75791064453125,-0.019599048420786858,-0.016271302476525307,-0.005031735636293888
1782829277827839500,1.767839599609375,-0.020606258884072304,-0.01936802640557289,-0.012075796723365784
1782829277837768200,1.777768310546875,-0.027492281049489975,-0.032806284725666046,-0.015859387814998627
1782829277847696400,1.7876962890625,-0.03257066383957863,-0.04246716946363449,-0.017295099794864655
1782829277857625600,1.79762548828125,-0.03909183293581009,-0.04915279522538185,-0.012262403964996338
1782829277867554300,1.80755419921875,-0.03706783056259155,-0.039952635765075684,0.002558620646595955
1782829277877483500,1.8174833984375,-0.03361643850803375,-0.009391985833644867,0.019234176725149155
1782829277887411700,1.82741162109375,-0.022991757839918137,0.017813535407185555,0.03279685601592064
1782829277897340700,1.837340576171875,0.0007474729791283607,0.04531167820096016,0.02951248362660408
1782829277907269600,1.84726953125,0.01223128940910101,0.0518028698861599,0.017809752374887466
1782829277917198600,1.857198486328125,0.016247447580099106,0.012753711082041264,-0.002701792400330305
1782829277927127800,1.8671279296875,0.014328639954328537,-0.026846962049603462,-0.011455336585640907
1782829277937055700,1.8770556640625,0.006265964359045029,-0.025666866451501846,0.012317929416894913
1782829277946984700,1.886984619140625,0.0008727964013814926,-0.013292221352458,0.02861647494137287
1782829277956913700,1.89691357421875,0.005969359073787928,-0.010965678840875626,0.030507255345582962
1782829277966842600,1.906842529296875,0.01644330471754074,-0.011828010901808739,0.017235659062862396
1782829277976770600,1.9167705078125,0.019500024616718292,-0.0179924163967371,-0.008759916760027409
1782829277986699800,1.92669970703125,0.016508763656020164,-0.04088761284947395,-0.036015771329402924
1782829277996628700,1.936628662109375,0.013926391489803791,-0.041848789900541306,-0.030017688870429993
1782829278006557700,1.9465576171875,0.014561022631824017,0.0004973355680704117,-0.0007162592373788357
1782829278016486700,1.956486572265625,0.012596366927027702,0.021638259291648865,0.03173726424574852
1782829278026414600,1.96641455078125,0.015471515245735645,0.032298892736434937,0.04694657400250435
1782829278036343800,1.97634375,0.01977655664086342,0.036867860704660416,0.0521264486014843
1782829278046272800,1.986272705078125,0.023045320063829422,0.008918249979615211,0.04443257674574852
1782829278056201700,1.99620166015625,0.023516882210969925,-0.02002127468585968,0.03217516839504242
1782829278066129700,2.006129638671875,0.011463948525488377,-0.04746062308549881,0.028880838304758072
1782829278076058600,2.01605859375,-0.0018335366621613503,-0.028266144916415215,0.026024669408798218
1782829278085987800,2.02598779296875,-0.014684086665511131,0.0030060242861509323,0.02501053735613823
1782829278095916800,2.035916748046875,-0.02428169921040535,0.021363481879234314,0.007311847992241383
1782829278105845800,2.045845703125,-0.025875069200992584,0.0235627219080925,-0.019614040851593018
1782829278115773700,2.055773681640625,-0.01619308814406395,0.006963953375816345,-0.038824934512376785
1782829278125702700,2.06570263671875,-0.00500168651342392,-0.0008170045912265778,-0.03404828906059265
1782829278135632000,2.0756318359375,0.007508399896323681,-0.001696547493338585,-0.009960808791220188
1782829278145560800,2.085560791015625,0.007826380431652069,0.001011088490486145,0.022828295826911926
1782829278155489800,2.09548974609375,0.0064397286623716354,0.0029346011579036713,0.04158209636807442
1782829278165417700,2.105417724609375,-0.003178010694682598,-0.004773385357111692,0.04495685547590256
1782829278175346700,2.1153466796875,-0.013853196054697037,-0.008611232973635197,0.02769632637500763
1782829278185276000,2.12527587890625,-0.01826046220958233,-0.008492189459502697,0.0066978344693779945
1782829278195204600,2.13520458984375,-0.024591391906142235,-0.024919290095567703,-0.01148898620158434
1782829278205132800,2.1451328125,-0.027127521112561226,-0.017692802473902702,-0.01718788594007492
1782829278215061800,2.155061767578125,-0.022070417180657387,-0.0038354313001036644,-0.01682615838944912
1782829278224990700,2.16499072265625,-0.016652483493089676,0.0013279058039188385,-0.016554515808820724
1782829278234919700,2.174919677734375,-0.0029731737449765205,0.025506537407636642,-0.016785580664873123
1782829278244848600,2.1848486328125,0.012485144659876823,0.037849489599466324,-0.015002594329416752
1782829278254776800,2.19477685546875,0.02490723878145218,0.029750067740678787,-0.007633334491401911
1782829278264705500,2.20470556640625,0.03537372499704361,0.001951991580426693,0.013845591805875301
1782829278274634800,2.214634765625,0.03917437791824341,-0.037206608802080154,0.03485599905252457
1782829278284563700,2.224563720703125,0.028504423797130585,-0.04502085596323013,0.054030753672122955
1782829278294491600,2.23449169921875,0.014804014936089516,-0.04129008203744888,0.04870840162038803
1782829278304420600,2.244420654296875,0.007672868203371763,-0.031088579446077347,0.02921193093061447
1782829278314349600,2.254349609375,0.01243870984762907,0.011534569784998894,0.00008809659630060196
1782829278324278800,2.26427880859375,0.016034509986639023,0.0509759858250618,-0.01847759634256363
1782829278334207700,2.274207763671875,0.017495952546596527,0.0499277263879776,-0.02252369187772274
1782829278344135700,2.2841357421875,0.016696471720933914,0.0414559468626976,0.005380643531680107
1782829278354064600,2.294064697265625,0.011643881909549236,0.01455485075712204,0.035894427448511124
1782829278363993600,2.30399365234375,0.00811519380658865,-0.012198998592793941,0.05059294402599335
1782829278373922800,2.3139228515625,0.014625316485762596,-0.01588592305779457,0.0477515272796154
1782829278383851800,2.323851806640625,0.012308366596698761,-0.015958627685904503,0.026290178298950195
1782829278393779700,2.33377978515625,0.004779387731105089,-0.016042733564972878,-0.0019808486104011536
1782829278403708700,2.343708740234375,-0.006348098628222942,-0.00158682931214571,-0.02999064512550831
1782829278413637600,2.3536376953125,-0.01541096344590187,0.005895253270864487,-0.04489179700613022
1782829278423566800,2.36356689453125,-0.01674014702439308,0.00017638038843870163,-0.048485204577445984
1782829278433494800,2.373494873046875,-0.020581528544425964,-0.006131739355623722,-0.03818923234939575
1782829278443423700,2.383423828125,-0.013810173608362675,0.0007485374808311462,-0.01765226572751999
1782829278453352700,2.393352783203125,-0.0065079424530267715,-0.011256754398345947,-0.0047278255224227905
1782829278463281700,2.40328173828125,0.005646192003041506,-0.012227210216224194,0.013279936276376247
1782829278473211000,2.4132109375,0.00938518438488245,-0.010270075872540474,0.024250619113445282
1782829278483138800,2.423138916015625,0.011393740773200989,-0.007643666118383408,0.033340517431497574
1782829278493067800,2.43306787109375,0.008212931454181671,0.009763026610016823,0.03576712682843208
1782829278502996700,2.442996826171875,0.0038709137588739395,0.014083737507462502,0.013487388379871845
1782829278512925700,2.45292578125,-0.0011128243058919907,0.014095762744545937,-0.010684840381145477
1782829278522853600,2.462853515625,-0.015927191823720932,0.005997622385621071,-0.025828108191490173
1782829278532782800,2.472782958984375,-0.029555682092905045,-0.021374648436903954,-0.02176121063530445
1782829278542711800,2.4827119140625,-0.02737082540988922,-0.02111339196562767,-0.004975040443241596
1782829278552640800,2.492640869140625,-0.02167271077632904,-0.008826881647109985,0.011361862532794476
1782829278562569700,2.50256982421875,-0.01549870427697897,-0.015988919883966446,0.006965250708162785
1782829278572497700,2.51249755859375,-0.0020686648786067963,-0.006739513482898474,0.004572924226522446
1782829278582427000,2.522427001953125,-0.0017682602629065514,0.02625279128551483,0.00773036852478981
1782829278592355800,2.53235595703125,-0.00630816537886858,0.037294771522283554,0.005461079068481922
1782829278602284500,2.542284423828125,-0.006884473375976086,0.04219312593340874,0.0013614092022180557
1782829278612213500,2.552213623046875,-0.012055541388690472,0.03203589469194412,-0.003654554020613432
1782829278622142000,2.562141845703125,-0.014973833225667477,0.01853020489215851,-0.008581934496760368
1782829278632070700,2.572070556640625,-0.02044137567281723,-0.011202128604054451,-0.008926483802497387
1782829278641999600,2.58199951171875,-0.021142050623893738,-0.05417036637663841,-0.008096376433968544
1782829278651928600,2.591928466796875,-0.022822365164756775,-0.06316811591386795,-0.0009563034400343895
1782829278661856800,2.601856689453125,-0.024192027747631073,-0.05715230107307434,0.013459387235343456
1782829278671785700,2.61178564453125,-0.01955239474773407,-0.03454871103167534,0.02534973993897438
1782829278681714700,2.621714599609375,-0.008589223958551884,-0.0015329699963331223,0.037600014358758926
1782829278691643600,2.6316435546875,-0.004751365631818771,0.026305485516786575,0.04050673544406891
1782829278701572600,2.641572509765625,0.007143375929445028,0.04155367985367775,0.03228555992245674
1782829278711500500,2.65150048828125,0.010403499938547611,0.04063950479030609,0.02217245101928711
1782829278721429800,2.6614296875,0.005250016693025827,0.027088278904557228,0.021409720182418823
1782829278731358700,2.671358642578125,-0.0030913474038243294,0.015780141577124596,0.024965796619653702
1782829278741287700,2.68128759765625,-0.009978014975786209,-0.004487046040594578,0.027089934796094894
1782829278751216600,2.691216552734375,-0.010846497491002083,-0.013545741327106953,0.02637443318963051
1782829278761144600,2.70114453125,-0.006627518683671951,-0.009422369301319122,0.028892185539007187
1782829278771073800,2.71107373046875,0.0013470295816659927,-0.010952836833894253,0.024583015590906143
1782829278781002800,2.721002685546875,0.004806475713849068,-0.01310573611408472,0.018709413707256317
1782829278790931700,2.730931640625,-0.003818306140601635,-0.014441920444369316,0.02193879336118698
1782829278800859600,2.740859619140625,-0.0016539543867111206,-0.0018835188820958138,0.029040642082691193
1782829278810788600,2.75078857421875,0.0015234341844916344,0.0056252311915159225,0.028963394463062286
1782829278820717800,2.7607177734375,0.0056939441710710526,0.00741780549287796,0.026596378535032272
1782829278830646800,2.770646728515625,0.00675216456875205,0.02900628000497818,0.02389564737677574
1782829278840575700,2.78057568359375,-0.0006146719679236412,0.028975386172533035,0.018454808741807938
1782829278850503700,2.790503662109375,-0.006788606755435467,0.016905944794416428,0.010187491774559021
1782829278860432600,2.8004326171875,-0.009287717752158642,0.0073073795065283775,0.009833823889493942
1782829278870361900,2.81036181640625,-0.0042678313329815865,-0.00557810440659523,0.01344225276261568
1782829278880290800,2.820290771484375,-0.0004435330629348755,-0.024804797023534775,0.01222971547394991
1782829278890219800,2.8302197265625,0.01121219526976347,-0.019173728302121162,0.0160454623401165
1782829278900147700,2.840147705078125,0.010205253958702087,-0.006886169780045748,0.021311864256858826
1782829278910076700,2.85007666015625,0.005110430996865034,-0.00649281544610858,0.0244817603379488
1782829278920005600,2.860005615234375,0.000026190653443336487,-0.004727938212454319,0.023360837250947952
1782829278929934800,2.869934814453125,-0.006717320531606674,-0.014708995819091797,0.011085032485425472
1782829278939863800,2.87986376953125,-0.008146639913320541,-0.016269609332084656,-0.0029466310515999794
1782829278949791700,2.889791748046875,-0.008483701385557652,-0.002136523835361004,-0.014482002705335617
1782829278959720700,2.899720703125,-0.00721257459372282,0.007634880021214485,-0.009877929463982582
1782829278969649700,2.909649658203125,-0.007324988022446632,0.011222013272345066,0.002365080639719963
1782829278979578600,2.91957861328125,-0.0038777925074100494,0.02131512761116028,0.010121271945536137
1782829278989506800,2.9295068359375,0.002258913591504097,0.015945909544825554,0.00921125989407301
1782829278999435800,2.939435791015625,0.00152574572712183,-0.005659251473844051,0.00524261686950922
1782829279009364500,2.949364501953125,0.0058647990226745605,-0.02239246480166912,0.003505419008433819
1782829279019293400,2.95929345703125,0.004144663456827402,-0.013071933761239052,0.00983255635946989
1782829279029222700,2.96922265625,0.010111427865922451,-0.014186786487698555,0.008686039596796036
1782829279039150600,2.979150634765625,0.017690785229206085,-0.0032190904021263123,0.009244769811630249
1782829279049079600,2.98907958984375,0.02051006257534027,0.0038113752380013466,0.0060928454622626305
1782829279059008500,2.999008544921875,0.017390435561537743,-0.0038340268656611443,-0.0032647033222019672
1782829279068937500,3.0089375,0.015615376643836498,-0.024353601038455963,-0.005323419347405434
1782829279078866700,3.01886669921875,0.011339405551552773,-0.03380116447806358,-0.0037689320743083954
1782829279088794600,3.028794677734375,0.019529853016138077,-0.01999857649207115,0.0014567682519555092
1782829279098723600,3.0387236328125,0.022875316441059113,0.009032543748617172,0.014676700346171856
1782829279108652500,3.048652587890625,0.026338797062635422,0.030416365712881088,0.015874508768320084
1782829279118581500,3.05858154296875,0.028039757162332535,0.0328744612634182,0.012544757686555386
1782829279128510700,3.0685107421875,0.02422647550702095,0.0029065553098917007,0.015771763399243355
1782829279138438700,3.078438720703125,0.01646336168050766,-0.020830465480685234,0.031013034284114838
1782829279148367600,3.08836767578125,0.016088426113128662,-0.010922476649284363,0.05099518224596977
1782829279158296600,3.098296630859375,0.02051806077361107,0.0038042720407247543,0.05553827062249184
1782829279168225500,3.1082255859375,0.03347066044807434,0.00012954417616128922,0.0619208849966526
1782829279178153700,3.11815380859375,0.040234290063381195,0.028661051765084267,0.060013528913259506
1782829279188082700,3.128082763671875,0.03457493707537651,0.02182772383093834,0.04072369262576103
1782829279198011600,3.13801171875,0.028236880898475647,-0.006045186892151833,0.010435294359922409
1782829279207940600,3.147940673828125,0.017599040642380714,-0.04279518499970436,-0.017283271998167038
1782829279217869600,3.15786962890625,0.010182403028011322,-0.03768644109368324,-0.04150871932506561
1782829279227797800,3.1677978515625,0.015854449942708015,-0.03143583610653877,-0.05443854629993439
1782829279237726700,3.177726806640625,0.02112750895321369,-0.015425709076225758,-0.053474217653274536
1782829279247655700,3.18765576171875,0.030068429186940193,-0.0041591813787817955,-0.03632384538650513
1782829279257584600,3.197584716796875,0.036400891840457916,0.006641535088419914,-0.012191344052553177
1782829279267513900,3.207513916015625,0.039456672966480255,0.015234761871397495,0.007939159870147705
1782829279277441800,3.21744189453125,0.031021911650896072,-0.0011721756309270859,0.015535561367869377
1782829279287370800,3.227370849609375,0.020341865718364716,-0.01626047119498253,0.015927696600556374
1782829279297299700,3.2372998046875,0.01868404820561409,-0.005469875875860453,0.01302405260503292
1782829279307228700,3.247228759765625,0.016632193699479103,-0.0099030751734972,0.0038705207407474518
1782829279317157600,3.25715771484375,0.012903235852718353,0.007521188817918301,0.003944556228816509
1782829279327085800,3.2670859375,0.01671980507671833,0.030929913744330406,0.011773550882935524
1782829279337014800,3.277014892578125,0.016328588128089905,0.03385166823863983,0.0039971210062503815
1782829279346943700,3.28694384765625,0.01575055904686451,0.020599255338311195,-0.006661776918917894
1782829279356872400,3.29687255859375,0.009621826000511646,0.005295667797327042,-0.006742737255990505
1782829279366801700,3.3068017578125,-0.004014729522168636,-0.0025007817894220352,0.0037935730069875717
1782829279376729600,3.3167294921875,-0.011879843659698963,-0.000533238984644413,0.01672268658876419
1782829279386658600,3.326658447265625,-0.01299056876450777,0.000871516764163971,0.020297283306717873
1782829279396587500,3.33658740234375,-0.008930579759180546,0.008599212393164635,0.0045971497893333435
1782829279406516500,3.3465166015625,-0.007414395920932293,0.011665629222989082,-0.014387166127562523
1782829279416444400,3.3564443359375,-0.011617929674685001,-0.013519619591534138,-0.018718533217906952
1782829279426373600,3.36637353515625,-0.01751619577407837,-0.011120867915451527,-0.0029393481090664864
1782829279436302600,3.376302490234375,-0.027193322777748108,-0.010138960555195808,0.019240522757172585
1782829279446231600,3.3862314453125,-0.031639471650123596,-0.0025201886892318726,0.04190002754330635
1782829279456160500,3.396160400390625,-0.02093729004263878,0.02414870448410511,0.048674844205379486
1782829279466088400,3.40608837890625,-0.010056272149085999,0.03806240111589432,0.04067324846982956
1782829279476017700,3.416017578125,-0.002703550271689892,0.04493521898984909,0.027523623779416084
1782829279485946600,3.425946533203125,0.002587513066828251,0.035111840814352036,0.011316736228764057
1782829279495875600,3.43587548828125,0.006425128318369389,0.01368537824600935,0.002128298394382
1782829279505804500,3.445804443359375,0.005103651434183121,-0.012711205519735813,0.007326183840632439
1782829279515732500,3.455732421875,-0.005277085117995739,-0.03912283852696419,0.019040364772081375
1782829279525661700,3.46566162109375,-0.009905765764415264,-0.030026406049728394,0.02945646271109581
1782829279535590700,3.475590576171875,-0.014485604129731655,-0.005070455837994814,0.023469943553209305
1782829279545519600,3.48551953125,-0.01857941597700119,-0.004329032264649868,0.0006461208686232567
1782829279555448600,3.495448486328125,-0.01391355786472559,0.009869344532489777,-0.01723833754658699
1782829279565376500,3.50537646484375,-0.010351899079978466,0.006499472074210644,-0.02757522091269493
1782829279575305700,3.5153056640625,-0.006438651122152805,-0.0022514089941978455,-0.018036577850580215
1782829279585234700,3.525234619140625,-0.0005681049078702927,0.010901343077421188,0.00916019082069397
1782829279595163600,3.53516357421875,0.00402425043284893,0.00687890499830246,0.031528081744909286
1782829279605092600,3.545092529296875,0.003480345942080021,0.009685853496193886,0.05225551873445511
1782829279615020800,3.555020751953125,0.0076644388027489185,0.014508038759231567,0.05159372091293335
1782829279624949800,3.56494970703125,0.01278674602508545,0.005226105451583862,0.03237394616007805
1782829279634878700,3.574878662109375,0.015600908547639847,-0.01033953856676817,-0.0009666993282735348
1782829279644807700,3.5848076171875,0.00958271324634552,-0.03180699795484543,-0.024113554507493973
1782829279654735600,3.594735595703125,-0.00638932827860117,-0.014700446277856827,-0.01758454740047455
1782829279664664800,3.604664794921875,-0.014499061740934849,-0.007036411669105291,0.007153949700295925
1782829279674593800,3.61459375,-0.015251404605805874,0.00821524579077959,0.024387266486883163
1782829279684522800,3.624522705078125,-0.011684686876833439,0.016853757202625275,0.030240166932344437
1782829279694451500,3.634451416015625,-0.009662815369665623,0.010136466473340988,0.018451951444149017
1782829279704380700,3.644380615234375,-0.005220113322138786,0.0029435520991683006,0.0047244299203157425
1782829279714308900,3.654308837890625,-0.005435829982161522,-0.0020701149478554726,0.005938299000263214
1782829279724237600,3.664237548828125,-0.007092379964888096,0.018639616668224335,0.017832737416028976
1782829279734166500,3.67416650390625,-0.001799614168703556,0.030176697298884392,0.025308232754468918
1782829279744095500,3.684095458984375,-0.006522807292640209,0.02828618511557579,0.029233628883957863
1782829279754023400,3.6940234375,-0.011231009848415852,0.015453209169209003,0.009211452677845955
1782829279763952600,3.70395263671875,-0.020244373008608818,-0.015995480120182037,-0.019117701798677444
1782829279773881600,3.713881591796875,-0.030443480238318443,-0.023620378226041794,-0.04095402732491493
1782829279783810600,3.723810546875,-0.03581855818629265,-0.018670912832021713,-0.05131719261407852
1782829279793739500,3.733739501953125,-0.03263181820511818,-0.009892335161566734,-0.05075500160455704
1782829279803667500,3.74366748046875,-0.02487935870885849,0.002239961177110672,-0.03168516978621483
1782829279813596700,3.7535966796875,-0.013973445631563663,-0.005118086934089661,-0.01611819490790367
1782829279823525600,3.763525634765625,0.0028825560584664345,-0.009937012568116188,0.002160441130399704
1782829279833454600,3.77345458984375,0.013211360201239586,0.0023212507367134094,0.018057648092508316
1782829279843383600,3.783383544921875,0.014247789978981018,0.009121892973780632,0.028040040284395218
1782829279853311500,3.7933115234375,0.01224056538194418,0.011926734820008278,0.03219190984964371
1782829279863240700,3.80324072265625,0.0026635536924004555,0.021244579926133156,0.025114545598626137
1782829279873169700,3.813169677734375,-0.0014286590740084648,0.02825135551393032,0.008430108428001404
1782829279883099000,3.823098876953125,0.0012397561222314835,0.017855169251561165,-0.0070020463317632675
1782829279893027800,3.83302783203125,0.0033178208395838737,-0.002756631001830101,-0.01107881311327219
1782829279902955800,3.842955810546875,0.005942223593592644,-0.006056829821318388,-0.00031072553247213364
1782829279912884700,3.852884765625,0.011287987232208252,-0.020183302462100983,0.018183596432209015
1782829279922813700,3.862813720703125,0.014942821115255356,0.00019784457981586456,0.04007670283317566
1782829279932743000,3.872742919921875,0.007695827633142471,0.01557387039065361,0.05449797958135605
1782829279942672000,3.882671875,0.008957277983427048,0.013660176657140255,0.05386776849627495
1782829279952599800,3.892599853515625,0.011860123835504055,0.01600801944732666,0.04516376182436943
1782829279962528800,3.90252880859375,0.015843218192458153,0.017605919390916824,0.021838132292032242
1782829279972457700,3.912457763671875,0.017791321501135826,0.012040444649755955,0.0023709582164883614
1782829279982387000,3.922386962890625,0.018088148906826973,0.009699360467493534,0.00003108195960521698
1782829279992315600,3.932315673828125,0.00867893360555172,-0.006651383358985186,-0.0024882685393095016
1782829280002243800,3.942243896484375,0.0021051056683063507,-0.023243315517902374,0.0018570693209767342
1782829280012172800,3.9521728515625,0.0036870231851935387,-0.008281676098704338,0.009643086232244968
1782829280022101800,3.962101806640625,0.002051636576652527,-0.004982138983905315,0.013755406253039837
1782829280032030700,3.97203076171875,0.006825618911534548,0.003452092409133911,0.024349458515644073
1782829280041959700,3.981959716796875,0.007772793993353844,0.015249844640493393,0.03303966671228409
1782829280051887900,3.991887939453125,0.005796462297439575,0.01282290555536747,0.03454861044883728
1782829280061816600,4.001816650390625,0.0010832203552126884,0.0011891741305589676,0.029385816305875778
1782829280071745500,4.01174560546875,0.0014206431806087494,-0.005719065200537443,0.014789831824600697
1782829280081674800,4.0216748046875,-0.00004576612263917923,0.004013183526694775,0.003198753111064434
1782829280091603700,4.031603759765625,0.0005870005115866661,0.0031362054869532585,-0.016856713220477104
1782829280101531600,4.04153173828125,0.0009465795010328293,0.014278588816523552,-0.03826247900724411
1782829280111460600,4.051460693359375,-0.0045259492471814156,0.015504974871873856,-0.04277600347995758
1782829280121389600,4.0613896484375,-0.009007342159748077,-0.004150246270000935,-0.039049919694662094
1782829280131318800,4.07131884765625,-0.009990047663450241,-0.01287795789539814,-0.015698524191975594
1782829280141247700,4.081247802734375,-0.008697757497429848,-0.014694778248667717,0.02037918008863926
1782829280151175700,4.09117578125,-0.004063325002789497,-0.005135627929121256,0.047077372670173645
1782829280161104600,4.101104736328125,0.003162226639688015,-0.00192324910312891,0.04646560922265053
1782829280171033600,4.11103369140625,0.009758077561855316,-0.009114050306379795,0.03195963427424431
1782829280180962800,4.120962890625,0.009175961837172508,-0.0232437364757061,0.011281181126832962
1782829280190891800,4.130891845703125,0.007419607136398554,-0.01854911632835865,0.00892135314643383
1782829280200819700,4.14081982421875,0.000895356759428978,-0.007706365082412958,0.008287767879664898
1782829280210748700,4.150748779296875,-0.0025060325860977173,0.0006956420838832855,0.007135950960218906
1782829280220677600,4.160677734375,-0.003270321525633335,0.002247242256999016,-0.000425542239099741
1782829280230606800,4.17060693359375,0.0023063374683260918,0.02014821022748947,0.003598228096961975
1782829280240535800,4.180535888671875,0.01069008931517601,0.03155044466257095,0.005975923500955105
1782829280250463700,4.190463623046875,0.015073918737471104,0.01374960970133543,0.019060831516981125
1782829280260392700,4.200392822265625,0.012326112017035484,-0.007542768493294716,0.028390806168317795
1782829280270321700,4.21032177734375,0.0052255913615226746,-0.02909892611205578,0.04216041415929794
1782829280280251000,4.2202509765625,0.005558642093092203,-0.04427207261323929,0.04707825183868408
1782829280290179800,4.230179931640625,0.005974894389510155,-0.031678251922130585,0.03287641331553459
1782829280300107800,4.240107666015625,0.00367614533752203,-0.01267869770526886,0.011142835021018982
1782829280310036700,4.25003662109375,-0.003261122852563858,0.004009735770523548,-0.00735734635964036
1782829280319966000,4.259966064453125,-0.007747703231871128,0.021932974457740784,-0.011881435289978981
1782829280329894700,4.269894775390625,-0.014807210303843021,0.043062761425971985,-0.009901640936732292
1782829280339823600,4.27982373046875,-0.010428786277770996,0.030782533809542656,-0.0021598367020487785
1782829280349751800,4.289751708984375,-0.005167445167899132,0.007547253742814064,0.0029204096645116806
1782829280359680800,4.2996806640625,-0.0023846104741096497,-0.018918829038739204,0.0064440518617630005
1782829280369609700,4.309609619140625,-0.0005219951272010803,-0.04535842686891556,-0.004097005818039179
1782829280379538700,4.31953857421875,0.002153901383280754,-0.049844950437545776,-0.01640862226486206
1782829280389467600,4.329467529296875,-0.002275201492011547,-0.04257532209157944,-0.02777818962931633
1782829280399395600,4.3393955078125,-0.011535851284861565,-0.03742561116814613,-0.034901633858680725
1782829280409324500,4.349324462890625,-0.010690031573176384,-0.02754581719636917,-0.03047972172498703
1782829280419253800,4.359253662109375,-0.004722431302070618,-0.011598744429647923,-0.01519228145480156
1782829280429182700,4.3691826171875,0.0019525159150362015,0.001954881474375725,0.003787800669670105
1782829280439111700,4.379111572265625,0.010432370007038116,0.007151449099183083,0.016514621675014496
1782829280449039600,4.38903955078125,0.011536250822246075,0.012209590524435043,0.02375602163374424
1782829280458968600,4.398968505859375,0.016810692846775055,0.02429712563753128,0.023122385144233704
1782829280468897800,4.408897705078125,0.01220928318798542,0.025756273418664932,0.02052393928170204
1782829280478826800,4.41882666015625,-0.00004837755113840103,0.008860386908054352,0.0126438457518816
1782829280488755700,4.428755615234375,-0.006671126000583172,-0.013139452785253525,0.0009176814928650856
1782829280498683600,4.43868359375,-0.00940940622240305,-0.027568750083446503,-0.0059010861441493034
1782829280508612600,4.448612548828125,-0.006156356073915958,-0.03050834685564041,-0.016848810017108917
1782829280518541800,4.458541748046875,-0.00610769260674715,-0.01822063699364662,-0.029041828587651253
1782829280528470800,4.468470703125,-0.010535730980336666,-0.002955930307507515,-0.030913498252630234
1782829280538399700,4.478399658203125,-0.015022139064967632,0.00896142702549696,-0.022936593741178513
1782829280548327700,4.48832763671875,-0.015197374857962132,0.017569828778505325,-0.014511682093143463
1782829280558256600,4.498256591796875,-0.003953893668949604,0.026622429490089417,0.0031796088442206383
1782829280568185900,4.508185791015625,0.0065799737349152565,0.032221194356679916,0.019724762067198753
1782829280578114800,4.51811474609375,0.01655460149049759,0.01537523977458477,0.036658816039562225
1782829280588043800,4.528043701171875,0.02678247168660164,-0.004037872888147831,0.0485391765832901
1782829280597971700,4.5379716796875,0.02825153060257435,-0.027466963976621628,0.035831667482852936
1782829280607900700,4.547900634765625,0.029618795961141586,-0.035813044756650925,0.01920315809547901
1782829280617830000,4.557829833984375,0.020837854593992233,-0.019525833427906036,0.002765445038676262
1782829280627758800,4.5677587890625,0.008175856433808804,-0.008083827793598175,-0.01679094508290291
1782829280637687800,4.577687744140625,0.002664494328200817,0.006553265266120434,-0.03552895411849022
1782829280647615700,4.58761572265625,0.00591861130669713,0.02569153904914856,-0.038932740688323975
1782829280657544700,4.597544677734375,0.008102266117930412,0.0380188524723053,-0.02238256111741066
1782829280667474000,4.607473876953125,0.008917726576328278,0.048042722046375275,0.0007011871784925461
1782829280677402600,4.617402587890625,0.015323706902563572,0.0349404439330101,0.02450522780418396
1782829280687331600,4.62733154296875,0.014876562170684338,0.008174074813723564,0.03872251138091087
1782829280697259800,4.637259765625,0.005726102739572525,-0.009557219222187996,0.03748748451471329
1782829280707188500,4.6471884765625,-0.005323885940015316,-0.016124308109283447,0.022986572235822678
1782829280717117700,4.65711767578125,-0.016715506091713905,-0.011145091615617275,0.0012126574292778969
1782829280727046700,4.667046630859375,-0.03089151345193386,-0.009858251549303532,-0.02304048463702202
1782829280736975600,4.6769755859375,-0.0383562371134758,-0.009078347124159336,-0.045193932950496674
1782829280746903600,4.686903564453125,-0.032693296670913696,0.014081301167607307,-0.048623550683259964
1782829280756832800,4.696832763671875,-0.01994846947491169,0.03188959136605263,-0.041886553168296814
1782829280766761700,4.70676171875,-0.010149901732802391,0.04536332190036774,-0.024579200893640518
1782829280776690700,4.716690673828125,-0.003287382423877716,0.035500675439834595,-0.010983986780047417
1782829280786619600,4.72661962890625,-0.001895347610116005,0.021309221163392067,-0.0034232730977237225
1782829280796548600,4.736548583984375,-0.007538496516644955,0.011112645268440247,-0.0004181498661637306
1782829280806476800,4.746476806640625,-0.01268026139587164,-0.0051014781929552555,-0.009239871054887772
1782829280816405800,4.75640576171875,-0.016821201890707016,0.005785348825156689,-0.015133341774344444
1782829280826334700,4.766334716796875,-0.018032405525445938,0.029341809451580048,-0.0093572111800313
1782829280836263700,4.776263671875,-0.015831509605050087,0.02661890909075737,-0.0008922568522393703
1782829280846193000,4.78619287109375,-0.006713110953569412,0.014883155934512615,0.008276740089058876
1782829280856120800,4.796120849609375,0.006209961138665676,-0.001933431252837181,0.010853989981114864
1782829280866049800,4.8060498046875,0.021139375865459442,-0.015385590493679047,0.010181541554629803
1782829280875978800,4.815978759765625,0.028364889323711395,-0.017903048545122147,0.01601221226155758
1782829280885907200,4.8259072265625,0.03282248601317406,-0.024041103199124336,0.021832549944519997
1782829280895836200,4.835836181640625,0.025861289352178574,-0.011719675734639168,0.01720453053712845
1782829280905764000,4.84576416015625,0.02271822839975357,0.045100729912519455,0.005192874930799007
1782829280915693000,4.855693115234375,0.01684291660785675,0.0701194778084755,-0.011740258894860744
1782829280925622000,4.8656220703125,0.01991434022784233,0.07673770189285278,-0.027050238102674484
1782829280935551200,4.87555126953125,0.024193711578845978,0.06367018073797226,-0.028609352186322212
1782829280945480200,4.885480224609375,0.019778190180659294,0.02829594910144806,-0.016847234219312668
1782829280955408100,4.895408203125,0.01850402168929577,-0.017467334866523743,0.006614193320274353
1782829280965337000,4.905337158203125,0.01629572920501232,-0.028785236179828644,0.035869017243385315
1782829280975266000,4.91526611328125,0.01626187562942505,-0.02728183940052986,0.04697954282164574
1782829280985195300,4.9251953125,0.01597744971513748,-0.02210278995335102,0.030357692390680313
1782829280995124200,4.935124267578125,0.013477818109095097,-0.014507252722978592,0.007983580231666565
1782829281005052200,4.94505224609375,0.00811287946999073,0.01793510839343071,-0.010178112424910069
1782829281014981000,4.954981201171875,0.0008202753961086273,0.01841633766889572,-0.022721271961927414
1782829281024910300,4.964910400390625,-0.004938810132443905,0.011602106504142284,-0.02293139323592186
1782829281034839000,4.974839111328125,-0.00431855209171772,0.017927736043930054,-0.017637457698583603
1782829281044768000,4.98476806640625,-0.010848622769117355,0.010428007692098618,-0.007562452927231789
1782829281054696200,4.9946962890625,-0.010164041072130203,-0.00040427036583423615,-0.003458848223090172
1782829281064625200,5.004625244140625,-0.004577795043587685,0.0010594027116894722,0.005504020489752293
1782829281074554000,5.01455419921875,-0.00810546986758709,0.006258973851799965,0.021560825407505035
1782829281084483000,5.024483154296875,-0.0052963681519031525,0.02614053525030613,0.026491934433579445
1782829281094412000,5.034412109375,-0.0017948392778635025,0.021168500185012817,0.024765511974692345
1782829281104341000,5.044341064453125,0.002619350329041481,0.015602758154273033,0.02226320467889309
1782829281114269000,5.05426904296875,0.008864074945449829,0.014040827751159668,0.02310090698301792
1782829281124198100,5.0641982421875,0.010148251429200172,0.004822028800845146,0.019225740805268288
1782829281134127000,5.074127197265625,0.006165760103613138,-0.0023149754852056503,0.01834316924214363
1782829281144056000,5.08405615234375,0.00839003175497055,0.004891803488135338,0.011994192376732826
1782829281153985000,5.093985107421875,0.008683893829584122,0.012040848843753338,-0.008953742682933807
1782829281163913000,5.103912841796875,0.009134766645729542,-0.011143566109240055,-0.037755031138658524
1782829281173842200,5.11384228515625,0.013370758853852749,-0.017336860299110413,-0.05276871472597122
1782829281183771100,5.123771240234375,0.016971886157989502,0.003148173913359642,-0.042557891458272934
1782829281193700000,5.1337001953125,0.019292274489998817,0.012655334547162056,-0.02046082355082035
1782829281203629000,5.143629150390625,0.021935462951660156,0.013680119067430496,-0.0032112631015479565
1782829281213557000,5.153556884765625,0.019566960632801056,0.0006951643154025078,0.008673286065459251
1782829281223486200,5.163486328125,0.012782825157046318,-0.019679082557559013,0.017370371147990227
1782829281233415200,5.173415283203125,0.0034834034740924835,-0.02529781311750412,0.03142034634947777
1782829281243344100,5.18334423828125,-0.0014383839443325996,-0.0012172451242804527,0.042534783482551575
1782829281253273000,5.193273193359375,-0.0006117047742009163,0.011809458956122398,0.04183315485715866
1782829281263201000,5.203200927734375,0.005364162847399712,0.01909533701837063,0.021444259211421013
1782829281273130200,5.213130126953125,0.015075487084686756,0.020204167813062668,-0.01185295358300209
1782829281283059200,5.22305908203125,0.01988036185503006,0.01972799375653267,-0.03987579792737961
1782829281292988200,5.23298828125,0.02056703343987465,0.002582958899438381,-0.05803797394037247
1782829281302917000,5.242917236328125,0.01112559624016285,-0.01659952476620674,-0.05759189650416374
1782829281312845000,5.252844970703125,-0.000546623021364212,-0.026286832988262177,-0.03593049943447113
1782829281322774300,5.262774169921875,-0.008546493016183376,-0.029533758759498596,-0.015958387404680252
1782829281332703200,5.272703125,-0.005656350404024124,-0.01431065984070301,-0.006259314715862274
1782829281342632000,5.2826318359375,-0.00214204378426075,0.0001284666359424591,-0.014946812763810158
1782829281352561000,5.292560791015625,-0.00347957294434309,0.0035047922283411026,-0.012203169986605644
1782829281362489000,5.302489013671875,-0.002860388718545437,0.01053260825574398,-0.003217398189008236
1782829281372418000,5.31241796875,0.00023012049496173859,0.007330555468797684,0.006795009598135948
1782829281382347000,5.322346923828125,0.0074747176840901375,0.009404093027114868,0.017144320532679558
1782829281392274200,5.332274169921875,0.012527446262538433,0.016898125410079956,0.019067347049713135
1782829281402203100,5.342203125,0.007779562845826149,0.008243918418884277,0.002205808646976948
1782829281412131000,5.352131103515625,0.008581016212701797,0.010436360724270344,-0.007335446309298277
1782829281422060000,5.36206005859375,0.007945053279399872,0.00661898497492075,-0.02180839516222477
1782829281431989200,5.3719892578125,0.008471883833408356,-0.006871348712593317,-0.02705579251050949
1782829281441918200,5.381918212890625,0.01366850920021534,-0.006107553839683533,-0.024909283965826035
1782829281451847200,5.39184716796875,0.013430812396109104,-0.01126211415976286,-0.013598443940281868
1782829281461775000,5.401775146484375,0.012142108753323555,-0.019578101113438606,0.0006745010614395142
1782829281471704000,5.4117041015625,0.012512769550085068,-0.0191932562738657,0.006814760155975819
1782829281481633300,5.42163330078125,0.015284321270883083,-0.002819342538714409,0.0069737508893013
1782829281491562200,5.431562255859375,0.013113263063132763,0.015154083259403706,0.001344434916973114
1782829281501491000,5.441490966796875,0.012622974812984467,0.019677728414535522,-0.007685278542339802
1782829281511419100,5.451419189453125,0.0033409371972084045,0.022885631769895554,-0.006024857982993126
1782829281521348000,5.46134814453125,-0.0030844714492559433,0.013177611865103245,-0.003614697139710188
1782829281531277000,5.471277099609375,0.0031134597957134247,0.009414135478436947,0.0014020772650837898
1782829281541206000,5.4812060546875,0.008590251207351685,-0.0008691279217600822,0.0025437744334340096
1782829281551135000,5.491135009765625,0.008814416825771332,-0.00672276271507144,0.007135660387575626
1782829281561064000,5.50106396484375,0.0007128147408366203,-0.0011341189965605736,0.0012966804206371307
1782829281570991900,5.510991943359375,-0.008084196597337723,-0.005268053151667118,-0.0167055856436491
1782829281580921000,5.520921142578125,-0.013508256524801254,-0.008407920598983765,-0.03853578120470047
1782829281590850000,5.53085009765625,-0.01673068106174469,-0.008369836956262589,-0.05672676861286163
1782829281600779000,5.540779052734375,-0.012894663959741592,-0.009399148635566235,-0.05816594511270523
1782829281610708000,5.5507080078125,-0.012545517645776272,-0.012702339328825474,-0.04559298977255821
1782829281620636000,5.560635986328125,-0.010940696112811565,-0.006341911852359772,-0.02235903963446617
1782829281630565000,5.570565185546875,-0.0028464579954743385,0.011947644874453545,-0.005300216842442751
1782829281640494000,5.580494140625,0.003438868559896946,0.021276697516441345,-0.00003541354089975357
1782829281650423000,5.590423095703125,0.007275008596479893,0.018736030906438828,-0.003975430969148874
1782829281660352000,5.60035205078125,0.004051518626511097,0.003346688114106655,-0.008366184309124947
1782829281670280000,5.610280029296875,-0.004568018950521946,-0.0056308479979634285,-0.002113956958055496
1782829281680209200,5.620209228515625,-0.006412790156900883,-0.002432924695312977,0.00839407742023468
1782829281690138000,5.63013818359375,0.00035007111728191376,-0.003989851102232933,0.008947664871811867
1782829281700067000,5.640067138671875,0.005915012210607529,-0.0015850160270929337,0.00773219857364893
1782829281709996000,5.64999609375,0.01448849681764841,0.008089225739240646,-0.0028780177235603333
1782829281719925200,5.65992529296875,0.023250829428434372,0.00787430815398693,-0.005178988911211491
1782829281729853200,5.669853271484375,0.02255694381892681,0.01705787517130375,-0.0032345810905098915
1782829281739782100,5.6797822265625,0.017113707959651947,0.01838972233235836,0.006835097447037697
1782829281749711000,5.689711181640625,0.012734388932585716,-0.00465607363730669,0.009517624042928219
1782829281759640000,5.69964013671875,0.01089148223400116,-0.0010589417070150375,0.007729843258857727
1782829281769569300,5.7095693359375,0.010295228101313114,0.003729643300175667,-0.0018179407343268394
1782829281779497200,5.719497314453125,0.011215616017580032,-0.006034037563949823,-0.010403173044323921
1782829281789426200,5.72942626953125,0.017140401527285576,-0.002662493847310543,-0.015061115846037865
1782829281799355100,5.739355224609375,0.019240036606788635,0.0031104395166039467,-0.016126379370689392
1782829281809284000,5.7492841796875,0.018619099631905556,0.0029340041801333427,-0.01947072520852089
1782829281819213000,5.759213134765625,0.02207055687904358,0.0210054162889719,-0.012948909774422646
1782829281829141200,5.769141357421875,0.022952914237976074,0.020721163600683212,0.0018474413082003593
1782829281839070200,5.7790703125,0.019336609169840813,0.016583409160375595,0.0192759670317173
1782829281848999000,5.7889990234375,0.02646305412054062,0.02900053560733795,0.03168204799294472
1782829281858928000,5.79892822265625,0.029651924967765808,0.009008453227579594,0.03143783658742905
1782829281868857000,5.808857177734375,0.03215519338846207,-0.020055653527379036,0.017850805073976517
1782829281878786000,5.8187861328125,0.028056586161255836,-0.03748923912644386,0.00890151783823967
1782829281888714000,5.8287138671875,0.01744098961353302,-0.027885420247912407,0.0036499761044979095
1782829281898643000,5.838642822265625,0.005172339733690023,-0.02490028366446495,0.0018909582868218422
1782829281908572200,5.848572265625,0.001988295465707779,-0.012976099736988544,-0.002195044420659542
1782829281918501000,5.858501220703125,0.0014215754345059395,0.002714180387556553,-0.003254982642829418
1782829281928430000,5.86843017578125,0.0034567806869745255,0.013481173664331436,-0.0121168103069067
1782829281938358000,5.87835791015625,0.006705038249492645,-0.00027831364423036575,-0.021458115428686142
1782829281948287000,5.888286865234375,-0.0018315976485610008,-0.014342822134494781,-0.01858612895011902
1782829281958216200,5.89821630859375,-0.011001394130289555,-0.008558702655136585,-0.005362736061215401
1782829281968145200,5.908145263671875,-0.020349886268377304,-0.00879891961812973,0.003692277707159519
1782829281978074000,5.91807421875,-0.024562474340200424,-0.0018808264285326004,0.008082233369350433
1782829281988003000,5.928003173828125,-0.012531625106930733,0.015296855941414833,0.0037330342456698418
1782829281997931000,5.937930908203125,-0.0023303870111703873,0.027535412460565567,-0.007624548394232988
1782829282007860200,5.947860107421875,0.009923494420945644,0.022255709394812584,-0.011627406813204288
1782829282017789200,5.9577890625,0.014189878478646278,0.01313864253461361,-0.01136535219848156
1782829282027718100,5.96771826171875,0.011480666697025299,-0.007098424714058638,-0.006194015499204397
1782829282037649200,5.977649169921875,0.007672612089663744,-0.025821778923273087,0.0031520817428827286
1782829282047578000,5.987578125,0.0027596401050686836,-0.029008828103542328,0.012709283269941807
1782829282057506000,5.997506103515625,-0.005082570016384125,-0.016408614814281464,0.018991146236658096
1782829282067435000,6.00743505859375,-0.003950801678001881,0.010276325047016144,0.00692985113710165
1782829282077364200,6.0173642578125,0.010044110007584095,0.02643931657075882,-0.018529968336224556
1782829282087293200,6.027293212890625,0.016905417665839195,0.027543846517801285,-0.03693786635994911
1782829282097222100,6.03722216796875,0.019835159182548523,0.01469329558312893,-0.03724279627203941
1782829282107150000,6.047150146484375,0.018567603081464767,-0.002439490519464016,-0.016677815467119217
1782829282117079000,6.0570791015625,0.0107898423448205,-0.01103617437183857,0.002571779303252697
1782829282127008300,6.06700830078125,0.005950712598860264,-0.009820215404033661,0.01790264993906021
1782829282136937200,6.076937255859375,0.007598410360515118,-0.0026488546282052994,0.01722700521349907
1782829282146866200,6.0868662109375,0.008075504563748837,-0.002425694838166237,-0.0023415079340338707
1782829282156795100,6.096795166015625,0.003282614052295685,-0.01611407659947872,-0.021896034479141235
1782829282166723000,6.10672314453125,-0.006391951814293861,-0.010552824474871159,-0.0411745086312294
1782829282176652300,6.11665234375,-0.014559067785739899,-0.012237274087965488,-0.05082074552774429
1782829282186581200,6.126581298828125,-0.018202999606728554,-0.02013585902750492,-0.05082657188177109
1782829282196510000,6.136510009765625,-0.01613132655620575,-0.018886037170886993,-0.04583501070737839
1782829282206439000,6.14643896484375,-0.003928743302822113,-0.01190945878624916,-0.030500900000333786
1782829282216367000,6.1563671875,0.001980278640985489,-0.0008461559191346169,-0.010450758039951324
1782829282226296000,6.166296142578125,0.014528485015034676,0.024764200672507286,0.018153881654143333
1782829282236225000,6.17622509765625,0.01659722812473774,0.026520555838942528,0.036461248993873596
1782829282246154000,6.186154052734375,0.013207726180553436,0.021304722875356674,0.04568969085812569
1782829282256083000,6.1960830078125,0.012211437337100506,0.017271894961595535,0.037679433822631836
1782829282266012200,6.20601220703125,0.007057846523821354,-0.010715392418205738,0.02428314834833145
1782829282275940000,6.215940185546875,0.0036769630387425423,-0.014678708277642727,0.01758769527077675
1782829282285869000,6.225869140625,0.0036702556535601616,-0.0030497312545776367,0.0020652683451771736
1782829282295798000,6.235798095703125,0.012603295966982841,0.006882261484861374,-0.012982923537492752
1782829282305727000,6.24572705078125,0.01722562313079834,0.0063033029437065125,-0.01949341408908367
1782829282315656200,6.25565625,0.01981474831700325,-0.0009833713993430138,-0.019464120268821716
1782829282325584100,6.265584228515625,0.016768041998147964,-0.008617570623755455,-0.0077128480188548565
1782829282335513000,6.27551318359375,0.007600375451147556,-0.0076047698967158794,0.0030681611970067024
1782829282345442000,6.285442138671875,-0.0027631716802716255,-0.01714899390935898,0.012325979769229889
1782829282355371000,6.29537109375,-0.002628149464726448,-0.018037158995866776,0.026017291471362114
1782829282365300200,6.30530029296875,0.00536697031930089,0.012869942933321,0.03464808315038681
1782829282375229200,6.315229248046875,0.01332076732069254,0.028923213481903076,0.02916889637708664
1782829282385157000,6.3251572265625,0.023789264261722565,0.03315232694149017,0.019784320145845413
1782829282395086000,6.335086181640625,0.021255265921354294,0.021010443568229675,0.015381849370896816
1782829282405015000,6.34501513671875,0.007568655535578728,-0.00006371922791004181,0.01694890856742859
1782829282414944300,6.3549443359375,-0.010144295170903206,-0.022275548428297043,0.011020445264875889
1782829282424873200,6.364873291015625,-0.01345315482467413,-0.025908224284648895,-0.0014241854660212994
1782829282434801200,6.37480126953125,-0.014420946128666401,-0.020321443676948547,-0.012399604544043541
1782829282444730000,6.384730224609375,-0.01432703249156475,-0.00015024375170469284,-0.021842151880264282
1782829282454659000,6.3946591796875,-0.0016200263053178787,0.01583404839038849,-0.03758862614631653
1782829282464588300,6.40458837890625,-0.0011941399425268173,-0.00366262998431921,-0.04453172907233238
1782829282474517000,6.41451708984375,-0.01167847216129303,-0.013550148345530033,-0.03858409449458122
1782829282484446000,6.424446044921875,-0.0230451300740242,-0.019315462559461594,-0.020582828670740128
1782829282494374100,6.4343740234375,-0.027948807924985886,0.003579201176762581,-0.003370820078998804
1782829282504303000,6.44430322265625,-0.01703544333577156,0.0286172516644001,0.004480808041989803
1782829282514232000,6.454232177734375,-0.015033545903861523,0.033402152359485626,0.005238478071987629
1782829282524161000,6.4641611328125,-0.009319154545664787,0.01760132983326912,-0.002787832636386156
1782829282534090000,6.474090087890625,-0.007597420364618301,0.001574425958096981,-0.010258532129228115
1782829282544018000,6.484017822265625,-0.004693193361163139,-0.008207118138670921,-0.015266413800418377
1782829282553947100,6.493947021484375,0.0004480388015508652,-0.015563568100333214,-0.02007581666111946
1782829282563876000,6.5038759765625,0.00561222480610013,-0.03221793472766876,-0.013413194566965103
1782829282573805000,6.51380517578125,0.00774914538487792,-0.012419460341334343,0.0003169979900121689
1782829282583734000,6.523734130859375,0.011175298132002354,0.0062554981559515,0.012792138382792473
1782829282593663200,6.533663330078125,0.024763811379671097,0.024597221985459328,0.015927212312817574
1782829282603591200,6.543591064453125,0.023423515260219574,0.03244423121213913,0.020603394135832787
1782829282613520100,6.55352001953125,0.02243415080010891,0.028873201459646225,0.022707290947437286
1782829282623449000,6.563448974609375,0.01285333838313818,0.0009535765275359154,0.022239064797759056
1782829282633378000,6.5733779296875,0.004741349723190069,-0.01716657169163227,0.011304391548037529
1782829282643307300,6.583307373046875,0.0032423725351691246,-0.028363771736621857,0.011123519390821457
1782829282653236200,6.593236328125,0.00246366485953331,-0.006626785267144442,0.024232931435108185
1782829282663164200,6.6031640625,0.009548205882310867,0.02108260802924633,0.032559834420681
1782829282673093000,6.613093017578125,0.011172201484441757,0.031821005046367645,0.03419981151819229
1782829282683022000,6.62302197265625,0.008710639551281929,0.02060864120721817,0.029331916943192482
1782829282692951300,6.632951416015625,-0.0031532105058431625,0.01540322694927454,0.019292596727609634
1782829282702880300,6.64288037109375,-0.016284357756376266,-0.010617305524647236,0.0005495548248291016
1782829282712808200,6.65280810546875,-0.025178784504532814,-0.015069311484694481,-0.004004450514912605
1782829282722737200,6.662737060546875,-0.025024686008691788,-0.004201178438961506,-0.003501761704683304
1782829282732666000,6.672666015625,-0.0207684226334095,0.013517098501324654,0.001330011524260044
1782829282742595000,6.682594970703125,-0.011695226654410362,0.018727313727140427,-0.003828063141554594
1782829282752524000,6.69252392578125,-0.006398199126124382,0.005441867746412754,-0.01061752624809742
1782829282762453000,6.702452880859375,-0.01390235498547554,-0.020424656569957733,-0.02668612450361252
1782829282772381200,6.712381103515625,-0.023512903600931168,-0.04440029710531235,-0.03383511304855347
1782829282782310000,6.722309814453125,-0.030604297295212746,-0.04123112931847572,-0.03393131494522095
1782829282792239000,6.732239013671875,-0.027397850528359413,-0.028471125289797783,-0.020278621464967728
1782829282802168000,6.74216796875,-0.019784482195973396,-0.001198689453303814,-0.004369004629552364
1782829282812097000,6.752096923828125,-0.007853252813220024,0.014277204871177673,0.008545994758605957
1782829282822025000,6.76202490234375,0.006294984370470047,0.028202947229146957,0.03002774715423584
1782829282831954000,6.771953857421875,0.007657990325242281,0.013606960885226727,0.04313822090625763
1782829282841883100,6.781883056640625,0.009945740923285484,-0.008988939225673676,0.038467954844236374
1782829282851812000,6.79181201171875,0.0032497551292181015,-0.027687791734933853,0.015525086782872677
1782829282861741000,6.801740966796875,-0.007089648395776749,-0.03420943766832352,-0.009278967045247555
1782829282871670000,6.811669921875,-0.011292649433016777,-0.025547508150339127,-0.0249178484082222
1782829282881599000,6.821598876953125,-0.005730177275836468,-0.014339623041450977,-0.03240656852722168
1782829282891528200,6.831528076171875,-0.004500062204897404,-0.0030512819066643715,-0.02957056649029255
1782829282901457200,6.84145703125,-0.00704675167798996,-0.0010127648711204529,-0.0199139267206192
1782829282911386000,6.85138623046875,-0.009849196299910545,0.015306553803384304,-0.012114327400922775
1782829282921315000,6.861315185546875,-0.0006525497883558273,0.0002132980152964592,-0.014925583265721798
1782829282931243800,6.871243896484375,0.006058616563677788,-0.008759424090385437,-0.031198563054203987
1782829282941172200,6.881172119140625,0.005711269564926624,-0.024963004514575005,-0.042568404227495193
1782829282951101200,6.89110107421875,-0.0011841868981719017,-0.056989915668964386,-0.0453367605805397
1782829282961030000,6.90102978515625,-0.018211688846349716,-0.08836600929498672,-0.03242924064397812
1782829282970958800,6.910958740234375,-0.005678054876625538,-0.07869181036949158,-0.018743786960840225
1782829282980888000,6.92088818359375,-0.01584508642554283,-0.04005787894129753,-0.0034078462049365044
1782829282990816000,6.93081591796875,-0.02101375162601471,0.0020320499315857887,0.00398668646812439
1782829283000745000,6.940744873046875,-0.019782688468694687,0.014272485859692097,0.014853853732347488
1782829283010674000,6.950673828125,0.00013828836381435394,0.012733976356685162,0.023087549954652786
1782829283020603000,6.960602783203125,0.02147592231631279,0.041370585560798645,0.034412138164043427
1782829283030532000,6.970531982421875,0.05000556632876396,0.06813163310289383,0.05077566206455231
1782829283040461000,6.9804609375,0.06133560091257095,0.08680900931358337,0.062358785420656204
1782829283050389000,6.990388916015625,0.05679038166999817,0.06737671792507172,0.0657053142786026
1782829283060318000,7.00031787109375,0.0363227054476738,0.03103112429380417,0.06419353187084198
1782829283070247000,7.010246826171875,0.006937119644135237,-0.0049662902019917965,0.05565756931900978
1782829283080176000,7.020176025390625,-0.01442763488739729,-0.0318305678665638,0.04927916079759598
1782829283090105000,7.03010498046875,-0.014331228099763393,-0.031155988574028015,0.02762792818248272
1782829283100033000,7.040032958984375,-0.01775180920958519,-0.040646400302648544,-0.0034063016064465046
1782829283109962000,7.0499619140625,-0.021689295768737793,-0.06290829181671143,-0.01713676005601883
1782829283119891000,7.059890869140625,-0.021354280412197113,-0.05189957469701767,-0.028756165876984596
1782829283129820200,7.069820068359375,-0.03691885992884636,0.009680701419711113,-0.055114537477493286
1782829283139749000,7.0797490234375,-0.06066440790891647,0.0842263475060463,-0.06380058079957962
1782829283149678000,7.089677978515625,-0.051903411746025085,0.1565580666065216,-0.06999882310628891
1782829283159606000,7.09960595703125,-0.055880576372146606,0.19242116808891296,-0.06262463331222534
1782829283169535000,7.109534912109375,-0.04647695645689964,0.1817038208246231,-0.036756813526153564
1782829283179464200,7.119464111328125,-0.03200969845056534,0.10927484929561615,-0.017086386680603027
1782829283189393200,7.12939306640625,-0.01493457518517971,-0.0038684792816638947,0.011976159177720547
1782829283199322000,7.139322021484375,0.0003373967483639717,-0.05889078974723816,0.04121297970414162
1782829283209250800,7.149250732421875,0.022790241986513138,-0.05218680948019028,0.05306617543101311
1782829283219179000,7.159178955078125,0.042754165828228,-0.01480846293270588,0.04082179069519043
1782829283229108000,7.16910791015625,0.04958384484052658,0.009051328524947166,0.02006591483950615
1782829283239037000,7.179036865234375,0.03881290555000305,0.02092018350958824,-0.001248450018465519
1782829283248966000,7.1889658203125,0.011815911158919334,0.029795166105031967,-0.019489772617816925
1782829283258894800,7.198894775390625,-0.011943332850933075,0.03935904800891876,-0.022146232426166534
1782829283268822800,7.20882275390625,-0.02395125851035118,0.0511440671980381,-0.006382449995726347
1782829283278752000,7.218751953125,-0.03187971189618111,0.06018083542585373,0.01003339421004057
1782829283288681000,7.228680908203125,-0.02685113251209259,0.05510352551937103,0.014513096772134304
1782829283298610000,7.23860986328125,-0.0022127991542220116,0.06125165522098541,0.013508935458958149
1782829283308539000,7.248538818359375,0.019996099174022675,0.040565818548202515,0.0033303331583738327
1782829283318468000,7.258468017578125,0.03376132994890213,-0.016361018642783165,-0.014476656913757324
1782829283328396000,7.26839599609375,0.036252982914447784,-0.055777400732040405,-0.03365221619606018
1782829283338325000,7.278324951171875,0.013357395306229591,-0.07816541194915771,-0.036284539848566055
1782829283348254000,7.28825390625,-0.0020415345206856728,-0.05278468504548073,-0.03711597993969917
1782829283358183000,7.298182861328125,-0.017112385481595993,0.0025455448776483536,-0.03368378058075905
1782829283368112000,7.308112060546875,-0.04351815953850746,0.038718994706869125,-0.035470493137836456
1782829283378041000,7.318041015625,-0.04902542382478714,0.0535915270447731,-0.043300479650497437
1782829283387969000,7.327968994140625,-0.037941351532936096,0.05457715690135956,-0.048240646719932556
1782829283397898000,7.33789794921875,-0.014767061918973923,0.03505415469408035,-0.055643629282712936
1782829283407827000,7.347826904296875,0.013010773807764053,0.01926080696284771,-0.04611963406205177
1782829283417756200,7.357756103515625,0.02538253739476204,0.014750989153981209,-0.016486717388033867
1782829283427685000,7.36768505859375,0.0106129115447402,-0.0008234428241848946,0.017945026978850365
1782829283437614000,7.377614013671875,-0.005398835055530071,-0.012818880379199982,0.028691401705145836
1782829283447542000,7.3875419921875,-0.023243878036737442,0.022257348522543907,0.01787683740258217
1782829283457471200,7.39747119140625,-0.03886709734797478,0.043317992240190506,-0.0033846013247966766
1782829283467400200,7.407400146484375,-0.03868706524372101,0.03884787857532501,-0.000393605325371027
1782829283477329000,7.417328857421875,-0.033797867596149445,0.037994831800460815,0.018597714602947235
1782829283487257900,7.4272578125,-0.02581929974257946,0.03801161050796509,0.039171162992715836
1782829283497186000,7.43718603515625,-0.01487965788692236,0.04125520586967468,0.0448058657348156
1782829283507115000,7.447114990234375,-0.0025159334763884544,0.026057079434394836,0.03313642740249634
1782829283517044000,7.4570439453125,0.0046857320703566074,0.014602141454815865,0.01773950457572937
1782829283526973000,7.466972900390625,-0.003509880043566227,0.0182378888130188,0.0072152260690927505
1782829283536902000,7.47690185546875,-0.021770521998405457,0.05037591978907585,0.013229932636022568
1782829283546831000,7.4868310546875,-0.03605012595653534,0.08744046092033386,0.02402265928685665
1782829283556759000,7.496759033203125,-0.042880311608314514,0.08837518095970154,0.018775612115859985
1782829283566688000,7.50668798828125,-0.037169694900512695,0.07049498707056046,-0.005981931462883949
1782829283576617000,7.516616943359375,-0.022462667897343636,0.03178873658180237,-0.02730035036802292
1782829283586546000,7.5265458984375,-0.003250093199312687,-0.001091979444026947,-0.030780036002397537
1782829283596475100,7.53647509765625,0.022573191672563553,-0.0003254031762480736,-0.02003483474254608
1782829283606404000,7.546404052734375,0.044365573674440384,0.009469171054661274,-0.003142937086522579
1782829283616332000,7.55633203125,0.04054616391658783,0.022242259234189987,0.028234906494617462
1782829283626261000,7.566260986328125,0.014216024428606033,0.016467727720737457,0.04856361448764801
1782829283636190000,7.57618994140625,-0.005643807351589203,0.006471216678619385,0.05287054926156998
1782829283646119200,7.586119140625,-0.02108881063759327,-0.00010386202484369278,0.03776589781045914
1782829283656048000,7.596048095703125,-0.021924477070569992,-0.01286459993571043,0.007079883478581905
1782829283665977000,7.60597705078125,-0.011703797616064548,-0.023083148524165154,-0.019444402307271957
1782829283675905000,7.615905029296875,-0.0018387464806437492,-0.018683111295104027,-0.036441441625356674
1782829283685834000,7.625833984375,0.006886035669595003,-0.004900453612208366,-0.054077692329883575
1782829283695763200,7.63576318359375,0.009350140579044819,0.03280015289783478,-0.05425109714269638
1782829283705692200,7.645692138671875,-0.0005166046321392059,0.05765517055988312,-0.030985452234745026
1782829283715621000,7.65562109375,-0.01847497932612896,0.056415021419525146,-0.004778950475156307
1782829283725549800,7.6655498046875,-0.01907605491578579,0.05265357345342636,0.027866076678037643
1782829283735478000,7.67547802734375,-0.03279823809862137,0.03941510617733002,0.05078960955142975
1782829283745407200,7.6854072265625,-0.024367470294237137,0.043426092714071274,0.05324797332286835
1782829283755336000,7.6953359375,-0.0012522460892796516,0.049884770065546036,0.04127885401248932
1782829283765265000,7.705264892578125,0.011969017796218395,0.046275388449430466,0.02774493582546711
1782829283775193900,7.71519384765625,0.02714518830180168,0.025883927941322327,0.014797418378293514
1782829283785121800,7.725121826171875,0.03317085653543472,-0.004704871214926243,0.014729774557054043
1782829283795051000,7.735051025390625,0.04270565137267113,-0.01621440425515175,0.02207231894135475
1782829283804980000,7.74497998046875,0.03930159658193588,-0.018942013382911682,0.027152566239237785
1782829283814909000,7.754908935546875,0.028126105666160583,-0.026273805648088455,0.012929147109389305
1782829283824838000,7.764837890625,0.019899066537618637,-0.01642969623208046,-0.007413142826408148
1782829283834767000,7.77476708984375,-0.01618172600865364,0.005444499664008617,-0.018637746572494507
1782829283844695000,7.784695068359375,-0.03413090109825134,0.01789025217294693,-0.01606939360499382
1782829283854624000,7.7946240234375,-0.021397219970822334,0.012275395914912224,-0.015149179846048355
1782829283864553000,7.804552978515625,-0.0019795792177319527,-0.006196821574121714,-0.004074158146977425
1782829283874482000,7.81448193359375,0.02196936123073101,0.004139518365263939,0.027760900557041168
1782829283884410400,7.824410400390625,0.028020329773426056,0.013239806517958641,0.07639048993587494
1782829283894339600,7.834339599609375,0.01943039521574974,0.0025654584169387817,0.10439710319042206
1782829283904267500,7.844267578125,0.01774301752448082,-0.020805910229682922,0.09690643101930618
1782829283914196500,7.854196533203125,0.010149694047868252,-0.026608839631080627,0.05831266939640045
1782829283924125400,7.86412548828125,0.007700384594500065,-0.019616708159446716,0.014742291532456875
1782829283934054400,7.874054443359375,-0.00045812781900167465,0.006337757222354412,-0.033758096396923065
1782829283943983600,7.883983642578125,-0.003792671486735344,0.028211630880832672,-0.07055499404668808
1782829283953912600,7.89391259765625,-0.004181260243058205,0.048503197729587555,-0.07092475146055222
1782829283963840500,7.903840576171875,-0.015908490866422653,0.019261687994003296,-0.041664332151412964
1782829283973769500,7.91376953125,-0.022413328289985657,-0.04695533215999603,-0.0066774263978004456
1782829283983698400,7.923698486328125,-0.01374287623912096,-0.074583500623703,0.02589995786547661
1782829283993627600,7.933627685546875,-0.0016242610290646553,-0.06882818043231964,0.04192052036523819
1782829284003556600,7.943556640625,0.020986774936318398,-0.051281414926052094,0.041647281497716904
1782829284013485300,7.9534853515625,0.03258048743009567,-0.028163526207208633,0.027519362047314644
1782829284023413500,7.96341357421875,0.035004228353500366,-0.011326756328344345,-0.0030768965370953083
1782829284033342500,7.973342529296875,0.028602324426174164,-0.0007120110094547272,-0.04144176095724106
1782829284043271400,7.983271484375,0.009439816698431969,-0.006515571381896734,-0.05903273820877075
1782829284053200400,7.993200439453125,-0.011767060495913029,-0.014019894413650036,-0.05152364820241928
1782829284063129300,8.00312939453125,-0.02697743847966194,-0.01218124758452177,-0.023269105702638626
1782829284073058300,8.013058349609375,-0.017565123736858368,-0.006025839131325483,0.011536961421370506
1782829284082986200,8.022986328125,0.003034694120287895,-0.002452676184475422,0.037410371005535126
1782829284092915500,8.03291552734375,0.018112387508153915,-0.0033345427364110947,0.04423311725258827
1782829284102844400,8.042844482421875,0.03371771425008774,-0.01094532385468483,0.03601673245429993
1782829284112773400,8.0527734375,0.042753271758556366,-0.01885802112519741,0.013950116001069546
1782829284122702300,8.062702392578124,0.03927811235189438,-0.025991830974817276,-0.01663176156580448
1782829284132631600,8.072631591796876,0.026270441710948944,-0.036777812987565994,-0.041319698095321655
1782829284142559500,8.0825595703125,0.00647915992885828,-0.029185671359300613,-0.038492754101753235
1782829284152488400,8.092488525390625,-0.004352116025984287,-0.011210480704903603,-0.01540171168744564
1782829284162417400,8.10241748046875,-0.003122268244624138,0.018547147512435913,0.009566221386194229
1782829284172346400,8.112346435546876,0.012365332804620266,0.029394617304205894,0.026369623839855194
1782829284182275600,8.122275634765625,0.02372904121875763,0.009885096922516823,0.02694166824221611
1782829284192204500,8.13220458984375,0.03058360330760479,-0.011766685172915459,0.014615356922149658
1782829284202132500,8.142132568359376,0.03190426528453827,-0.011480662040412426,-0.00014068512246012688
1782829284212061400,8.1520615234375,0.02533937245607376,0.006428215652704239,0.00790402851998806
1782829284221990700,8.16199072265625,0.007541467435657978,0.029770024120807648,0.024004966020584106
1782829284231919600,8.171919677734374,-0.00010686926543712616,0.044821321964263916,0.0381515808403492
1782829284241848600,8.1818486328125,-0.0024821432307362556,0.037117063999176025,0.03600320965051651
1782829284251777500,8.191777587890625,0.0060560209676623344,0.02590780332684517,0.026100199669599533
1782829284261705500,8.20170556640625,0.022445380687713623,0.020956452935934067,0.015353813767433167
1782829284271634700,8.211634765625,0.025797076523303986,0.00583278015255928,0.00569508783519268
1782829284281563600,8.221563720703125,0.028578482568264008,-0.026084937155246735,-0.005704839713871479
1782829284291492400,8.231492431640625,0.02389572560787201,-0.05069492757320404,-0.010850727558135986
1782829284301421300,8.24142138671875,0.016112105920910835,-0.05551231652498245,-0.007395275868475437
1782829284311350500,8.2513505859375,0.007325657643377781,-0.029224805533885956,0.007503373548388481
1782829284321278500,8.261278564453125,-0.004448178224265575,0.006056752055883408,0.01845615729689598
1782829284331207400,8.27120751953125,-0.00691562332212925,0.03167925775051117,0.011003553867340088
1782829284341136400,8.281136474609376,0.0032589836046099663,0.04029165580868721,-0.0056119076907634735
1782829284351065300,8.2910654296875,0.021027162671089172,0.03642744943499565,-0.0163133405148983
1782829284360994600,8.30099462890625,0.027460826560854912,0.01908867433667183,-0.016386043280363083
1782829284370923500,8.310923583984374,0.016987506300210953,-0.017600415274500847,-0.004967358894646168
1782829284380851500,8.3208515625,0.01149233989417553,-0.033660873770713806,0.011005481705069542
1782829284390780400,8.330780517578125,0.005442297086119652,-0.014295357279479504,0.02635536901652813
1782829284400709400,8.34070947265625,0.0013463553041219711,0.0020545879378914833,0.032776519656181335
1782829284410638600,8.350638671875,0.007825094275176525,0.017168210819363594,0.027731526643037796
1782829284420567600,8.360567626953125,0.009256277233362198,0.017971687018871307,0.010579705238342285
1782829284430496500,8.37049658203125,0.012543718330562115,0.015007447451353073,0.006089462898671627
1782829284440424400,8.380424560546874,0.014533898793160915,0.02492399513721466,0.008291897363960743
1782829284450353400,8.390353515625,0.015214061364531517,0.030549831688404083,0.01157201174646616
1782829284460282600,8.40028271484375,0.014572772197425365,0.014200416393578053,0.015340917743742466
1782829284470211600,8.410211669921875,0.009394735097885132,-0.002472899854183197,0.016038641333580017
1782829284480140500,8.420140625,0.006816529203206301,-0.022497475147247314,0.017992336302995682
1782829284490069500,8.430069580078126,0.00610773079097271,-0.022375335916876793,0.021583404392004013
1782829284499997400,8.43999755859375,0.0072409058921039104,-0.007080801762640476,0.019188158214092255
1782829284509926700,8.4499267578125,0.00841985922306776,0.0047846101224422455,0.025478262454271317
1782829284519855600,8.459855712890626,0.010941872373223305,0.016936082392930984,0.03417108580470085
1782829284529784300,8.469784423828125,0.011693969368934631,0.019640464335680008,0.030982397496700287
1782829284539713300,8.47971337890625,0.022668588906526566,0.02992852032184601,0.025308534502983093
1782829284549642500,8.489642578125,0.022322729229927063,0.035226449370384216,0.020783327519893646
1782829284559570400,8.4995703125,0.018240367993712425,0.052970558404922485,0.01755237951874733
1782829284569499400,8.50949951171875,0.013562294654548168,0.05070408806204796,0.012398988008499146
1782829284579428400,8.519428466796874,0.008844505064189434,0.030608143657445908,0.009804802015423775
1782829284589357300,8.529357421875,0.010222351178526878,0.003912076354026794,0.010038956999778748
1782829284599286500,8.53928662109375,0.013984598219394684,-0.04334971308708191,0.001984492875635624
1782829284609215500,8.549215576171875,0.01746842823922634,-0.06099073961377144,-0.01252373680472374
1782829284619143400,8.559143310546874,0.012233451940119267,-0.06356894969940186,-0.01902824267745018
1782829284629072400,8.569072265625,-0.000967872329056263,-0.0478159636259079,-0.03177448734641075
1782829284639001300,8.57900146484375,-0.0032994700595736504,-0.032879091799259186,-0.05103473365306854
1782829284648930600,8.5889306640625,0.002236532047390938,-0.006143936887383461,-0.056490372866392136
1782829284658859500,8.598859619140624,0.0128098139539361,0.011562887579202652,-0.04435168579220772
1782829284668788500,8.60878857421875,0.022844543680548668,0.02325798198580742,-0.02625107765197754
1782829284678716400,8.61871630859375,0.0280907042324543,0.02001584693789482,0.003214135766029358
1782829284688645400,8.628645263671874,0.02557351253926754,0.01536629255861044,0.04059185832738876
1782829284698574600,8.63857470703125,0.014719799160957336,0.006063603796064854,0.06409797817468643
1782829284708503600,8.648503662109375,0.004782083909958601,-0.00861930288374424,0.06339683383703232
1782829284718432500,8.6584326171875,-0.012405424378812313,-0.011432133615016937,0.03506452590227127
1782829284728361500,8.668361572265624,-0.01852036640048027,-0.006772467866539955,0.007967371493577957
1782829284738289400,8.678289306640625,-0.020831722766160965,-0.006565806921571493,-0.025191912427544594
1782829284748218600,8.688218505859375,0.0010820794850587845,0.0034107211977243423,-0.04235882684588432
1782829284758147600,8.698147705078124,0.017077291384339333,0.010228680446743965,-0.037743568420410156
1782829284768076500,8.70807666015625,0.02435958757996559,0.007686177268624306,-0.014680188149213791
1782829284778005200,8.718005126953125,0.023005902767181396,0.009953858330845833,0.020373936742544174
1782829284787934500,8.7279345703125,0.002283656969666481,-0.0037286262959241867,0.047667525708675385
1782829284797862700,8.737862548828126,-0.01961338520050049,-0.018051372841000557,0.052062537521123886
1782829284807791400,8.747791259765625,-0.0266581978648901,-0.02980232611298561,0.02992786467075348
1782829284817720300,8.75772021484375,-0.013693928718566895,-0.031516872346401215,-0.00745892059057951
1782829284827649300,8.767649169921874,0.012422049418091774,-0.007704108487814665,-0.03287675231695175
1782829284837578500,8.77757861328125,0.0367811843752861,0.018260113894939423,-0.03208206593990326
1782829284847507500,8.787507568359375,0.03802017122507095,0.02330237627029419,-0.01292937621474266
1782829284857435400,8.797435302734375,0.02933133952319622,0.009934374131262302,0.016226910054683685
1782829284867364400,8.8073642578125,0.012479553930461407,-0.005817733239382505,0.04170968383550644
1782829284877293600,8.81729345703125,-0.010080083273351192,-0.01326366513967514,0.04455607384443283
1782829284887221800,8.8272216796875,-0.02346363291144371,-0.012496182695031166,0.038685452193021774
1782829284897150700,8.837150634765624,-0.01860016956925392,-0.0036164047196507454,0.016645397990942
1782829284907080000,8.847079833984376,-0.010034056380391121,0.0031661996617913246,-0.005998903885483742
1782829284917009000,8.8570087890625,0.0031813476234674454,0.014710736460983753,-0.011752396821975708
1782829284926936800,8.866936767578125,0.003322920762002468,0.012242921628057957,-0.0028415084816515446
1782829284936865800,8.87686572265625,-0.00864106323570013,-0.00088486447930336,0.004943709820508957
1782829284946794800,8.886794677734375,-0.021235385909676552,-0.011948047205805779,-0.0010557472705841064
1782829284956724000,8.896723876953125,-0.03736668825149536,-0.025880906730890274,-0.00835547223687172
1782829284966653000,8.90665283203125,-0.042218729853630066,-0.03800080716609955,-0.02192758396267891
1782829284976582000,8.916581787109376,-0.038304414600133896,-0.04197424277663231,-0.03168833628296852
1782829284986509800,8.926509765625,-0.027077607810497284,-0.02911103144288063,-0.02279851771891117
1782829284996438800,8.936438720703125,-0.019634872674942017,0.013668390922248363,0.009772741235792637
1782829285006368000,8.946367919921874,-0.016592510044574738,0.041806697845458984,0.04287651926279068
1782829285016297000,8.956296875,-0.022120166569948196,0.03202331066131592,0.05171714723110199
1782829285026226000,8.966225830078125,-0.024947233498096466,0.0019200164824724197,0.03498118370771408
1782829285036154600,8.976154541015624,-0.024112064391374588,-0.016170836985111237,0.011624731123447418
1782829285046082800,8.986082763671876,-0.02576068975031376,-0.020512953400611877,-0.008902055211365223
1782829285056012000,8.996011962890625,-0.0270302202552557,-0.011075775139033794,-0.012247517704963684
1782829285065940700,9.005940673828125,-0.015947945415973663,0.010897081345319748,-0.0012935679405927658
1782829285075869700,9.01586962890625,-0.004840433597564697,0.025028079748153687,0.0071933940052986145
1782829285085798700,9.025798583984376,0.004713577218353748,0.01945664919912815,0.008863159455358982
1782829285095727900,9.035727783203125,0.011777877807617188,-0.007561918813735247,0.00933240819722414
1782829285105655800,9.04565576171875,0.00010688696056604385,-0.03384049981832504,0.005375843495130539
1782829285115584800,9.055584716796876,-0.012828619219362736,-0.035484734922647476,-0.00439689215272665
1782829285125513700,9.065513671875,-0.019131727516651154,-0.02709021419286728,-0.017433909699320793
1782829285135442700,9.075442626953125,-0.022279847413301468,-0.01520559098571539,-0.014924146234989166
1782829285145372000,9.085371826171874,-0.01349774468690157,-0.00020435452461242676,-0.004487914964556694
1782829285155300900,9.09530078125,0.00456780893728137,0.021030094474554062,0.02134741097688675
1782829285165228800,9.105228759765625,0.010576605796813965,0.021397925913333893,0.04127413034439087
1782829285175157800,9.11515771484375,0.011246124282479286,0.01091146282851696,0.03821602463722229
1782829285185087000,9.1250869140625,0.006381201092153788,0.00630145613104105,0.022042153403162956
1782829285195016000,9.135015869140625,-0.0029537109658122063,0.002394864335656166,-0.0022546635009348392
1782829285204945000,9.14494482421875,-0.01157959084957838,0.005347553640604019,-0.019120514392852783
1782829285214873900,9.154873779296874,-0.023366209119558334,0.008797943592071533,-0.03204403445124626
1782829285224802800,9.164802734375,-0.028465647250413895,-0.002904459834098816,-0.040103208273649216
1782829285234731000,9.17473095703125,-0.022795245051383972,-0.01929728128015995,-0.041657160967588425
1782829285244660000,9.184659912109375,-0.01791653409600258,-0.027058880776166916,-0.036462560296058655
1782829285254589000,9.1945888671875,-0.012133481912314892,-0.041617050766944885,-0.03236715495586395
1782829285264518000,9.204517822265625,-0.008994844742119312,-0.047938019037246704,-0.02207249030470848
1782829285274446800,9.21444677734375,-0.008391107432544231,-0.035382017493247986,-0.01144221518188715
1782829285284375800,9.224375732421874,-0.01157438289374113,-0.012292676605284214,0.004411849193274975
1782829285294304000,9.234303955078126,-0.0009267991408705711,0.02404562197625637,0.0030858609825372696
1782829285304233000,9.24423291015625,0.003114888444542885,0.030367974191904068,0.0007560644298791885
1782829285314161700,9.25416162109375,0.00892457365989685,0.025951121002435684,0.005862675607204437
1782829285324091000,9.2640908203125,0.008842162787914276,0.020156368613243103,0.009748101234436035
1782829285334019800,9.274019775390625,0.014949589967727661,0.013015368022024632,0.011256515979766846
1782829285343948800,9.28394873046875,0.013555544428527355,-0.006000417750328779,0.00717428233474493
1782829285353876700,9.293876708984374,0.011636204086244106,-0.02827749401330948,0.0022964365780353546
1782829285363805700,9.3038056640625,0.011246595531702042,-0.047585051506757736,-0.0007905992679297924
1782829285373735000,9.31373486328125,0.009926998987793922,-0.05331564322113991,-0.005270035937428474
1782829285383663900,9.323663818359375,0.005330858752131462,-0.033370763063430786,-0.003229547291994095
1782829285393591000,9.333591064453126,-0.002875938080251217,-0.003262929618358612,-0.0016124756075441837
1782829285403519000,9.34351904296875,-0.00819147564470768,0.01406554039567709,-0.011309349909424782
1782829285413448000,9.353447998046875,0.0009697973728179932,0.026211149990558624,-0.027267809957265854
1782829285423377000,9.363376953125,0.010632367804646492,0.024696558713912964,-0.03713097795844078
1782829285433305900,9.373305908203125,0.021661316975951195,0.012048941105604172,-0.03693603351712227
1782829285443234800,9.38323486328125,0.0221041738986969,-0.006763662677258253,-0.018177006393671036
1782829285453163800,9.393163818359374,0.012533037923276424,-0.026410069316625595,0.006602374836802483
1782829285463092000,9.403092041015626,0.0006787143647670746,-0.027520518749952316,0.022856876254081726
1782829285473020700,9.413020751953125,-0.012221105396747589,-0.019702810794115067,0.03250231221318245
1782829285482949600,9.42294970703125,-0.011977588757872581,-0.008264487609267235,0.02521505579352379
1782829285492878800,9.43287890625,-0.0008924463763833046,-0.00048193149268627167,0.009751411154866219
1782829285502807800,9.442807861328125,0.013937130570411682,0.010200947523117065,0.0036435388028621674
1782829285512736800,9.45273681640625,0.018220558762550354,0.018429849296808243,0.006892861798405647
1782829285522664700,9.462664794921874,0.016051234677433968,0.02729242481291294,0.007553364150226116
1782829285532594000,9.472593994140626,0.006563722621649504,0.02264946885406971,0.0026073409244418144
1782829285542523000,9.48252294921875,-0.006041654385626316,0.003188640810549259,-0.0026054801419377327
1782829285552451800,9.492451904296875,-0.01316827442497015,-0.011890443973243237,-0.00023073935881257057
1782829285562380800,9.502380859375,-0.01936054602265358,-0.027763795107603073,-0.0008240644820034504
1782829285572309800,9.512309814453126,-0.014258463867008686,-0.023664390668272972,-0.0018360656686127186
1782829285582239000,9.522239013671875,-0.0009819148108363152,-0.016619686037302017,-0.00655840989202261
1782829285592167000,9.5321669921875,0.010980738326907158,-0.013970638625323772,-0.02193736657500267
1782829285602095900,9.542095947265626,0.013682709075510502,-0.005019498523324728,-0.031012821942567825
1782829285612024800,9.55202490234375,0.014698704704642296,0.0036959629505872726,-0.021096009761095047
1782829285621954000,9.5619541015625,0.005498923826962709,0.009286625310778618,-0.003047474194318056
1782829285631883000,9.571883056640624,-0.002658604644238949,0.003173339180648327,0.006552688777446747
1782829285641812000,9.58181201171875,-0.00861505139619112,0.0038956478238105774,-0.000193809624761343
1782829285651740000,9.591739990234375,-0.014470542781054974,0.013098467141389847,-0.004516386426985264
1782829285661668900,9.6016689453125,-0.012096776627004147,0.014995386824011803,-0.0007931720465421677
1782829285671598000,9.61159814453125,0.0069900993257761,0.016100864857435226,0.004107310436666012
1782829285681526800,9.62152685546875,0.022292915731668472,-0.0008901767432689667,0.006869743578135967
1782829285691455700,9.631455810546875,0.027595002204179764,-0.01532264519482851,0.016771109774708748
1782829285701384700,9.641384765625,0.028542406857013702,-0.030116256326436996,0.025977782905101776
1782829285711313000,9.65131298828125,0.02485233172774315,-0.02918468415737152,0.01980803906917572
1782829285721241900,9.661241943359375,0.017682554200291634,-0.02417724020779133,-0.003784207161515951
1782829285731170800,9.6711708984375,0.005661577917635441,-0.002998984418809414,-0.035653188824653625
1782829285741099800,9.681099853515626,-0.018122011795639992,0.028505295515060425,-0.05905749276280403
1782829285751028700,9.69102880859375,-0.04158712178468704,0.037234071642160416,-0.07123719155788422
1782829285760958000,9.7009580078125,-0.03904161974787712,0.030400998890399933,-0.08362432569265366
1782829285770887000,9.710886962890624,-0.021772351115942,0.018062572926282883,-0.0841044932603836
1782829285780814800,9.72081494140625,-0.008012587204575539,0.0030118143185973167,-0.06607106328010559
1782829285790743800,9.730743896484375,0.0011422960087656975,-0.010858194902539253,-0.02775404043495655
1782829285800672800,9.7406728515625,0.0064745317213237286,-0.020772786810994148,0.014123904518783092
1782829285810602000,9.75060205078125,0.012913522310554981,-0.031238213181495667,0.04775083810091019
1782829285820531000,9.760531005859375,0.01975161023437977,-0.0330536849796772,0.06690046191215515
1782829285830460000,9.7704599609375,0.022501323372125626,-0.03192184120416641,0.05529920011758804
1782829285840387800,9.780387939453124,0.013076690956950188,-0.02711283415555954,0.028032515197992325
1782829285850316800,9.79031689453125,-0.0182010717689991,-0.02422037348151207,-0.015713633969426155
1782829285860246000,9.80024609375,-0.04301326721906662,-0.01671842485666275,-0.05943458527326584
1782829285870175000,9.810175048828125,-0.0480562299489975,-0.006286557298153639,-0.08916211873292923
1782829285880104000,9.82010400390625,-0.0443890281021595,-0.0006277309730648994,-0.09625989198684692
1782829285890034200,9.8300341796875,-0.02279851585626602,0.0051406752318143845,-0.06807246059179306
1782829285899963100,9.839963134765625,-0.003273310139775276,-0.0121238324791193,-0.024192098528146744
1782829285909891000,9.84989111328125,0.014590641483664513,-0.020815856754779816,0.014031719416379929
1782829285919820300,9.8598203125,0.02535231038928032,-0.027474619448184967,0.036987509578466415
1782829285929749200,9.869749267578126,0.02980644814670086,-0.03505823761224747,0.040776386857032776
1782829285939678200,9.87967822265625,0.041150979697704315,-0.05654701590538025,0.024464525282382965
1782829285949607200,9.889607177734375,0.03594530001282692,-0.051230818033218384,0.014551708474755287
1782829285959536400,9.899536376953124,0.030465031042695045,-0.02137688174843788,0.0056931329891085625
1782829285969464300,9.90946435546875,0.031727369874715805,-0.0010098256170749664,-0.00007873633876442909
1782829285979393300,9.919393310546875,0.024573571979999542,0.008414633572101593,-0.023759474977850914
1782829285989322200,9.929322265625,0.010589845478534698,-0.002937357872724533,-0.056308895349502563
1782829285999251200,9.939251220703126,-0.0010687923058867455,-0.0033067185431718826,-0.07295989990234375
1782829286009180400,9.949180419921875,-0.009238837286829948,0.0006028022617101669,-0.05955301970243454
1782829286019109400,9.959109375,-0.008408543653786182,0.024509470909833908,-0.025425899773836136
1782829286029037300,9.969037353515626,0.005214057397097349,0.032823596149683,0.004281394183635712
1782829286038967000,9.978967041015625,0.027781039476394653,0.017208952456712723,0.01653928868472576
1782829286048896300,9.988896240234375,0.02747211419045925,-0.014904509298503399,0.025144759565591812
1782829286058825200,9.9988251953125,0.019609646871685982,-0.0453951396048069,0.025560643523931503
1782829286068754200,10.008754150390626,0.009622792713344097,-0.041091471910476685,0.014140211045742035
1782829286078683100,10.01868310546875,0.010197225026786327,-0.006325331516563892,0.0004527932032942772
1782829286088612400,10.0286123046875,-0.0016743484884500504,0.033336058259010315,-0.005057020112872124
1782829286098540300,10.038540283203124,-0.015805229544639587,0.03718271479010582,-0.0069384160451591015
1782829286108469200,10.04846923828125,-0.020228471606969833,0.021154746413230896,0.00614436250180006
1782829286118398200,10.058398193359375,-0.018232807517051697,0.005773770622909069,0.02530737593770027
1782829286128327200,10.0683271484375,-0.006225413642823696,-0.01512964628636837,0.04373379051685333
1782829286138256400,10.07825634765625,0.011678917333483696,-0.038929399102926254,0.058486081659793854
1782829286148185300,10.088185302734376,0.019324319437146187,-0.04834181070327759,0.06134071946144104
1782829286158114300,10.0981142578125,0.02090495079755783,-0.0336725078523159,0.051688097417354584
1782829286168042200,10.108042236328124,0.01627318188548088,-0.01850074529647827,0.01801322214305401
1782829286177971200,10.11797119140625,0.0022195493802428246,0.019340887665748596,-0.02419852837920189
1782829286187900400,10.127900390625,-0.011970038525760174,0.05848882719874382,-0.055337004363536835
1782829286197829000,10.1378291015625,-0.02930407226085663,0.06990911811590195,-0.06147943437099457
1782829286207758000,10.147758056640624,-0.025916796177625656,0.039807938039302826,-0.04544480890035629
1782829286217687000,10.15768701171875,-0.012837152928113937,0.0030268309637904167,-0.012003736570477486
1782829286227615200,10.167615234375,0.005979412235319614,-0.03412959352135658,0.029460348188877106
1782829286237544200,10.177544189453124,0.027702106162905693,-0.050046298652887344,0.05256658047437668
1782829286247473200,10.18747314453125,0.030603619292378426,-0.05587515980005264,0.04634330794215202
1782829286257402000,10.197402099609375,0.020960483700037003,-0.04330284148454666,0.026632316410541534
1782829286267331000,10.2073310546875,0.002264825627207756,-0.0030614109709858894,0.0008907327428460121
1782829286277260300,10.21726025390625,-0.012845379300415516,0.02904551662504673,-0.020019762217998505
1782829286287189200,10.227189208984376,-0.004090503789484501,0.05716770142316818,-0.031693462282419205
1782829286297117200,10.2371171875,0.007066379301249981,0.06886488199234009,-0.041929375380277634
1782829286307046100,10.247046142578125,0.021251175552606583,0.06329488009214401,-0.04788526892662048
1782829286316975000,10.25697509765625,0.028971709311008453,0.052020154893398285,-0.045091066509485245
1782829286326904300,10.266904296875,0.033189624547958374,0.04256646707653999,-0.05535915121436119
1782829286336833300,10.276833251953125,0.021116049960255623,0.0614284947514534,-0.04417916014790535
1782829286346762200,10.28676220703125,0.0150477709248662,0.04497335106134415,-0.0365380197763443
1782829286356690200,10.296690185546876,0.009202753193676472,0.006199968047440052,-0.019080426543951035
1782829286366619100,10.306619140625,0.013963686302304268,-0.026360105723142624,0.006359417922794819
1782829286376548400,10.31654833984375,0.013701174408197403,-0.03409178555011749,0.033406153321266174
1782829286386477300,10.326477294921874,0.012675058096647263,-0.011769702658057213,0.046818364411592484
1782829286396406300,10.33640625,0.00794111005961895,0.030341478064656258,0.025737162679433823
1782829286406335200,10.346335205078125,0.00026934128254652023,0.09116647392511368,-0.023223191499710083
1782829286416264200,10.35626416015625,-0.00915614701807499,0.14866621792316437,-0.057450681924819946
1782829286426192400,10.3661923828125,-0.016474515199661255,0.20749065279960632,-0.1053958386182785
1782829286436121300,10.376121337890625,-0.029295828193426132,0.3222618103027344,-0.06699954718351364
1782829286446050000,10.386050048828125,-0.09024093300104141,0.24562402069568634,-0.025363687425851822
1782829286455979000,10.39597900390625,-0.079267218708992,0.08942398428916931,-0.0012340657413005829
1782829286465908200,10.405908203125,-0.01955835148692131,-0.02523628994822502,-0.0008108895272016525
1782829286475837200,10.415837158203125,0.02137910947203636,-0.08712734282016754,-0.005167149007320404
1782829286485765000,10.42576513671875,0.05667824298143387,-0.09757305681705475,-0.019867531955242157
1782829286495694000,10.435694091796876,0.07784589380025864,-0.07809392362833023,-0.045138876885175705
1782829286505623300,10.445623291015625,0.05620451271533966,-0.03793131932616234,-0.053144872188568115
1782829286515552300,10.45555224609375,0.02893904037773609,-0.0012910552322864532,-0.03419622778892517
1782829286525481200,10.465481201171874,0.010756040923297405,-0.03568338230252266,-0.04717700555920601
1782829286535410200,10.47541015625,-0.00893455557525158,-0.10616916418075562,-0.09677082300186157
1782829286545339100,10.485339111328125,-0.016918979585170746,-0.07188895344734192,-0.16233839094638824
1782829286555267300,10.495267333984375,-0.04071663320064545,0.03729180246591568,-0.1952778398990631
1782829286565196300,10.5051962890625,-0.0728258341550827,0.13957636058330536,-0.20165210962295532
1782829286575125200,10.515125244140625,-0.0952482745051384,0.228022038936615,-0.1517738401889801
1782829286585054200,10.52505419921875,-0.10859550535678864,0.27618107199668884,-0.019541777670383453
1782829286594983400,10.5349833984375,-0.12909062206745148,0.19294871389865875,0.1520083248615265
1782829286604912400,10.544912353515626,-0.10472375899553299,0.012116621248424053,0.29960736632347107
