time,seconds_elapsed,z,y,x
1782829384360890600,0.085890625,-0.03766834413707256,-0.08612798527106642,-0.16884473732654004
1782829384370819600,0.095819580078125,0.03993628906905651,-0.13267083299830554,-0.03642159547898918
1782829384380748500,0.10574853515625,0.17039806771576405,-0.1905275402918458,0.08997611206658183
1782829384390677500,0.115677490234375,0.24127368492782114,-0.2477015260182321,0.1555215837644413
1782829384400606700,0.125606689453125,0.28993396320044995,-0.24869945101439953,0.19663703614808617
1782829384410534700,0.13553466796875,0.4187421294212341,-0.2760467460148036,0.26496128837689753
1782829384420463600,0.145463623046875,0.49367608211338515,-0.2577799985706806,0.35113347811587153
1782829384430392600,0.155392578125,0.5318734185606241,-0.19682707882747053,0.3109898299064487
1782829384440321500,0.165321533203125,0.5085813903003931,-0.2058224323183298,0.18442860236223785
1782829384450250800,0.175250732421875,0.38674014048278327,-0.25756270255818964,0.08106001609070226
1782829384460179500,0.185179443359375,0.352385450938344,-0.27748934603855013,0.01688141229925677
1782829384470108400,0.1951083984375,0.46736499829292294,-0.23306173689961432,0.018188677239231763
1782829384480037400,0.205037353515625,0.4707511335998773,-0.22633725095018742,0.022899430479761212
1782829384489965300,0.21496533203125,0.5292541759729386,-0.24505378798842428,0.04821766733797267
1782829384499894500,0.22489453125,0.5974515138864517,-0.20347367723509668,0.06981165950866415
1782829384509823500,0.234823486328125,0.5806441714704036,-0.1851451166011393,0.10363721061246468
1782829384519752400,0.24475244140625,0.6445476115822791,-0.15719956344664096,0.11929850653223692
1782829384529681400,0.254681396484375,0.9398860641747713,-0.03272913416922092,-0.028156930882856247
1782829384539610600,0.264610595703125,1.2367056952357292,0.08149228829443454,-0.18480810319911686
1782829384549539600,0.27453955078125,1.4054378755658865,0.10523162193074821,-0.21318945395499467
1782829384559467500,0.284467529296875,1.5324907225519417,0.04282923403158784,-0.13232991060614585
1782829384569396500,0.294396484375,1.8277227921605108,-0.01672302513346076,-0.06583725771866739
1782829384579325400,0.304325439453125,2.176439783719182,0.009824059399962424,0.01668232779689133
1782829384589254700,0.314254638671875,2.50071206985116,0.040435763023793696,-0.059583713749237356
1782829384599183600,0.32418359375,2.61755448846817,0.014741349796950817,-0.08819598718415946
1782829384609112600,0.334112548828125,2.5267910984814166,-0.07304638537988066,-0.042656727008894085
1782829384619041500,0.34404150390625,2.5216917295157906,-0.12439765630215406,0.019354707077611236
1782829384628970500,0.353970458984375,2.479465868204832,-0.04855272624492645,0.023400036945659664
1782829384638898700,0.363898681640625,2.2681916002213955,0.08730565074831247,-0.08700416531739756
1782829384648827600,0.37382763671875,2.1699445764809844,0.2412571721844375,-0.3289213540468365
1782829384658756600,0.383756591796875,2.2729221358746288,0.48934565169364214,-0.6162556561429053
1782829384668685300,0.393685302734375,2.433379824334383,0.6725482559248804,-0.8548015966072678
1782829384678614500,0.403614501953125,2.5669804855287075,0.6081757369965315,-0.9590578706998377
1782829384688543500,0.41354345703125,2.6215111171394585,0.4021823320254683,-0.7275332071743905
1782829384698472400,0.423472412109375,2.5736253303706644,0.2611477214381099,-0.3460101802853867
1782829384708401400,0.4334013671875,2.7142227185845376,0.043214580087363716,-0.18513554505519567
1782829384718329300,0.443329345703125,2.8951947872847317,-0.18715996355488895,0.1114807819860056
1782829384728258600,0.453258544921875,2.741086760112643,-0.34027474190592766,0.4356511421134695
1782829384738187500,0.4631875,2.356242808640003,-0.5567252434834837,0.7692525072026998
1782829384748116500,0.473116455078125,1.7020090848237275,-0.7995917505607009,0.9552518294803798
1782829384758045400,0.48304541015625,0.4626356316834688,-0.8989407441936432,0.87782576771155
1782829384767974700,0.492974609375,-1.4257687159329653,-0.5267176432326436,0.4559234937589615
1782829384777903600,0.502903564453125,-3.5086323903322216,0.09822393512576817,-0.288397985804826
1782829384787831600,0.51283154296875,-5.284805612519383,0.593405745626986,-1.0753181785799562
1782829384797760500,0.522760498046875,-6.953720821514725,1.0906101479969919,-1.8470174213476478
1782829384807689500,0.532689453125,-8.025019681450724,1.41493796370849,-2.1273802769958974
1782829384817618700,0.54261865234375,-8.385953180503845,0.984222487898916,-1.7370907734684644
1782829384827547600,0.552547607421875,-9.090413116735219,0.2537232705257833,-1.0118249267041683
1782829384837476600,0.5624765625,-10.221508565986156,-0.37801352093070745,-0.14622523803301155
1782829384847405300,0.5724052734375,-11.075948635804652,-1.097752713228017,0.7140745175991207
1782829384857334500,0.58233447265625,-11.447688191032409,-1.9221942428849637,0.9525191896460949
1782829384867262700,0.5922626953125,-11.354731674915552,-2.7107699477821585,0.8085692761339247
1782829384877191400,0.60219140625,-10.970996561467647,-3.23268954308331,0.7482176832847297
1782829384887120400,0.612120361328125,-10.306673405313491,-3.2160525887981057,0.8120102834332734
1782829384897049300,0.62204931640625,-9.879503639286757,-2.449151978483796,0.991169895884022
1782829384906978600,0.631978515625,-9.469059382611512,-2.120147257002443,0.944666576449573
1782829384916907500,0.641907470703125,-9.178370801651477,-2.059521669517457,0.8520113813668488
1782829384926836500,0.65183642578125,-9.648035893580317,-1.608631128424406,0.8311002568937838
1782829384936765400,0.661765380859375,-9.630664487540722,-1.5604346682712436,0.6007627938589081
1782829384946693400,0.671693359375,-7.699190229004621,-1.7907088202789425,0.1653557444333099
1782829384956622600,0.68162255859375,-5.475056381696462,-1.3197948973327875,0.1779823853649199
1782829384966551600,0.691551513671875,-3.3251381096780297,-0.6817872089132666,0.3988483652971685
1782829384976480500,0.70148046875,-1.2472487165600061,-0.24034151864424347,0.48102797826863825
1782829384986409500,0.711409423828125,-0.22616204051375388,0.35512627407908437,0.7815314124088734
1782829384996338700,0.721338623046875,0.014666823256015777,0.5424260844960809,1.0215404842283575
1782829385006266600,0.7312666015625,0.5672212107956409,0.01694441279917955,1.002885029727593
1782829385016195600,0.741195556640625,1.4153157109797,-0.32673706881031395,0.9266140562780201
1782829385026123800,0.751123779296875,2.2671178335100413,-0.18930808149948716,0.7541440045937895
1782829385036052700,0.761052734375,2.7809803790837524,0.4255928720988333,0.6866931741986423
1782829385045981700,0.770981689453125,3.3922558356612917,0.7524322322398423,0.7029488740812987
1782829385055910700,0.78091064453125,3.945153337550163,0.7100282378830015,0.7100950195088982
1782829385065839600,0.790839599609375,4.405929605102539,0.5349795678824186,0.5411482465799897
1782829385075768800,0.800768798828125,5.30614709123373,0.4288952746450901,0.44080151061397044
1782829385085697500,0.810697509765625,6.514174388995766,0.6267800458319485,0.7290397392798215
1782829385095625700,0.820625732421875,7.4027289098620415,1.0842508420981467,1.2934974036462603
1782829385105554700,0.8305546875,7.89440125093758,1.636899922183901,1.5597468321375547
1782829385115483600,0.840483642578125,8.16561239348948,2.0342546879224477,1.5294585152491926
1782829385125412600,0.85041259765625,7.918602210736275,1.956528474163264,1.0405196907907723
1782829385135341600,0.860341552734375,7.170101472726464,1.5949933559551834,0.6523411150027066
1782829385145270500,0.8702705078125,6.631970162814855,1.2834038796551526,0.5207398839972913
1782829385155199700,0.88019970703125,6.280988733455539,1.0824670274212955,0.26565756354536857
1782829385165128700,0.890128662109375,6.205866564714908,1.0557882793322204,-0.015339352222718297
1782829385175056600,0.900056640625,6.52104778189659,1.0441904882580042,-0.2543395757932216
1782829385184985600,0.909985595703125,7.183404021891951,1.2618041883960365,-0.3228874076448381
1782829385194914600,0.91991455078125,7.707367105719447,1.6553250750601292,-0.42993893847912545
1782829385204843800,0.92984375,7.893145697918534,1.9544407081037758,-0.3838907424010336
1782829385214772700,0.939772705078125,7.976480399209261,2.026653419138491,-0.5693138722259551
1782829385224701700,0.94970166015625,8.000400788500905,2.1021187022283674,-0.834977463653311
1782829385234630700,0.959630615234375,7.63029847908616,2.326264142222702,-0.9691258218582719
1782829385244560000,0.969559814453125,6.950677800557017,2.4767253373250364,-1.0748713115952908
1782829385254487800,0.97948779296875,6.1572974718570705,2.5750647155240176,-1.1021030173920094
1782829385264416800,0.989416748046875,5.515694097033142,2.690663271559775,-1.3135282381534577
1782829385274345700,0.999345703125,5.329111202713847,2.9063910118207334,-1.6645749878339469
1782829385284274700,1.009274658203125,5.80628447831571,3.09487477132529,-2.0404383449934422
1782829385294203600,1.01920361328125,6.040887599438428,3.573530686700344,-2.156324924190342
1782829385304132600,1.029132568359375,6.239532687473297,4.041624876050651,-2.220035764339566
1782829385314061600,1.0390615234375,6.148437873575091,4.254396689115464,-2.0203619177788497
1782829385323990500,1.048990478515625,5.217034975585341,4.240451165871322,-1.6584781322635709
1782829385333918500,1.05891845703125,3.6627386639386414,3.8994484019517897,-1.6049837118327617
1782829385343847700,1.06884765625,2.5131676467984914,3.19150150038749,-1.627002505286783
1782829385353776600,1.078776611328125,1.8305442793220281,2.1868752530157565,-1.2070556762509048
1782829385363705600,1.08870556640625,0.47224107989668845,0.9651800799071788,-0.45138416982889173
1782829385373634600,1.098634521484375,-1.5647171678960323,-0.27261428734809157,-0.08310366901382804
1782829385383563800,1.108563720703125,-3.4796488724321124,-1.341394442461431,0.04034560052230954
1782829385393492700,1.11849267578125,-4.636659684184194,-1.971473383708298,0.1848217298656702
1782829385403420700,1.128420654296875,-5.56956188082099,-2.1644988782957193,0.4805706629551947
1782829385413349600,1.138349609375,-6.078825408166646,-2.0394751990497113,0.5751714391477406
1782829385423278600,1.148278564453125,-5.824542019540071,-2.0346216215386987,0.004591565573960542
1782829385433207800,1.158207763671875,-6.24353666241765,-2.1994138320714236,0.2538167940281331
1782829385443136800,1.16813671875,-6.950576678270101,-2.320511862306297,0.7795644231848419
1782829385453065700,1.178065673828125,-8.289138235393166,-2.3657240459516644,1.3453954947963356
1782829385462994700,1.18799462890625,-9.003907968714833,-2.401870002827048,1.489198839444667
1782829385472923600,1.197923583984375,-9.469797633758187,-2.1590505497619508,1.2353836528517306
1782829385482851800,1.207851806640625,-10.185625936222076,-2.0847119326144457,0.898955211110413
1782829385492780800,1.21778076171875,-9.808087923848628,-2.528114456039667,1.0225361442022025
1782829385502709500,1.22770947265625,-10.45095094334483,-3.081396573331952,1.6032330687731504
1782829385512638500,1.237638427734375,-11.900364154237508,-3.774440212535858,2.2250275812774896
1782829385522567700,1.247567626953125,-13.798415451121329,-4.547428618331253,3.4728993981719016
1782829385532496600,1.25749658203125,-15.883451793384552,-5.265796376144886,4.508506767001748
1782829385542425600,1.267425537109375,-15.838168882590532,-6.4965481314122675,3.9534512102961537
1782829385552354600,1.2773544921875,-13.797559711074829,-6.894505831480026,3.2429777128636834
1782829385562282500,1.287282470703125,-11.805740581691264,-4.86563269046545,2.7384587496966124
1782829385572211700,1.297211669921875,-10.0672286893785,-3.428432772196829,2.5797218936800954
1782829385582140700,1.307140625,-7.955003895938396,-3.1169363810077306,2.1376078026302157
1782829385592069600,1.317069580078125,-5.905654953128099,-2.831457351389527,1.8643316903725264
1782829385601998600,1.32699853515625,-3.82887615160048,-2.390000993596017,1.7037983063280582
1782829385611927800,1.336927734375,-1.9658143350332975,-1.810898790870607,1.7342706014811993
1782829385621856800,1.346856689453125,-0.6205816295832395,-1.0991931212946773,1.7177626804031432
1782829385631785700,1.35678564453125,0.6363198814630509,-0.482406207819283,1.4394742929413913
1782829385641713700,1.366713623046875,1.7109189519882202,0.06838350813537836,1.166322537715733
1782829385651642600,1.376642578125,2.598458158332109,0.47134062392562626,0.8634207371968775
1782829385661571800,1.38657177734375,3.42001068854928,0.8209449197128414,0.6168621706686913
1782829385671500800,1.396500732421875,4.201007336494326,1.205433481876552,0.4573903149085119
1782829385681429500,1.406429443359375,4.872851535803079,1.642962144832313,0.46725192983988667
1782829385691358500,1.4163583984375,5.3595642086446285,2.0851947476953265,0.7849656977064907
1782829385701287700,1.42628759765625,5.71930119138956,2.3838006776511667,1.4520615334443747
1782829385711216600,1.436216552734375,5.900945460262895,2.4423507740363477,1.9287474639207123
1782829385721144600,1.44614453125,6.037154258129,2.3026523804888126,1.8077865040689707
1782829385731073500,1.456073486328125,6.208578746283054,2.060862562732398,1.5777454301647842
1782829385741002500,1.46600244140625,6.481737515771389,1.8265268603742122,1.3854504418089986
1782829385750931700,1.475931640625,7.016516008123755,1.646302102909982,1.1047708483617753
1782829385760860700,1.485860595703125,7.852284110698103,1.5227128403812646,0.9720162826027721
1782829385770789600,1.49578955078125,8.519854285949467,1.5184551829367876,1.232094840439409
1782829385780718600,1.505718505859375,8.79919262085557,1.4942542231380938,1.7176554206363857
1782829385790647800,1.515647705078125,8.614179752331971,1.4938780833020806,1.9364653448216615
1782829385800575700,1.52557568359375,8.33213917272985,1.524476342922449,1.61670834415704
1782829385810504700,1.535504638671875,8.121904769188165,1.5285522140592336,0.976266268197447
1782829385820433700,1.54543359375,7.945881262806058,1.5179305745407938,0.5298951042249799
1782829385830362600,1.555362548828125,7.528257323759794,1.425893803617358,0.3688064243853092
1782829385840291800,1.565291748046875,6.853757641506195,1.2957622798383235,0.43300687468238175
1782829385850220800,1.575220703125,6.236592542368173,1.1834203875109552,0.47271395810544486
1782829385860149500,1.5851494140625,5.943114038428664,1.3152639759048819,0.17970813144529238
1782829385870078500,1.595078369140625,5.878392852193117,1.9555249962091446,-0.17377390082441269
1782829385880006700,1.605006591796875,6.171088681322336,2.429862171602249,-0.3767070779746398
1782829385889935600,1.614935546875,6.410477867677807,2.526969669918716,-0.6263924347538501
1782829385899864600,1.624864501953125,6.373895565211773,2.4912574282854796,-0.7151293604142963
1782829385909793500,1.63479345703125,6.407858040568232,2.456591773095727,-1.0278667646404356
1782829385919722500,1.644722412109375,6.813247936463355,2.559224756835401,-1.548047334254533
1782829385929651700,1.654651611328125,7.273452541607618,2.6825305262476205,-1.3381003693521023
1782829385939580700,1.66458056640625,7.255005615290999,2.72734757309556,-0.7830962505728006
1782829385949509600,1.674509521484375,6.689301823320984,2.551253631825745,-0.6803645556990057
1782829385959437600,1.6844375,5.745670727398991,2.2174258741021156,-0.5447022857997567
1782829385969366500,1.694366455078125,5.103391060748696,1.9037620757460594,-0.4862834876440465
1782829385979295700,1.704295654296875,4.618792019060254,1.7729574750110506,-0.5108746888693422
1782829385989224700,1.714224609375,3.7384243117809293,1.683679062885046,-0.312057020746544
1782829385999153700,1.724153564453125,2.8301550366193053,1.357442490942776,-0.35342750733718276
1782829386009083400,1.73408349609375,2.250239763945341,0.9079448655128478,-0.6526886863313615
1782829386019012000,1.74401220703125,1.2132786424189805,0.6336202671155333,-0.3024856209333986
1782829386028941000,1.753941162109375,-0.656273120689392,0.00040068975538015364,0.07550035440325736
1782829386038869500,1.763869384765625,-2.237481404659152,-1.0516329132184385,0.26032617592215535
1782829386048798200,1.773798095703125,-3.448838139104843,-2.2735420213386415,0.5254164975062012
1782829386058727200,1.78372705078125,-5.301106174457073,-3.4385882555082437,0.8128408159732818
1782829386068656000,1.79365625,-8.61718653293252,-4.593303357538581,0.9526320023708045
1782829386078585300,1.80358544921875,-11.958985854554175,-4.588144075079262,1.368566380894929
1782829386088514300,1.813514404296875,-13.131209433007239,-3.3110946790173648,1.7808134492084382
1782829386098443300,1.823443359375,-13.858719405436515,-2.044107827286422,1.2935345207862554
1782829386108372200,1.833372314453125,-13.839303926348686,-0.8593716810017824,0.3655842474684119
1782829386118300200,1.843300048828125,-13.621418715792894,-0.1028302598774433,0.4047157960258424
1782829386128229400,1.8532294921875,-14.199942241847515,-0.704228173302114,0.7470660290315747
1782829386138158300,1.863158447265625,-14.900267270231247,-2.1299048270374534,1.1085482480086386
1782829386148087300,1.87308740234375,-14.925516277778147,-3.466859825746715,2.1261806919477877
1782829386158016300,1.883016357421875,-14.88739142204523,-4.442555454449355,3.186293702611327
1782829386167945500,1.892945556640625,-15.003440059936045,-5.191678416010737,4.332031132937968
1782829386177874400,1.90287451171875,-14.253340654557942,-5.45652353066206,4.493327025787532
1782829386187803400,1.912803466796875,-13.720669363617896,-4.635038220462203,4.164911063979566
1782829386197731300,1.9227314453125,-13.291473644721508,-3.651782970160246,3.3580478611111637
1782829386207660300,1.932660400390625,-12.490499792152642,-3.2944255760282277,2.5966362036019563
1782829386217589500,1.942589599609375,-11.722164472860097,-2.956049361220002,2.0482135090395808
1782829386227518200,1.952518310546875,-9.830704244804382,-2.4939912371635438,1.591523341757059
1782829386237447200,1.962447265625,-7.301702484536171,-1.9229511987321077,1.3191665363013743
1782829386247376100,1.972376220703125,-5.025004337254166,-1.6347386524967848,1.2388989674963056
1782829386257305300,1.982305419921875,-2.6340590485453603,-1.5155439716652035,1.1231760544285176
1782829386267234300,1.992234375,-0.32337036885619164,-0.9892688115030527,1.185531607511267
1782829386277162200,2.002162353515625,1.3279051385521887,-0.22024083377122877,1.5772069393739103
1782829386287091200,2.01209130859375,2.208903544950485,0.18803280086666344,1.734487166841328
1782829386297020200,2.022020263671875,2.5406372530043124,0.33665012166798114,1.4393693712621927
1782829386306949400,2.031949462890625,2.608047239932418,0.6514160360470413,1.0639479126513003
1782829386316878300,2.04187841796875,3.06532397493124,0.34571138000190255,0.24436828994229434
1782829386326807300,2.051807373046875,4.056850794494152,0.3378419618010521,-0.6524693444922566
1782829386336736300,2.061736328125,4.762676758381724,0.9014370910540223,-0.7434105752639472
1782829386346665500,2.07166552734375,5.055673616284132,1.6069462440773843,-0.49158192284572866
1782829386356593400,2.081593505859375,5.238559994173049,2.118425840037316,-0.4274575699921697
1782829386366522400,2.0915224609375,5.575854258963465,2.286127216015011,-0.24328566407104954
1782829386376451300,2.101451416015625,6.2748664511829615,2.1009813687615093,0.10793094401732087
1782829386386380300,2.11138037109375,7.081904133835435,1.7113120429590343,0.45450135200135405
1782829386396309200,2.121309326171875,8.065047740456462,1.5020046911343932,0.9579203180372714
1782829386406238200,2.13123828125,8.804384928801655,1.5269259280316532,1.3877166331753135
1782829386416167200,2.141167236328125,9.196424929258226,1.5456769518613815,1.354942344690114
1782829386426096000,2.15109619140625,9.385355263486504,1.5429757300786673,1.232681262025237
1782829386436025300,2.161025390625,9.535802430063486,1.54013130043298,1.0264306674227117
1782829386445953300,2.170953369140625,9.494609418931603,1.5064070177465676,0.6522226031895727
1782829386455882200,2.18088232421875,9.053658964833616,1.3850482907488941,0.36108562087491153
1782829386465811200,2.190811279296875,8.333506369429827,1.2256972483567892,0.37004688943307845
1782829386475740200,2.200740234375,7.575239439687133,1.0178329349473119,0.4214160613382235
1782829386485669400,2.21066943359375,7.167849894407391,0.7664816542498767,0.45946416204050183
1782829386495598300,2.220598388671875,7.262960958209633,0.47191856994405385,0.38832905364204195
1782829386505527300,2.23052734375,7.706870262113213,0.3483075339749455,-0.005063859260827303
1782829386515456300,2.240456298828125,7.934170951268077,1.0630864735163748,-0.44510304373279214
1782829386525384200,2.25038427734375,7.879972328090667,1.7121099153384565,-0.5370884132625535
1782829386535313400,2.2603134765625,7.8052242533594365,1.9251681441292166,-0.6356316069379448
1782829386545242400,2.270242431640625,7.739094953891635,2.0730276323005556,-0.8502527741964906
1782829386555171300,2.28017138671875,7.751559883189201,2.1912603362321854,-1.1445469784330575
1782829386565100300,2.290100341796875,7.770815203279256,2.171824106617272,-1.3526932505890725
1782829386575029200,2.300029296875,7.7775144086569545,2.1046093500003216,-1.5006884939692913
1782829386584958200,2.309958251953125,7.909827368128299,2.0639269187390803,-1.5111775931492446
1782829386594887200,2.31988720703125,8.05840932535529,2.130355785675347,-1.3402756675645708
1782829386604815400,2.3298154296875,7.961380445232987,2.310638118545711,-1.0207711803562938
1782829386614744000,2.339744140625,7.5616855461090795,2.4521856470912695,-0.9384070776633918
1782829386624673300,2.34967333984375,7.081015076041221,2.380505435498059,-1.119910769022256
1782829386634602200,2.359602294921875,6.466193909680843,2.0975614773154256,-1.1492255647033451
1782829386644531200,2.36953125,5.434938890841603,1.5732783677533269,-0.9106985481351614
1782829386654460200,2.379460205078125,4.266811641791462,0.9385705976620315,-0.5608471457190811
1782829386664389400,2.389389404296875,3.0274691683113573,0.3556751401335001,-0.005491729284077883
1782829386674318300,2.399318359375,1.4755822558939455,-0.24965309847742317,0.36273046547248955
1782829386684247300,2.409247314453125,-0.7801601971209049,-0.41191111435741184,-0.1074511976763606
1782829386694175200,2.41917529296875,-3.5843145310431717,-0.3542918690815568,-0.8526309745699167
1782829386704104200,2.429104248046875,-5.059308173394203,-0.9622671150699257,-1.279482906819135
1782829386714033400,2.439033447265625,-4.547103331899643,-1.8117811266630888,-0.842380214190483
1782829386723962400,2.44896240234375,-5.005466108569503,-2.2172855888485907,-0.3446393668562174
1782829386733891300,2.458891357421875,-7.011243036156892,-2.4225746449425816,0.19304931385442614
1782829386743820300,2.4688203125,-9.702527946746349,-2.38710468763262,0.9635304130040109
1782829386753749200,2.478749267578125,-12.289490897595881,-2.2800939272001384,1.5552978899046779
1782829386763678200,2.48867822265625,-14.006442115485667,-1.974774471080303,1.62235950178653
1782829386773606400,2.4986064453125,-14.59035259527564,-1.8931699545830487,0.8522036160033196
1782829386783535400,2.508535400390625,-14.76575709297657,-2.1252537863612173,-0.04601129813380539
1782829386793464000,2.518464111328125,-14.474426706981658,-2.3058108445197343,-0.6199759187750518
1782829386803393300,2.528393310546875,-13.318403737223148,-2.2246794984921814,-0.5924046788256615
1782829386813322200,2.538322265625,-13.51256320427656,-2.175660323779285,0.04214841216057539
1782829386823251200,2.548251220703125,-14.653784910744427,-2.9704776995450257,0.9417718779213726
1782829386833180200,2.55818017578125,-15.259628989923,-4.423984901753068,1.9042108424268662
1782829386843109400,2.568109375,-16.32529305884242,-5.468222151762247,2.8735084406554696
1782829386853037300,2.578037353515625,-16.275046388161183,-6.026101533716917,2.6677725175768137
1782829386862966300,2.58796630859375,-14.98343772087097,-4.999579973140358,1.9416427474595606
1782829386872895200,2.597895263671875,-14.103746305418014,-3.577671439766884,1.2668879214011133
1782829386882824200,2.60782421875,-12.752004364204407,-2.8862948569923637,0.5525693659130484
1782829386892753400,2.61775341796875,-10.901863988530636,-2.0987210226140913,-0.019343071438744662
1782829386902682400,2.627682373046875,-9.119638042175769,-1.4473023562185465,-0.13345507871117443
1782829386912611300,2.637611328125,-7.253979779374599,-1.2779893072605133,-0.09789660286754369
1782829386922540300,2.647540283203125,-5.368650601419806,-1.273422145475447,-0.03203421070761978
1782829386932469200,2.65746923828125,-3.7029116843730208,-1.1224633761145173,0.12246244132271968
1782829386942397400,2.6673974609375,-1.7080758375167846,-0.930293913834542,0.05602619479759596
1782829386952326400,2.677326416015625,0.2717752061754465,-0.701134006679058,-0.02341289642723277
1782829386962255400,2.68725537109375,1.751654867002368,-0.43875674344599247,0.12364323947196826
1782829386972184000,2.69718408203125,2.8559897350996732,-0.25190175418704747,0.4470345232520252
1782829386982113300,2.70711328125,3.7878228412002324,-0.11304098050743341,0.7442227684296667
1782829386992042200,2.717042236328125,4.301631610760093,0.05373918897211551,0.8156577730901539
1782829387001971200,2.72697119140625,4.670612222668528,0.1936452339209616,0.7294591337356716
1782829387011899400,2.7368994140625,5.003984930101037,0.3581526361629367,0.6524727054931223
1782829387021828400,2.746828369140625,5.174046897730231,0.5769206209026276,0.5112462986607105
1782829387031756300,2.75675634765625,5.477201577031612,0.6290116042762994,0.5019281794888898
1782829387041685500,2.766685546875,5.900489533188939,0.5018237327337265,0.45809849971048533
1782829387051614500,2.776614501953125,6.453724888730049,0.5121247619956731,0.3277070098210126
1782829387061543400,2.78654345703125,7.16595019826591,0.7727974132679403,0.25483917761212216
1782829387071472400,2.796472412109375,8.034074510043858,0.9605952363349497,0.20755121060600504
1782829387081401600,2.806401611328125,8.67966373963356,1.000038627320528,0.2568336758975871
1782829387091330600,2.81633056640625,9.003159780696034,1.0162301759257912,0.551650826296024
1782829387101259500,2.826259521484375,9.017217532142997,1.0990184953801334,0.8054650265082717
1782829387111188500,2.8361884765625,8.54734084329009,1.174934152586013,0.709894601565972
1782829387121116400,2.846116455078125,7.8244632068365805,1.0989932148084043,0.20517763160876928
1782829387131045600,2.856045654296875,7.573183676201105,1.057363273563981,-0.09215221399664879
1782829387140974600,2.865974609375,7.552170114266872,1.179791675619781,-0.1945821129122749
1782829387150903600,2.875903564453125,7.762409778505563,1.4118809142254292,-0.2634958189342171
1782829387160832500,2.88583251953125,8.06928377059102,1.5622824880950152,-0.3291274710781872
1782829387170761500,2.895761474609375,8.268678215688466,1.6839491119980812,-0.36377306986059993
1782829387180690400,2.9056904296875,8.517250825452804,1.792964490251243,-0.4750242808744311
1782829387190619400,2.915619384765625,8.907085424819588,1.7971069968834519,-0.6723897043623029
1782829387200547600,2.925547607421875,9.120440006208419,1.8012030340254306,-0.7106647822208703
1782829387210476300,2.935476318359375,8.782968631285428,1.9170365678608416,-0.3702722591541707
1782829387220405500,2.945405517578125,8.239139986515045,1.844281712773442,-0.3094734339941293
1782829387230334500,2.95533447265625,8.075727539902925,1.6955255680233239,-0.6999626248121261
1782829387240263400,2.965263427734375,8.464266838762164,1.7352832856550813,-1.2537009614393115
1782829387250192400,2.9751923828125,8.639394273087381,2.0516709560170767,-1.2181140997514128
1782829387260121600,2.98512158203125,8.433319327312708,2.472384970033169,-0.9035995297849178
1782829387270050600,2.995050537109375,7.8876734039872884,2.7479572304040194,-0.7532669294983149
1782829387279979500,3.0049794921875,6.615943157121539,2.7717130767837164,-0.3424074430856853
1782829387289907500,3.014907470703125,5.421566783571243,2.3980703182831404,-0.24741686385795472
1782829387299836400,3.02483642578125,5.284828408873081,2.0345681377857923,-0.875589386961609
1782829387309765600,3.034765625,5.64610034610033,2.093866714450717,-1.0561958372198044
1782829387319694600,3.044694580078125,5.8878942555099725,2.321243683712184,-0.6432022613879292
1782829387329623600,3.05462353515625,5.6074605265825985,2.271862397688627,-0.14973697248101234
1782829387339552500,3.064552490234375,5.250172690555453,1.9219617493033407,0.02389861585125327
1782829387349481500,3.0744814453125,5.212442387098074,1.5656547410070896,0.04738273261748254
1782829387359410400,3.084410400390625,4.94927718835771,1.3542781816929579,0.28746450434699655
1782829387369339400,3.09433935546875,4.175537964195013,1.084298042240739,0.6788540050055831
1782829387379267300,3.104267333984375,3.0688620859295126,0.6485162229523063,0.8447847180489451
1782829387389196300,3.1141962890625,1.0000298594921826,0.31753567135334015,0.9130690766587853
1782829387399125500,3.12412548828125,-2.6680186012923715,-0.16893121003359554,1.1183909390438347
1782829387409054500,3.134054443359375,-5.948739477095008,-0.7650733948871493,1.42787620960623
1782829387418983400,3.1439833984375,-6.688040425083041,-0.7351151867359876,0.8776207466587423
1782829387428912400,3.153912353515625,-7.6762033211708065,0.08291326100826263,-0.3124201549705118
1782829387438841600,3.163841552734375,-9.626131520286203,0.8299708144724368,-1.5186919143021105
1782829387448770600,3.1737705078125,-9.828478385448456,0.9057280662462115,-2.378201834730804
1782829387458699500,3.183699462890625,-9.220946207052469,0.21367285355776547,-1.8608380030378697
1782829387468627500,3.19362744140625,-9.534233573311568,-0.691083445046842,-1.0200224078156053
1782829387478556400,3.203556396484375,-11.023332313382625,-1.4913473957806824,-0.2613848911948502
1782829387488485600,3.213485595703125,-13.591986869603394,-2.660647195741534,0.3823097568199038
1782829387498414600,3.22341455078125,-13.716366113466023,-4.110215597195923,0.4299466833941638
1782829387508343600,3.233343505859375,-13.960823689126968,-5.2339598069012165,0.9754013219311832
1782829387518272500,3.2432724609375,-15.342873090320825,-4.975583011481166,1.955160546810925
1782829387528201500,3.253201416015625,-16.158958002781866,-4.123637096565962,2.116360285809636
1782829387538130400,3.26313037109375,-17.23570109959841,-3.9617672032207247,1.1258593752283603
1782829387548059400,3.273059326171875,-18.7553574750185,-3.7240164317220446,0.25110556230805814
1782829387557987300,3.2829873046875,-19.862785632956026,-3.2566087633311747,-0.11602028857916592
1782829387567916300,3.292916259765625,-19.297038586366174,-2.9471295571833847,0.1438406079187989
1782829387577845500,3.302845458984375,-18.659909726607797,-2.593436238516867,0.5564610395893455
1782829387587774500,3.3127744140625,-17.528331462275982,-2.5338030230700967,0.6918199426278472
1782829387597703400,3.322703369140625,-16.03983244166374,-2.7343010454952714,0.637056744370237
1782829387607632400,3.33263232421875,-14.188653955113887,-2.892562977476418,0.5279483175387606
1782829387617561600,3.3425615234375,-11.979414894598722,-2.9091327117443084,0.4243955155404284
1782829387627490600,3.352490478515625,-9.567176057970523,-2.7144559428185224,0.22028757725609466
1782829387637419500,3.36241943359375,-7.326814713960886,-2.6528023274600505,-0.014519505473505705
1782829387647347500,3.372347412109375,-5.437306204494834,-2.648086404854059,-0.19992279808679594
1782829387657276400,3.3822763671875,-3.4897184310257434,-2.422285014346242,-0.44915655690729617
1782829387667205600,3.39220556640625,-1.3397750245660542,-2.100788184276968,-0.8373040799699724
1782829387677134600,3.402134521484375,0.9053034110933542,-1.8645478173412382,-1.2864032076016068
1782829387687063600,3.4120634765625,3.0915842053472993,-1.482055981952697,-1.6966972421512008
1782829387696992500,3.421992431640625,4.876144732129574,-0.8313648991793393,-1.5830492356613277
1782829387706921500,3.43192138671875,6.202019826158881,-0.3326039150170982,-1.0381838682543485
1782829387716850400,3.441850341796875,7.126501984974741,-0.37498715884685513,-0.5478197602331638
1782829387726779400,3.451779296875,6.907747005847096,-0.6952151380240916,0.13422675720341504
1782829387736707300,3.461707275390625,6.062095222640037,-0.7678834838718176,1.3504901875868438
1782829387746636300,3.47163623046875,6.793963974800706,-0.8032172475814819,1.84206637481153
1782829387756565500,3.4815654296875,7.599748442521691,-0.548084987040609,1.1145368208989501
1782829387766494500,3.491494384765625,7.49437668146789,0.20988471332117914,0.31004626544602215
1782829387776423400,3.50142333984375,7.688291233849525,0.7000881508879363,-0.304983502163738
1782829387786352400,3.511352294921875,8.085782485449313,1.0290024176068604,-0.6006568857990205
1782829387796281600,3.521281494140625,8.436326107913255,1.2559879033327102,-0.9188322432953864
1782829387806210600,3.53121044921875,8.912064382275938,1.2798179839923978,-1.1265997452668846
1782829387816139500,3.541139404296875,9.406694404113292,1.2255258373126388,-1.1598675163574517
1782829387826067500,3.5510673828125,9.806208685973287,1.1713910731516777,-0.9967563907794654
1782829387835996400,3.560996337890625,9.953624522030353,1.1757175580486654,-0.7605981491692364
1782829387845925600,3.570925537109375,9.352323346978425,1.0093817713357507,-0.5789347372040152
1782829387855854600,3.5808544921875,7.918065035119652,0.7780272767454385,-0.24003347560837862
1782829387865783600,3.590783447265625,6.928644247925281,0.6233293208561838,0.2412847908437252
1782829387875712500,3.60071240234375,7.286518943929672,0.6526949699416756,0.09643485975190996
1782829387885641500,3.610641357421875,7.591896559977531,1.103962527653575,-0.20375424774214623
1782829387895570400,3.6205703125,7.436403215926886,1.6723387537032366,-0.4616230936400592
1782829387905499400,3.63049951171875,7.6856152926385395,1.9795468000486491,-1.2342699925214051
1782829387915427300,3.64042724609375,7.9465540475010865,2.4249463425099846,-1.6681497775807976
1782829387925356300,3.650356201171875,8.346605504977703,2.7133444744452833,-1.605679000620544
1782829387935285500,3.660285400390625,8.593735514718293,2.9017864406347273,-1.6001472315870224
1782829387945214500,3.67021435546875,8.671123290303349,3.063824676284194,-1.5626117200493812
1782829387955143400,3.680143310546875,8.661511412349343,3.0949191949889063,-1.4157348131746053
1782829387965072400,3.690072265625,8.230100355491041,3.1800229517787693,-1.087468196709454
1782829387975001600,3.700001708984375,7.487978504863381,3.38683205704689,-0.7146149811513721
1782829387984930600,3.7099306640625,6.8605731667399406,3.517041322237253,-0.5036540899660438
1782829387994859500,3.719859619140625,6.425554440778494,3.397870460672676,-0.7152883503682911
1782829388004787500,3.729787353515625,5.9270519614219666,3.3285905882194635,-1.0253402418375015
1782829388014717700,3.7397177734375,5.681957841423154,3.4942291864484547,-1.266793959507346
1782829388024646700,3.749646728515625,5.8074786565363405,3.7297087981447574,-1.5370958782598376
1782829388034575600,3.75957568359375,6.0165229735106225,3.8788641713455316,-1.570951239980012
1782829388044504600,3.769504638671875,5.955228839114308,3.8223470420926806,-1.5175914057143032
1782829388054433800,3.779433837890625,5.370963554537296,3.5830288751468062,-1.2009744566410778
1782829388064362800,3.78936279296875,4.348291655126213,3.302276581789553,-0.7181061842679977
1782829388074291700,3.799291748046875,2.938305614736676,2.8224899088189006,-0.13750848228782414
1782829388084220700,3.809220703125,1.7606547505378722,2.1866171866014597,0.44176703117787836
1782829388094150000,3.81914990234375,1.6083020426005123,1.6170368454590438,0.782685331684351
1782829388104077800,3.829077880859375,1.769855125081539,1.112153432893753,1.1122048708200454
1782829388114006800,3.8390068359375,1.1998919221013784,0.3814975636541843,1.2456651006303727
1782829388123935700,3.848935791015625,-0.8389420564353466,-0.1977086839675903,1.2592211861655116
1782829388133864700,3.85886474609375,-4.97753180746138,0.035820378182828426,1.263806175868213
1782829388143794000,3.8687939453125,-8.084802826762198,-0.01474164205789566,1.1609633487701416
1782829388153723000,3.878722900390625,-8.263235147851706,-0.4058610205382108,0.8112468247801065
1782829388163651600,3.888651611328125,-8.02452342236638,-0.24458763178139922,0.17132701912894843
1782829388173580500,3.89858056640625,-9.532257304802537,0.46785979607254263,-0.1114787726920098
1782829388183509800,3.908509765625,-11.063342836731671,0.7891127343833446,-0.6471861433923244
1782829388193437700,3.918437744140625,-10.565422541177272,0.09091098176389932,-1.1436919690389185
1782829388203366700,3.92836669921875,-10.640701946306228,-0.8937035741925239,-0.6297830270402133
1782829388213295600,3.938295654296875,-12.452636802226305,-2.3495354199558496,0.6596892858084291
1782829388223224600,3.948224609375,-14.806196655392647,-4.792023848897219,2.5163842707574364
1782829388233153800,3.95815380859375,-17.046982362294195,-6.857841111427545,4.419724613960087
1782829388243082800,3.968082763671875,-16.833575758457183,-7.045449841663241,5.501723439347744
1782829388253011700,3.97801171875,-16.133338408356906,-5.3633004725635045,4.359121384437382
1782829388262940700,3.987940673828125,-16.30785677087307,-4.157628213495016,2.4537968816801903
1782829388272870000,3.997869873046875,-16.00127036355734,-3.605252105131745,0.7528313145600258
1782829388282797800,4.0077978515625,-15.388138465458153,-3.2356270578399298,-0.2848459924116731
1782829388292726800,4.017726806640625,-14.044403305089473,-3.1651079989805817,-0.6135547996863723
1782829388302655700,4.02765576171875,-13.288921622151136,-3.4167391195327044,-0.32508992265779524
1782829388312584700,4.037584716796875,-12.86865272155404,-3.8796754877284165,-0.02709996917583048
1782829388322514000,4.047513916015625,-11.30685816310644,-4.261757281011342,0.034094577303528786
1782829388332443000,4.05744287109375,-9.084806382769345,-4.004208753108978,-0.025923399677127597
1782829388342371600,4.06737158203125,-6.874108355617523,-3.3173306507974862,-0.2424764483137056
1782829388352300500,4.077300537109375,-4.959934775972366,-2.7684792094290254,-0.40406387145575134
1782829388362229800,4.087229736328125,-3.4016964487016197,-2.4586741323277352,-0.5594855019770563
1782829388372158700,4.09715869140625,-1.9830735128700732,-2.2609188327394425,-0.7187811609201132
1782829388382086700,4.107086669921875,-0.55461541172266,-1.913628512983024,-0.8038364023931324
1782829388392015600,4.117015625,0.7852209876418114,-1.444624223050475,-0.8420458676695823
1782829388401944600,4.126944580078125,2.1859072847664356,-0.9459420032128691,-0.9756295046638697
1782829388411873800,4.136873779296875,3.4581565870702264,-0.44463630300387735,-1.078844087683782
1782829388421802800,4.146802734375,4.445989812812209,-0.03831730956509709,-1.0044658691782504
1782829388431731700,4.156731689453125,5.138272404515743,0.23648937326073646,-0.7418583773858844
1782829388441660700,4.16666064453125,5.127388606929779,0.46311289380639786,-0.06994237321624532
1782829388451590000,4.17658984375,4.523388109791279,0.3297610928066075,0.6439249496392905
1782829388461518800,4.186518798828125,3.979201153102517,-0.3021833500511944,0.9903852483123541
1782829388471446800,4.19644677734375,3.717781336724758,-0.7728709168955683,1.037347417430207
1782829388481375700,4.206375732421875,3.8094320309400556,-0.7589179409973323,0.9920388607382774
1782829388491304700,4.2163046875,4.36237980171144,-0.5583011144980788,0.8958491348538548
1782829388501234000,4.22623388671875,5.107179931637645,-0.4177995878741145,0.16571529846070332
1782829388511163000,4.236162841796875,6.22259324311018,-0.22551292895525693,-0.24060130209159106
1782829388521091600,4.246091552734375,7.349049342122673,0.020176234327256678,-0.1466960430156905
1782829388531020500,4.2560205078125,8.161721815791726,0.30078415077775716,-0.034747716583171856
1782829388540949800,4.26594970703125,8.646224411368369,0.6211527074694633,0.10510512774055823
1782829388550878700,4.275878662109375,8.608033504661917,0.9223856249280273,0.29438453113483265
1782829388560807700,4.2858076171875,8.18049373627901,0.8812716703817248,0.45442426817715165
1782829388570735600,4.295735595703125,7.245014382630586,0.612818594366312,0.7191647534102201
1782829388580664600,4.30566455078125,5.847729418382048,0.27257439372912046,1.0973699975207447
1782829388590593800,4.31559375,5.462472794455289,-0.24689400902763006,1.0199183629192412
1782829388600522800,4.325522705078125,6.149971659013628,-0.43994376127347345,0.597501892366819
1782829388610451700,4.33545166015625,6.659576547142863,0.5000456171452999,0.2292999001480639
1782829388620380700,4.345380615234375,6.997355965101718,1.1881018233254552,-0.19060623155124484
1782829388630310000,4.355309814453125,7.4735262011408805,1.3476381591565907,-0.5641121023317799
1782829388640238800,4.36523876953125,7.91299664581418,1.4591522223576903,-0.7092861142788082
1782829388650167800,4.375167724609375,8.364107259398699,1.5934040409371255,-0.9751961547479033
1782829388660096800,4.3850966796875,8.96920607316792,1.692599451443553,-1.1340272649191319
1782829388670024700,4.395024658203125,9.254752615064382,1.7891241814360022,-0.9293368323054164
1782829388679954000,4.404953857421875,9.117302292704581,1.9354449157327411,-0.6626628947917371
1782829388689883000,4.4148828125,8.67747996585369,2.1276088250547645,-0.4149351383537054
1782829388699811600,4.4248115234375,8.039021318796276,2.259778576663136,-0.13953308345060794
1782829388709740500,4.434740478515625,7.096642268761992,2.256769165714085,-0.12924071241915225
1782829388719669800,4.444669677734375,6.221569160759449,2.2390835791587826,-0.43007977172192186
1782829388729598700,4.4545986328125,5.725629809889197,2.257092114058137,-0.937717487964034
1782829388739527700,4.464527587890625,5.829204166132211,2.293970184600353,-1.116474803224206
1782829388749456600,4.47445654296875,6.182753400152921,2.3694144249022004,-0.9842233646817504
1782829388759384600,4.484384521484375,6.556342382639646,2.638858265520632,-0.6552838173910975
1782829388769313800,4.494313720703125,6.630840282002091,3.066989277794957,-0.14298267591521144
1782829388779242800,4.50424267578125,6.553209929832816,3.346704629319906,-0.1558732102137059
1782829388789171700,4.514171630859375,6.449225823745131,3.160069128030538,-0.1316802145257592
1782829388799100700,4.5241005859375,5.58067656455338,2.6963576838091012,0.4181280891761183
1782829388809030000,4.53402978515625,4.106039480555057,2.0477137428238987,1.0075423540141433
1782829388818958800,4.543958740234375,1.4903285741269587,1.189539747174084,1.8049632633417845
1782829388828887800,4.5538876953125,-2.6153806515604257,0.19687018731683492,1.5869167247444391
1782829388838816800,4.563816650390625,-5.230463196957111,-0.4073772703200578,0.5353208921333774
1782829388848745700,4.573745849609375,-4.080923743999004,-0.579673572872579,-0.2678312908552587
1782829388858674000,4.583673828125,-3.180609227234125,-0.11708850233256816,-0.8946152822099626
1782829388868603000,4.593602783203125,-4.508717194882035,0.4935884038299322,-0.7854644410088658
1782829388878531600,4.603531494140625,-7.36218647159338,0.48153848507404323,-0.9140056268565356
1782829388888460500,4.61346044921875,-9.283389511483907,-0.14305062658488749,-1.2550368862181902
1782829388898389800,4.6233896484375,-9.801454184922575,-0.6411702441036701,-1.2539113893195986
1782829388908318700,4.633318603515625,-9.817402864682673,-0.7642083024904132,-1.0710986611887812
1782829388918247700,4.64324755859375,-10.85636597368121,-0.8957233895823359,-0.1821842940341681
1782829388928176600,4.6531767578125,-12.689476888620852,-1.550030763156712,0.8443989336017519
1782829388938105900,4.66310595703125,-13.364592656946181,-2.6825229274630544,1.5004212213352321
1782829388948034800,4.673034912109375,-13.721100740772485,-3.436834982100129,1.9535041579060255
1782829388957962800,4.682962646484375,-14.19200677267313,-3.6331796842381356,2.07549957537204
1782829388967891700,4.6928916015625,-14.228843342161177,-3.65112187590301,2.0328322539038957
1782829388977820700,4.702820556640625,-14.250631980121135,-3.3881484003424642,2.064629367920011
1782829388987750000,4.71275,-14.602871885108947,-3.0490131838604806,1.8702517280712723
1782829388997678800,4.722678955078125,-14.323250641608237,-2.736881709638238,1.301888069242239
1782829389007607600,4.732607666015625,-14.136002561378477,-2.0903040535330772,0.5798156116917729
1782829389017536500,4.74253662109375,-14.02428523069024,-1.6471673414371906,0.03911971198916435
1782829389027465200,4.75246533203125,-13.545880951988696,-1.6866155547283588,-0.0685329996086657
1782829389037394200,4.762394287109375,-13.262581896758078,-1.864674220199883,0.32178748357892034
1782829389047322400,4.772322265625,-12.922350409471989,-2.2813274145178495,0.7443954946480691
1782829389057251300,4.782251220703125,-12.137169169318675,-2.5605869850993157,0.8117408919073641
1782829389067180300,4.79218017578125,-10.47948613295555,-2.3933219547122717,0.3256275731984526
1782829389077109200,4.802109130859375,-8.52527748004198,-1.8272239027276633,-0.271320338547416
1782829389087038200,4.8120380859375,-6.428812565791606,-1.3646838403731585,-0.6739030315347015
1782829389096967400,4.821967529296875,-4.088104010891914,-1.171735283479467,-1.0431327958986163
1782829389106896400,4.831896484375,-1.5069892015486954,-1.1587030756879597,-1.1364654518514872
1782829389116825300,4.841825439453125,0.8178098365575075,-1.152656123673916,-0.8633180805400014
1782829389126754300,4.85175439453125,2.826881129515171,-0.9936457114130258,-0.5919415182933211
1782829389136683500,4.86168359375,4.263965020188689,-0.9312469037104397,-0.04571714662597515
1782829389146611500,4.871611572265625,4.879979780247807,-1.007665322806686,0.3717734209647402
1782829389156540400,4.88154052734375,5.135688233241439,-1.0472145853195338,0.4729287698999047
1782829389166469400,4.891469482421875,5.088696180441976,-0.8540965901430696,0.8137194985039532
1782829389176398300,4.9013984375,4.5925662754356855,-0.5937640575453639,1.3713152412116527
1782829389186327600,4.91132763671875,4.3176732295006515,-0.7868100103989243,1.518156199990213
1782829389196256500,4.921256591796875,4.650233451506495,-1.043415923688933,1.2511869327917695
1782829389206185200,4.931185302734375,5.009777542027831,-1.0151185614220797,0.8480481768243014
1782829389216114200,4.9411142578125,5.352061870190501,-0.6924460386369377,0.4745926479915157
1782829389226043400,4.95104345703125,5.889169097751378,-0.266769506842643,0.2089865223724395
1782829389235972400,4.960972412109375,6.65068596920073,-0.017490210113674402,0.08069525616522878
1782829389245900300,4.970900390625,7.760116699132323,-0.10040763584040105,-0.006015077304746955
1782829389255829200,4.980829345703125,8.624269184669851,-0.15144845257401465,-0.006041764382272959
1782829389265758200,4.99075830078125,9.039356298714875,-0.1360290573850274,0.21621428166888654
1782829389275687400,5.0006875,9.183603441607952,-0.03003624182343483,0.4160079552169889
1782829389285616400,5.010616455078125,9.062778675356506,0.09625767655409873,1.0280737584546207
1782829389295545300,5.02054541015625,8.64934108208418,-0.1582670465476811,1.8386887150719762
1782829389305474300,5.030474365234375,7.517551220828294,-0.7358742614749818,2.523176999637484
1782829389315403500,5.040403564453125,6.724006641477346,-1.0917866444304585,2.3786511859335002
1782829389325332500,5.05033251953125,6.886033186689019,-1.0835236238021404,1.2664236648902296
1782829389335261400,5.060261474609375,7.452281168538332,-0.5990504735156893,0.09443250695355236
1782829389345189400,5.070189453125,7.383122876638174,0.4167085777670145,-0.25365813286770134
1782829389355118300,5.080118408203125,7.0591498657137155,0.9395670613534748,-0.5871028826231136
1782829389365047600,5.090047607421875,7.2565639506489035,1.028909770887345,-0.8144063117243349
1782829389374976500,5.0999765625,7.790245295414328,0.9977309349000454,-1.005852720426768
1782829389384905200,5.1099052734375,8.305242982497811,0.8801989265836775,-1.0837729954533277
1782829389394834200,5.119834228515625,8.689481953814624,0.8922606819078326,-0.7852754943080246
1782829389404763400,5.129763427734375,8.79167683839798,1.089107196088135,-0.5452957947134971
1782829389414692400,5.1396923828125,8.51401549679339,1.1790054936781524,-0.40729171092845495
1782829389424621300,5.149621337890625,8.033378344473242,1.1242625344909727,-0.24874460533037782
1782829389434550300,5.15955029296875,7.384089675843716,1.0282995300345121,-0.23083405091278253
1782829389444478200,5.169478271484375,6.848200007379055,0.9701718968451023,-0.5955239068247378
1782829389454407400,5.179407470703125,6.402718339592218,1.1261997861638664,-0.7359471075154841
1782829389464336400,5.18933642578125,5.958367137140035,1.4894398085936904,-0.622798136588931
1782829389474265300,5.199265380859375,5.703059666162729,1.8244389481842518,-0.7316914958976208
1782829389484194300,5.2091943359375,5.835646766400337,2.042996358913183,-0.8060197377815842
1782829389494123500,5.21912353515625,5.76270018813312,2.2411098242893814,-0.5637359259631485
1782829389504052500,5.229052490234375,5.34477112866044,2.2988331144616008,-0.3800316558200866
1782829389513981400,5.2389814453125,4.917901222363114,1.9997315099433064,-0.16702223460711538
1782829389523910400,5.248910400390625,4.638793189081549,1.7546128400251269,0.17913170153051614
1782829389533839400,5.25883935546875,4.227625294306874,1.8678975661605595,0.35369419544935227
1782829389543767600,5.268767578125,3.2635821094751356,1.956189889858663,0.48672326730079946
1782829389553696500,5.278696533203125,1.5371727428883313,1.6248188776373862,0.3608995967835188
1782829389563625200,5.288625244140625,-0.5463157854110002,0.9463622744515537,0.11234905272051691
1782829389573554200,5.29855419921875,-1.729110442239046,0.16924889768064022,-0.1040264839246869
1782829389583483400,5.3084833984375,-2.33746796554327,-0.7589367918282747,-0.11674144246056675
1782829389593412400,5.318412353515625,-3.6802398338377476,-1.7020938404977322,0.5975738250918686
1782829389603341300,5.32834130859375,-6.663003014460205,-2.4356892703205344,1.547764864051342
1782829389613270300,5.338270263671875,-8.278473633515834,-2.210205859720707,1.9048565929844974
1782829389623199500,5.348199462890625,-8.444386664772033,-0.5222270538151264,1.3778757687710226
1782829389633128400,5.35812841796875,-8.723189577627181,1.1879597845062613,0.6877136032875627
1782829389643056400,5.368056396484375,-9.504124266251921,1.822755817402899,-0.5011052822660654
1782829389652985300,5.3779853515625,-11.313061109399795,1.481614814056456,-1.9500154390074311
1782829389662914300,5.387914306640625,-13.09933779245019,0.7247904843375086,-3.0767592689201235
1782829389672843500,5.397843505859375,-13.729580984348058,-0.08258534422814845,-3.258068606750667
1782829389682772500,5.4077724609375,-14.812744469600915,-0.8609607037588953,-2.6186378997907043
1782829389692701400,5.417701416015625,-16.040386568415165,-2.038034060330689,-1.0649612544123084
1782829389702630400,5.42763037109375,-17.035123582196235,-2.734997503326833,0.9023253451306372
1782829389712559400,5.437559326171875,-17.82180821264982,-3.1046476850599047,2.864423216924071
1782829389722488300,5.44748828125,-16.125835485380886,-4.050772935885191,2.4914418449416753
1782829389732417300,5.457417236328125,-14.576312379485367,-3.5616701530367134,1.2713421243309975
1782829389742345200,5.46734521484375,-14.284410331082343,-2.2607369003012776,0.36446861437670885
1782829389752274200,5.477274169921875,-13.209416123759746,-2.1006078592739996,0.16505100759938357
1782829389762203400,5.487203369140625,-12.62375792351961,-1.9230090663991868,0.5617194715742021
1782829389772132400,5.49713232421875,-11.620741741693019,-1.4106548795618117,0.8039926158681512
1782829389782061300,5.507061279296875,-10.046680406868457,-0.8365602758653461,0.4697187948774546
1782829389791990300,5.516990234375,-8.231253617179393,-0.5362028260670602,0.01617613184042275
1782829389801919500,5.52691943359375,-6.56914633463323,-0.5279805027753114,-0.4133885664988309
1782829389811848400,5.536848388671875,-5.020975812390446,-0.7401257083743811,-0.7773254120863974
1782829389821777400,5.54677734375,-3.116113081926107,-1.0174531418494879,-0.999438396405056
1782829389831706400,5.556706298828125,-1.6540560780376194,-1.055797777812928,-0.9388071098316461
1782829389841634300,5.56663427734375,-1.0196148499280213,-1.1341199116386473,-0.7122992515549064
1782829389851563500,5.5765634765625,-0.21244681889414785,-1.4622953426890075,-0.5565464528504759
1782829389861492500,5.586492431640625,1.0183359160333871,-1.5506838202379642,-0.6183685566436499
1782829389871421400,5.59642138671875,2.0989029550522567,-1.2358011476114392,-0.7540829220563173
1782829389881350400,5.606350341796875,2.7570313482195137,-0.8616698749415576,-0.683727090934664
1782829389891279400,5.616279296875,3.147634009349346,-0.7817374563749879,-0.5449351447075605
1782829389901208300,5.626208251953125,3.611260990157723,-1.0740350069016218,-0.4599735728673637
1782829389911137300,5.63613720703125,3.912273396733403,-1.3520631359919906,-0.17252890573199836
1782829389921066200,5.646066162109375,4.500315861761569,-1.4681404154554007,-0.0018257541224360465
1782829389930995500,5.655995361328125,5.299301170861721,-1.4204086502045392,0.004661781265959143
1782829389940924400,5.66592431640625,6.089594054940343,-1.1794829749967901,0.2630598752023652
1782829389950852400,5.675852294921875,6.710099112156033,-0.8406846623189747,0.24483835513945668
1782829389960781300,5.68578125,7.193478841182589,-0.5078954538628458,0.00611205313950777
1782829389970710300,5.695710205078125,7.692697359853982,-0.3306502967312932,-0.10343359606545417
1782829389980639500,5.705639404296875,7.9823092514932155,-0.23381577013731,-0.17435272362567483
1782829389990568400,5.715568359375,7.850589581739902,-0.1791272445511073,-0.04740019520893693
1782829390000497400,5.725497314453125,7.318163789993524,-0.2502415658898651,-0.06305084187053143
1782829390010425300,5.73542529296875,6.749370799836516,-0.31548896795660253,-0.02929784454628825
1782829390020354300,5.745354248046875,6.201366330686211,-0.45892179879210887,0.28859138948507607
1782829390030283500,5.755283447265625,6.599418723300099,-0.6810694160327315,0.6266545197561383
1782829390040212500,5.76521240234375,7.190262217223644,-0.36179727627560493,0.5524802993901073
1782829390050140400,5.775140380859375,7.0977470151335,0.33453327564448115,-0.040449937679618596
1782829390060069400,5.7850693359375,7.199177345085143,0.6391540819756686,-0.6678738343730568
1782829390069998300,5.794998291015625,7.7699898583710185,0.7329429572634398,-1.0785662205904722
1782829390079927600,5.804927490234375,8.471063659295439,0.7215208150170743,-1.2781499046497047
1782829390089856500,5.8148564453125,9.071358287653327,0.700143826597929,-0.9314821737710386
1782829390099785200,5.82478515625,9.231091753491759,0.7211565117493272,-0.4311155079778284
1782829390109714200,5.834714111328125,8.65655700481236,0.7222597968161105,-0.15227701235264537
1782829390119643400,5.844643310546875,7.954813926324248,0.6117234926059841,-0.15835509015731514
1782829390129572400,5.854572265625,7.774093202036619,0.5700647636584937,-0.4643908047877252
1782829390139501300,5.864501220703125,7.791238398104905,0.7712522296525538,-0.81253175002411
1782829390149429200,5.87442919921875,7.8278809063255785,1.1098714594364165,-0.9328427215345203
1782829390159358200,5.884358154296875,7.824714551249146,1.3434019828915595,-0.9021801645062864
1782829390169287400,5.894287353515625,7.951381029266119,1.4254159569725393,-0.7292514823343604
1782829390179216400,5.90421630859375,7.834408846789598,1.5639339085638522,-0.5662411867823451
1782829390189145300,5.914145263671875,7.487804317340254,1.8359186658367515,-0.4727520981587469
1782829390199074300,5.92407421875,6.975088019192218,2.0619982887640593,-0.2591905960209668
1782829390209003500,5.93400341796875,6.334318172582984,1.9539587698057292,-0.0922556013058871
1782829390218935300,5.943935302734375,5.618993727988005,1.604181455539167,-0.703527769947797
1782829390228864500,5.953864501953125,5.707250688111782,1.5198106891989707,-0.7528306569729
1782829390238793500,5.96379345703125,5.413952801436186,1.373903504139185,-0.37384295724779365
1782829390248722400,5.973722412109375,4.495905059581995,1.22214788531214,0.005539660079032183
1782829390258651100,5.983651123046875,2.933288663357496,1.0268860099747776,0.19599661935269833
1782829390268580400,5.993580322265625,1.008617655095458,0.5669879865616559,0.27950156264379616
1782829390278509300,6.00350927734375,0.0530775101929903,0.04017506626099348,-0.15032668200246987
1782829390288437200,6.013437255859375,-0.7353840668052435,-0.017149579982459542,-0.19989684166163205
1782829390298366200,6.0233662109375,-2.23384801659286,0.22274843267798422,0.1324503951806575
1782829390308295200,6.033295166015625,-4.701900510379672,0.07364303609877824,0.7637932919487357
1782829390318224400,6.043224365234375,-7.776819996652007,-0.7907517337620258,1.2882622794717549
1782829390328153300,6.0531533203125,-9.679470896285771,-1.6824869304910302,1.372014037130773
1782829390338082300,6.063082275390625,-10.467629690945149,-1.8465414743989705,0.7764510404046624
1782829390348011300,6.07301123046875,-10.446762259483338,-1.3077294887468218,0.19483013285659254
1782829390357940500,6.0829404296875,-9.571962123203278,-0.651129620321095,-0.09952003935091197
1782829390367869400,6.092869384765625,-8.69859055842161,-0.16858751116245985,-0.08180084278695285
1782829390377798400,6.10279833984375,-8.97043473818004,-0.03344692704975605,0.2649341081090271
1782829390387727400,6.112727294921875,-10.261711981558799,-0.524508735011518,0.34263299546986814
1782829390397655300,6.1226552734375,-11.120250718867778,-1.1603104378193616,0.6122953011445701
1782829390407584500,6.13258447265625,-11.972544424307346,-1.9576225530102849,1.0071699405051768
1782829390417513500,6.142513427734375,-13.204288697743415,-2.9084760014012456,1.6677265837326645
1782829390427442400,6.1524423828125,-14.283995320540665,-3.741450089342892,2.2208244304992255
1782829390437371100,6.16237109375,-14.858658664035795,-3.3587755908638237,2.7842572087973356
1782829390447300400,6.17230029296875,-15.330026468229294,-2.8936344061002135,2.154371890426427
1782829390457229300,6.182229248046875,-15.529668750607966,-2.8787738138377663,1.3928741620689629
1782829390467158300,6.192158203125,-14.78289761286974,-2.8560137004971504,0.6734256232813001
1782829390477087200,6.202087158203125,-13.696673571002483,-2.494897246092558,0.754135529026389
1782829390487016400,6.212016357421875,-12.812673060178756,-2.4436606875911355,1.4810411058217285
1782829390496944400,6.2219443359375,-12.19451076669693,-2.6453964351177213,2.3712927859947084
1782829390506873300,6.231873291015625,-11.52653668681979,-2.7212854965776203,2.851114530278742
1782829390516802300,6.24180224609375,-10.641517938864231,-2.0852701510190963,2.496230248261988
1782829390526731300,6.251731201171875,-8.780626452073454,-0.8195832759708166,1.5920707465067505
1782829390536660500,6.261660400390625,-6.995730994248389,0.15783347743600606,0.8184178854532539
1782829390546589400,6.27158935546875,-5.802850412213802,0.4481929725721478,0.35992344522774217
1782829390556518400,6.281518310546875,-4.767313770532608,0.3460807978361845,0.1506655585680157
1782829390566447400,6.291447265625,-4.0335441531866785,0.11626169611960649,0.0576586274381727
1782829390576376300,6.301376220703125,-3.0301866105765103,-0.1322553840652108,-0.2283732502898201
1782829390586305300,6.31130517578125,-1.6413737065970897,-0.29260084432214495,-0.7617045760411769
1782829390596234200,6.321234130859375,0.135621353366971,-0.3988412049040198,-1.316233405458927
1782829390606162400,6.331162353515625,1.8190537480145692,-0.41112361724153157,-1.566286024647951
1782829390616091100,6.341091064453125,3.2927205256760117,-0.37352424668744205,-1.3088266363337635
1782829390626020400,6.351020263671875,4.519090704858303,-0.4298660193733871,-0.7248720251411199
1782829390635949300,6.36094921875,5.400110738566518,-0.6664983082361519,-0.10279595574904232
1782829390645878300,6.370878173828125,5.954267885127663,-0.9202349497001617,0.5301947812912985
1782829390655807200,6.38080712890625,6.148002404767275,-1.0634297339960932,0.9341241396471858
1782829390665736400,6.390736328125,6.054806819197535,-1.1137679554183035,0.830643891428411
1782829390675665400,6.40066552734375,5.921330076643824,-1.0575831268597393,0.5739196855209767
1782829390685594400,6.410594482421875,5.993921265602111,-0.9727654204696417,0.34545740524083374
1782829390695523300,6.4205234375,6.381343543130159,-0.814856905036047,0.07658467904124408
1782829390705452500,6.43045263671875,6.976048973178863,-0.6457557452630251,-0.2152968197640963
1782829390715380500,6.44038037109375,7.625911642304063,-0.42105858967006204,-0.46394499724898486
1782829390725309400,6.450309326171875,8.216589132010936,-0.17661708836108445,-0.519579133122228
1782829390735238400,6.46023828125,8.639035376647115,-0.018330314199626444,-0.38638884282708164
1782829390745167400,6.47016748046875,8.766881419837475,0.0013628858510404825,-0.29504392662532625
1782829390755096300,6.480096435546875,8.316911208459734,-0.17875103164985776,-0.2918786675274372
1782829390765025300,6.490025390625,7.7670777703166,-0.35410058429315683,-0.2667977100238204
1782829390774954200,6.499954345703125,7.1242702803999185,-0.34956491362489756,-0.1256724985435605
1782829390784883200,6.50988330078125,6.501864357998967,-0.3018653701432049,-0.2625095843758434
1782829390794812400,6.5198125,6.292644684457779,-0.24524682634249328,-0.5180529099356382
1782829390804741400,6.529741455078125,6.437563443002104,-0.09162585203498601,-0.6815434632852673
1782829390814669300,6.53966943359375,6.6949389524251215,0.17402151890993117,-0.75875909717381
1782829390824598300,6.549598388671875,7.040040091574191,0.3805914085946977,-1.079923042026907
1782829390834527200,6.55952734375,7.387275320142507,0.48592663703039285,-1.18058362971507
1782829390844456400,6.56945654296875,7.629051109373569,0.5916156473398209,-1.0141668867204339
1782829390854385400,6.579385498046875,7.950809951379894,0.6990497477509081,-0.9465933797936886
1782829390864314400,6.589314453125,8.266530097743868,0.7995031954944133,-1.000534521078691
1782829390874243300,6.599243408203125,8.579920924377442,0.9111969991765916,-1.054310388799384
1782829390884172500,6.609172607421875,8.797740668481588,1.0955683549262583,-0.8801830714274197
1782829390894101500,6.6191015625,8.680096285831928,1.353771547345072,-0.646622152834013
1782829390904030200,6.6290302734375,8.18720638566017,1.5069126291811465,-0.5064429900322109
1782829390913959200,6.638959228515625,7.41694272865355,1.6302864953935146,-0.34469394658766683
1782829390923887400,6.648887451171875,6.415659069707989,1.7708762848228214,-0.00568147970251739
1782829390933816300,6.65881640625,5.732191068100929,1.6726611175253987,0.10200754531770943
1782829390943745300,6.668745361328125,6.17339286661148,1.3199451194584368,-0.29564043121375144
1782829390953674200,6.67867431640625,7.150602991530299,1.5463292782902716,-0.8015974643599242
1782829390963603200,6.688603271484375,7.261031451451778,2.1477833058163522,-0.9271183525383472
1782829390973532400,6.698532470703125,6.463422106879949,2.4724521900504826,-0.7311958213351667
1782829390983461400,6.70846142578125,5.434890375524759,2.2418550896987317,-0.44422414200641214
1782829390993390300,6.718390380859375,4.732151271736622,1.5557468027159571,-0.06948102104850112
1782829391003319300,6.7283193359375,3.7813749802350998,0.9860445887595415,0.33848062503077087
1782829391013252600,6.738252685546875,3.1046845099389553,0.5981666764184832,0.8704260128490626
1782829391023181300,6.748181396484375,2.4184487971842286,0.3409703229546547,1.4726327584385872
1782829391033109500,6.758109619140625,1.5139946963965891,-0.017887538868188856,1.952327076950669
1782829391043038700,6.768038818359375,0.49345045666396614,-0.14896598810851572,1.7272129380546508
1782829391052967400,6.777967529296875,-1.019458782583475,0.5656611218720674,1.250633682823181
1782829391062896400,6.787896484375,-3.561293720939755,1.3182915070325136,0.8970032002598046
1782829391072825300,6.797825439453125,-7.97297443691492,1.038340300925076,0.4693333026912063
1782829391082754600,6.807754638671875,-11.429638155078887,-0.5117790172979235,-0.3421102867700159
1782829391092683500,6.81768359375,-11.09775364037752,-1.5499512681797145,-0.6286082841724157
1782829391102612500,6.827612548828125,-10.403856014692783,-0.6210875332787632,-0.6655737407371402
1782829391112541400,6.83754150390625,-9.813115981143712,0.6795999280020594,-0.46658305413499473
1782829391122470700,6.847470703125,-9.253490047782659,0.662019263125956,-0.06730353087894618
1782829391132398600,6.857398681640625,-8.98360167826712,-0.0007493570625782013,0.05482976068779826
1782829391142327600,6.86732763671875,-8.204681252074241,-0.4474357244640588,0.32564898131266234
1782829391152256500,6.877256591796875,-7.725957824420928,-1.0333204269364475,1.1056441971302031
1782829391162185500,6.887185546875,-8.839352197286486,-2.081118876558542,2.2022699521549045
1782829391172114700,6.89711474609375,-10.285289256501198,-3.517318970134854,3.647080783818662
1782829391182043600,6.907043701171875,-11.629112095153332,-4.28932742498219,4.836018765707314
1782829391191972600,6.91697265625,-12.151191849452257,-3.542490820792317,4.148673338145017
1782829391201901300,6.9269013671875,-12.587683570575713,-2.2396645939171314,2.8122154753029345
1782829391211830500,6.93683056640625,-12.737324681466816,-1.2470578701630235,1.4557280931279062
1782829391221759500,6.946759521484375,-12.300416780757903,-0.47512394185662266,0.2660990602351725
1782829391231688400,6.9566884765625,-12.311513344311713,-0.18557137918919323,-0.36421266685426235
1782829391241616400,6.966616455078125,-13.263489074730872,-0.6300441621944308,-0.5097311448574066
1782829391251545300,6.97654541015625,-13.659039713656902,-1.5022835080757737,0.08779241135194897
1782829391261474600,6.986474609375,-12.858349938726425,-2.0655530586361883,0.9712439099907875
1782829391271403500,6.996403564453125,-11.307954726171493,-2.536503221939504,1.3756566314168273
1782829391281332500,7.00633251953125,-9.728073891413212,-2.6315268997192383,1.6986220727339385
1782829391291261400,7.016261474609375,-8.225773724463581,-2.5130554185956715,1.925551590488851
1782829391301190700,7.026190673828125,-6.627493894183635,-2.188399247712642,1.5601033904902637
1782829391311119600,7.03611962890625,-5.0132536937057965,-1.5805167945742606,0.8799285852096974
1782829391321048600,7.046048583984375,-3.733822370943427,-1.0900282564558088,0.20392989656999705
1782829391330977500,7.0559775390625,-2.681256853049993,-0.9887904534015804,-0.31552345474809407
1782829391340905500,7.065905517578125,-2.134814226388931,-0.9899394042409956,-0.665600701809302
1782829391350834700,7.075834716796875,-1.7628244957923889,-1.0750452068574725,-0.84777111344859
1782829391360763600,7.085763671875,-1.182592996776104,-1.0673808097094297,-0.6937668389119207
1782829391370692600,7.095692626953125,-0.4922293904364109,-0.9417752389222382,-0.48711212048791347
1782829391380621300,7.105621337890625,0.32518647836744785,-0.8926907438881695,-0.4552583809137344
1782829391390550500,7.115550537109375,1.193051846948266,-1.0303173726629464,-0.35829745146110653
1782829391400479500,7.1254794921875,1.9968197141498325,-1.3705163459189236,-0.2900029185171239
1782829391410408400,7.135408447265625,2.8609184236735103,-1.934023212366551,-0.092181924148323
1782829391420337400,7.14533740234375,3.7690649492383,-2.4472088815920054,0.12155331798801199
1782829391430266600,7.1552666015625,4.862279872906208,-2.507953711542487,0.2132022586376406
1782829391440195600,7.165195556640625,5.960679505735635,-2.1333482454895973,0.28666719822315495
1782829391450123500,7.17512353515625,6.953664122891426,-1.7536454562976955,0.39180290376506743
1782829391460052500,7.185052490234375,7.736543515843152,-1.5338884605206549,0.33459081451799716
1782829391469981400,7.1949814453125,7.965901722049713,-1.1348845393355935,0.6565133591860532
1782829391479910700,7.20491064453125,7.839448010000586,-0.683481372545287,0.9508198383823037
1782829391489839600,7.214839599609375,7.6062196843624115,-0.509841838690266,0.6906383316278457
1782829391499768600,7.2247685546875,7.248895023456216,-0.4793278232872486,0.4523535263177007
1782829391509697500,7.234697509765625,7.174723287308216,-0.6244798060655593,0.050254305998422205
1782829391519626500,7.24462646484375,7.458877498063445,-0.7191585428651421,-0.1750047577936202
1782829391529555500,7.254555419921875,7.756092265921831,-0.5116776027500629,-0.16293628046773373
1782829391539484400,7.264484375,8.168239234861732,-0.26102161084041,-0.23630502966977654
1782829391549413400,7.274413330078125,8.805708870881796,-0.24449432747475802,-0.35035109556652605
1782829391559341300,7.28434130859375,9.079584264206886,-0.3912005539577454,-0.5430099487986415
1782829391569270500,7.2942705078125,8.771127971366047,-0.44391661042720076,-0.5830341353468597
1782829391579199500,7.304199462890625,8.633737854760884,-0.22943127144277095,-0.09945924907438457
1782829391589128400,7.31412841796875,8.560513628596066,0.03551891101822257,-0.1297460315927863
1782829391599057400,7.324057373046875,8.154004373282193,0.30319355000704523,-0.5193768520157784
1782829391608986600,7.333986572265625,7.895641606387495,0.5638441355779766,-0.8763017730146646
1782829391618915600,7.34391552734375,7.98364371496737,0.8401742285788059,-1.0199375060111284
1782829391628844500,7.353844482421875,8.188857075476646,1.0604003031723201,-1.1388038316711784
1782829391638773500,7.3637734375,8.424130643206833,1.267025430175662,-1.1343434181962162
1782829391648702700,7.37370263671875,8.691160116159915,1.464733675751835,-0.9844138457525521
1782829391658631700,7.383631591796875,8.802892644417286,1.741470888248831,-0.7299210521589964
1782829391668559600,7.3935595703125,8.75825270770192,1.9668378328621385,-0.7453080794483423
1782829391678488600,7.403488525390625,8.377693886202573,2.1576523734018207,-0.9245254865009337
1782829391688417500,7.41341748046875,7.622569346138834,2.4419486229762435,-0.9979424587588757
1782829391698346500,7.423346435546875,6.571429477134346,2.6842998740077015,-0.7362574886389076
1782829391708275500,7.433275390625,5.5223944714546205,2.4798861394435168,-0.48984008414708075
1782829391718204400,7.443204345703125,4.620337494936585,2.1035338297232986,-0.5196631946764886
1782829391728133400,7.45313330078125,3.8357922145992513,2.041131734085083,-0.4863709467317909
1782829391738062600,7.4630625,3.4287621502816674,2.417426176138222,-0.3223326233062893
1782829391747991600,7.472991455078125,2.878746925830841,2.767145038215816,-0.4307569037985056
1782829391757920500,7.48292041015625,1.9146447042882442,2.681395676998794,-0.6972294735211879
1782829391767849500,7.492849365234375,1.2968798856914043,2.639419114273786,-1.0222653644368052
1782829391777777400,7.50277734375,1.0277613315045833,2.6763889547526833,-0.9634851125575602
1782829391787706600,7.51270654296875,1.1880465860068798,2.109381678968668,-0.6355480933729559
1782829391797635600,7.522635498046875,1.0191033932745457,1.3710337939217685,0.00031198855862021445
1782829391807564500,7.532564453125,0.2231242802530527,0.6945180956706404,1.0248664868459105
1782829391817493500,7.542493408203125,-1.049017470023036,-0.10410393307507038,1.737879731889069
1782829391827422700,7.552422607421875,-3.09831614395082,-1.0090586768612264,2.387654722730815
1782829391837351700,7.5623515625,-6.259300048738718,-2.509697340339422,2.920194203984737
1782829391847280400,7.5722802734375,-8.403987434366345,-4.261455083194375,2.222506830628216
1782829391857209300,7.582209228515625,-8.923814441302419,-4.071256628726423,2.1301965034604073
1782829391867138600,7.592138671875,-9.468105442887545,-1.956907975000143,1.9970783650860189
1782829391877067500,7.602067626953125,-9.764589558383822,-0.4078913573220372,1.1754090766213834
1782829391886995500,7.611995361328125,-9.51582230283022,0.79768182528615,-0.3275105739334598
1782829391896924400,7.62192431640625,-9.986617275571822,1.9030232400774956,-2.1895701911881567
1782829391906853400,7.631853271484375,-11.371527326893807,1.3403712368935345,-2.1977822853468356
1782829391916782600,7.641782470703125,-12.468714661324023,-0.671116761817038,-0.9621820671349763
1782829391926711600,7.651711669921875,-12.821887463247775,-2.5542472606837747,1.0104154982976614
1782829391936640500,7.661640625,-12.837035932540893,-3.547845625823736,2.838846877118945
1782829391946569500,7.671569580078125,-11.652373728275299,-3.2429701140791174,3.492620582208037
1782829391956498700,7.681498779296875,-10.905216806089877,-2.1192185978502036,2.850840681773424
1782829391966427600,7.691427734375,-11.577978120243548,-1.7509116474196313,1.8372645274877548
1782829391976356600,7.701356689453125,-12.623821051883697,-1.9575066715456544,1.1364929243803024
1782829391986285600,7.71128564453125,-12.270295198738575,-1.391266142350435,0.9095669137567282
1782829391996213500,7.721213623046875,-11.86820726699829,-0.5511150023862719,0.886016672951728
1782829392006142700,7.731142822265625,-11.635689135456085,-0.4975133221887052,0.8305722144316882
1782829392016067600,7.741067626953125,-11.251629027837515,-0.8723781698301434,0.6273587955679744
1782829392025996500,7.75099658203125,-11.063246975141762,-1.0301720459081232,0.5134799759969115
1782829392035925500,7.760925537109375,-10.5548906257689,-1.1399879268892108,0.342737259561941
1782829392045854500,7.7708544921875,-9.394003264844416,-1.1998678105734288,-0.0821583509877324
1782829392055783400,7.780783447265625,-7.801073563420772,-1.0645010164894162,-0.43892212660815566
1782829392065712400,7.79071240234375,-5.878754671242833,-0.6655576663851738,-0.9127448131404816
1782829392075641600,7.8006416015625,-4.053208054077625,-0.13681845419704913,-1.4927464489236473
1782829392085570600,7.810570556640625,-2.246483626282215,0.14989771600067614,-1.854006111191213
1782829392095499500,7.82049951171875,-0.4964852943152189,-0.005116173969954252,-1.9032135019525884
1782829392105427500,7.830427490234375,0.9297107071191072,-0.18561580285280943,-1.606048856846243
1782829392115356400,7.8403564453125,2.0738971086114644,-0.04909282447099685,-1.0614807188201696
1782829392125285600,7.85028564453125,3.0940140628427266,0.12875979703441262,-0.5156126406440511
1782829392135214600,7.860214599609375,4.01867800796628,0.1573050696477294,-0.17687385786743834
1782829392145143600,7.8701435546875,4.4983097826361655,-0.07929360920637846,-0.014450130031723529
1782829392155072500,7.880072509765625,4.427026169145107,-0.6388391708076,0.26136640569008884
1782829392165001700,7.890001708984375,4.382908794999122,-1.2652046444892882,0.6735283530034124
1782829392174930700,7.8999306640625,4.641524075350165,-1.617590387688577,0.789674313788861
1782829392184859400,7.909859375,5.148958633702993,-1.5552356383234263,0.6568611497104168
1782829392194788400,7.919788330078125,5.795795233005285,-1.346362878523767,0.47483628402166067
1782829392204717600,7.929717529296875,6.425968282276392,-1.070947489215061,0.31259887253828345
1782829392214645500,7.9396455078125,7.318052146312594,-0.82830974939242,0.03882719531599432
1782829392224574500,7.949574462890625,8.23387052167952,-0.6417130457434803,0.025187194357067344
1782829392234503400,7.95950341796875,8.816920000725984,-0.33213447087444364,0.29361268824581055
1782829392244432400,7.969432373046875,8.808209455525875,0.006877484554052352,0.5351981060039251
1782829392254361600,7.979361572265625,8.246500870671868,0.11538191761039197,0.51330337732099
1782829392264290600,7.98929052734375,7.294557288956642,-0.004769187163189054,0.3946570510871708
1782829392274219500,7.999219482421875,6.484484184131026,-0.33558146952316165,0.5001435976270586
1782829392284148500,8.0091484375,6.248458921250701,-1.007334702612832,0.6193534029625356
1782829392294077700,8.01907763671875,6.349500544145703,-1.4164211880035698,0.44795229568406936
1782829392304006700,8.029006591796875,6.343862245997786,-0.7672711971923708,0.32925043987073005
1782829392313935600,8.038935546875,6.470249907073378,-0.1263603346772492,0.14845292401984334
1782829392323863600,8.048863525390624,6.878629047912359,-0.152675437085703,-0.2858938209641725
1782829392333792500,8.05879248046875,7.307443658536672,-0.2278896680239588,-0.6175301330581308
1782829392343721700,8.0687216796875,7.762996053960919,-0.2295970564637333,-0.8693535613119602
1782829392353650700,8.078650634765625,8.216896006003022,-0.21081899849660693,-0.8996184973247349
1782829392363579400,8.088579345703126,8.739340501961111,-0.18588672874867915,-0.802082617528364
1782829392373508400,8.09850830078125,8.98983092804551,-0.020809563794732092,-0.5346822654362767
1782829392383437600,8.1084375,8.702614991632103,0.20735461032167077,-0.2132125425696373
1782829392393366500,8.118366455078124,7.946793701475858,0.31659137624055145,-0.023491569420322773
1782829392403295500,8.12829541015625,6.980560897645354,0.3101172117903828,-0.03962430051043629
1782829392413224400,8.138224365234375,6.04737462337017,0.31627310407161713,-0.07464512581340968
1782829392423153700,8.148153564453125,5.814089014586806,0.24144334240630266,-0.4797678952049464
1782829392433081600,8.15808154296875,6.292632994019985,0.4564391151309013,-0.7964448308371007
1782829392443010600,8.168010498046876,6.531227230605483,0.8893075311906635,-0.9165070882834494
1782829392452939500,8.177939453125,6.794473677888512,1.0942279001027344,-1.0066714163985102
1782829392462868500,8.187868408203125,7.115011453667282,1.2701751263782382,-0.8573242469526827
1782829392472797700,8.197797607421874,7.143193592056631,1.5707219612687826,-0.6806669727116823
1782829392482726700,8.2077265625,6.447986052817106,1.783263618839532,-0.5813742393106222
1782829392492655600,8.217655517578125,5.392829349386692,1.5284253728091717,-0.2876154571250081
1782829392502584600,8.22758447265625,3.9669297005504367,1.2089385673880577,0.2727950507424772
1782829392512513500,8.237513427734376,1.4936428132414816,0.870609114331007,0.7789899842977523
1782829392522442500,8.2474423828125,-0.6999526879400014,0.48885173069685695,0.8813342142239212
1782829392532371500,8.257371337890625,-2.264309790351987,0.44797114651501174,0.6710428197979926
1782829392542299400,8.26729931640625,-3.7357366801321503,0.657112494122982,0.4868505469422787
1782829392552228400,8.277228271484375,-5.2537043718129395,0.39937253530174494,0.1814902473554015
1782829392562157600,8.287157470703125,-7.474933145329356,-0.22178514060378074,0.047027124112844466
1782829392572086500,8.29708642578125,-9.522758239573239,-0.8593348561227321,0.3724981915753335
1782829392582015500,8.307015380859376,-9.869249956297875,-0.8846728571273386,0.4502350728590041
1782829392591944400,8.3169443359375,-8.965110328286885,0.15428309147804975,0.0010904255852103232
1782829392601873700,8.326873779296875,-8.361564004656673,1.2668512426525353,-0.3455704371612519
1782829392611802600,8.336802734375,-8.558715639263392,1.2580518501251936,-0.5189768929127604
1782829392621731600,8.346731689453126,-8.725069400024413,0.39726927941218015,-0.8120935047373176
1782829392631660500,8.35666064453125,-8.218305288279057,-0.21372999057248235,-0.7495868527460843
1782829392641589500,8.366589599609375,-7.255235332393646,-0.8655133986271917,0.17789967551752925
1782829392651517700,8.376517578125,-6.324409357509016,-1.2921706850871444,1.0836027534529566
1782829392661446700,8.38644677734375,-5.825969421994686,-0.983190076111257,1.5642638711705803
1782829392671375600,8.396375732421875,-5.320708700549602,-0.6649035863906144,1.0997733323354273
1782829392681304600,8.4063046875,-5.0282712300956245,-1.0732061548620462,0.3581777706041932
1782829392691233500,8.416233642578124,-5.830787051409483,-1.3963872847564518,0.11266907845512032
1782829392701162500,8.42616259765625,-6.726781366887688,-1.4009455325827003,0.36117264157123863
1782829392711091500,8.436091552734375,-8.072800254279375,-1.4318709783308208,0.9470438269749283
1782829392721020400,8.4460205078125,-9.72625018311739,-1.5130194216236472,1.0945149003505705
1782829392730949600,8.45594970703125,-10.915892513883113,-1.410255797241628,0.6239089473750442
1782829392740878600,8.465878662109375,-12.25086802921295,-1.1926174010537565,0.16253098760247228
1782829392750807600,8.4758076171875,-13.024257124763727,-1.3588627330042422,-0.2933828615453094
1782829392760735500,8.485735595703124,-13.58923610959053,-1.6350830820202826,-0.3554375319853425
1782829392770664400,8.49566455078125,-13.946211810928583,-1.692048393432051,-0.02925619736164808
1782829392780593700,8.50559375,-13.630426198112964,-1.1515442169092596,0.3620300621181726
1782829392790522600,8.515522705078125,-13.291779934191704,-0.4645318206936121,0.4511787103846669
1782829392800451600,8.52545166015625,-13.012876483571528,-0.47473085088580846,0.18546433861814438
1782829392810380500,8.535380615234375,-13.095382917344569,-0.9932661375109105,0.17307773525379597
1782829392820309800,8.545309814453125,-12.524679125130175,-1.5892317236885427,0.3461763671651482
1782829392830238500,8.555238525390624,-11.571349642014503,-1.9245758773244916,0.44193720011301335
1782829392840167400,8.56516748046875,-9.894812267577647,-2.079505888403952,0.03788567668218165
1782829392850096400,8.575096435546875,-7.4993538853585715,-1.9901704853937028,-0.41014527372866866
1782829392860025300,8.585025390625,-5.043304548576474,-1.8858032252073287,-0.5886800322793424
1782829392869953500,8.59495361328125,-2.5357839677542446,-1.8901827554658055,-0.46100916299279776
1782829392879882500,8.604882568359375,-0.2293020921051502,-2.0987439650982616,0.03851822983152233
1782829392889811500,8.6148115234375,1.3133680791556834,-2.6969606181383132,1.0115897297088057
1782829392899740400,8.624740478515625,2.5876591164201495,-3.133586779296398,1.4722699164755642
1782829392909669600,8.634669677734376,3.940013636574149,-2.5164050212845206,1.0621662899315356
1782829392919598600,8.6445986328125,5.151925666815043,-1.5879244404822588,0.704477033496648
1782829392929527600,8.654527587890625,6.312865050187707,-1.191105169859901,0.3071391092950478
1782829392939456500,8.66445654296875,7.13116822322011,-0.9422072005987167,0.11697672165432013
1782829392949385500,8.674385498046876,7.756860327684879,-0.7387078044004738,0.21350805491749195
1782829392959314700,8.684314697265625,8.213968720379471,-0.6407795642856509,0.3470867965409532
1782829392969243600,8.69424365234375,8.657069045987726,-0.5310265194077044,0.34661296848412604
1782829392979171600,8.704171630859374,9.21527342211306,-0.34994667948409913,0.5057850741127505
1782829392989100500,8.7141005859375,9.618092006215452,-0.057591042094677684,0.9703070675320923
1782829392999029800,8.72402978515625,9.766785022601484,0.2610901460319757,1.2854102510415018
1782829393008959200,8.733959228515625,9.40026407880485,0.519749265524745,1.2276271935060619
1782829393018888200,8.74388818359375,8.710518896624446,0.4439864607930183,0.779218970748037
1782829393028817200,8.753817138671875,8.33504716913104,0.1993997057944536,0.3968470719447359
1782829393038746000,8.76374609375,8.370064121976494,-0.10471519684121013,0.09850340965427458
1782829393048675300,8.77367529296875,8.510035487246514,-0.39366818618029353,-0.047153892297670245
1782829393058604300,8.783604248046874,8.512007664102315,-0.4861423256076872,0.1365332805801183
1782829393068533200,8.793533203125,8.439363868173956,-0.30645620506480337,0.30679493549987674
1782829393078462200,8.803462158203125,8.558933081406355,0.20286782029643655,0.16721227728649973
1782829393088390100,8.81339013671875,8.548429223048686,0.6734886055149137,-0.06823591635823249
1782829393098319400,8.8233193359375,8.25871387103498,1.0033099040761588,0.018428586942330002
1782829393108248300,8.833248291015625,8.335714108607172,1.2571738982468843,-0.011345898672379553
1782829393118177300,8.84317724609375,8.170427100294829,1.4187860174387692,-0.29913736995141954
1782829393128106200,8.853106201171874,8.021642313972116,1.6189860798306763,-0.38050533774644135
1782829393138035200,8.86303515625,8.08893948817551,1.7205962963938712,-0.3848562994975596
1782829393147964200,8.872964111328125,8.318893322187662,1.7536805276110767,-0.49068146687466646
1782829393157893000,8.88289306640625,8.595572667017578,1.7389150662861763,-0.6428028137415647
1782829393167822000,8.892822021484376,8.795957876718044,1.7899343287751077,-0.6987435313459486
1782829393177751300,8.902751220703125,8.900092204931378,1.9274486562818287,-0.6272030204843729
1782829393187680300,8.91268017578125,8.881725942635535,2.0803964075028896,-0.619371230880171
1782829393197609200,8.922609130859374,8.67602742895782,2.2853341659411788,-0.6845490748420358
1782829393207537200,8.932537109375,8.010270440608263,2.7114406866505742,-0.5864057306718081
1782829393217466000,8.942466064453125,6.4390796927839515,3.3609780693441627,-0.5234845065303146
1782829393227395300,8.952395263671875,4.6339831584513185,3.938673912402987,-0.7108512447036802
1782829393237324300,8.96232421875,4.153675676476955,4.120658373016119,-0.8453079382054507
1782829393247253200,8.972253173828125,3.755829035568237,4.222098055317998,-0.70818947814852
1782829393257182200,8.98218212890625,2.897499557095766,4.02896237835437,-0.816722479712218
1782829393267111400,8.992111328125,2.0901462326228617,3.632011517241597,-1.4212185052827
1782829393277040000,9.0020400390625,1.4657909297198057,3.1880984139457342,-2.034935802054405
1782829393286969000,9.011968994140625,1.3974597362935541,2.9038956878736615,-2.320405187061429
1782829393296898000,9.02189794921875,2.3688766647636887,2.733097514924407,-1.9939178552284835
1782829393306827300,9.0318271484375,2.7996435784995555,2.5272958331331608,-1.4515145670861005
1782829393316755200,9.041755126953126,1.6847615974247454,2.04926827878952,-0.7335459646578878
1782829393326684200,9.05168408203125,-1.5105571231633423,1.0887573597371578,0.2326672576893121
1782829393336613000,9.061613037109375,-5.943261922466754,-0.254422212575376,1.371106713027507
1782829393346542000,9.0715419921875,-7.39185680271387,-1.582918302758038,2.0480811148315667
1782829393356471300,9.08147119140625,-6.904342750361561,-2.318071483416855,1.757769842751324
1782829393366400300,9.091400146484375,-7.995395527559518,-1.2176862297281623,1.1147500252582132
1782829393376329200,9.1013291015625,-9.025034343373775,-0.08086597308963536,0.023700901322066783
1782829393386258200,9.111258056640626,-9.217410434141755,0.38718934555500745,-0.8295779426973312
1782829393396187400,9.1211875,-8.552605047428607,0.3345294762521982,-0.9968786289196461
1782829393406116400,9.131116455078125,-8.439664312425256,-0.17309359041005373,-0.13107216563001275
1782829393416045300,9.14104541015625,-9.168112442487478,-0.7185115501984953,0.6151046594768762
1782829393425973200,9.15097314453125,-9.781043849578499,-1.441172036769986,1.5616626026310025
1782829393435902200,9.160902099609375,-10.303699357938767,-2.524442489528656,2.330986056178063
1782829393445831400,9.17083154296875,-11.159444080615042,-3.1377950446411966,2.549813662150502
1782829393455760100,9.180760009765624,-11.998632805287837,-3.392853801554441,2.483321959111094
1782829393465689000,9.190689208984375,-13.192705811977385,-3.4857004275560377,2.8674194761306047
1782829393475618000,9.2006181640625,-14.074750512558222,-3.3632384154915806,3.121823860788345
1782829393485547300,9.21054736328125,-14.287080427074432,-2.9425512894824144,2.8877906485080715
1782829393495476200,9.220476318359376,-14.487119015294313,-2.3489389153674245,2.407437719956785
1782829393505405200,9.2304052734375,-14.068237769663334,-1.667635252187401,1.782595071928203
1782829393515334100,9.240334228515625,-12.708831577432155,-0.8191219420693814,0.8706123292014002
1782829393525263400,9.250263427734374,-11.483430535542965,-0.2817367012847215,0.34923253986537456
1782829393535191300,9.26019140625,-10.362947665721178,-0.7691526270247996,0.3114477297417819
1782829393545120300,9.270120361328125,-8.980257044014333,-1.1071418152768164,0.568957898395136
1782829393555049200,9.28004931640625,-8.081962050378323,-0.9756643567815423,1.039145041436702
1782829393564978200,9.289978271484374,-7.959292533043026,-1.4187410092532633,1.0585272027768193
1782829393574907400,9.299907470703126,-7.179403554078936,-2.282385545268655,0.6356121715851127
1782829393584836400,9.30983642578125,-5.528507401376962,-2.3554157101660964,0.21549751170165835
1782829393594765300,9.319765380859375,-4.099329753783345,-1.9900927439823746,0.2515914461288601
1782829393604690400,9.3296904296875,-4.086936136156321,-2.147354412879795,0.2891316338416189
1782829393614619100,9.339619140625,-2.3823633383244274,-1.8982872975967824,0.6917169937100262
1782829393624548000,9.349548095703126,-0.8504413555711507,-1.514490224828571,0.8956319119066
1782829393634477000,9.35947705078125,0.8936012828618287,-1.1850122598122805,0.5709362492633984
1782829393644406300,9.36940625,2.80433495118618,-0.8252760807849466,0.16360132024772464
1782829393654335200,9.379335205078124,4.301872433778644,-0.5339386805273593,-0.061234367033094164
1782829393664264200,9.38926416015625,4.620527464550733,-0.16963190564885736,-0.03991109982887283
1782829393674193200,9.399193115234375,4.412606014126539,-0.2064604379609227,-0.18711057145521043
1782829393684122400,9.409122314453125,3.9806355698198077,-0.6485990058649331,-0.04286196725741029
1782829393694051300,9.41905126953125,3.3667338563919067,-1.1646533623944968,0.3236320885322988
1782829393703980300,9.428980224609376,3.4239889445304867,-1.6457865546032786,0.5336687410121783
1782829393713909200,9.4389091796875,4.425696966367959,-1.8497806024506687,0.6310939635083079
1782829393723837200,9.448837158203125,5.5097009940981865,-1.4784966820359229,0.6494313650358468
1782829393733766400,9.458766357421876,6.27412235481739,-0.9397604650337249,0.5418472616948187
1782829393743695400,9.4686953125,6.930798795610666,-0.44224582767076787,0.4376905755192041
1782829393753624300,9.478624267578125,7.459031227320432,-0.10818674540929496,0.37528011391144245
1782829393763553000,9.488552978515624,7.834557315349579,0.049026554301753636,0.35039266968592997
1782829393773482200,9.498482177734376,8.268791612935066,0.15166114547662435,0.3675062650395557
1782829393783411200,9.5084111328125,8.794292573854326,0.142229081068933,0.5461712623737752
1782829393793340200,9.518340087890625,8.931127394664287,0.17543671947009862,0.8596970404986292
1782829393803269000,9.52826904296875,8.433693421322106,0.23647585619203745,1.2279321678020059
1782829393813198300,9.5381982421875,7.779990443381667,0.16708002920895815,1.144033549018204
1782829393823127300,9.548127197265625,7.430037188026309,0.08342033374756574,0.7323467449359595
1782829393833055200,9.55805517578125,7.3156737267434595,0.11737111866623162,0.5173661332478746
1782829393842984200,9.567984130859376,7.305605921715498,0.27508403846248985,0.5166608710553496
1782829393852913200,9.5779130859375,7.097437803053856,0.5080024213686585,0.5653616640014574
1782829393862842400,9.58784228515625,6.853125188821553,0.6709874363489449,0.590605776177533
1782829393872771300,9.597771240234374,6.781461051580309,0.8639620775319635,0.6149467655014247
1782829393882700300,9.6077001953125,6.626414282253384,1.1809002213835715,0.5760160002131015
1782829393892629200,9.617629150390625,6.490759026616812,1.350971249102056,0.2949011206211522
1782829393902558200,9.62755810546875,6.618904929536581,1.2760181533180177,0.1469533331118524
1782829393912487200,9.637487060546874,6.749107180464267,1.210285159691423,-0.0890550516989082
1782829393922416000,9.647416015625,6.628498687312007,1.314933721037209,-0.4798902794755995
1782829393932345000,9.657344970703125,6.379933091810345,1.505801014677435,-0.596322144530341
1782829393942273000,9.66727294921875,6.430283222866058,1.6100401184394955,-0.6441513057410717
1782829393952202200,9.6772021484375,6.5743976792901755,1.595611195592582,-0.7308340753506869
1782829393962131200,9.687131103515625,6.32930823546648,1.5625792790845037,-0.7141433450516312
1782829393972060200,9.69706005859375,5.774610990679264,1.5477712937921284,-0.40248452984243627
1782829393981989000,9.706989013671874,5.368376460653543,1.562209276728332,-0.1255333092685789
1782829393991918300,9.71691845703125,5.350912115633488,1.8521905862018464,-0.15709310739748178
1782829394001847300,9.726847412109375,5.372853898328542,2.232455100929737,-0.41077969917468726
1782829394011776300,9.7367763671875,5.14139258236289,2.4133614109173416,-0.7229298050321639
1782829394021706000,9.7467060546875,4.567874317249656,2.2358523421525955,-0.896435629504919
1782829394031634700,9.756634765625,3.95890421500504,1.915592506532371,-0.48949857723303136
1782829394041564000,9.76656396484375,3.4339649796217677,1.337233523389697,0.01191153319850564
1782829394051492900,9.776492919921875,3.35492183804512,0.7824766573697328,-0.5481696696493774
1782829394061420800,9.7864208984375,2.5065689791858197,1.0636176577836274,-0.5335353604234755
1782829394071349800,9.796349853515625,0.6797194627285004,1.1935764553442596,-0.1321735510006547
1782829394081278700,9.80627880859375,-3.348883142402768,0.11861731933504342,0.5555849874071777
1782829394091208000,9.8162080078125,-7.414692319378257,-1.6162871961355207,2.08209269002676
1782829394101137000,9.826136962890626,-8.28081289011836,-3.3275542309090493,2.370682983533293
1782829394111065900,9.83606591796875,-8.203736080178619,-3.227986187697947,1.2152724465847016
1782829394120994800,9.845994873046875,-9.085292120459675,-1.6840791681185363,0.0854480401828885
1782829394130924000,9.855924072265625,-9.592090718996523,-0.014892448705434798,-1.0096125113517045
1782829394140853000,9.86585302734375,-9.36497766136825,0.7967693866163492,-1.7423459175176919
1782829394150782000,9.875781982421875,-8.07320006725192,0.6744080584473907,-2.4017322017915546
1782829394160711000,9.8857109375,-7.052205745664239,-0.07064429267421364,-2.808911757582426
1782829394170638800,9.895638916015624,-8.62792536908984,-0.17980127135515211,-1.5951520536482333
1782829394180568000,9.905568115234376,-9.463707500189543,-1.187996755515784,-0.3127128543067723
1782829394190497000,9.9154970703125,-8.282550089174508,-2.6519331434100866,0.6254714474514126
1782829394200426000,9.925426025390625,-7.1714143088907,-3.3911054965823886,1.1953327974922954
1782829394210354700,9.935354736328126,-7.0896548940926785,-3.459002097983658,1.8957305988512931
1782829394220284000,9.945283935546875,-7.475755567628145,-3.102273064883053,2.4977067505553365
1782829394230212900,9.955212890625,-7.166188683196902,-2.674450095644593,2.420471827444434
1782829394240141800,9.965141845703124,-7.310936761349439,-2.1362205860555172,1.8145044141471385
1782829394250073900,9.975073974609375,-8.582372409182787,-2.0636282280534504,0.7810097996875643
1782829394260002800,9.9850029296875,-8.995620617362857,-1.7393880906254051,0.7157160742610692
1782829394269931800,9.994931884765625,-9.391433122095465,-1.4326646129265426,0.710171884137392
1782829394279861000,10.004861083984375,-10.051775099658965,-1.556405266624689,0.8903517795465886
1782829394289790000,10.0147900390625,-10.803720425164698,-1.977745303584635,0.9501775949560105
1782829394299719000,10.024718994140626,-11.371112316352129,-2.0113271090604363,0.9954423855714499
1782829394309648000,10.03464794921875,-11.65710835558176,-1.9893226363927126,1.070488274205476
1782829394319575800,10.044575927734375,-11.543208420157432,-2.0656921748459336,0.9162749600280076
1782829394329505000,10.054505126953124,-10.930316176033019,-1.9822370620459318,0.6350939198646695
1782829394339434000,10.06443408203125,-9.64275415378511,-1.8340612014017998,0.49705754124522206
1782829394349363000,10.074363037109375,-8.1617118789196,-1.6089846180371938,0.7012681544527412
1782829394359292000,10.0842919921875,-6.850023715674877,-1.4595865221217275,1.015919648671895
1782829394369220900,10.094220947265624,-5.32880666680932,-1.4670863763578235,0.9882625570699572
1782829394379149800,10.10414990234375,-3.882465118446946,-1.5841175955452025,0.4304894119687378
1782829394389078800,10.114078857421875,-2.481323478770256,-1.5422998766437173,-0.21012641312256455
1782829394399007700,10.1240078125,-1.0195675036549567,-1.3068446687363087,-0.5228820836577565
1782829394408937000,10.13393701171875,0.6596195085078478,-1.2254020648024975,-0.1699766274333
1782829394418866000,10.143865966796875,1.3896598761975765,-1.4418041971936821,0.5104173004906625
1782829394428793900,10.1537939453125,-1.724039714846015,-1.8013192077510058,0.30193675487898286
1782829394438722800,10.163722900390624,-2.5194313833683726,-1.515463746035844,-0.19934308023639022
1782829394448651800,10.17365185546875,-2.464559975495934,-0.6432922046937048,-0.020776830568909645
1782829394458581000,10.1835810546875,-1.2516712091773747,-0.25078217557258903,0.5048259102243929
1782829394468510000,10.193510009765625,0.5060299522519112,0.31956038211397825,0.01675765805542469
1782829394478439000,10.20343896484375,0.8201923477798699,1.0657145569976418,-0.10431750276051462
1782829394488367900,10.213367919921875,1.519584479227662,0.7184305208515376,-0.24601919895447788
1782829394498297000,10.223297119140625,3.54906903013885,0.040642318446561694,-0.3646014469761401
1782829394508225800,10.233225830078124,5.2152685504347085,-0.36553595134727657,-0.2627335293248296
1782829394518154800,10.24315478515625,6.735794694426655,-0.2094543590798974,-0.2011137431707233
