time,seconds_elapsed,z,y,x
1782829384360890600,0.085890625,-0.0009183445945382118,0.08782120048999786,0.040640939027071
1782829384370819600,0.095819580078125,-0.001733272336423397,0.07671581953763962,0.04611480236053467
1782829384380748500,0.10574853515625,0.029324771836400032,0.02924009971320629,0.03245008364319801
1782829384390677500,0.115677490234375,0.08319466561079025,-0.033803582191467285,0.014345649629831314
1782829384400606700,0.125606689453125,0.1282970905303955,-0.11093615740537643,0.018365267664194107
1782829384410534700,0.13553466796875,0.1361534148454666,-0.17338594794273376,0.027786199003458023
1782829384420463600,0.145463623046875,0.12439768761396408,-0.20666073262691498,0.015919988974928856
1782829384430392600,0.155392578125,0.1157437413930893,-0.21572080254554749,-0.025735311210155487
1782829384440321500,0.165321533203125,0.1083148866891861,-0.21824008226394653,-0.07241540402173996
1782829384450250800,0.175250732421875,0.08590305596590042,-0.17849133908748627,-0.11442916840314865
1782829384460179500,0.185179443359375,0.05072922632098198,-0.11118411272764206,-0.14391356706619263
1782829384470108400,0.1951083984375,0.02492372691631317,-0.047002725303173065,-0.15771940350532532
1782829384480037400,0.205037353515625,-0.0004107896238565445,0.013730566017329693,-0.1659565418958664
1782829384489965300,0.21496533203125,-0.023112373426556587,0.07587356120347977,-0.17041920125484467
1782829384499894500,0.22489453125,-0.038742270320653915,0.10521958023309708,-0.15825559198856354
1782829384509823500,0.234823486328125,-0.03793666139245033,0.15090104937553406,-0.1355188637971878
1782829384519752400,0.24475244140625,-0.004299483262002468,0.2323562353849411,-0.11928854882717133
1782829384529681400,0.254681396484375,0.052132368087768555,0.2801317572593689,-0.10648566484451294
1782829384539610600,0.264610595703125,0.11671486496925354,0.24607594311237335,-0.09065494686365128
1782829384549539600,0.27453955078125,0.16881002485752106,0.13648420572280884,-0.04298488795757294
1782829384559467500,0.284467529296875,0.18970374763011932,0.02839948609471321,0.04516099393367767
1782829384569396500,0.294396484375,0.17091967165470123,-0.05187191814184189,0.1517324447631836
1782829384579325400,0.304325439453125,0.12700580060482025,-0.09893164038658142,0.24285316467285156
1782829384589254700,0.314254638671875,0.07318597286939621,-0.14934420585632324,0.27558475732803345
1782829384599183600,0.32418359375,0.031176526099443436,-0.21829812228679657,0.26308900117874146
1782829384609112600,0.334112548828125,0.0040551600977778435,-0.2527320086956024,0.2251882404088974
1782829384619041500,0.34404150390625,-0.016793454065918922,-0.26004818081855774,0.18094715476036072
1782829384628970500,0.353970458984375,-0.01761557161808014,-0.25316229462623596,0.17104046046733856
1782829384638898700,0.363898681640625,0.011324884369969368,-0.1913509964942932,0.20706051588058472
1782829384648827600,0.37382763671875,0.06636256724596024,-0.058480292558670044,0.2783794403076172
1782829384658756600,0.383756591796875,0.1287592649459839,0.14377376437187195,0.3627535402774811
1782829384668685300,0.393685302734375,0.17675554752349854,0.35509026050567627,0.4696597456932068
1782829384678614500,0.403614501953125,0.17935316264629364,0.49735093116760254,0.5786988139152527
1782829384688543500,0.41354345703125,0.1530693620443344,0.5565958619117737,0.6541445255279541
1782829384698472400,0.423472412109375,0.13685260713100433,0.6061078310012817,0.6638627648353577
1782829384708401400,0.4334013671875,0.09341511875391006,0.6285281777381897,0.6180534362792969
1782829384718329300,0.443329345703125,0.03007635660469532,0.5697130560874939,0.5097362995147705
1782829384728258600,0.453258544921875,-0.04772736132144928,0.44068533182144165,0.3485993444919586
1782829384738187500,0.4631875,-0.11171745508909225,0.28303834795951843,0.1362115889787674
1782829384748116500,0.473116455078125,-0.1262705773115158,0.04845139756798744,-0.12332411855459213
1782829384758045400,0.48304541015625,-0.08662164956331253,-0.2690257430076599,-0.3831697106361389
1782829384767974700,0.492974609375,0.03806808218359947,-0.519848108291626,-0.5520396828651428
1782829384777903600,0.502903564453125,0.249643474817276,-0.5453085899353027,-0.5363866090774536
1782829384787831600,0.51283154296875,0.47535914182662964,-0.31823286414146423,-0.30140259861946106
1782829384797760500,0.522760498046875,0.6480318903923035,0.2549295127391815,0.07407250255346298
1782829384807689500,0.532689453125,0.7579091191291809,1.0382176637649536,0.4676951766014099
1782829384817618700,0.54261865234375,0.8017317056655884,1.646793246269226,0.71928471326828
1782829384827547600,0.552547607421875,0.7839388251304626,1.8414593935012817,0.7351297736167908
1782829384837476600,0.5624765625,0.7323031425476074,1.6136430501937866,0.5101359486579895
1782829384847405300,0.5724052734375,0.7136769890785217,1.0093553066253662,0.15705803036689758
1782829384857334500,0.58233447265625,0.7420287728309631,0.2759460210800171,-0.25656360387802124
1782829384867262700,0.5922626953125,0.7916247844696045,-0.33009010553359985,-0.6127827167510986
1782829384877191400,0.60219140625,0.783234715461731,-0.7682899832725525,-0.8135175108909607
1782829384887120400,0.612120361328125,0.7047795653343201,-1.0031384229660034,-0.8902000188827515
1782829384897049300,0.62204931640625,0.6518712043762207,-1.0377836227416992,-0.8449500203132629
1782829384906978600,0.631978515625,0.6091479659080505,-1.0302737951278687,-0.7785928249359131
1782829384916907500,0.641907470703125,0.5355374217033386,-1.1799123287200928,-0.7963816523551941
1782829384926836500,0.65183642578125,0.49486029148101807,-1.2418310642242432,-0.7912545800209045
1782829384936765400,0.661765380859375,0.48246970772743225,-1.1157923936843872,-0.6354122161865234
1782829384946693400,0.671693359375,0.39772528409957886,-0.9783322811126709,-0.34202396869659424
1782829384956622600,0.68162255859375,0.2501131594181061,-0.8661362528800964,-0.002112498041242361
1782829384966551600,0.691551513671875,0.08313190937042236,-0.7416059970855713,0.257317453622818
1782829384976480500,0.70148046875,-0.11440565437078476,-0.6128578186035156,0.25308626890182495
1782829384986409500,0.711409423828125,-0.253042072057724,-0.43500953912734985,0.028120802715420723
1782829384996338700,0.721338623046875,-0.2781005799770355,-0.13672369718551636,-0.2661629915237427
1782829385006266600,0.7312666015625,-0.20495179295539856,0.18191100656986237,-0.4796808660030365
1782829385016195600,0.741195556640625,-0.09193199127912521,0.3510756194591522,-0.5282214283943176
1782829385026123800,0.751123779296875,-0.013038777746260166,0.29156193137168884,-0.42120763659477234
1782829385036052700,0.761052734375,0.03627518564462662,0.11431053280830383,-0.20215532183647156
1782829385045981700,0.770981689453125,0.07763247191905975,-0.1144305020570755,0.05642963945865631
1782829385055910700,0.78091064453125,0.13552728295326233,-0.3554611802101135,0.33609265089035034
1782829385065839600,0.790839599609375,0.1707734316587448,-0.4710370600223541,0.5922418832778931
1782829385075768800,0.800768798828125,0.1387869268655777,-0.3392390012741089,0.8012349009513855
1782829385085697500,0.810697509765625,0.01751536875963211,-0.03241141512989998,0.9594149589538574
1782829385095625700,0.820625732421875,-0.1595679074525833,0.3732171356678009,1.059289574623108
1782829385105554700,0.8305546875,-0.33348962664604187,0.8372777700424194,1.1055220365524292
1782829385115483600,0.840483642578125,-0.4310482144355774,1.1509093046188354,1.0869601964950562
1782829385125412600,0.85041259765625,-0.4457009434700012,1.3176751136779785,1.0259146690368652
1782829385135341600,0.860341552734375,-0.3840384781360626,1.3600901365280151,0.9788506627082825
1782829385145270500,0.8702705078125,-0.25180402398109436,1.3048362731933594,0.9503990411758423
1782829385155199700,0.88019970703125,-0.0731496661901474,1.1706037521362305,0.9708705544471741
1782829385165128700,0.890128662109375,0.11163429170846939,1.013664722442627,1.052183985710144
1782829385175056600,0.900056640625,0.23342442512512207,0.9106050133705139,1.1830216646194458
1782829385184985600,0.909985595703125,0.26337459683418274,0.8376149535179138,1.3167061805725098
1782829385194914600,0.91991455078125,0.20347236096858978,0.817400336265564,1.3836816549301147
1782829385204843800,0.92984375,0.13403069972991943,0.8393551707267761,1.3818895816802979
1782829385214772700,0.939772705078125,0.0726303979754448,0.8663459420204163,1.3226401805877686
1782829385224701700,0.94970166015625,0.01971765048801899,0.8167842626571655,1.199080467224121
1782829385234630700,0.959630615234375,-0.0026749921962618828,0.6693087220191956,1.0209957361221313
1782829385244560000,0.969559814453125,-0.006042026914656162,0.42482998967170715,0.8197281360626221
1782829385254487800,0.97948779296875,0.027293868362903595,0.14192096889019012,0.6704686880111694
1782829385264416800,0.989416748046875,0.0792183205485344,0.05047546327114105,0.5976315140724182
1782829385274345700,0.999345703125,0.13991621136665344,0.09309405833482742,0.5833150148391724
1782829385284274700,1.009274658203125,0.1944846510887146,0.2737005650997162,0.5694583058357239
1782829385294203600,1.01920361328125,0.24227163195610046,0.5390300154685974,0.538428008556366
1782829385304132600,1.029132568359375,0.2238774448633194,0.8326315879821777,0.5230077505111694
1782829385314061600,1.0390615234375,0.16314944624900818,1.0134329795837402,0.5275485515594482
1782829385323990500,1.048990478515625,0.16629065573215485,1.0278902053833008,0.5434537529945374
1782829385333918500,1.05891845703125,0.25832653045654297,1.0385267734527588,0.5335017442703247
1782829385343847700,1.06884765625,0.36759334802627563,1.185749888420105,0.48239651322364807
1782829385353776600,1.078776611328125,0.38972315192222595,1.308995246887207,0.38500070571899414
1782829385363705600,1.08870556640625,0.32336491346359253,1.178989052772522,0.2603335976600647
1782829385373634600,1.098634521484375,0.18612031638622284,0.832602858543396,0.0877305418252945
1782829385383563800,1.108563720703125,0.017069514840841293,0.46568796038627625,-0.10038264095783234
1782829385393492700,1.11849267578125,-0.17686773836612701,0.26049700379371643,-0.32241198420524597
1782829385403420700,1.128420654296875,-0.4007631242275238,0.2917787432670593,-0.5673950910568237
1782829385413349600,1.138349609375,-0.5780506134033203,0.35803940892219543,-0.7424386143684387
1782829385423278600,1.148278564453125,-0.737962007522583,0.27094048261642456,-0.9255000352859497
1782829385433207800,1.158207763671875,-0.8271153569221497,-0.03847749903798103,-1.1071394681930542
1782829385443136800,1.16813671875,-0.7890436053276062,-0.5711882710456848,-1.1939953565597534
1782829385453065700,1.178065673828125,-0.6129297614097595,-0.9235327839851379,-1.0652557611465454
1782829385462994700,1.18799462890625,-0.3901776671409607,-1.0473815202713013,-0.7632922530174255
1782829385472923600,1.197923583984375,-0.15911254286766052,-0.7312381267547607,-0.3909994959831238
1782829385482851800,1.207851806640625,0.012609937228262424,0.07558407634496689,-0.1294909417629242
1782829385492780800,1.21778076171875,0.0939469188451767,0.8016437292098999,-0.05039655789732933
1782829385502709500,1.22770947265625,0.1009928435087204,1.0820984840393066,-0.16176941990852356
1782829385512638500,1.237638427734375,0.0019872132688760757,0.723854660987854,-0.5376008152961731
1782829385522567700,1.247567626953125,-0.10184676945209503,-0.16208207607269287,-1.0861752033233643
1782829385532496600,1.25749658203125,-0.0035825008526444435,-0.9020540118217468,-1.4768000841140747
1782829385542425600,1.267425537109375,0.1314714550971985,-1.1897647380828857,-1.5666615962982178
1782829385552354600,1.2773544921875,0.1468116044998169,-1.4109333753585815,-1.395665168762207
1782829385562282500,1.287282470703125,0.18342608213424683,-1.6777878999710083,-1.025142788887024
1782829385572211700,1.297211669921875,0.3241147994995117,-1.959709644317627,-0.5413321256637573
1782829385582140700,1.307140625,0.5043639540672302,-2.219449520111084,-0.04130708426237106
1782829385592069600,1.317069580078125,0.6356462240219116,-2.3714616298675537,0.3764677941799164
1782829385601998600,1.32699853515625,0.6163598895072937,-2.355710029602051,0.5793293118476868
1782829385611927800,1.336927734375,0.4921395480632782,-2.1931138038635254,0.5668367147445679
1782829385621856800,1.346856689453125,0.31141555309295654,-1.9227228164672852,0.3879239559173584
1782829385631785700,1.35678564453125,0.13740089535713196,-1.5969911813735962,0.11391822248697281
1782829385641713700,1.366713623046875,0.02025856077671051,-1.3108036518096924,-0.1588432788848877
1782829385651642600,1.376642578125,-0.02435729093849659,-1.1494340896606445,-0.3511613607406616
1782829385661571800,1.38657177734375,0.012396995909512043,-1.1720695495605469,-0.4483097493648529
1782829385671500800,1.396500732421875,0.11525672674179077,-1.3303889036178589,-0.46464863419532776
1782829385681429500,1.406429443359375,0.2316025048494339,-1.4764331579208374,-0.439786434173584
1782829385691358500,1.4163583984375,0.2702580392360687,-1.4788713455200195,-0.406541645526886
1782829385701287700,1.42628759765625,0.2710854709148407,-1.3228774070739746,-0.36908668279647827
1782829385711216600,1.436216552734375,0.26807305216789246,-1.06521737575531,-0.32292234897613525
1782829385721144600,1.44614453125,0.25687500834465027,-0.7401443123817444,-0.2411116510629654
1782829385731073500,1.456073486328125,0.21894949674606323,-0.3764503002166748,-0.1348000168800354
1782829385741002500,1.46600244140625,0.16129551827907562,-0.0594763457775116,0.007207724265754223
1782829385750931700,1.475931640625,0.06769314408302307,0.19254334270954132,0.17795628309249878
1782829385760860700,1.485860595703125,-0.05969889834523201,0.46660658717155457,0.33417147397994995
1782829385770789600,1.49578955078125,-0.23233921825885773,0.796829104423523,0.4257751405239105
1782829385780718600,1.505718505859375,-0.4020496904850006,1.1282106637954712,0.4421099126338959
1782829385790647800,1.515647705078125,-0.4932260513305664,1.3682883977890015,0.4106796383857727
1782829385800575700,1.52557568359375,-0.509459912776947,1.5198140144348145,0.35353460907936096
1782829385810504700,1.535504638671875,-0.4807654321193695,1.5731819868087769,0.2953020930290222
1782829385820433700,1.54543359375,-0.4184724986553192,1.425742506980896,0.29072973132133484
1782829385830362600,1.555362548828125,-0.3138483762741089,1.088515281677246,0.32102149724960327
1782829385840291800,1.565291748046875,-0.1601368486881256,0.6593434810638428,0.36480653285980225
1782829385850220800,1.575220703125,-0.0213373601436615,0.24320101737976074,0.39263537526130676
1782829385860149500,1.5851494140625,0.04131297022104263,0.007687553763389587,0.3890257179737091
1782829385870078500,1.595078369140625,0.05901980400085449,0.019473843276500702,0.36314988136291504
1782829385880006700,1.605006591796875,0.061204127967357635,0.2138659656047821,0.34316471219062805
1782829385889935600,1.614935546875,0.06075547635555267,0.4750070869922638,0.38492223620414734
1782829385899864600,1.624864501953125,0.0948343500494957,0.6489993929862976,0.5103546977043152
1782829385909793500,1.63479345703125,0.14651240408420563,0.7032933831214905,0.6788650751113892
1782829385919722500,1.644722412109375,0.12528860569000244,0.7472409009933472,0.8113352656364441
1782829385929651700,1.654651611328125,0.02242971956729889,0.7686939835548401,0.8710413575172424
1782829385939580700,1.66458056640625,-0.09788710623979568,0.7332185506820679,0.869210422039032
1782829385949509600,1.674509521484375,-0.1896265149116516,0.6679834127426147,0.8095797896385193
1782829385959437600,1.6844375,-0.24213634431362152,0.5652674436569214,0.7292383909225464
1782829385969366500,1.694366455078125,-0.2729259431362152,0.47400957345962524,0.6408280730247498
1782829385979295700,1.704295654296875,-0.3089984357357025,0.4129222333431244,0.5395594835281372
1782829385989224700,1.714224609375,-0.25695544481277466,0.39668187499046326,0.4625997841358185
1782829385999153700,1.724153564453125,-0.10792921483516693,0.45435503125190735,0.4078494608402252
1782829386009083400,1.73408349609375,0.013351534493267536,0.6773859262466431,0.2960614562034607
1782829386019012000,1.74401220703125,0.04479840397834778,1.0689421892166138,0.0910334587097168
1782829386028941000,1.753941162109375,-0.020061399787664413,1.6456646919250488,-0.24720443785190582
1782829386038869500,1.763869384765625,-0.18844188749790192,2.179234027862549,-0.6993564367294312
1782829386048798200,1.773798095703125,-0.3517504632472992,2.060429811477661,-1.1221445798873901
1782829386058727200,1.78372705078125,-0.4253562390804291,1.0932884216308594,-1.4780324697494507
1782829386068656000,1.79365625,-0.5051915645599365,0.011445554904639721,-1.6422343254089355
1782829386078585300,1.80358544921875,-0.6320943832397461,-0.328102171421051,-1.4431720972061157
1782829386088514300,1.813514404296875,-0.6357867121696472,0.0334734171628952,-0.9529756307601929
1782829386098443300,1.823443359375,-0.44952791929244995,0.7890114188194275,-0.3375294804573059
1782829386108372200,1.833372314453125,-0.17778494954109192,1.428067922592163,0.14683640003204346
1782829386118300200,1.843300048828125,0.16632582247257233,1.50778329372406,0.3513253629207611
1782829386128229400,1.8532294921875,0.42873406410217285,1.1851575374603271,0.3045385777950287
1782829386138158300,1.863158447265625,0.4562424123287201,0.7318393588066101,0.042711228132247925
1782829386148087300,1.87308740234375,0.23161882162094116,0.1471150517463684,-0.3518790602684021
1782829386158016300,1.883016357421875,-0.12459947168827057,-0.49758005142211914,-0.7186277508735657
1782829386167945500,1.892945556640625,-0.41090139746665955,-0.9942283630371094,-0.9159398078918457
1782829386177874400,1.90287451171875,-0.6190232038497925,-1.2655974626541138,-1.0360076427459717
1782829386187803400,1.912803466796875,-0.7136292457580566,-1.2592617273330688,-1.1092865467071533
1782829386197731300,1.9227314453125,-0.6907191276550293,-1.0893265008926392,-1.1365560293197632
1782829386207660300,1.932660400390625,-0.5577942132949829,-0.9147214293479919,-1.0303101539611816
1782829386217589500,1.942589599609375,-0.3294568955898285,-0.7557821273803711,-0.7334171533584595
1782829386227518200,1.952518310546875,-0.05334358662366867,-0.7897622585296631,-0.3228992223739624
1782829386237447200,1.962447265625,0.26794204115867615,-1.1122146844863892,0.11776869744062424
1782829386247376100,1.972376220703125,0.5604805946350098,-1.649083137512207,0.552915632724762
1782829386257305300,1.982305419921875,0.7012878060340881,-2.244025230407715,0.9250338077545166
1782829386267234300,1.992234375,0.600429117679596,-2.6160967350006104,1.0808779001235962
1782829386277162200,2.002162353515625,0.34018129110336304,-2.6247267723083496,0.9536527991294861
1782829386287091200,2.01209130859375,-0.0038083381950855255,-2.2483482360839844,0.5409864187240601
1782829386297020200,2.022020263671875,-0.33866968750953674,-1.584187626838684,-0.04216410964727402
1782829386306949400,2.031949462890625,-0.5292607545852661,-0.8028568625450134,-0.587587296962738
1782829386316878300,2.04187841796875,-0.5940088629722595,-0.0950709655880928,-0.9802669286727905
1782829386326807300,2.051807373046875,-0.6164337396621704,0.32245928049087524,-1.2061595916748047
1782829386336736300,2.061736328125,-0.6164034008979797,0.30715513229370117,-1.2649571895599365
1782829386346665500,2.07166552734375,-0.5664511322975159,-0.0744975358247757,-1.184191107749939
1782829386356593400,2.081593505859375,-0.4627913534641266,-0.6560490727424622,-1.0009515285491943
1782829386366522400,2.0915224609375,-0.30146118998527527,-1.1806573867797852,-0.7443808317184448
1782829386376451300,2.101451416015625,-0.10290788114070892,-1.4282251596450806,-0.4917656183242798
1782829386386380300,2.11138037109375,0.0367276556789875,-1.2651870250701904,-0.29425573348999023
1782829386396309200,2.121309326171875,0.08735541254281998,-0.7931057214736938,-0.17700470983982086
1782829386406238200,2.13123828125,0.07970745861530304,-0.15353292226791382,-0.1273525208234787
1782829386416167200,2.141167236328125,0.043944671750068665,0.5021376013755798,-0.10731543600559235
1782829386426096000,2.15109619140625,0.005526573397219181,1.0822241306304932,-0.08995532989501953
1782829386436025300,2.161025390625,-0.003578241914510727,1.4318771362304688,-0.038293205201625824
1782829386445953300,2.170953369140625,0.016239309683442116,1.564719557762146,0.024973727762699127
1782829386455882200,2.18088232421875,0.05999105051159859,1.4771630764007568,0.11199731379747391
1782829386465811200,2.190811279296875,0.12794296443462372,1.1517932415008545,0.22034163773059845
1782829386475740200,2.200740234375,0.22074827551841736,0.7413181066513062,0.36674144864082336
1782829386485669400,2.21066943359375,0.3330529034137726,0.39322352409362793,0.5593597888946533
1782829386495598300,2.220598388671875,0.4107772409915924,0.2073064148426056,0.7708672285079956
1782829386505527300,2.23052734375,0.3908034563064575,0.12235617637634277,0.918984055519104
1782829386515456300,2.240456298828125,0.3113245964050293,0.13421550393104553,0.985395073890686
1782829386525384200,2.25038427734375,0.21568790078163147,0.25253722071647644,0.9883808493614197
1782829386535313400,2.2603134765625,0.14015106856822968,0.46760374307632446,0.9436509013175964
1782829386545242400,2.270242431640625,0.11881698668003082,0.7200727462768555,0.883600652217865
1782829386555171300,2.28017138671875,0.161315456032753,0.9023575782775879,0.8275538682937622
1782829386565100300,2.290100341796875,0.2603510916233063,1.0385457277297974,0.7796044945716858
1782829386575029200,2.300029296875,0.37067097425460815,1.1042383909225464,0.7477893233299255
1782829386584958200,2.309958251953125,0.42641398310661316,1.1388874053955078,0.7190176248550415
1782829386594887200,2.31988720703125,0.4017469882965088,1.1103441715240479,0.7047654390335083
1782829386604815400,2.3298154296875,0.3434146046638489,0.9593731760978699,0.7491065859794617
1782829386614744000,2.339744140625,0.29324063658714294,0.6885904669761658,0.8563278317451477
1782829386624673300,2.34967333984375,0.2311602383852005,0.4274512231349945,0.9452158808708191
1782829386634602200,2.359602294921875,0.16805781424045563,0.29730212688446045,0.9381920695304871
1782829386644531200,2.36953125,0.09677553176879883,0.37274137139320374,0.8046702146530151
1782829386654460200,2.379460205078125,0.05852854624390602,0.5772649645805359,0.5796592235565186
1782829386664389400,2.389389404296875,0.08461981266736984,0.6937176585197449,0.3032399117946625
1782829386674318300,2.399318359375,0.15801574289798737,0.3660210072994232,0.0045672086998820305
1782829386684247300,2.409247314453125,0.2606528401374817,-0.32592329382896423,-0.280498743057251
1782829386694175200,2.41917529296875,0.3620588183403015,-0.7423229217529297,-0.5176745057106018
1782829386704104200,2.429104248046875,0.37297317385673523,-0.468565434217453,-0.6659760475158691
1782829386714033400,2.439033447265625,0.2283717691898346,0.0038838759064674377,-0.7762612700462341
1782829386723962400,2.44896240234375,0.0123182637616992,0.16517335176467896,-0.8657195568084717
1782829386733891300,2.458891357421875,-0.12285447120666504,-0.2534465491771698,-0.9164064526557922
1782829386743820300,2.4688203125,-0.14033976197242737,-1.0579447746276855,-0.9102069735527039
1782829386753749200,2.478749267578125,-0.08185034990310669,-1.5971283912658691,-0.9142813682556152
1782829386763678200,2.48867822265625,0.03554898500442505,-1.4027236700057983,-0.9079510569572449
1782829386773606400,2.4986064453125,0.12326285243034363,-0.6132935285568237,-0.8734660148620605
1782829386783535400,2.508535400390625,0.17893226444721222,0.47421130537986755,-0.6755427122116089
1782829386793464000,2.518464111328125,0.21202869713306427,1.4400449991226196,-0.37320205569267273
1782829386803393300,2.528393310546875,0.19875626266002655,1.6571377515792847,-0.24132215976715088
1782829386813322200,2.538322265625,0.15865544974803925,1.2352675199508667,-0.31528401374816895
1782829386823251200,2.548251220703125,0.10583218187093735,0.44084957242012024,-0.5437904596328735
1782829386833180200,2.55818017578125,0.020865628495812416,-0.5154878497123718,-0.9026889801025391
1782829386843109400,2.568109375,-0.011161168105900288,-1.1874099969863892,-1.168541431427002
1782829386853037300,2.578037353515625,-0.08447905629873276,-1.475891351699829,-1.2425343990325928
1782829386862966300,2.58796630859375,-0.12502919137477875,-1.613699197769165,-1.0992127656936646
1782829386872895200,2.597895263671875,-0.037392280995845795,-1.641258955001831,-0.7555767893791199
1782829386882824200,2.60782421875,0.13233540952205658,-1.5850270986557007,-0.3262370824813843
1782829386892753400,2.61775341796875,0.330999493598938,-1.4498019218444824,0.037840478122234344
1782829386902682400,2.627682373046875,0.5118784308433533,-1.2733371257781982,0.2844265401363373
1782829386912611300,2.637611328125,0.624778151512146,-1.1195180416107178,0.3625916540622711
1782829386922540300,2.647540283203125,0.6426272988319397,-1.0318037271499634,0.3278690278530121
1782829386932469200,2.65746923828125,0.6011024713516235,-0.9517949819564819,0.2643877863883972
1782829386942397400,2.6673974609375,0.5129700303077698,-0.8874544501304626,0.20197954773902893
1782829386952326400,2.677326416015625,0.3798215985298157,-0.8487627506256104,0.14381690323352814
1782829386962255400,2.68725537109375,0.20964866876602173,-0.7101567983627319,0.04789646714925766
1782829386972184000,2.69718408203125,0.015110883861780167,-0.4744623005390167,-0.11676464974880219
1782829386982113300,2.70711328125,-0.17241746187210083,-0.23851199448108673,-0.33781254291534424
1782829386992042200,2.717042236328125,-0.2941311001777649,-0.007180492859333754,-0.565406322479248
1782829387001971200,2.72697119140625,-0.32699325680732727,0.14254377782344818,-0.7322835922241211
1782829387011899400,2.7368994140625,-0.2982036769390106,0.18797197937965393,-0.8197910785675049
1782829387021828400,2.746828369140625,-0.22601322829723358,0.18095727264881134,-0.7959725856781006
1782829387031756300,2.75675634765625,-0.11962900310754776,0.14916951954364777,-0.670859694480896
1782829387041685500,2.766685546875,-0.007903937250375748,0.15005773305892944,-0.4929793179035187
1782829387051614500,2.776614501953125,0.06896048039197922,0.19706997275352478,-0.31626206636428833
1782829387061543400,2.78654345703125,0.10579817742109299,0.2894982099533081,-0.14247773587703705
1782829387071472400,2.796472412109375,0.09995386749505997,0.4145314693450928,0.02834487333893776
1782829387081401600,2.806401611328125,0.02715391479432583,0.5850744247436523,0.2024548500776291
1782829387091330600,2.81633056640625,-0.07404088228940964,0.7989060282707214,0.35767295956611633
1782829387101259500,2.826259521484375,-0.1341051161289215,0.9138522148132324,0.4688042402267456
1782829387111188500,2.8361884765625,-0.10241749882698059,0.899164617061615,0.527266800403595
1782829387121116400,2.846116455078125,-0.01457305159419775,0.8328304886817932,0.5535427331924438
1782829387131045600,2.856045654296875,0.0865306630730629,0.7628322243690491,0.5607260465621948
1782829387140974600,2.865974609375,0.18270328640937805,0.7236409783363342,0.5809565186500549
1782829387150903600,2.875903564453125,0.2745988667011261,0.6975957751274109,0.6205359101295471
1782829387160832500,2.88583251953125,0.35253939032554626,0.6452277898788452,0.6804841160774231
1782829387170761500,2.895761474609375,0.39912286400794983,0.5683095455169678,0.7693088054656982
1782829387180690400,2.9056904296875,0.42263445258140564,0.45935168862342834,0.878273606300354
1782829387190619400,2.915619384765625,0.40023380517959595,0.37461230158805847,0.9596824049949646
1782829387200547600,2.925547607421875,0.31566983461380005,0.31185585260391235,0.9633830785751343
1782829387210476300,2.935476318359375,0.19427868723869324,0.32197317481040955,0.914535641670227
1782829387220405500,2.945405517578125,0.13224506378173828,0.4336797595024109,0.8429619073867798
1782829387230334500,2.95533447265625,0.14307855069637299,0.565029501914978,0.8051702976226807
1782829387240263400,2.965263427734375,0.1368202269077301,0.6386036276817322,0.7596781849861145
1782829387250192400,2.9751923828125,0.11620522290468216,0.6291480660438538,0.7085146307945251
1782829387260121600,2.98512158203125,0.09864583611488342,0.5052371621131897,0.6564822196960449
1782829387270050600,2.995050537109375,0.08645761758089066,0.28803741931915283,0.6263333559036255
1782829387279979500,3.0049794921875,0.1262628138065338,0.04268635809421539,0.655798614025116
1782829387289907500,3.014907470703125,0.241143599152565,-0.0897292047739029,0.7158281207084656
1782829387299836400,3.02483642578125,0.3637513220310211,0.02035520225763321,0.7405189871788025
1782829387309765600,3.034765625,0.4220298230648041,0.2687831223011017,0.7210363745689392
1782829387319694600,3.044694580078125,0.4506271779537201,0.4881078600883484,0.6776421070098877
1782829387329623600,3.05462353515625,0.4974293112754822,0.5699997544288635,0.6490128636360168
1782829387339552500,3.064552490234375,0.5190048813819885,0.5750217437744141,0.5996924042701721
1782829387349481500,3.0744814453125,0.4716978073120117,0.6299025416374207,0.46223151683807373
1782829387359410400,3.084410400390625,0.36776864528656006,0.6712576150894165,0.23169900476932526
1782829387369339400,3.09433935546875,0.24216093122959137,0.548529863357544,-0.09406150877475739
1782829387379267300,3.104267333984375,0.15219484269618988,-0.11309856921434402,-0.5301979780197144
1782829387389196300,3.1141962890625,0.15132585167884827,-1.3979363441467285,-1.0412524938583374
1782829387399125500,3.12412548828125,0.23560629785060883,-2.5671603679656982,-1.4368103742599487
1782829387409054500,3.134054443359375,0.368313193321228,-2.7730250358581543,-1.5178016424179077
1782829387418983400,3.1439833984375,0.4700855016708374,-2.3190596103668213,-1.307965874671936
1782829387428912400,3.153912353515625,0.5325446128845215,-1.4431116580963135,-0.9312374591827393
1782829387438841600,3.163841552734375,0.5498007535934448,-0.21588683128356934,-0.47737959027290344
1782829387448770600,3.1737705078125,0.4847165644168854,1.063547134399414,-0.17067956924438477
1782829387458699500,3.183699462890625,0.346171498298645,1.9788832664489746,-0.21331709623336792
1782829387468627500,3.19362744140625,0.10546275228261948,2.131192922592163,-0.5915046334266663
1782829387478556400,3.203556396484375,-0.1946610063314438,1.680935025215149,-1.085283637046814
1782829387488485600,3.213485595703125,-0.3866696059703827,1.1627975702285767,-1.3794630765914917
1782829387498414600,3.22341455078125,-0.5830504298210144,0.5909773707389832,-1.4827219247817993
1782829387508343600,3.233343505859375,-0.8850651383399963,0.10467000305652618,-1.453393578529358
1782829387518272500,3.2432724609375,-1.1561559438705444,-0.0886026918888092,-1.4455699920654297
1782829387528201500,3.253201416015625,-1.1510288715362549,-0.06636103242635727,-1.5673863887786865
1782829387538130400,3.26313037109375,-0.8854649066925049,-0.18060395121574402,-1.7716739177703857
1782829387548059400,3.273059326171875,-0.4556472897529602,-0.38175544142723083,-1.7867257595062256
1782829387557987300,3.2829873046875,-0.055063046514987946,-0.4954346716403961,-1.52437162399292
1782829387567916300,3.292916259765625,0.2569899260997772,-0.6038040518760681,-1.0308465957641602
1782829387577845500,3.302845458984375,0.4634866714477539,-0.7580875754356384,-0.4455966353416443
1782829387587774500,3.3127744140625,0.6096965670585632,-0.9372045993804932,0.09862565249204636
1782829387597703400,3.322703369140625,0.7298023700714111,-1.1308492422103882,0.493526428937912
1782829387607632400,3.33263232421875,0.7762628793716431,-1.2418838739395142,0.7153717279434204
1782829387617561600,3.3425615234375,0.7122974991798401,-1.1160922050476074,0.7296720147132874
1782829387627490600,3.352490478515625,0.5019264817237854,-0.7152464389801025,0.543219268321991
1782829387637419500,3.36241943359375,0.16870582103729248,-0.11660436540842056,0.22785329818725586
1782829387647347500,3.372347412109375,-0.2216840237379074,0.5841625332832336,-0.13959261775016785
1782829387657276400,3.3822763671875,-0.543392539024353,1.2362945079803467,-0.430208683013916
1782829387667205600,3.39220556640625,-0.6912104487419128,1.644963026046753,-0.5439781546592712
1782829387677134600,3.402134521484375,-0.6628627181053162,1.6752676963806152,-0.45053207874298096
1782829387687063600,3.4120634765625,-0.5591054558753967,1.3529306650161743,-0.2415224015712738
1782829387696992500,3.421992431640625,-0.4723806083202362,0.8905123472213745,0.004886171780526638
1782829387706921500,3.43192138671875,-0.3894345760345459,0.34533047676086426,0.24428331851959229
1782829387716850400,3.441850341796875,-0.3315287232398987,-0.38315752148628235,0.42119309306144714
1782829387726779400,3.451779296875,-0.30427366495132446,-0.9742405414581299,0.5410348176956177
1782829387736707300,3.461707275390625,-0.2256816178560257,-0.9851680994033813,0.6672595739364624
1782829387746636300,3.47163623046875,-0.15804584324359894,-0.6014949679374695,0.7241196036338806
1782829387756565500,3.4815654296875,-0.11952890455722809,-0.08936619013547897,0.6328441500663757
1782829387766494500,3.491494384765625,-0.09112842381000519,0.4656805396080017,0.45476043224334717
1782829387776423400,3.50142333984375,-0.06032587215304375,0.9417770504951477,0.285479873418808
1782829387786352400,3.511352294921875,-0.014619101770222187,1.2600334882736206,0.18160460889339447
1782829387796281600,3.521281494140625,0.01920158788561821,1.3915411233901978,0.18537670373916626
1782829387806210600,3.53121044921875,0.028983112424612045,1.3989876508712769,0.2771998345851898
1782829387816139500,3.541139404296875,0.002908012829720974,1.3870940208435059,0.4197067618370056
1782829387826067500,3.5510673828125,-0.05033789947628975,1.3356467485427856,0.5812647938728333
1782829387835996400,3.560996337890625,-0.09445624053478241,1.0145021677017212,0.7436347007751465
1782829387845925600,3.570925537109375,-0.14000535011291504,0.3485247492790222,0.8551963567733765
1782829387855854600,3.5808544921875,-0.17298465967178345,-0.3789421319961548,0.9183440208435059
1782829387865783600,3.590783447265625,-0.14799648523330688,-0.8650946617126465,0.9573947787284851
1782829387875712500,3.60071240234375,-0.10615085065364838,-0.9313292503356934,0.8847109079360962
1782829387885641500,3.610641357421875,-0.02573084458708763,-0.7449631094932556,0.8292921185493469
1782829387895570400,3.6205703125,0.11402077227830887,-0.6070103049278259,0.8272469639778137
1782829387905499400,3.63049951171875,0.26926442980766296,-0.34513261914253235,0.8077797889709473
1782829387915427300,3.64042724609375,0.4204852283000946,-0.09167809039354324,0.8253399133682251
1782829387925356300,3.650356201171875,0.5147547125816345,0.0695776417851448,0.87757807970047
1782829387935285500,3.660285400390625,0.5462787747383118,0.10293204337358475,0.968379557132721
1782829387945214500,3.67021435546875,0.5253987908363342,0.06108766049146652,1.0891832113265991
1782829387955143400,3.680143310546875,0.3947184383869171,0.001108226366341114,1.198886513710022
1782829387965072400,3.690072265625,0.18450208008289337,-0.05968029052019119,1.3058193922042847
1782829387975001600,3.700001708984375,0.005263588856905699,-0.06982389837503433,1.3987802267074585
1782829387984930600,3.7099306640625,-0.07096646726131439,-0.008696364238858223,1.4749343395233154
1782829387994859500,3.719859619140625,-0.08871885389089584,0.10828322917222977,1.5299257040023804
1782829388004787500,3.729787353515625,-0.06622472405433655,0.31561216711997986,1.5405040979385376
1782829388014717700,3.7397177734375,-0.009193423204123974,0.6126978993415833,1.4947525262832642
1782829388024646700,3.749646728515625,0.06900577247142792,0.8967328071594238,1.4056588411331177
1782829388034575600,3.75957568359375,0.16347625851631165,1.0541458129882812,1.270565152168274
1782829388044504600,3.769504638671875,0.2368069291114807,0.9455130696296692,1.124078392982483
1782829388054433800,3.779433837890625,0.2890089452266693,0.5395750403404236,0.966008722782135
1782829388064362800,3.78936279296875,0.31794923543930054,-0.013047159649431705,0.7551571726799011
1782829388074291700,3.799291748046875,0.3347044587135315,-0.4870137572288513,0.4755063056945801
1782829388084220700,3.809220703125,0.3309672474861145,-0.6196868419647217,0.1132945865392685
1782829388094150000,3.81914990234375,0.2910938262939453,-0.5323987603187561,-0.28427794575691223
1782829388104077800,3.829077880859375,0.2474145144224167,-0.5143624544143677,-0.6646875739097595
1782829388114006800,3.8390068359375,0.17133615911006927,-0.9921439290046692,-1.052702784538269
1782829388123935700,3.848935791015625,0.021749339997768402,-2.0618338584899902,-1.4765323400497437
1782829388133864700,3.85886474609375,-0.12420735508203506,-2.8678042888641357,-1.7883970737457275
1782829388143794000,3.8687939453125,-0.21182881295681,-2.6322290897369385,-1.8250008821487427
1782829388153723000,3.878722900390625,-0.24938277900218964,-1.635151743888855,-1.679153561592102
1782829388163651600,3.888651611328125,-0.2653486728668213,-0.45328664779663086,-1.4496551752090454
1782829388173580500,3.89858056640625,-0.18192851543426514,0.7795360684394836,-1.1170035600662231
1782829388183509800,3.908509765625,0.03972318023443222,2.0565738677978516,-0.7422717809677124
1782829388193437700,3.918437744140625,0.2048189789056778,2.8429884910583496,-0.6045584082603455
1782829388203366700,3.92836669921875,0.26195576786994934,2.693620443344116,-0.7751298546791077
1782829388213295600,3.938295654296875,0.23277227580547333,1.575986385345459,-1.1556601524353027
1782829388223224600,3.948224609375,0.08695807307958603,0.043521180748939514,-1.5272080898284912
1782829388233153800,3.95815380859375,-0.18605968356132507,-1.012610912322998,-1.6134251356124878
1782829388243082800,3.968082763671875,-0.3947446942329407,-1.5257279872894287,-1.435798168182373
1782829388253011700,3.97801171875,-0.36782336235046387,-1.670085072517395,-1.1906309127807617
1782829388262940700,3.987940673828125,-0.13244038820266724,-1.5240050554275513,-0.9632028341293335
1782829388272870000,3.997869873046875,0.2021581530570984,-1.1323407888412476,-0.7676228880882263
1782829388282797800,4.0077978515625,0.5234586596488953,-0.6046708822250366,-0.6338555216789246
1782829388292726800,4.017726806640625,0.7609274983406067,-0.32906782627105713,-0.6446177363395691
1782829388302655700,4.02765576171875,0.9233224987983704,-0.4036206305027008,-0.7408571839332581
1782829388312584700,4.037584716796875,0.9819329380989075,-0.6161354780197144,-0.7954152226448059
1782829388322514000,4.047513916015625,0.9024440050125122,-0.8222822546958923,-0.7518728375434875
1782829388332443000,4.05744287109375,0.7102847695350647,-0.9876860976219177,-0.6489154100418091
1782829388342371600,4.06737158203125,0.4601095914840698,-1.0331740379333496,-0.5774827599525452
1782829388352300500,4.077300537109375,0.21401751041412354,-0.9332811236381531,-0.5575860142707825
1782829388362229800,4.087229736328125,-0.012982085347175598,-0.6842076778411865,-0.5783834457397461
1782829388372158700,4.09715869140625,-0.21121594309806824,-0.31563371419906616,-0.6330410242080688
1782829388382086700,4.107086669921875,-0.3538987636566162,0.06844283640384674,-0.7010360956192017
1782829388392015600,4.117015625,-0.4361864924430847,0.35680001974105835,-0.7489714026451111
1782829388401944600,4.126944580078125,-0.4489845633506775,0.4742153286933899,-0.7510433197021484
1782829388411873800,4.136873779296875,-0.39601919054985046,0.4088800549507141,-0.7024125456809998
1782829388421802800,4.146802734375,-0.3014993369579315,0.1599240005016327,-0.6164898872375488
1782829388431731700,4.156731689453125,-0.22948990762233734,-0.23000642657279968,-0.5543547868728638
1782829388441660700,4.16666064453125,-0.15398477017879486,-0.659644365310669,-0.5589173436164856
1782829388451590000,4.17658984375,-0.03541183844208717,-0.9522860050201416,-0.5845419764518738
1782829388461518800,4.186518798828125,0.07784920930862427,-0.9997032880783081,-0.5730522871017456
1782829388471446800,4.19644677734375,0.10959099233150482,-0.7448187470436096,-0.499372661113739
1782829388481375700,4.206375732421875,0.07481090724468231,-0.3091151714324951,-0.35919877886772156
1782829388491304700,4.2163046875,0.03694935142993927,0.11234548687934875,-0.17140954732894897
1782829388501234000,4.22623388671875,-0.02098851650953293,0.5373732447624207,0.030699348077178
1782829388511163000,4.236162841796875,-0.10850177705287933,0.9190922975540161,0.2303316593170166
1782829388521091600,4.246091552734375,-0.2128758430480957,1.202860951423645,0.41894686222076416
1782829388531020500,4.2560205078125,-0.31149113178253174,1.3689062595367432,0.5757883787155151
1782829388540949800,4.26594970703125,-0.383500337600708,1.3654154539108276,0.6702730655670166
1782829388550878700,4.275878662109375,-0.40105271339416504,1.1611719131469727,0.698817253112793
1782829388560807700,4.2858076171875,-0.3641071915626526,0.7308930158615112,0.656524658203125
1782829388570735600,4.295735595703125,-0.27251753211021423,0.16522186994552612,0.5696557760238647
1782829388580664600,4.30566455078125,-0.06466208398342133,-0.25540924072265625,0.5207958221435547
1782829388590593800,4.31559375,0.14942222833633423,-0.3440755009651184,0.5485230088233948
1782829388600522800,4.325522705078125,0.21289759874343872,-0.27918919920921326,0.6452117562294006
1782829388610451700,4.33545166015625,0.212166890501976,-0.13126176595687866,0.768427312374115
1782829388620380700,4.345380615234375,0.18686872720718384,0.07286740094423294,0.8989065289497375
1782829388630310000,4.355309814453125,0.1499122977256775,0.2805544435977936,1.0222203731536865
1782829388640238800,4.36523876953125,0.14745153486728668,0.39925581216812134,1.1516499519348145
1782829388650167800,4.375167724609375,0.1585594117641449,0.4297715425491333,1.296755313873291
1782829388660096800,4.3850966796875,0.15436679124832153,0.38965103030204773,1.4439682960510254
1782829388670024700,4.395024658203125,0.10208472609519958,0.2770724892616272,1.5764695405960083
1782829388679954000,4.404953857421875,-0.005518964491784573,0.11671209335327148,1.6342822313308716
1782829388689883000,4.4148828125,-0.1670970320701599,-0.07092136889696121,1.5984106063842773
1782829388699811600,4.4248115234375,-0.35802116990089417,-0.2669398784637451,1.4617375135421753
1782829388709740500,4.434740478515625,-0.5288905501365662,-0.40722325444221497,1.2567652463912964
1782829388719669800,4.444669677734375,-0.6100365519523621,-0.4289836585521698,1.0251253843307495
1782829388729598700,4.4545986328125,-0.6150000095367432,-0.2560694217681885,0.8214884400367737
1782829388739527700,4.464527587890625,-0.5673137307167053,0.03210989385843277,0.6991193890571594
1782829388749456600,4.47445654296875,-0.5271350145339966,0.34805166721343994,0.6533335447311401
1782829388759384600,4.484384521484375,-0.5249912142753601,0.5990689992904663,0.6305989623069763
1782829388769313800,4.494313720703125,-0.5134188532829285,0.6863545179367065,0.6330903768539429
1782829388779242800,4.50424267578125,-0.4943852424621582,0.6457266807556152,0.6324091553688049
1782829388789171700,4.514171630859375,-0.482241690158844,0.48674476146698,0.5840356945991516
1782829388799100700,4.5241005859375,-0.4455678164958954,0.1839611679315567,0.5123617649078369
1782829388809030000,4.53402978515625,-0.369017094373703,-0.2862291932106018,0.3375960886478424
1782829388818958800,4.543958740234375,-0.2393224835395813,-1.0785014629364014,-0.13583911955356598
1782829388828887800,4.5538876953125,-0.055535878986120224,-1.5824580192565918,-0.7197011709213257
1782829388838816800,4.563816650390625,0.09560038149356842,-1.2294235229492188,-1.214408040046692
1782829388848745700,4.573745849609375,0.13307955861091614,-0.4774106740951538,-1.5988699197769165
1782829388858674000,4.583673828125,0.030731886625289917,0.08576375991106033,-1.8892167806625366
1782829388868603000,4.593602783203125,-0.0482088066637516,0.1532624065876007,-1.9769835472106934
1782829388878531600,4.603531494140625,0.018279673531651497,0.1525859534740448,-1.7925561666488647
1782829388888460500,4.61346044921875,0.22066394984722137,0.41473671793937683,-1.3884751796722412
1782829388898389800,4.6233896484375,0.43104326725006104,0.8422896862030029,-0.9266473054885864
1782829388908318700,4.633318603515625,0.5001595616340637,1.1233280897140503,-0.6262648105621338
1782829388918247700,4.64324755859375,0.4218596816062927,1.194272756576538,-0.5572383403778076
1782829388928176600,4.6531767578125,0.2778278887271881,1.2198079824447632,-0.6227474212646484
1782829388938105900,4.66310595703125,0.10326141119003296,1.131077766418457,-0.7582838535308838
1782829388948034800,4.673034912109375,-0.015025862492620945,0.8347341418266296,-0.8560245633125305
1782829388957962800,4.682962646484375,-0.07573927193880081,0.4147392809391022,-0.8725127577781677
1782829388967891700,4.6928916015625,-0.13394762575626373,-0.04024384170770645,-0.8757261037826538
1782829388977820700,4.702820556640625,-0.19124847650527954,-0.44432103633880615,-0.8700078129768372
1782829388987750000,4.71275,-0.19819839298725128,-0.6071926951408386,-0.8300976753234863
1782829388997678800,4.722678955078125,-0.15965767204761505,-0.5946246981620789,-0.8134776949882507
1782829389007607600,4.732607666015625,-0.058588624000549316,-0.4362303614616394,-0.8198448419570923
1782829389017536500,4.74253662109375,0.0547720268368721,-0.33041685819625854,-0.83623206615448
1782829389027465200,4.75246533203125,0.11355738341808319,-0.4423271715641022,-0.9036077260971069
1782829389037394200,4.762394287109375,0.13294945657253265,-0.7527105808258057,-1.008950114250183
1782829389047322400,4.772322265625,0.152694433927536,-1.098980188369751,-1.0752449035644531
1782829389057251300,4.782251220703125,0.1823793649673462,-1.3173452615737915,-1.0234805345535278
1782829389067180300,4.79218017578125,0.19510094821453094,-1.4009109735488892,-0.8644556403160095
1782829389077109200,4.802109130859375,0.1623576432466507,-1.3547378778457642,-0.6348730325698853
1782829389087038200,4.8120380859375,0.10608217865228653,-1.166759729385376,-0.38179486989974976
1782829389096967400,4.821967529296875,0.019462069496512413,-0.8304253220558167,-0.1522945612668991
1782829389106896400,4.831896484375,-0.11253390461206436,-0.4556483328342438,0.0222834050655365
1782829389116825300,4.841825439453125,-0.25983041524887085,-0.12444216012954712,0.12835125625133514
1782829389126754300,4.85175439453125,-0.3887959122657776,0.06378448009490967,0.1459716260433197
1782829389136683500,4.86168359375,-0.4427283704280853,-0.03127652406692505,0.11244801431894302
1782829389146611500,4.871611572265625,-0.43420860171318054,-0.375912606716156,0.04415203630924225
1782829389156540400,4.88154052734375,-0.43752849102020264,-0.7845442891120911,-0.13437668979167938
1782829389166469400,4.891469482421875,-0.4658451974391937,-1.0468710660934448,-0.41143494844436646
1782829389176398300,4.9013984375,-0.46459829807281494,-1.001854658126831,-0.6583986878395081
1782829389186327600,4.91132763671875,-0.45519858598709106,-0.5802658200263977,-0.818372905254364
1782829389196256500,4.921256591796875,-0.44492092728614807,0.056394241750240326,-0.8777353167533875
1782829389206185200,4.931185302734375,-0.43663254380226135,0.6840860843658447,-0.8345845341682434
1782829389216114200,4.9411142578125,-0.40851354598999023,1.1296470165252686,-0.6966596841812134
1782829389226043400,4.95104345703125,-0.34385964274406433,1.3104299306869507,-0.48896780610084534
1782829389235972400,4.960972412109375,-0.22390100359916687,1.2680879831314087,-0.23751746118068695
1782829389245900300,4.970900390625,-0.1085972934961319,1.0974119901657104,-0.03422071784734726
1782829389255829200,4.980829345703125,-0.040763381868600845,0.8619731068611145,0.15359444916248322
1782829389265758200,4.99075830078125,-0.02587396278977394,0.6233382225036621,0.3197673261165619
1782829389275687400,5.0006875,-0.04748445004224777,0.39667555689811707,0.48368942737579346
1782829389285616400,5.010616455078125,-0.06820166110992432,0.05917518958449364,0.6245489716529846
1782829389295545300,5.02054541015625,-0.044300857931375504,-0.437924861907959,0.6853007078170776
1782829389305474300,5.030474365234375,0.038858480751514435,-0.4526645541191101,0.6507106423377991
1782829389315403500,5.040403564453125,0.18138819932937622,-0.236998051404953,0.6333431005477905
1782829389325332500,5.05033251953125,0.3125708997249603,0.07021953165531158,0.7132234573364258
1782829389335261400,5.060261474609375,0.38603338599205017,0.30444827675819397,0.784930944442749
1782829389345189400,5.070189453125,0.420581191778183,0.3889813721179962,0.8879439830780029
1782829389355118300,5.080118408203125,0.42554718255996704,0.3744799494743347,1.0331648588180542
1782829389365047600,5.090047607421875,0.4028390347957611,0.366298109292984,1.1872822046279907
1782829389374976500,5.0999765625,0.35082751512527466,0.4370066523551941,1.3079100847244263
1782829389384905200,5.1099052734375,0.2534007728099823,0.5832640528678894,1.3750770092010498
1782829389394834200,5.119834228515625,0.12215779721736908,0.7437272667884827,1.3899132013320923
1782829389404763400,5.129763427734375,-0.011773444712162018,0.9366476535797119,1.3395663499832153
1782829389414692400,5.1396923828125,-0.09620656818151474,1.148792028427124,1.2405880689620972
1782829389424621300,5.149621337890625,-0.08665356785058975,1.2358722686767578,1.1239500045776367
1782829389434550300,5.15955029296875,0.014722855761647224,1.0981465578079224,1.0267325639724731
1782829389444478200,5.169478271484375,0.12286379933357239,0.7799263596534729,0.9571738243103027
1782829389454407400,5.179407470703125,0.19043539464473724,0.4020243287086487,0.904708743095398
1782829389464336400,5.18933642578125,0.21903033554553986,0.04565717279911041,0.9304969310760498
1782829389474265300,5.199265380859375,0.21422146260738373,-0.156856507062912,1.0259534120559692
1782829389484194300,5.2091943359375,0.17972888052463531,-0.26046234369277954,1.1352639198303223
1782829389494123500,5.21912353515625,0.15153133869171143,-0.3611213266849518,1.236757516860962
1782829389504052500,5.229052490234375,0.17518973350524902,-0.38986217975616455,1.3481266498565674
1782829389513981400,5.2389814453125,0.23796230554580688,-0.25287821888923645,1.4134560823440552
1782829389523910400,5.248910400390625,0.27781012654304504,0.028442859649658203,1.407193660736084
1782829389533839400,5.25883935546875,0.27915048599243164,0.3529069423675537,1.3427461385726929
1782829389543767600,5.268767578125,0.22996512055397034,0.6857960224151611,0.9882600903511047
1782829389553696500,5.278696533203125,0.15232625603675842,0.8226050138473511,0.3326321542263031
1782829389563625200,5.288625244140625,0.06173919513821602,0.6738052368164062,-0.5110316872596741
1782829389573554200,5.29855419921875,-0.04464557021856308,0.2889030873775482,-1.3598703145980835
1782829389583483400,5.3084833984375,-0.2110690176486969,-0.47208595275878906,-2.027495861053467
1782829389593412400,5.318412353515625,-0.3064291179180145,-1.6557906866073608,-2.2352187633514404
1782829389603341300,5.32834130859375,-0.3105655908584595,-2.5870325565338135,-1.8876423835754395
1782829389613270300,5.338270263671875,-0.2959277927875519,-2.8481593132019043,-1.2749263048171997
1782829389623199500,5.348199462890625,-0.27269598841667175,-2.4041361808776855,-0.6645665168762207
1782829389633128400,5.35812841796875,-0.16285495460033417,-1.4950584173202515,-0.22041139006614685
1782829389643056400,5.368056396484375,0.09202028065919876,-0.37754106521606445,-0.024519287049770355
1782829389652985300,5.3779853515625,0.4431058466434479,0.7205545902252197,0.017973577603697777
1782829389662914300,5.387914306640625,0.7140071988105774,1.5537703037261963,-0.033737681806087494
1782829389672843500,5.397843505859375,0.773358941078186,1.8728973865509033,-0.13825157284736633
1782829389682772500,5.4077724609375,0.6575886607170105,1.6468288898468018,-0.2922667860984802
1782829389692701400,5.417701416015625,0.3232026696205139,0.9682619571685791,-0.5435594320297241
1782829389702630400,5.42763037109375,-0.12889103591442108,0.3304664194583893,-0.8870819807052612
1782829389712559400,5.437559326171875,-0.3374333381652832,0.19366595149040222,-1.0464410781860352
1782829389722488300,5.44748828125,-0.4372808635234833,0.13249583542346954,-1.1006395816802979
1782829389732417300,5.457417236328125,-0.406181275844574,0.02922990545630455,-1.0915758609771729
1782829389742345200,5.46734521484375,-0.22969195246696472,-0.13277572393417358,-1.0162293910980225
1782829389752274200,5.477274169921875,0.00897015817463398,-0.49959367513656616,-0.9094836711883545
1782829389762203400,5.487203369140625,0.26694488525390625,-0.8992055654525757,-0.7271971702575684
1782829389772132400,5.49713232421875,0.4996021091938019,-1.1499042510986328,-0.5024875998497009
1782829389782061300,5.507061279296875,0.6315168738365173,-1.2156455516815186,-0.2867998480796814
1782829389791990300,5.516990234375,0.6468891501426697,-1.1829248666763306,-0.14666616916656494
1782829389801919500,5.52691943359375,0.5871050357818604,-1.0069074630737305,-0.11857283860445023
1782829389811848400,5.536848388671875,0.48075488209724426,-0.6320483088493347,-0.19950444996356964
1782829389821777400,5.54677734375,0.30887776613235474,-0.2180253118276596,-0.42959070205688477
1782829389831706400,5.556706298828125,0.09521448612213135,0.14290039241313934,-0.7665567994117737
1782829389841634300,5.56663427734375,-0.10692063719034195,0.5335208773612976,-1.1084634065628052
1782829389851563500,5.5765634765625,-0.2579061686992645,0.9160682559013367,-1.3353124856948853
1782829389861492500,5.586492431640625,-0.34508997201919556,1.1167283058166504,-1.4212230443954468
1782829389871421400,5.59642138671875,-0.3646375834941864,1.036137342453003,-1.39243745803833
1782829389881350400,5.606350341796875,-0.28415918350219727,0.7136181592941284,-1.2614399194717407
1782829389891279400,5.616279296875,-0.1344011276960373,0.26656633615493774,-1.0549384355545044
1782829389901208300,5.626208251953125,0.018150271847844124,-0.16198505461215973,-0.7789128422737122
1782829389911137300,5.63613720703125,0.13645987212657928,-0.4342447817325592,-0.44357025623321533
1782829389921066200,5.646066162109375,0.1877216398715973,-0.44106969237327576,-0.08278321474790573
1782829389930995500,5.655995361328125,0.1347002238035202,-0.19339145720005035,0.2557154893875122
1782829389940924400,5.66592431640625,0.014754670672118664,0.10263252258300781,0.5446199774742126
1782829389950852400,5.675852294921875,-0.13806922733783722,0.4546198546886444,0.7195609211921692
1782829389960781300,5.68578125,-0.285571813583374,0.7851272821426392,0.778731644153595
1782829389970710300,5.695710205078125,-0.42427828907966614,1.0237518548965454,0.7489026188850403
1782829389980639500,5.705639404296875,-0.5444692373275757,1.0813369750976562,0.6301130056381226
1782829389990568400,5.715568359375,-0.5888097882270813,0.8992211818695068,0.454241544008255
1782829390000497400,5.725497314453125,-0.5666835308074951,0.4851345419883728,0.27398136258125305
1782829390010425300,5.73542529296875,-0.46581020951271057,0.029411237686872482,0.15593357384204865
1782829390020354300,5.745354248046875,-0.29113122820854187,-0.15611395239830017,0.1667366921901703
1782829390030283500,5.755283447265625,-0.14592717587947845,-0.1467236578464508,0.2637873589992523
1782829390040212500,5.76521240234375,-0.008598183281719685,-0.13032694160938263,0.4080614745616913
1782829390050140400,5.775140380859375,0.15751782059669495,-0.01817724108695984,0.5305359959602356
1782829390060069400,5.7850693359375,0.3321327269077301,0.17640411853790283,0.6403542757034302
1782829390069998300,5.794998291015625,0.45871809124946594,0.35555499792099,0.7809149026870728
1782829390079927600,5.804927490234375,0.4584429860115051,0.4882284998893738,0.9407845735549927
1782829390089856500,5.8148564453125,0.3507830798625946,0.5028343200683594,1.1032856702804565
1782829390099785200,5.82478515625,0.17383244633674622,0.3002590835094452,1.2311557531356812
1782829390109714200,5.834714111328125,0.025593440979719162,0.03970205411314964,1.2976394891738892
1782829390119643400,5.844643310546875,-0.04694714397192001,-0.11751203238964081,1.2951030731201172
1782829390129572400,5.854572265625,-0.04672956466674805,-0.2019890993833542,1.2764041423797607
1782829390139501300,5.864501220703125,-0.036183979362249374,-0.2573215961456299,1.251124620437622
1782829390149429200,5.87442919921875,-0.03791876137256622,-0.27994781732559204,1.2271876335144043
1782829390159358200,5.884358154296875,-0.042505644261837006,-0.2602967619895935,1.2259550094604492
1782829390169287400,5.894287353515625,-0.0567447692155838,-0.22642002999782562,1.226565957069397
1782829390179216400,5.90421630859375,-0.09016045928001404,-0.21875187754631042,1.2108200788497925
1782829390189145300,5.914145263671875,-0.15235991775989532,-0.17889021337032318,1.1610826253890991
1782829390199074300,5.92407421875,-0.18375597894191742,-0.10618860274553299,1.0800111293792725
1782829390209003500,5.93400341796875,-0.15976889431476593,-0.020434550940990448,0.9772658944129944
1782829390218935300,5.943935302734375,-0.10939890146255493,0.08356185257434845,0.8781477808952332
1782829390228864500,5.953864501953125,-0.06774865835905075,0.19622741639614105,0.7765908241271973
1782829390238793500,5.96379345703125,-0.050086285918951035,0.23209314048290253,0.6915137767791748
1782829390248722400,5.973722412109375,-0.044563423842191696,0.12894198298454285,0.585394561290741
1782829390258651100,5.983651123046875,-0.016647949814796448,-0.07315049320459366,0.4222218096256256
1782829390268580400,5.993580322265625,0.06897320598363876,-0.1565881371498108,0.26832306385040283
1782829390278509300,6.00350927734375,0.2332683652639389,0.0620843805372715,0.1343928575515747
1782829390288437200,6.013437255859375,0.3816370666027069,0.5189147591590881,-0.05285506322979927
1782829390298366200,6.0233662109375,0.3909149169921875,0.8904932141304016,-0.32789817452430725
1782829390308295200,6.033295166015625,0.24647623300552368,0.8497008085250854,-0.6698179841041565
1782829390318224400,6.043224365234375,0.07328520715236664,0.41251567006111145,-1.0525422096252441
1782829390328153300,6.0531533203125,-0.056412070989608765,-0.025115173310041428,-1.4207817316055298
1782829390338082300,6.063082275390625,-0.1344885677099228,-0.302497923374176,-1.5612208843231201
1782829390348011300,6.07301123046875,-0.21677172183990479,-0.22624176740646362,-1.4017103910446167
1782829390357940500,6.0829404296875,-0.29954245686531067,0.21695373952388763,-0.9962970614433289
1782829390367869400,6.092869384765625,-0.35508134961128235,0.88880455493927,-0.49917173385620117
1782829390377798400,6.10279833984375,-0.2785585820674896,1.339612364768982,-0.14255011081695557
1782829390387727400,6.112727294921875,-0.03427240997552872,1.404803991317749,0.019040919840335846
1782829390397655300,6.1226552734375,0.2993345856666565,1.1927704811096191,0.022656161338090897
1782829390407584500,6.13258447265625,0.5987892150878906,0.7674330472946167,-0.09467659145593643
1782829390417513500,6.142513427734375,0.7237353324890137,0.19194628298282623,-0.27429258823394775
1782829390427442400,6.1524423828125,0.6221671104431152,-0.23743171989917755,-0.4632103145122528
1782829390437371100,6.16237109375,0.26735320687294006,-0.3962075710296631,-0.6119381785392761
1782829390447300400,6.17230029296875,-0.08022554218769073,-0.31115442514419556,-0.7029716372489929
1782829390457229300,6.182229248046875,-0.2711575925350189,0.03569354861974716,-0.8109415769577026
1782829390467158300,6.192158203125,-0.3238911032676697,0.5048647522926331,-0.907963752746582
1782829390477087200,6.202087158203125,-0.34432896971702576,0.725864827632904,-0.9865549206733704
1782829390487016400,6.212016357421875,-0.3492952287197113,0.5133083462715149,-1.050559163093567
1782829390496944400,6.2219443359375,-0.2993679344654083,-0.09070225805044174,-1.0641582012176514
1782829390506873300,6.231873291015625,-0.15272283554077148,-0.9680750370025635,-0.9317449927330017
1782829390516802300,6.24180224609375,0.05303707346320152,-1.863683819770813,-0.619317352771759
1782829390526731300,6.251731201171875,0.2454477995634079,-2.3810787200927734,-0.18406309187412262
1782829390536660500,6.261660400390625,0.36767005920410156,-2.4848930835723877,0.16179698705673218
1782829390546589400,6.27158935546875,0.39087605476379395,-2.249999523162842,0.29737797379493713
1782829390556518400,6.281518310546875,0.3188440203666687,-1.8094308376312256,0.16796384751796722
1782829390566447400,6.291447265625,0.17984777688980103,-1.258065104484558,-0.2035210281610489
1782829390576376300,6.301376220703125,0.035902950912714005,-0.6721202731132507,-0.6678197383880615
1782829390586305300,6.31130517578125,-0.07274629920721054,-0.12813742458820343,-1.0906288623809814
1782829390596234200,6.321234130859375,-0.15477456152439117,0.28264501690864563,-1.3501888513565063
1782829390606162400,6.331162353515625,-0.224813312292099,0.4284224510192871,-1.4026716947555542
1782829390616091100,6.341091064453125,-0.3018255829811096,0.34234756231307983,-1.277624249458313
1782829390626020400,6.351020263671875,-0.3671156167984009,0.10705115646123886,-1.0478004217147827
1782829390635949300,6.36094921875,-0.4062170088291168,-0.18815332651138306,-0.7546871304512024
1782829390645878300,6.370878173828125,-0.44917672872543335,-0.42853477597236633,-0.46899786591529846
1782829390655807200,6.38080712890625,-0.4720745384693146,-0.5764914155006409,-0.23106567561626434
1782829390665736400,6.390736328125,-0.44546157121658325,-0.6011304259300232,-0.09449691325426102
1782829390675665400,6.40066552734375,-0.37583082914352417,-0.4788570702075958,-0.054984286427497864
1782829390685594400,6.410594482421875,-0.29701271653175354,-0.23617225885391235,-0.06623055040836334
1782829390695523300,6.4205234375,-0.2165336012840271,0.1053982600569725,-0.0997004508972168
1782829390705452500,6.43045263671875,-0.14554890990257263,0.4658805727958679,-0.09437838941812515
1782829390715380500,6.44038037109375,-0.10169605910778046,0.7666497826576233,-0.032320089638233185
1782829390725309400,6.450309326171875,-0.10093040019273758,0.9807034730911255,0.061545416712760925
1782829390735238400,6.46023828125,-0.13790757954120636,1.0976639986038208,0.17936986684799194
1782829390745167400,6.47016748046875,-0.1804473102092743,1.089141607284546,0.2859650254249573
1782829390755096300,6.480096435546875,-0.1912851482629776,0.9190121293067932,0.3421162962913513
1782829390765025300,6.490025390625,-0.16555608808994293,0.647652804851532,0.35418441891670227
1782829390774954200,6.499954345703125,-0.13087345659732819,0.3270159959793091,0.3239603638648987
1782829390784883200,6.50988330078125,-0.06758556514978409,0.014692987315356731,0.28973689675331116
1782829390794812400,6.5198125,-0.002892792224884033,-0.1532461792230606,0.26647916436195374
1782829390804741400,6.529741455078125,0.05597371980547905,-0.12803110480308533,0.2904968857765198
1782829390814669300,6.53966943359375,0.08669262379407883,-0.020047444850206375,0.37939509749412537
1782829390824598300,6.549598388671875,0.12938229739665985,0.09003111720085144,0.5608975291252136
1782829390834527200,6.55952734375,0.1503257155418396,0.23458048701286316,0.7903233766555786
1782829390844456400,6.56945654296875,0.1367047131061554,0.40193885564804077,1.0361361503601074
1782829390854385400,6.579385498046875,0.09609854966402054,0.5525476932525635,1.2732019424438477
1782829390864314400,6.589314453125,0.0689244493842125,0.6113651990890503,1.5025546550750732
1782829390874243300,6.599243408203125,0.04710664972662926,0.5670695304870605,1.7188584804534912
1782829390884172500,6.609172607421875,0.009570727124810219,0.45194822549819946,1.8694486618041992
1782829390894101500,6.6191015625,-0.051783591508865356,0.311150461435318,1.9193984270095825
1782829390904030200,6.6290302734375,-0.11837007105350494,0.1350901871919632,1.8482065200805664
1782829390913959200,6.638959228515625,-0.19648794829845428,-0.1001548022031784,1.641589641571045
1782829390923887400,6.648887451171875,-0.2950187921524048,-0.37714967131614685,1.3091096878051758
1782829390933816300,6.65881640625,-0.3387325406074524,-0.5315544009208679,0.9930839538574219
1782829390943745300,6.668745361328125,-0.29695844650268555,-0.4063000977039337,0.8575252890586853
1782829390953674200,6.67867431640625,-0.2542775869369507,-0.1629655957221985,0.8807777762413025
1782829390963603200,6.688603271484375,-0.2215779721736908,0.05057065188884735,0.9563654661178589
1782829390973532400,6.698532470703125,-0.25105124711990356,0.13292254507541656,0.942277729511261
1782829390983461400,6.70846142578125,-0.2808016836643219,0.11262153089046478,0.8349180221557617
1782829390993390300,6.718390380859375,-0.2603257894515991,0.0785001665353775,0.640365719795227
1782829391003319300,6.7283193359375,-0.17681516706943512,-0.030385836958885193,0.4462130069732666
1782829391013252600,6.738252685546875,-0.0672338679432869,-0.17593355476856232,0.3360486328601837
1782829391023181300,6.748181396484375,0.05223020911216736,-0.2655385136604309,0.28666964173316956
1782829391033109500,6.758109619140625,0.19823241233825684,-0.20711618661880493,0.3033145070075989
1782829391043038700,6.768038818359375,0.3815993070602417,0.02934269979596138,0.2806134521961212
1782829391052967400,6.777967529296875,0.5395525693893433,0.22697488963603973,0.08684290200471878
1782829391062896400,6.787896484375,0.583518385887146,0.1594557762145996,-0.282920777797699
1782829391072825300,6.797825439453125,0.5703072547912598,-0.4624492824077606,-0.7649016976356506
1782829391082754600,6.807754638671875,0.6356891989707947,-0.9789928197860718,-1.064274549484253
1782829391092683500,6.81768359375,0.6146839261054993,-0.6099612712860107,-1.0193736553192139
1782829391102612500,6.827612548828125,0.3999100923538208,0.3265177607536316,-0.733339250087738
1782829391112541400,6.83754150390625,0.08476294577121735,1.3873025178909302,-0.3757331967353821
1782829391122470700,6.847470703125,-0.049590595066547394,2.1767935752868652,-0.11194845288991928
1782829391132398600,6.857398681640625,0.028875641524791718,2.5649850368499756,-0.008527623489499092
1782829391142327600,6.86732763671875,0.21292804181575775,2.6103503704071045,-0.037422388792037964
1782829391152256500,6.877256591796875,0.3141583204269409,2.1943488121032715,-0.254855215549469
1782829391162185500,6.887185546875,0.26846086978912354,1.3514084815979004,-0.6667202711105347
1782829391172114700,6.89711474609375,0.037108466029167175,0.37808874249458313,-1.1748391389846802
1782829391182043600,6.907043701171875,-0.3035274147987366,-0.5527973771095276,-1.6196647882461548
1782829391191972600,6.91697265625,-0.5810800790786743,-1.2476756572723389,-1.7923387289047241
1782829391201901300,6.9269013671875,-0.7063120007514954,-1.7236055135726929,-1.700771689414978
1782829391211830500,6.93683056640625,-0.6877177953720093,-1.7552951574325562,-1.412071943283081
1782829391221759500,6.946759521484375,-0.5597022771835327,-1.3314552307128906,-1.0679116249084473
1782829391231688400,6.9566884765625,-0.35507526993751526,-0.7074003219604492,-0.8499431610107422
1782829391241616400,6.966616455078125,-0.062169380486011505,-0.14818152785301208,-0.854226291179657
1782829391251545300,6.97654541015625,0.16981743276119232,0.15733107924461365,-1.0313777923583984
1782829391261474600,6.986474609375,0.302698016166687,0.33066266775131226,-1.2625627517700195
1782829391271403500,6.996403564453125,0.3140980303287506,0.3729647994041443,-1.4712767601013184
1782829391281332500,7.00633251953125,0.19137556850910187,0.30158862471580505,-1.634437918663025
1782829391291261400,7.016261474609375,0.03189392387866974,0.09430844336748123,-1.7145256996154785
1782829391301190700,7.026190673828125,-0.07492493838071823,-0.183668851852417,-1.7029774188995361
1782829391311119600,7.03611962890625,-0.11856503784656525,-0.5090530514717102,-1.635497808456421
1782829391321048600,7.046048583984375,-0.07016421854496002,-0.9092526435852051,-1.5044777393341064
1782829391330977500,7.0559775390625,0.06744188070297241,-1.3443353176116943,-1.3111342191696167
1782829391340905500,7.065905517578125,0.2724307179450989,-1.843258261680603,-1.0753743648529053
1782829391350834700,7.075834716796875,0.48776906728744507,-2.1703507900238037,-0.8385283350944519
1782829391360763600,7.085763671875,0.6264779567718506,-2.1784489154815674,-0.6236056685447693
1782829391370692600,7.095692626953125,0.6801120638847351,-1.9185805320739746,-0.4400067925453186
1782829391380621300,7.105621337890625,0.6484487056732178,-1.4478510618209839,-0.31580227613449097
1782829391390550500,7.115550537109375,0.5343626141548157,-0.8585168719291687,-0.26011547446250916
1782829391400479500,7.1254794921875,0.3743188977241516,-0.25746509432792664,-0.231888085603714
1782829391410408400,7.135408447265625,0.20299676060676575,0.24590538442134857,-0.20520435273647308
1782829391420337400,7.14533740234375,0.06121113896369934,0.5752870440483093,-0.12546691298484802
1782829391430266600,7.1552666015625,-0.04359547421336174,0.6810067892074585,0.028322214260697365
1782829391440195600,7.165195556640625,-0.11806491017341614,0.5968043208122253,0.2563588321208954
1782829391450123500,7.17512353515625,-0.15934890508651733,0.4315829873085022,0.534150242805481
1782829391460052500,7.185052490234375,-0.16361849009990692,0.2647809386253357,0.822628915309906
1782829391469981400,7.1949814453125,-0.2256123423576355,0.19688943028450012,1.0009093284606934
1782829391479910700,7.20491064453125,-0.2990322411060333,0.2787238657474518,1.0436134338378906
1782829391489839600,7.214839599609375,-0.33946844935417175,0.46998926997184753,0.9301185607910156
1782829391499768600,7.2247685546875,-0.3031812906265259,0.7203983068466187,0.7121124863624573
1782829391509697500,7.234697509765625,-0.16019169986248016,0.9408267140388489,0.5013226866722107
1782829391519626500,7.24462646484375,0.032227013260126114,1.0942312479019165,0.3883340358734131
1782829391529555500,7.254555419921875,0.1927216798067093,1.0971920490264893,0.3932553231716156
1782829391539484400,7.264484375,0.29434046149253845,0.9933279752731323,0.5159119963645935
1782829391549413400,7.274413330078125,0.357882559299469,0.8070351481437683,0.7193121314048767
1782829391559341300,7.28434130859375,0.4154622256755829,0.4526142477989197,0.9835421442985535
1782829391569270500,7.2942705078125,0.4083872437477112,0.031983159482479095,1.2252888679504395
1782829391579199500,7.304199462890625,0.30088821053504944,-0.2023973912000656,1.3777689933776855
1782829391589128400,7.31412841796875,0.19596731662750244,-0.305715948343277,1.4387675523757935
1782829391599057400,7.324057373046875,0.1333601325750351,-0.2805892825126648,1.3927127122879028
1782829391608986600,7.333986572265625,0.1360958218574524,-0.17956671118736267,1.2941087484359741
1782829391618915600,7.34391552734375,0.16947774589061737,-0.05849568173289299,1.198674201965332
1782829391628844500,7.353844482421875,0.23478937149047852,0.05691639333963394,1.1239269971847534
1782829391638773500,7.3637734375,0.2846440374851227,0.1524043083190918,1.1076704263687134
1782829391648702700,7.37370263671875,0.3037703335285187,0.2543017268180847,1.1331382989883423
1782829391658631700,7.383631591796875,0.2562409043312073,0.3577018976211548,1.1602668762207031
1782829391668559600,7.3935595703125,0.18338246643543243,0.39280927181243896,1.2021634578704834
1782829391678488600,7.403488525390625,0.1059449315071106,0.31205451488494873,1.2478207349777222
1782829391688417500,7.41341748046875,0.030563533306121826,0.12492820620536804,1.2618904113769531
1782829391698346500,7.423346435546875,-0.025413449853658676,-0.10146871954202652,1.231106162071228
1782829391708275500,7.433275390625,-0.013926631771028042,-0.29788461327552795,1.1551965475082397
1782829391718204400,7.443204345703125,0.05747884139418602,-0.4648325741291046,1.056541085243225
1782829391728133400,7.45313330078125,0.16661034524440765,-0.5689211487770081,0.9696313738822937
1782829391738062600,7.4630625,0.26400989294052124,-0.5168060064315796,0.8938646912574768
1782829391747991600,7.472991455078125,0.35750812292099,-0.3891329765319824,0.8388400673866272
1782829391757920500,7.48292041015625,0.48905521631240845,-0.2325950413942337,0.8655678033828735
1782829391767849500,7.492849365234375,0.6064935326576233,-0.02641158364713192,0.9812220335006714
1782829391777777400,7.50277734375,0.6931501626968384,0.22738367319107056,1.1513391733169556
1782829391787706600,7.51270654296875,0.780283510684967,0.5112423300743103,1.3215618133544922
1782829391797635600,7.522635498046875,0.7844031453132629,0.76507967710495,1.2926806211471558
1782829391807564500,7.532564453125,0.6438944935798645,0.9066162109375,1.01943039894104
1782829391817493500,7.542493408203125,0.30154940485954285,0.8000224232673645,0.4123036861419678
1782829391827422700,7.552422607421875,-0.2271512746810913,0.25892630219459534,-0.48176851868629456
1782829391837351700,7.5623515625,-0.6849715113639832,-0.8993990421295166,-1.3804564476013184
1782829391847280400,7.5722802734375,-0.8812727332115173,-2.0556223392486572,-1.944355845451355
1782829391857209300,7.582209228515625,-1.0224478244781494,-2.635162353515625,-2.114858388900757
1782829391867138600,7.592138671875,-1.1661877632141113,-2.559269666671753,-1.9803142547607422
1782829391877067500,7.602067626953125,-1.2182594537734985,-1.6359515190124512,-1.6989834308624268
1782829391886995500,7.611995361328125,-1.11827552318573,0.02749698981642723,-1.4827080965042114
1782829391896924400,7.62192431640625,-0.8863621950149536,1.684548258781433,-1.4128137826919556
1782829391906853400,7.631853271484375,-0.6064152121543884,2.6227355003356934,-1.4685287475585938
1782829391916782600,7.641782470703125,-0.3396809995174408,2.659966468811035,-1.5074496269226074
1782829391926711600,7.651711669921875,-0.24072381854057312,1.9996333122253418,-1.4835050106048584
1782829391936640500,7.661640625,-0.3374250531196594,1.1773055791854858,-1.3397341966629028
1782829391946569500,7.671569580078125,-0.630342960357666,0.6402239799499512,-1.0774203538894653
1782829391956498700,7.681498779296875,-1.0005220174789429,0.2458716183900833,-0.8271549940109253
1782829391966427600,7.691427734375,-1.1299268007278442,-0.29230475425720215,-0.7198538184165955
1782829391976356600,7.701356689453125,-0.981188178062439,-0.8396586775779724,-0.6199018955230713
1782829391986285600,7.71128564453125,-0.7097043991088867,-1.18425452709198,-0.4084662199020386
1782829391996213500,7.721213623046875,-0.40103790163993835,-1.3808482885360718,-0.1693260818719864
1782829392006142700,7.731142822265625,-0.07232215255498886,-1.406954050064087,-0.0015787919983267784
1782829392016067600,7.741067626953125,0.20815397799015045,-1.3647626638412476,0.027478158473968506
1782829392025996500,7.75099658203125,0.3991245627403259,-1.3532590866088867,-0.11482446640729904
1782829392035925500,7.760925537109375,0.5067743062973022,-1.350370168685913,-0.3284491300582886
1782829392045854500,7.7708544921875,0.5229290723800659,-1.3022925853729248,-0.504227340221405
1782829392055783400,7.780783447265625,0.39918234944343567,-1.1019110679626465,-0.5793958306312561
1782829392065712400,7.79071240234375,0.16798146069049835,-0.7611889839172363,-0.593771755695343
1782829392075641600,7.8006416015625,-0.07465621083974838,-0.38443025946617126,-0.6199705600738525
1782829392085570600,7.810570556640625,-0.23403798043727875,-0.1150788888335228,-0.6342076659202576
1782829392095499500,7.82049951171875,-0.2672968804836273,0.010069978423416615,-0.611009955406189
1782829392105427500,7.830427490234375,-0.22956112027168274,-0.007894891314208508,-0.5640324354171753
1782829392115356400,7.8403564453125,-0.20515431463718414,-0.09025660902261734,-0.5017272233963013
1782829392125285600,7.85028564453125,-0.21851710975170135,-0.11869017779827118,-0.4743291437625885
1782829392135214600,7.860214599609375,-0.24077235162258148,-0.06131104379892349,-0.49883076548576355
1782829392145143600,7.8701435546875,-0.2514289617538452,-0.01979702338576317,-0.5773507952690125
1782829392155072500,7.880072509765625,-0.25637951493263245,-0.060277871787548065,-0.6727651953697205
1782829392165001700,7.890001708984375,-0.24584434926509857,-0.09404488652944565,-0.7383986711502075
1782829392174930700,7.8999306640625,-0.22554229199886322,-0.053175486624240875,-0.7102760076522827
1782829392184859400,7.909859375,-0.2119169980287552,0.08286255598068237,-0.576340913772583
1782829392194788400,7.919788330078125,-0.21258758008480072,0.26976239681243896,-0.3568258285522461
1782829392204717600,7.929717529296875,-0.2417854517698288,0.433440238237381,-0.09898170828819275
1782829392214645500,7.9396455078125,-0.2801932692527771,0.5766195058822632,0.17992901802062988
1782829392224574500,7.949574462890625,-0.339190810918808,0.7470282912254333,0.4206542670726776
1782829392234503400,7.95950341796875,-0.4393831789493561,0.8954148292541504,0.5762736797332764
1782829392244432400,7.969432373046875,-0.5400738716125488,0.9426276683807373,0.6053638458251953
1782829392254361600,7.979361572265625,-0.5906174778938293,0.7963466048240662,0.5126141905784607
1782829392264290600,7.98929052734375,-0.5898450016975403,0.469059020280838,0.30375415086746216
1782829392274219500,7.999219482421875,-0.5116615295410156,0.14509479701519012,0.02600483037531376
1782829392284148500,8.0091484375,-0.3122206926345825,-0.029160909354686737,-0.1973700225353241
1782829392294077700,8.01907763671875,-0.08261386305093765,-0.0702151358127594,-0.3056246042251587
1782829392304006700,8.029006591796875,0.02015150710940361,-0.066167451441288,-0.2985713481903076
1782829392313935600,8.038935546875,0.06411150842905045,-0.025685006752610207,-0.16442124545574188
1782829392323863600,8.048863525390624,0.1019686907529831,0.048450373113155365,0.07202751934528351
1782829392333792500,8.05879248046875,0.13469813764095306,0.14328765869140625,0.36605143547058105
1782829392343721700,8.0687216796875,0.16313332319259644,0.2531234920024872,0.6759755611419678
1782829392353650700,8.078650634765625,0.15620377659797668,0.37949448823928833,0.983193576335907
1782829392363579400,8.088579345703126,0.11124714463949203,0.47586849331855774,1.2736433744430542
1782829392373508400,8.09850830078125,-0.015668455511331558,0.5401728749275208,1.4321211576461792
1782829392383437600,8.1084375,-0.19314619898796082,0.486165314912796,1.465196967124939
1782829392393366500,8.118366455078124,-0.37505635619163513,0.3296588063240051,1.3448641300201416
1782829392403295500,8.12829541015625,-0.4972533881664276,0.1520376205444336,1.085094928741455
1782829392413224400,8.138224365234375,-0.497463196516037,0.029109302908182144,0.7601119875907898
1782829392423153700,8.148153564453125,-0.3552296757698059,0.002881040796637535,0.5128397345542908
1782829392433081600,8.15808154296875,-0.20410165190696716,0.15346255898475647,0.3732261657714844
1782829392443010600,8.168010498046876,-0.09575779736042023,0.37089648842811584,0.3650099039077759
1782829392452939500,8.177939453125,-0.024974703788757324,0.5398373007774353,0.492136687040329
1782829392462868500,8.187868408203125,-0.0016543436795473099,0.6226819157600403,0.7183956503868103
1782829392472797700,8.197797607421874,-0.01807858981192112,0.5929021835327148,0.9614290595054626
1782829392482726700,8.2077265625,-0.03131415322422981,0.38113924860954285,1.1129260063171387
1782829392492655600,8.217655517578125,0.011419463902711868,0.10791117697954178,1.137848138809204
1782829392502584600,8.22758447265625,0.07795968651771545,-0.2439391165971756,1.0604548454284668
1782829392512513500,8.237513427734376,0.18358305096626282,-0.6456218361854553,0.8752543330192566
1782829392522442500,8.2474423828125,0.37537476420402527,-0.8247227668762207,0.5397455096244812
1782829392532371500,8.257371337890625,0.6293311715126038,-0.7567999362945557,0.07206010073423386
1782829392542299400,8.26729931640625,0.804977297782898,-0.6106770634651184,-0.46951261162757874
1782829392552228400,8.277228271484375,0.8815032243728638,-0.6437231302261353,-0.960415244102478
1782829392562157600,8.287157470703125,0.8275743722915649,-0.9916911125183105,-1.3411083221435547
1782829392572086500,8.29708642578125,0.6909555792808533,-1.3257135152816772,-1.4721834659576416
1782829392582015500,8.307015380859376,0.5391202569007874,-1.1164127588272095,-1.2328733205795288
1782829392591944400,8.3169443359375,0.3810608685016632,-0.48228028416633606,-0.7367638945579529
1782829392601873700,8.326873779296875,0.19780559837818146,0.3106555938720703,-0.3048902750015259
1782829392611802600,8.336802734375,0.06926892697811127,0.9425150752067566,-0.1433224231004715
1782829392621731600,8.346731689453126,0.015876518562436104,1.2079272270202637,-0.23787614703178406
1782829392631660500,8.35666064453125,0.010896673426032066,1.1629105806350708,-0.4535849690437317
1782829392641589500,8.366589599609375,0.03246498480439186,0.9878768920898438,-0.6338462829589844
1782829392651517700,8.376517578125,0.03425808995962143,0.7678167223930359,-0.6886439919471741
1782829392661446700,8.38644677734375,-0.006312450394034386,0.6071709394454956,-0.6012009382247925
1782829392671375600,8.396375732421875,-0.002029821276664734,0.6448147296905518,-0.4174332320690155
1782829392681304600,8.4063046875,0.042798060923814774,0.6679073572158813,-0.2585448920726776
1782829392691233500,8.416233642578124,0.07942292094230652,0.3873542547225952,-0.22327931225299835
1782829392701162500,8.42616259765625,0.07285413146018982,-0.06326567381620407,-0.2892782390117645
1782829392711091500,8.436091552734375,0.05885842442512512,-0.5627383589744568,-0.40675559639930725
1782829392721020400,8.4460205078125,0.1000831201672554,-0.8262544274330139,-0.48288747668266296
1782829392730949600,8.45594970703125,0.12592138350009918,-0.7820296883583069,-0.5419361591339111
1782829392740878600,8.465878662109375,0.10391385108232498,-0.5585563778877258,-0.6418084502220154
1782829392750807600,8.4758076171875,0.034794434905052185,-0.2696036994457245,-0.7746831178665161
1782829392760735500,8.485735595703124,-0.03543877229094505,-0.1638592630624771,-0.9225853085517883
1782829392770664400,8.49566455078125,-0.07426313310861588,-0.27041155099868774,-0.9885289072990417
1782829392780593700,8.50559375,-0.10843660682439804,-0.42086151242256165,-0.9274495244026184
1782829392790522600,8.515522705078125,-0.09270105510950089,-0.47507309913635254,-0.7719725966453552
1782829392800451600,8.52545166015625,-0.01820678636431694,-0.543051540851593,-0.6361210346221924
1782829392810380500,8.535380615234375,0.0704791396856308,-0.762786865234375,-0.5697388648986816
1782829392820309800,8.545309814453125,0.10348261892795563,-1.0225064754486084,-0.5529822111129761
1782829392830238500,8.555238525390624,0.0771130695939064,-1.219246506690979,-0.5796961188316345
1782829392840167400,8.56516748046875,0.05911834537982941,-1.226591944694519,-0.5754165053367615
1782829392850096400,8.575096435546875,0.06597625464200974,-1.1262656450271606,-0.5176533460617065
1782829392860025300,8.585025390625,0.0653032585978508,-1.025364637374878,-0.4283955693244934
1782829392869953500,8.59495361328125,0.030790552496910095,-0.874647855758667,-0.37381964921951294
1782829392879882500,8.604882568359375,-0.09643755108118057,-0.5941852927207947,-0.39200642704963684
1782829392889811500,8.6148115234375,-0.2581326961517334,-0.28104305267333984,-0.4168369472026825
1782829392899740400,8.624740478515625,-0.378778338432312,-0.10344468057155609,-0.35026535391807556
1782829392909669600,8.634669677734376,-0.4806072413921356,-0.03846248611807823,-0.24086244404315948
1782829392919598600,8.6445986328125,-0.5511739253997803,-0.051730453968048096,-0.09857611358165741
1782829392929527600,8.654527587890625,-0.5410016775131226,-0.0804787427186966,0.0638229176402092
1782829392939456500,8.66445654296875,-0.47297561168670654,-0.08931153267621994,0.22278113663196564
1782829392949385500,8.674385498046876,-0.3666718006134033,-0.06736601889133453,0.38661080598831177
1782829392959314700,8.684314697265625,-0.2310555875301361,-0.04149377718567848,0.5677465796470642
1782829392969243600,8.69424365234375,-0.07599356770515442,0.035015907138586044,0.7572422027587891
1782829392979171600,8.704171630859374,0.026128578931093216,0.24944795668125153,0.9105318188667297
1782829392989100500,8.7141005859375,0.026651091873645782,0.5743906497955322,1.008540153503418
1782829392999029800,8.72402978515625,-0.05968238413333893,0.9539692401885986,1.021289587020874
1782829393008959200,8.733959228515625,-0.16605062782764435,1.2197242975234985,0.9285239577293396
1782829393018888200,8.74388818359375,-0.22134704887866974,1.308708667755127,0.760496973991394
1782829393028817200,8.753817138671875,-0.2238357663154602,1.2581334114074707,0.5922925472259521
1782829393038746000,8.76374609375,-0.15052548050880432,1.098183035850525,0.49099859595298767
1782829393048675300,8.77367529296875,-0.025829888880252838,0.8588287234306335,0.45374125242233276
1782829393058604300,8.783604248046874,0.10368715226650238,0.5299845337867737,0.47998714447021484
1782829393068533200,8.793533203125,0.2123102992773056,0.1450355350971222,0.5643566250801086
1782829393078462200,8.803462158203125,0.29393213987350464,-0.15970122814178467,0.6884594559669495
1782829393088390100,8.81339013671875,0.35666128993034363,-0.3865402638912201,0.8329479098320007
1782829393098319400,8.8233193359375,0.39407438039779663,-0.4176762104034424,0.9706769585609436
1782829393108248300,8.833248291015625,0.44538256525993347,-0.2824147939682007,1.089073657989502
1782829393118177300,8.84317724609375,0.5179840922355652,-0.11387163400650024,1.201435923576355
1782829393128106200,8.853106201171874,0.5841873288154602,0.06837379932403564,1.2937743663787842
1782829393138035200,8.86303515625,0.5944345593452454,0.25835832953453064,1.3700741529464722
1782829393147964200,8.872964111328125,0.5854424238204956,0.4465508460998535,1.4161380529403687
1782829393157893000,8.88289306640625,0.5715000033378601,0.6152973771095276,1.4277786016464233
1782829393167822000,8.892822021484376,0.5582273006439209,0.7115163207054138,1.417891025543213
1782829393177751300,8.902751220703125,0.532855212688446,0.7630521655082703,1.3933144807815552
1782829393187680300,8.91268017578125,0.5055676698684692,0.770103931427002,1.3753929138183594
1782829393197609200,8.922609130859374,0.4649123549461365,0.7135823369026184,1.3495228290557861
1782829393207537200,8.932537109375,0.37617769837379456,0.5006828308105469,1.3062052726745605
1782829393217466000,8.942466064453125,0.2501842975616455,0.14876922965049744,1.2180488109588623
1782829393227395300,8.952395263671875,0.10744604468345642,-0.25996100902557373,1.0457905530929565
1782829393237324300,8.96232421875,0.011932571418583393,-0.5577256083488464,0.8516199588775635
1782829393247253200,8.972253173828125,-0.02170608378946781,-0.7107495069503784,0.6719042658805847
1782829393257182200,8.98218212890625,0.04075408726930618,-0.7022700905799866,0.50477135181427
1782829393267111400,8.992111328125,0.16395483911037445,-0.5969021320343018,0.43900009989738464
1782829393277040000,9.0020400390625,0.3259443938732147,-0.3954387307167053,0.4940105080604553
1782829393286969000,9.011968994140625,0.44909483194351196,0.03617633134126663,0.6446021199226379
1782829393296898000,9.02189794921875,0.4655630886554718,0.7106866836547852,0.8050914406776428
1782829393306827300,9.0318271484375,0.3482244908809662,1.3685619831085205,0.8197084665298462
1782829393316755200,9.041755126953126,0.09955717623233795,1.7445051670074463,0.6123257875442505
1782829393326684200,9.05168408203125,-0.23803870379924774,1.3307963609695435,0.11591686308383942
1782829393336613000,9.061613037109375,-0.5655275583267212,0.16693077981472015,-0.6587992310523987
1782829393346542000,9.0715419921875,-0.7482497096061707,-0.7701975107192993,-1.3911120891571045
1782829393356471300,9.08147119140625,-0.8635888695716858,-1.1006790399551392,-1.8790026903152466
1782829393366400300,9.091400146484375,-0.9890854954719543,-1.0770176649093628,-2.1046056747436523
1782829393376329200,9.1013291015625,-1.0500013828277588,-0.7116442322731018,-2.0697073936462402
1782829393386258200,9.111258056640626,-1.0403639078140259,0.02177007868885994,-1.8031693696975708
1782829393396187400,9.1211875,-0.991558313369751,0.8729706406593323,-1.3525984287261963
1782829393406116400,9.131116455078125,-0.9361342191696167,1.3744902610778809,-0.960652768611908
1782829393416045300,9.14104541015625,-0.8750451803207397,1.3492144346237183,-0.7829435467720032
1782829393425973200,9.15097314453125,-0.8533568978309631,1.069811463356018,-0.8401599526405334
1782829393435902200,9.160902099609375,-0.8680737614631653,0.741690456867218,-1.0550189018249512
1782829393445831400,9.17083154296875,-0.9107666015625,0.536743700504303,-1.357280969619751
1782829393455760100,9.180760009765624,-1.004351258277893,0.43343567848205566,-1.6939122676849365
1782829393465689000,9.190689208984375,-1.1577805280685425,0.25586992502212524,-1.9868602752685547
1782829393475618000,9.2006181640625,-1.248047113418579,-0.07261425256729126,-2.093691349029541
1782829393485547300,9.21054736328125,-1.2113641500473022,-0.3976948857307434,-1.9978114366531372
1782829393495476200,9.220476318359376,-1.0188499689102173,-0.7105564475059509,-1.695439100265503
1782829393505405200,9.2304052734375,-0.7540422677993774,-0.8379713892936707,-1.2063519954681396
1782829393515334100,9.240334228515625,-0.4735701084136963,-0.81008380651474,-0.6621809005737305
1782829393525263400,9.250263427734374,-0.20594345033168793,-0.865886926651001,-0.19830326735973358
1782829393535191300,9.26019140625,0.06868983060121536,-1.0920974016189575,0.11163803935050964
1782829393545120300,9.270120361328125,0.1828393042087555,-1.216245174407959,0.14105531573295593
1782829393555049200,9.28004931640625,0.0573728121817112,-1.096805214881897,-0.20906667411327362
1782829393564978200,9.289978271484374,-0.16491085290908813,-0.8461045622825623,-0.8478183746337891
1782829393574907400,9.299907470703126,-0.3497456908226013,-0.42960095405578613,-1.4695162773132324
1782829393584836400,9.30983642578125,-0.4764159917831421,-0.1743049919605255,-1.795629620552063
1782829393594765300,9.319765380859375,-0.4833226501941681,-0.247662752866745,-1.7446221113204956
1782829393604690400,9.3296904296875,-0.37532854080200195,-0.6148087978363037,-1.400001049041748
1782829393614619100,9.339619140625,-0.14997607469558716,-1.2386844158172607,-0.8823941349983215
1782829393624548000,9.349548095703126,0.18414518237113953,-1.8490114212036133,-0.2729584574699402
1782829393634477000,9.35947705078125,0.4961392879486084,-2.1982522010803223,0.3269563913345337
1782829393644406300,9.36940625,0.678314208984375,-2.221586227416992,0.8073381781578064
1782829393654335200,9.379335205078124,0.7188765406608582,-2.0258405208587646,1.0505406856536865
1782829393664264200,9.38926416015625,0.6925069689750671,-1.7260570526123047,1.0772870779037476
1782829393674193200,9.399193115234375,0.6173487305641174,-1.3491451740264893,0.88130784034729
1782829393684122400,9.409122314453125,0.4765695333480835,-0.9568430781364441,0.5034287571907043
1782829393694051300,9.41905126953125,0.30206820368766785,-0.5005619525909424,0.09628550708293915
1782829393703980300,9.428980224609376,0.09871907532215118,0.0581120029091835,-0.18581728637218475
1782829393713909200,9.4389091796875,-0.13196387887001038,0.5821566581726074,-0.314659982919693
1782829393723837200,9.448837158203125,-0.3348994255065918,0.9736567735671997,-0.30362436175346375
1782829393733766400,9.458766357421876,-0.4662850499153137,1.2036261558532715,-0.17471012473106384
1782829393743695400,9.4686953125,-0.49249640107154846,1.257663607597351,0.0485897921025753
1782829393753624300,9.478624267578125,-0.4273562431335449,1.1528186798095703,0.3114694356918335
1782829393763553000,9.488552978515624,-0.31227144598960876,1.002055048942566,0.5835949778556824
1782829393773482200,9.498482177734376,-0.19020789861679077,0.8708650469779968,0.8389258980751038
1782829393783411200,9.5084111328125,-0.13687117397785187,0.7667897939682007,1.0073401927947998
1782829393793340200,9.518340087890625,-0.12886908650398254,0.5756473541259766,1.0836349725723267
1782829393803269000,9.52826904296875,-0.10583194345235825,0.3356696367263794,1.0746703147888184
1782829393813198300,9.5381982421875,-0.05378356948494911,0.11805245280265808,1.0011699199676514
1782829393823127300,9.548127197265625,-0.01839149370789528,-0.01348959095776081,0.8862086534500122
1782829393833055200,9.55805517578125,-0.011817965656518936,-0.045668117702007294,0.7539588809013367
1782829393842984200,9.567984130859376,-0.02623392455279827,-0.048921167850494385,0.661066472530365
1782829393852913200,9.5779130859375,-0.039922524243593216,-0.04151926562190056,0.6541716456413269
1782829393862842400,9.58784228515625,-0.07310018688440323,-0.00891205295920372,0.7426482439041138
1782829393872771300,9.597771240234374,-0.1345660537481308,0.02813948318362236,0.8984718918800354
1782829393882700300,9.6077001953125,-0.2033243477344513,0.08579426258802414,1.092387318611145
1782829393892629200,9.617629150390625,-0.25140583515167236,0.20099613070487976,1.3215100765228271
1782829393902558200,9.62755810546875,-0.26822715997695923,0.35371828079223633,1.5338119268417358
1782829393912487200,9.637487060546874,-0.24870193004608154,0.5277540683746338,1.6278589963912964
1782829393922416000,9.647416015625,-0.24030178785324097,0.7008659243583679,1.5665758848190308
1782829393932345000,9.657344970703125,-0.2479902058839798,0.8190612196922302,1.4016239643096924
1782829393942273000,9.66727294921875,-0.2608471214771271,0.8379808068275452,1.187374472618103
1782829393952202200,9.6772021484375,-0.29238447546958923,0.7715200781822205,0.9478572607040405
1782829393962131200,9.687131103515625,-0.30006635189056396,0.6646876931190491,0.7482179403305054
1782829393972060200,9.69706005859375,-0.27880188822746277,0.5437286496162415,0.6434827446937561
1782829393981989000,9.706989013671874,-0.23266343772411346,0.46324047446250916,0.6054674386978149
1782829393991918300,9.71691845703125,-0.16195030510425568,0.383989155292511,0.5938129425048828
1782829394001847300,9.726847412109375,-0.05643772333860397,0.2866269052028656,0.5878519415855408
1782829394011776300,9.7367763671875,0.05491712689399719,0.15460897982120514,0.6345077753067017
1782829394021706000,9.7467060546875,0.14837944507598877,0.07121075689792633,0.7791703939437866
1782829394031634700,9.756634765625,0.3205692768096924,0.2299174666404724,1.0291253328323364
1782829394041564000,9.76656396484375,0.5259567499160767,0.5525432229042053,1.2386654615402222
1782829394051492900,9.776492919921875,0.6019520163536072,0.7582863569259644,1.200846791267395
1782829394061420800,9.7864208984375,0.548844575881958,0.5229007601737976,0.8026660680770874
1782829394071349800,9.796349853515625,0.3698417544364929,-0.5509546399116516,-0.06022205948829651
1782829394081278700,9.80627880859375,0.11597590148448944,-1.8609849214553833,-1.2013826370239258
1782829394091208000,9.8162080078125,0.013576558791100979,-2.5644490718841553,-2.088517189025879
1782829394101137000,9.826136962890626,-0.07060623168945312,-2.5167646408081055,-2.5236377716064453
1782829394111065900,9.83606591796875,-0.18576937913894653,-2.0461881160736084,-2.4917526245117188
1782829394120994800,9.845994873046875,-0.3691543936729431,-1.2290151119232178,-2.1202964782714844
1782829394130924000,9.855924072265625,-0.5412024855613708,-0.06869067251682281,-1.5410020351409912
1782829394140853000,9.86585302734375,-0.535891592502594,1.3612092733383179,-0.871562659740448
1782829394150782000,9.875781982421875,-0.3977755308151245,2.563861131668091,-0.38060474395751953
1782829394160711000,9.8857109375,-0.3399023711681366,2.8307294845581055,-0.19953934848308563
1782829394170638800,9.895638916015624,-0.30126383900642395,2.6041457653045654,-0.21577413380146027
1782829394180568000,9.905568115234376,-0.3092155158519745,2.321458339691162,-0.3043444752693176
1782829394190497000,9.9154970703125,-0.36651748418807983,1.9476152658462524,-0.44333577156066895
1782829394200426000,9.925426025390625,-0.4443912208080292,1.314324140548706,-0.6105066537857056
1782829394210354700,9.935354736328126,-0.47985926270484924,0.5455727577209473,-0.7132244110107422
1782829394220284000,9.945283935546875,-0.476853609085083,0.01573341339826584,-0.7176854610443115
1782829394230212900,9.955212890625,-0.4034673869609833,-0.3388795554637909,-0.692995011806488
1782829394240141800,9.965141845703124,-0.26685839891433716,-0.5734845995903015,-0.6128280162811279
1782829394250073900,9.975073974609375,-0.10236690938472748,-0.6549594402313232,-0.4632648229598999
1782829394260002800,9.9850029296875,0.033222079277038574,-0.6615062952041626,-0.2512702941894531
1782829394269931800,9.994931884765625,0.1327824741601944,-0.6319530010223389,-0.0585685558617115
1782829394279861000,10.004861083984375,0.20580367743968964,-0.6559978723526001,0.0029587214812636375
1782829394289790000,10.0147900390625,0.2399858832359314,-0.6884498000144958,-0.07007256895303726
1782829394299719000,10.024718994140626,0.1850762963294983,-0.6535847187042236,-0.25419285893440247
1782829394309648000,10.03464794921875,0.062014371156692505,-0.45460283756256104,-0.504179060459137
1782829394319575800,10.044575927734375,-0.04379993677139282,-0.11286257207393646,-0.7349664568901062
1782829394329505000,10.054505126953124,-0.08187676966190338,0.27170228958129883,-0.8493220806121826
1782829394339434000,10.06443408203125,-0.028842579573392868,0.5613426566123962,-0.7885050773620605
1782829394349363000,10.074363037109375,0.07915093749761581,0.6042423844337463,-0.6087509989738464
1782829394359292000,10.0842919921875,0.23805749416351318,0.42309361696243286,-0.3839314579963684
1782829394369220900,10.094220947265624,0.44440293312072754,0.12085609138011932,-0.16536793112754822
1782829394379149800,10.10414990234375,0.689810574054718,-0.3665074408054352,0.04601755738258362
1782829394389078800,10.114078857421875,0.8747488260269165,-0.8734784126281738,0.278066486120224
1782829394399007700,10.1240078125,0.8379849195480347,-1.051670789718628,0.4219682514667511
1782829394408937000,10.13393701171875,0.5020946860313416,-0.6193394064903259,0.5413280725479126
1782829394418866000,10.143865966796875,-0.0515858493745327,-0.3548979163169861,0.34062907099723816
1782829394428793900,10.1537939453125,-0.5025544762611389,-0.471004843711853,-0.19770042598247528
1782829394438722800,10.163722900390624,-0.7745630741119385,-0.6325988173484802,-0.8797045350074768
1782829394448651800,10.17365185546875,-0.8192017674446106,-0.7133979201316833,-1.3399784564971924
1782829394458581000,10.1835810546875,-0.6597875952720642,-0.41117146611213684,-1.3356752395629883
1782829394468510000,10.193510009765625,-0.4236820340156555,-0.024810869246721268,-1.0224674940109253
1782829394478439000,10.20343896484375,-0.24119052290916443,0.0493890605866909,-0.6578203439712524
1782829394488367900,10.213367919921875,-0.05455245077610016,-0.03937191516160965,-0.21772974729537964
1782829394498297000,10.223297119140625,0.10185766220092773,-0.0683489739894867,0.3037773668766022
1782829394508225800,10.233225830078124,0.23691248893737793,0.004316219128668308,0.7926250696182251
1782829394518154800,10.24315478515625,0.29991862177848816,0.1624470055103302,1.1982910633087158
